timestamp,club,max_speed,tempo,speed,l.speed,t.spped,acc,rotation.x,rotation.y,rotation.z,userAcceleration.x,userAcceleration.y,userAcceleration.z,pitch,roll,yaw,gravity.x,gravity.y,gravity.z
1728067727136,7i,9.84622149988147,0.9s : 0.3s,0.025858429064673137,0.0006121116843843832,0.025851183202680927,0.01609173644548707,0.00787252839654684,-0.0031166994012892246,-0.0029826434329152107,0.003157496452331543,-0.014642804861068726,-0.0058789849281311035,-0.2675328949060954,1.3926258834058807,0.22406034341274986,0.9491588473320007,0.2643529176712036,-0.17092454433441162
1728067727146,7i,9.84622149988147,0.9s : 0.3s,0.020567366499551102,0.001155395753631819,0.020534888005035397,0.01670096326782093,0.008230323903262615,-0.008984042331576347,-0.0027282782830297947,0.005146980285644531,-0.014821499586105347,-0.005723103880882263,-0.26746500971379167,1.3925775325292615,0.22398470918836452,0.9491682052612305,0.26428744196891785,-0.17097361385822296
1728067727156,7i,9.84622149988147,0.9s : 0.3s,0.018002919795032046,0.0016329818298687355,0.01792870579516757,0.02046393360051752,0.008992787450551987,-0.0073118433356285095,-0.0003301017568446696,0.0021021366119384766,-0.018101155757904053,-0.009311378002166748,-0.26733743311627534,1.3925221226968991,0.22391414691167252,0.9491918683052063,0.26416438817977905,-0.1710321605205536
1728067727166,7i,9.84622149988147,0.9s : 0.3s,0.015390171155740253,0.002045509001557394,0.015253631080091288,0.024583964787884244,0.015576254576444626,-0.011761852540075779,-0.0008190247463062406,-0.0009219646453857422,-0.02008119225502014,-0.014151573181152344,-0.26714387567401215,1.3924225023056758,0.22379676465910392,0.9492252469062805,0.26397770643234253,-0.1711358278989792
1728067727176,7i,9.84622149988147,0.9s : 0.3s,0.013088850004718308,0.002401318802767864,0.012866688091870727,0.018889107794081195,0.011620128527283669,-0.015292405150830746,0.0002590228396002203,0.005017101764678955,-0.013435989618301392,-0.012292325496673584,-0.2669777720790082,1.3922402039967092,0.22363741270587528,0.9492371082305908,0.2638174891471863,-0.17131663858890533
1728067727186,7i,9.84622149988147,0.9s : 0.3s,0.011166155796289393,0.0027131405206807045,0.010831523613141766,0.01597393029322813,0.0012882621958851814,-0.01853431575000286,0.0007624602876603603,0.00784754753112793,-0.010833054780960083,-0.008730828762054443,-0.2668577652105071,1.3920145828253523,0.22356139565443078,0.9492295384407043,0.26370173692703247,-0.1715364158153534
1728067727196,7i,9.84622149988147,0.9s : 0.3s,0.009450849092450751,0.002990129231464512,0.008965359766758867,0.01973847299018756,-0.0030668051913380623,-0.025181565433740616,0.0006777717499062419,0.006904780864715576,-0.01590430736541748,-0.009433150291442871,-0.26675253925253617,1.3917469279254175,0.2235562202358279,0.9492110013961792,0.26360023021698,-0.17179544270038605
1728067727216,7i,9.84622149988147,0.9s : 0.3s,0.009216059919048955,0.003241182345747255,0.008627311135754694,0.022576001970565286,-0.02676108106970787,-0.029726292937994003,0.005525557324290276,0.007789909839630127,-0.01886048913002014,-0.009657904505729675,-0.26660601234188464,1.39117114936318,0.22382953026787458,0.9491497874259949,0.26345887780189514,-0.17234881222248077
1728067727206,7i,9.84622149988147,0.9s : 0.3s,0.00921367602053137,0.0034639468102876346,0.008537733792219861,0.020109573101056887,-0.011515816673636436,-0.02989061176776886,0.0007238777470774949,0.008630156517028809,-0.01397174596786499,-0.011606276035308838,-0.2666789642944498,1.3914518937508893,0.2236216273230162,0.9491793513298035,0.2635292410850525,-0.172078937292099
1728067727226,7i,9.84622149988147,0.9s : 0.3s,0.012008002169501479,0.003669456435389782,0.011433599851819581,0.020466824736424687,-0.02486664243042469,-0.033431150019168854,0.0073819467797875404,0.0032453536987304688,-0.016982823610305786,-0.010951817035675049,-0.26649440869078783,1.390900089555773,0.22409581626551603,0.9491320252418518,0.2633512318134308,-0.17261135578155518
1728067727236,7i,9.84622149988147,0.9s : 0.3s,0.013738037255632864,0.003846665610594824,0.013188511338184597,0.020523153830821855,-0.015852641314268112,-0.03466659039258957,0.012848351150751114,0.004501998424530029,-0.011752724647521973,-0.016211271286010742,-0.2663401108164899,1.390549014963174,0.22429508585744226,0.9491113424301147,0.26320236921310425,-0.1729518622159958
1728067727246,7i,9.84622149988147,0.9s : 0.3s,0.015575855638771358,0.0040047431318053885,0.015052219481794143,0.01935549895719334,-0.01896720938384533,-0.032801494002342224,0.018847720697522163,0.0028453469276428223,-0.012168556451797485,-0.014780580997467041,-0.2661068161530877,1.3901625132615787,0.22446927617228787,0.9491047859191895,0.2629773020744324,-0.173329696059227
1728067727256,7i,9.84622149988147,0.9s : 0.3s,0.07113013033261822,0.00417318727544816,0.07100760486806532,0.03785364005984772,-0.03718562424182892,-0.059828050434589386,0.3080188035964966,-0.02630305290222168,-0.025000959634780884,-0.01077030599117279,-0.2654739913994658,1.3898593238299684,0.22483586610698694,0.9492156505584717,0.2623666822910309,-0.17364734411239624
1728067727266,7i,9.84622149988147,0.9s : 0.3s,0.1366237351566402,0.004597705731601249,0.13654635150804054,0.12544036844546247,-0.08096812665462494,0.14183667302131653,0.42866796255111694,-0.11654102802276611,-0.04638469219207764,0.001391097903251648,-0.2660022940956925,1.389752456736045,0.22529942917539741,0.9490607380867004,0.2628764510154724,-0.17372383177280426
1728067727276,7i,9.84622149988147,0.9s : 0.3s,0.13095396602920706,0.004958909376560547,0.13086004140521193,0.07745972268496402,-0.13325797021389008,0.163579523563385,0.07857360690832138,0.0770232081413269,-0.0030415356159210205,0.0076277852058410645,-0.2662468128725922,1.389551749709968,0.22589153471296158,0.9489625096321106,0.2631123661994934,-0.1739027053117752
1728067727286,7i,9.84622149988147,0.9s : 0.3s,0.09597962211509271,0.005165032017525197,0.0958405462506028,0.05866202173011352,-0.09957203269004822,0.04503889009356499,-0.028241027146577835,0.05862957239151001,0.000589221715927124,0.0018597990274429321,-0.2658522219349491,1.389442999900197,0.2267288498260988,0.9490455985069275,0.2627316415309906,-0.17402461171150208
1728067727296,7i,9.84622149988147,0.9s : 0.3s,0.08352027680641091,0.0053956063069688824,0.08334581015503839,0.022873379410253115,-0.07289302349090576,-0.024349240586161613,0.05963370203971863,-0.01771855354309082,-0.01446506381034851,-7.921457290649414e-05,-0.2656245681200977,1.3895038005275662,0.22766412626697707,0.9491150975227356,0.2625119686126709,-0.17397770285606384
1728067727306,7i,9.84622149988147,0.9s : 0.3s,0.06847457849276509,0.005619242628889988,0.06824362250085726,0.006810860954444357,-0.06264717876911163,-0.030825648456811905,0.019170261919498444,0.005499124526977539,-0.0039987266063690186,0.0003970414400100708,-0.26551507463512586,1.3893772135931273,0.22848189237990807,0.9491212368011475,0.2624063193798065,-0.1741030067205429
1728067727316,7i,9.84622149988147,0.9s : 0.3s,0.057833135561157024,0.00581477019988463,0.05754007313479623,0.010801263666135957,-0.04035359248518944,-0.01778627745807171,0.029523301869630814,-0.008455038070678711,0.0043618083000183105,-0.005114123225212097,-0.26527922957220884,1.3892471880714983,0.22904760935375287,0.9491593241691589,0.2621787488460541,-0.17423757910728455
1728067727326,7i,9.84622149988147,0.9s : 0.3s,0.05637227978281693,0.006014586571135355,0.05605050112434775,0.011256202009763034,-0.05422932282090187,-0.01741641014814377,0.03565333038568497,-0.005877494812011719,-0.009591668844223022,0.0003962665796279907,-0.26504923384279794,1.3891761629347477,0.2295444023804274,0.9492062926292419,0.2619567811489105,-0.17431588470935822
1728067727336,7i,9.84622149988147,0.9s : 0.3s,0.05683689170909556,0.006258546917519124,0.05649126348058315,0.02779335832857495,-0.09173595905303955,-0.023183219134807587,0.034012291580438614,0.002821028232574463,-0.02572771906852722,0.010129019618034363,-0.26480411865608716,1.3891587574874804,0.2303432576793643,0.9492665529251099,0.261720210313797,-0.1743440330028534
1728067727346,7i,9.84622149988147,0.9s : 0.3s,0.0633360311113862,0.006532859536619322,0.06299821095251265,0.02313550608136836,-0.12074217200279236,-0.030655115842819214,0.029078485444188118,9.85860824584961e-05,-0.020611315965652466,0.01050788164138794,-0.2646569209329292,1.3891527635819543,0.2314957968369762,0.9493033289909363,0.26157814264297485,-0.17435666918754578
1728067727356,7i,9.84622149988147,0.9s : 0.3s,0.06674970200585664,0.006809943822408336,0.06640141100162184,0.014206759715163688,-0.11794771999120712,-0.03285595029592514,0.023599831387400627,0.001934349536895752,-0.0073836445808410645,0.011982157826423645,-0.26459538866761184,1.38921013277612,0.23279039628344564,0.9493290781974792,0.2615187466144562,-0.17430509626865387
1728067727366,7i,9.84622149988147,0.9s : 0.3s,0.06652551068024141,0.007066418616722364,0.06614914435727914,0.011322364792190292,-0.09120172262191772,-0.03428966552019119,0.019413243979215622,0.003655672073364258,0.0030867457389831543,0.010261774063110352,-0.2645608633563721,1.3891756458794633,0.2339105732163437,0.949332058429718,0.26148542761802673,-0.17433948814868927
1728067727376,7i,9.84622149988147,0.9s : 0.3s,0.058105669048459645,0.007283464498845289,0.05764737565980937,0.02028926594786739,-0.04983431100845337,-0.028279976919293404,0.013430983759462833,0.003451406955718994,0.015186309814453125,0.013004541397094727,-0.2645141337000892,1.3890534099985425,0.23467190445742153,0.9493227005004883,0.26144033670425415,-0.17445772886276245
1728067727386,7i,9.84622149988147,0.9s : 0.3s,0.04263224496814621,0.00744678353065775,0.041976823677733796,0.0248825114883567,0.0024398129899054766,-0.024240316823124886,0.0070755500346422195,0.0015604496002197266,0.02278175950050354,0.009884119033813477,-0.26445442965802346,1.3888715181091644,0.2349360125616534,0.949306309223175,0.26138269901275635,-0.1746332198381424
1728067727396,7i,9.84622149988147,0.9s : 0.3s,0.0367085918083564,0.0075576153169667985,0.03592218205055588,0.02429296155000647,0.04244688153266907,-0.01650649681687355,0.0025407192297279835,0.000958859920501709,0.023341089487075806,0.00666499137878418,-0.2643650021906225,1.3886022784581233,0.23468877547432082,0.9492822885513306,0.2612963914871216,-0.17489305138587952
1728067727406,7i,9.84622149988147,0.9s : 0.3s,0.09436666556066342,0.007650979181543514,0.09405599442141732,0.03390251001865311,0.05593140050768852,-0.06304386258125305,0.3972577750682831,-0.0332183837890625,0.002371490001678467,0.00634784996509552,-0.2636420192797053,1.38831335860015,0.23429578805198664,0.9494171142578125,0.26059845089912415,-0.17520152032375336
1728067727416,7i,9.84622149988147,0.9s : 0.3s,0.2656177819117473,0.00801370511728701,0.26549686739773354,0.1624886841689345,0.03953511640429497,-0.01933819055557251,0.9993753433227539,-0.1582099199295044,-0.03264525532722473,0.01750659942626953,-0.2640507496313404,1.3880792124948136,0.2337149121827244,0.9492713212966919,0.26099303364753723,-0.17540447413921356
1728067727426,7i,9.84622149988147,0.9s : 0.3s,0.29200463856335657,0.008490194822484335,0.2918811839334505,0.02699759577103049,0.00295034097507596,-0.0681113675236702,0.5227490663528442,-0.003082275390625,-0.001801222562789917,0.026760518550872803,-0.26475589924708587,1.3881168351544084,0.2329618203669058,0.9490967392921448,0.2616736888885498,-0.17533527314662933
1728067727436,7i,9.84622149988147,0.9s : 0.3s,0.20193061875433282,0.009019878151170866,0.2017290672874034,0.04201944366468136,0.027691107243299484,0.015043706633150578,-0.012128704227507114,0.03417408466339111,-0.01206919550895691,0.021262645721435547,-0.26440688643858146,1.3878981100136807,0.23247854768674522,0.9491481184959412,0.2613368034362793,-0.17555946111679077
1728067727446,7i,9.84622149988147,0.9s : 0.3s,0.14263866460526978,0.009577514377220157,0.14231675888218076,0.020961592602186378,0.05229871720075607,-0.0026523773558437824,0.0015900374855846167,0.002494215965270996,-0.012103676795959473,0.016931280493736267,-0.2641422651337022,1.3877001624196699,0.23202980494166853,0.949181318283081,0.26108136773109436,-0.1757599413394928
1728067727456,7i,9.84622149988147,0.9s : 0.3s,0.10226395201305834,0.010144558698135107,0.10175953916045999,0.022191819722701785,0.058315861970186234,-0.004406601656228304,0.0006480774027295411,0.004181861877441406,-0.012109488248825073,0.018120408058166504,-0.26421148550879925,1.3874887966759137,0.23152441325478915,0.9491263031959534,0.2611481845378876,-0.17595724761486053
1728067727466,7i,9.84622149988147,0.9s : 0.3s,0.07051542433926374,0.010707558562196514,0.06969772779211357,0.017095622423766926,0.0514981709420681,0.001703755115158856,-0.023997681215405464,-0.001225888729095459,-0.013747870922088623,0.01008729636669159,-0.264201639852895,1.387335908337951,0.23098590480878264,0.9491020441055298,0.2611387073993683,-0.17610284686088562
1728067727476,7i,9.84622149988147,0.9s : 0.3s,0.061140290682781394,0.011262492042132791,0.06009402148114154,0.01930969796764841,0.04837214946746826,0.04365892708301544,-0.061726681888103485,0.0011578798294067383,-0.016488641500473022,0.009982407093048096,-0.26424298380379413,1.3872031989633742,0.2304698096769583,0.9490679502487183,0.2611786127090454,-0.17622680962085724
1728067727486,7i,9.84622149988147,0.9s : 0.3s,0.03547148881822439,0.011780422883871294,0.03345815529371845,0.02207380559398432,0.036872487515211105,0.09007662534713745,-0.12203286588191986,0.016464412212371826,-0.010435372591018677,0.010357558727264404,-0.26421596166601574,1.3870664600280962,0.22999230924506026,0.949050784111023,0.2611525058746338,-0.17635788023471832
1728067727496,7i,9.84622149988147,0.9s : 0.3s,0.052961396989091,0.012263584391183201,0.051521976562593406,0.019540444080818533,0.0268467515707016,0.13740631937980652,-0.16357100009918213,0.013443708419799805,-0.011078596115112305,0.008852139115333557,-0.2642184053167589,1.386980503628049,0.2296250977155714,0.9490348696708679,0.2611548900604248,-0.1764393150806427
1728067727506,7i,9.84622149988147,0.9s : 0.3s,0.08967597747911046,0.012696393344327313,0.08877264518352512,0.022997343316811376,0.033876966685056686,0.17822015285491943,-0.20409545302391052,0.020674049854278564,-0.005334794521331787,0.008544087409973145,-0.26421171807181093,1.3869838299421078,0.22927331839812828,0.9490373134613037,0.2611484229564667,-0.17643649876117706
1728067727516,7i,9.84622149988147,0.9s : 0.3s,0.12825791096680164,0.013080192703151425,0.12758918560919041,0.031860682229710446,0.031222326681017876,0.2182874083518982,-0.24305829405784607,0.02817535400390625,-0.004265636205673218,0.014249801635742188,-0.264178978236609,1.3869705110581387,0.2288848043177751,0.9490432739257812,0.2611168324947357,-0.1764506846666336
1728067727526,7i,9.84622149988147,0.9s : 0.3s,0.1638793291064738,0.013414533283250164,0.16332937520599444,0.03185553110683884,0.030194878578186035,0.25244972109794617,-0.26692521572113037,0.02921658754348755,-0.0027789175510406494,0.0123872309923172,-0.2641721307072199,1.3869397918197166,0.2285181606487984,0.9490395784378052,0.26111021637916565,-0.17648015916347504
1728067727536,7i,9.84622149988147,0.9s : 0.3s,0.19708190078576102,0.013702158656881106,0.19660500112019078,0.03319412004222138,0.02004876732826233,0.28719252347946167,-0.2912915349006653,0.03178966045379639,-0.0072505176067352295,0.006220698356628418,-0.2641413527236384,1.3869273464959688,0.22819304134749016,0.9490453004837036,0.2610805034637451,-0.17649345099925995
1728067727546,7i,9.84622149988147,0.9s : 0.3s,0.22663224762978051,0.013947283096155862,0.2262026723095062,0.037093099204563745,0.008746045641601086,0.31805768609046936,-0.3053034842014313,0.03398168087005615,-0.01418420672416687,0.004466727375984192,-0.26413189113630886,1.3869430466706159,0.2280107633776006,0.9490504264831543,0.2610713541507721,-0.17647898197174072
1728067727556,7i,9.84622149988147,0.9s : 0.3s,0.2538786917559861,0.014121657994184807,0.2534856384555667,0.043965747730332135,0.003148080548271537,0.34991255402565,-0.3189164996147156,0.041288912296295166,-0.014992088079452515,0.0018574148416519165,-0.2641468838831195,1.3869745301654959,0.22791002852709782,0.9490522146224976,0.2610858380794525,-0.17644840478897095
1728067727566,7i,9.84622149988147,0.9s : 0.3s,0.2753819589434921,0.014251267419264095,0.27501295367400386,0.044536510040500424,-0.0006473233224824071,0.3769557476043701,-0.306918203830719,0.042731285095214844,-0.01122632622718811,0.005613163113594055,-0.26415010370625736,1.3870203709894018,0.2278569663638528,0.9490594267845154,0.26108893752098083,-0.17640472948551178
1728067727576,7i,9.84622149988147,0.9s : 0.3s,0.283174973503038,0.014350560281546937,0.28281111547824983,0.05066060800755307,-0.018218327313661575,0.36085936427116394,-0.2693857252597809,0.048322081565856934,-0.013105452060699463,0.007727921009063721,-0.26418418161662965,1.387121745291744,0.22791396355609483,0.9490687251091003,0.26112183928489685,-0.17630693316459656
1728067727586,7i,9.84622149988147,0.9s : 0.3s,0.28164049434199023,0.01448134501757751,0.28126794822674434,0.0515668166468257,-0.03816939890384674,0.337408185005188,-0.21799378097057343,0.04538989067077637,-0.02146172523498535,0.011759623885154724,-0.26425750133627224,1.3872430815000225,0.22814817424021322,0.9490713477134705,0.2611926198005676,-0.17618829011917114
1728067727596,7i,9.84622149988147,0.9s : 0.3s,0.26906156970484113,0.014661484448992934,0.2686618118858447,0.04956867781076424,-0.05580804869532585,0.3156445622444153,-0.17323775589466095,0.04046964645385742,-0.02390417456626892,0.01574331521987915,-0.26433761407716166,1.387398646320899,0.22860262216413108,0.9490781426429749,0.2612699568271637,-0.17603681981563568
1728067727606,7i,9.84622149988147,0.9s : 0.3s,0.2528335238821766,0.01487928803678032,0.2523953200560536,0.03718150843376378,-0.06176753714680672,0.29695719480514526,-0.12707176804542542,0.031268417835235596,-0.017088353633880615,0.010617852210998535,-0.2644058386285647,1.3875865485215615,0.22916284527800926,0.9490935802459717,0.2613357901573181,-0.17585521936416626
1728067727616,7i,9.84622149988147,0.9s : 0.3s,0.23603022912993196,0.01511012340566057,0.23554607454549925,0.0256631420522016,-0.05631658062338829,0.2822219133377075,-0.09059125185012817,0.02444058656692505,-0.005717962980270386,0.005344107747077942,-0.2644663895284386,1.3878024836566591,0.22970593981736898,0.9491158723831177,0.2613942623138428,-0.17564737796783447
1728067727626,7i,9.84622149988147,0.9s : 0.3s,0.21782901650819292,0.015344375765310832,0.2172878978804377,0.024216315313145796,-0.04623744264245033,0.2621907591819763,-0.05065678805112839,0.0239066481590271,-0.00320357084274292,0.0021538883447647095,-0.2645013944445619,1.388027028572613,0.23017926631980426,0.9491463303565979,0.26142802834510803,-0.17543259263038635
1728067727636,7i,9.84622149988147,0.9s : 0.3s,0.20037199927719837,0.015584090877672693,0.19976504750796126,0.02373315885168383,-0.033267583698034286,0.24715346097946167,-0.01418399903923273,0.023228704929351807,-0.0032120943069458008,0.0036568492650985718,-0.2644945161652922,1.3882283702661815,0.23054187937823084,0.9491835832595825,0.2614213824272156,-0.1752418428659439
1728067727646,7i,9.84622149988147,0.9s : 0.3s,0.18336680375095993,0.01582745601747014,0.18268244675900885,0.023763514153241617,-0.0006945944624021649,0.2282305806875229,0.016888998448848724,0.02327960729598999,-0.004717737436294556,0.0007123500108718872,-0.2644260318577043,1.3883598581741186,0.2306343199607815,0.9492239952087402,0.26135528087615967,-0.1751202493906021
1728067727656,7i,9.84622149988147,0.9s : 0.3s,0.1675726350178608,0.016090943006145494,0.1667982900392032,0.02347819659846654,0.001289460575208068,0.20542700588703156,0.04460877552628517,0.020008742809295654,-0.006228715181350708,0.010586738586425781,-0.26433155476672776,1.388426858073153,0.2305461405138132,0.9492601156234741,0.2612640857696533,-0.1750611513853073
1728067727666,7i,9.84622149988147,0.9s : 0.3s,0.1546966957980288,0.016383997654493422,0.15382663069730615,0.02197629760887617,-0.01033510360866785,0.18854111433029175,0.07504002004861832,0.012708127498626709,-0.017071843147277832,0.0054784417152404785,-0.2642306251489485,1.3884926310479282,0.2305187787930045,0.9492975473403931,0.26116666197776794,-0.17500348389148712
1728067727676,7i,9.84622149988147,0.9s : 0.3s,0.14347211086537465,0.016701234226723313,0.14249672056391502,0.022526847071477483,-0.009950277395546436,0.16435827314853668,0.09522704035043716,0.012782573699951172,-0.0182192325592041,0.0034819841384887695,-0.2641389188775736,1.3885428282574324,0.23054820748055688,0.9493299126625061,0.2610781490802765,-0.1749601811170578
1728067727686,7i,9.84622149988147,0.9s : 0.3s,0.1378612463432934,0.017011542111010705,0.13680764115476715,0.01261496572051368,0.008912360295653343,0.1453259140253067,0.11486932635307312,0.011842608451843262,-0.003635197877883911,0.0023822933435440063,-0.26404752658887604,1.3885484964017132,0.23049309017630315,0.9493542909622192,0.2609899342060089,-0.17495910823345184
1728067727696,7i,9.84622149988147,0.9s : 0.3s,0.13477040553411662,0.017292217744748654,0.13365643049737058,0.0071896023978591656,0.03597060963511467,0.13143326342105865,0.13090208172798157,0.004944205284118652,0.00288236141204834,-0.004351690411567688,-0.26393481576289324,1.3884788876272371,0.2301450961749317,0.9493711590766907,0.26088112592697144,-0.17503054440021515
1728067727706,7i,9.84622149988147,0.9s : 0.3s,0.13175174814053023,0.017550048896830373,0.13057763561117414,0.002311748305531646,0.04353265464305878,0.11653846502304077,0.1477447748184204,5.245208740234375e-06,-0.0008709132671356201,-0.002141416072845459,-0.2637763150915175,1.3883926589047857,0.2296261639018435,0.9493966102600098,0.2607280910015106,-0.17511989176273346
1728067727716,7i,9.84622149988147,0.9s : 0.3s,0.12863012571858376,0.017813031843993767,0.12739075766673,0.017217064654260584,0.029751595109701157,0.09677460789680481,0.1625884473323822,-0.0030170083045959473,-0.01663506031036377,-0.0032557249069213867,-0.26360436812268334,1.3883213410229356,0.2291623877544543,0.9494282007217407,0.26056209206581116,-0.17519572377204895
1728067727726,7i,9.84622149988147,0.9s : 0.3s,0.12535267613095596,0.018095603200890185,0.12403968138458059,0.02468517629336215,0.017897332087159157,0.0782424733042717,0.16737766563892365,-0.0017251968383789062,-0.024578362703323364,-0.0015118569135665894,-0.2634711174869566,1.3882430309634248,0.22885710893281588,0.9494485855102539,0.2604334354400635,-0.17527636885643005
1728067727736,7i,9.84622149988147,0.9s : 0.3s,0.12188916548188726,0.018386854071103274,0.1204943660892029,0.021597787105915686,0.010626103729009628,0.05687033757567406,0.1734134554862976,0.00015997886657714844,-0.021298497915267944,-0.0035794973373413086,-0.263313928643973,1.3882268189110363,0.22865130825332877,0.9494860768318176,0.26028168201446533,-0.17529921233654022
1728067727746,7i,9.84622149988147,0.9s : 0.3s,0.11880279173029083,0.018685552628960423,0.1173241383768115,0.021486631860657922,0.005873559508472681,0.04425596818327904,0.1773001104593277,-0.0008097290992736816,-0.02124762535095215,-0.0030916184186935425,-0.26310315674604434,1.3881412842449348,0.22849530802894036,0.9495248794555664,0.26007816195487976,-0.17539037764072418
1728067727756,7i,9.84622149988147,0.9s : 0.3s,0.11609156979815968,0.019003264129481442,0.11452566756245583,0.024288360434605485,-0.0031731983181089163,0.03393168747425079,0.17772142589092255,-0.0013524293899536133,-0.024063825607299805,0.003004610538482666,-0.26290667693104564,1.388078402808518,0.22842151002916763,0.9495640993118286,0.2598884403705597,-0.1754593700170517
1728067727766,7i,9.84622149988147,0.9s : 0.3s,0.11371504617996377,0.019327007107778776,0.11206060201501312,0.020701133162920084,0.002947544679045677,0.024634238332509995,0.1761932373046875,-0.0005934238433837891,-0.020673543214797974,-0.0008884668350219727,-0.26279313493301143,1.3880219703511416,0.22836889619904777,0.9495833516120911,0.25977879762649536,-0.17551833391189575
1728067727776,7i,9.84622149988147,0.9s : 0.3s,0.11115431409544364,0.019649947791971496,0.10940366124495712,0.018835547507141778,0.010376698337495327,0.013551493175327778,0.16648069024085999,-0.00263136625289917,-0.01854190230369568,-0.0020128637552261353,-0.2627189063084478,1.3878760495848104,0.2282265077421106,0.9495766758918762,0.25970712304115295,-0.1756604015827179
1728067727786,7i,9.84622149988147,0.9s : 0.3s,0.10876899238193082,0.019965880280098162,0.1069207993255817,0.017020834136245742,0.011509607546031475,0.007056931033730507,0.1609353870153427,-0.004640936851501465,-0.016133219003677368,-0.002808868885040283,-0.262642153423119,1.3877379130798577,0.22804003715490986,0.9495720267295837,0.25963300466537476,-0.17579521238803864
1728067727796,7i,9.84622149988147,0.9s : 0.3s,0.10617013123543122,0.020281274548106017,0.10421500213142555,0.018157762524514207,0.003170451382175088,-0.003103294875472784,0.15230141580104828,-0.002905130386352539,-0.017874330282211304,-0.0013314932584762573,-0.2624541526156677,1.3875734086787204,0.2278904414346237,0.9495909214019775,0.2594514489173889,-0.17596027255058289
1728067727806,7i,9.84622149988147,0.9s : 0.3s,0.10327564157292791,0.020599615539272555,0.1012003655227294,0.02022335987247474,-0.0054214391857385635,-0.007303010672330856,0.13832595944404602,-0.0050231218338012695,-0.019586682319641113,-0.00033824145793914795,-0.26225224538048686,1.387437306671025,0.2278434849808173,0.949618399143219,0.2592564523220062,-0.1760990470647812
1728067727816,7i,9.84622149988147,0.9s : 0.3s,0.09785110287156147,0.020913212875754192,0.0955901452054253,0.014461052584636988,-0.0014048594748601317,-0.014339081943035126,0.12348468601703644,-0.003660261631011963,-0.013903141021728516,0.0015579462051391602,-0.26205520641251345,1.3872981674340241,0.2278329056600048,0.9496442079544067,0.2590661346912384,-0.17624051868915558
1728067727826,7i,9.84622149988147,0.9s : 0.3s,0.08858579087226834,0.021219766984047834,0.08600676620829302,0.013000217616780227,0.003875256748870015,-0.01769435405731201,0.10422247648239136,-0.004625499248504639,-0.01178431510925293,0.002956405282020569,-0.2618678471714381,1.3871364250605875,0.227796870845421,0.9496633410453796,0.2588851749897003,-0.1764029711484909
1728067727836,7i,9.84622149988147,0.9s : 0.3s,0.07890175661631367,0.02151063773425074,0.07591297426267676,0.008380349316639583,0.016938859596848488,-0.018694104626774788,0.08495823293924332,-0.0032683610916137695,-0.007641404867172241,0.001075640320777893,-0.26165439756752956,1.3870065965412999,0.22766961904891825,0.9496947526931763,0.25867900252342224,-0.17653635144233704
1728067727846,7i,9.84622149988147,0.9s : 0.3s,0.06936158190415216,0.02177741045847765,0.06585418314708184,0.007019326026897555,0.028335193172097206,-0.016419542953372,0.06432036310434341,-0.003855288028717041,-0.005018413066864014,-0.003036975860595703,-0.2614348316947568,1.3868170797689165,0.2274011644480954,0.9497171640396118,0.258466899394989,-0.17672672867774963
1728067727856,7i,9.84622149988147,0.9s : 0.3s,0.059623235950977106,0.022042898644622836,0.055398924940911747,0.01643625266775098,0.03119702637195587,-0.014757465571165085,0.042599622160196304,-0.0031540393829345703,-0.015817731618881226,-0.003162562847137451,-0.2611780852450244,1.3866246717919688,0.22707942261861164,0.9497483372688293,0.2582188546657562,-0.17692160606384277
1728067727866,7i,9.84622149988147,0.9s : 0.3s,0.04788053970825381,0.022323310339234233,0.04235818572899349,0.02002881920803532,0.024713294580578804,-0.011415463872253895,0.01158737763762474,0.0030940771102905273,-0.019704312086105347,0.0018221884965896606,-0.26095239742207565,1.386432220460791,0.2267871487007603,0.9497714042663574,0.25800082087516785,-0.1771150380373001
1728067727876,7i,9.84622149988147,0.9s : 0.3s,0.0403328790601371,0.0226192891590714,0.033393246191677155,0.020412941122643573,0.015199416317045689,-0.012807231396436691,0.012721617706120014,0.00554347038269043,-0.01939442753791809,0.0031327754259109497,-0.26067901454903386,1.386254771097058,0.22660148819390843,0.9498093128204346,0.2577366828918457,-0.17729651927947998
1728067727886,7i,9.84622149988147,0.9s : 0.3s,0.03679439632900512,0.022934514012255797,0.028772133536419366,0.02364920723856298,0.009921431541442871,-0.009349871426820755,0.013061737641692162,1.8715858459472656e-05,-0.023435771465301514,0.0031700581312179565,-0.260455703727209,1.3861141860309756,0.22650658881359392,0.9498410820960999,0.2575209140777588,-0.17744062840938568
1728067727896,7i,9.84622149988147,0.9s : 0.3s,0.03535297417338962,0.023249200240181254,0.026632826945262665,0.014369150478925253,0.01592978835105896,-0.00956665351986885,0.009448360651731491,-0.0002084970474243164,-0.014013528823852539,0.0031701773405075073,-0.2602583907535102,1.385995394819854,0.2264069053632683,0.9498699307441711,0.2573302388191223,-0.17756280303001404
1728067727906,7i,9.84622149988147,0.9s : 0.3s,0.034813384974747036,0.023545402471090597,0.025643435726795723,0.00783777534564173,0.029905393719673157,-0.005431429948657751,0.012036253698170185,-0.003015875816345215,-0.007227599620819092,-0.00031147897243499756,-0.2600574045794214,1.385879670597307,0.22619571334009664,0.9499000310897827,0.2571360170841217,-0.17768220603466034
1728067727916,7i,9.84622149988147,0.9s : 0.3s,0.03457480472376902,0.02381894043129847,0.025061428499130206,0.006413836950601052,0.030614059418439865,-0.0026196646504104137,0.016201969236135483,-0.0024468302726745605,-0.0052800774574279785,-0.002696499228477478,-0.25982635977061874,1.3857836278505111,0.2259065619121446,0.9499412775039673,0.2569127380847931,-0.17778435349464417
1728067727926,7i,9.84622149988147,0.9s : 0.3s,0.034594555108180124,0.02408223049692646,0.024836050761459973,0.010264530967245599,0.0380951464176178,-0.0037156445905566216,0.015167598612606525,-0.0014423727989196777,-0.009954392910003662,-0.0020470023155212402,-0.25959490009635816,1.3856414578777412,0.22558029483333467,0.949974536895752,0.25668904185295105,-0.17793035507202148
1728067727936,7i,9.84622149988147,0.9s : 0.3s,0.03506145917437579,0.024338173176290532,0.02523805154676786,0.014066688080308054,0.0482252798974514,-0.0036914097145199776,0.016759635880589485,-0.002938568592071533,-0.012811273336410522,-0.00501076877117157,-0.2592984683037218,1.3854832801063068,0.2251858165412428,0.9500210881233215,0.25640252232551575,-0.17809462547302246
1728067727946,7i,9.84622149988147,0.9s : 0.3s,0.03736893726083013,0.024584041974585313,0.028143602331536854,0.014034382502969822,0.06442888081073761,0.0009687228593975306,0.019875166937708855,-0.004521846771240234,-0.011812269687652588,-0.006081700325012207,-0.2589122895071519,1.3853448824265626,0.22463960606328442,0.9500938057899475,0.25602924823760986,-0.17824438214302063
1728067727956,7i,9.84622149988147,0.9s : 0.3s,0.04004340349019727,0.024829795654302874,0.03141584649256335,0.011838796226285041,0.06537110358476639,0.006742988713085651,0.02665344439446926,-0.001947939395904541,-0.011517047882080078,0.0019287914037704468,-0.25846483226086087,1.385255064382187,0.2240242918225054,0.9501903057098389,0.25559666752815247,-0.17835083603858948
1728067727966,7i,9.84622149988147,0.9s : 0.3s,0.041037099712708795,0.025097117542178346,0.032468111184743846,0.023462826680901154,0.05510808527469635,0.007205313537269831,0.03056482970714569,0.000164031982421875,-0.02345481514930725,-0.0005907416343688965,-0.25796536106197815,1.385201434207444,0.22345999288604473,0.9503059983253479,0.25511378049850464,-0.17842529714107513
1728067727976,7i,9.84622149988147,0.9s : 0.3s,0.04150244315970702,0.025395556542456756,0.03282557685896158,0.027609076742674817,0.04149560257792473,-0.001963417511433363,0.03440750390291214,0.008402764797210693,-0.026224136352539062,0.0019872933626174927,-0.25748391772149104,1.3851296472568164,0.2230308173921078,0.9504136443138123,0.25464823842048645,-0.17851614952087402
1728067727986,7i,9.84622149988147,0.9s : 0.3s,0.04187941055750033,0.025721686229367362,0.033049657882671696,0.026152252012951106,0.0392066165804863,-0.00205414230003953,0.03503141924738884,0.007245481014251709,-0.0245361328125,0.0054241567850112915,-0.2570480214513644,1.3850189348836446,0.2226944536155705,0.9505029320716858,0.2542266845703125,-0.17864187061786652
1728067727996,7i,9.84622149988147,0.9s : 0.3s,0.04260465471290772,0.026069530498410414,0.033697717768397,0.026357670793915246,0.04462854564189911,-0.0021092696115374565,0.03876277431845665,0.0012406110763549805,-0.02630692720413208,0.0010645538568496704,-0.25660709615339294,1.3848755664662957,0.22233116498127706,0.9505873918533325,0.2538002133369446,-0.1787988394498825
1728067728006,7i,9.84622149988147,0.9s : 0.3s,0.04294681778527083,0.02644233563378237,0.03384127722340955,0.030894983956618185,0.035839181393384933,-5.594687536358833e-06,0.03952953219413757,-0.0020859837532043457,-0.030793100595474243,-0.0013905614614486694,-0.25610240732496903,1.3847704056669836,0.22197369189508792,0.9506943225860596,0.25331202149391174,-0.17892247438430786
1728067728016,7i,9.84622149988147,0.9s : 0.3s,0.04317077137428332,0.026839931713054686,0.03381321585843621,0.02917398459470835,0.03457577899098396,-0.0038812928833067417,0.036879152059555054,-0.002380192279815674,-0.028557032346725464,0.005472838878631592,-0.25562066915493525,1.3846368251408596,0.22169462640617946,0.950790286064148,0.25284597277641296,-0.1790720373392105
1728067728026,7i,9.84622149988147,0.9s : 0.3s,0.044243063829950136,0.02725027612585824,0.03485500176625332,0.023823062538077693,0.05386531725525856,-0.0058173225261271,0.037873774766922,0.0009815096855163574,-0.02328816056251526,0.0049230605363845825,-0.25512704534274794,1.3844369622313233,0.22129565643266547,0.9508769512176514,0.25236833095550537,-0.17928515374660492
1728067728036,7i,9.84622149988147,0.9s : 0.3s,0.045904248269588624,0.027681036355604583,0.03661912390371632,0.027612678736124736,0.05878577381372452,0.0008722720667719841,0.04482462629675865,0.0004150867462158203,-0.026351064443588257,0.008240699768066406,-0.25458671398470634,1.3842962514423696,0.2207778693507936,0.9509857296943665,0.25184547901153564,-0.17944423854351044
1728067728046,7i,9.84622149988147,0.9s : 0.3s,0.04732372212715385,0.02814679142188458,0.03804330175761556,0.035516711662721925,0.05497199669480324,0.005396760534495115,0.05097629502415657,-0.0002995133399963379,-0.034221768379211426,0.009498298168182373,-0.25390585480774186,1.3841945948084438,0.22028856574513156,0.9511357545852661,0.2511864900588989,-0.1795726865530014
1728067728056,7i,9.84622149988147,0.9s : 0.3s,0.0483472472877938,0.028645425986415746,0.038947347667894705,0.036303356980496075,0.04938654974102974,-0.0009431603830307722,0.05050038918852806,0.005987882614135742,-0.03533381223678589,0.005796611309051514,-0.2531788855878009,1.3841274134498582,0.21985930254069955,0.9513028264045715,0.2504827678203583,-0.17967042326927185
1728067728066,7i,9.84622149988147,0.9s : 0.3s,0.04826984299272291,0.029183019968639767,0.038449045346433425,0.03993361964057262,0.027157675474882126,-0.004274064674973488,0.04611935466527939,0.012169718742370605,-0.03621119260787964,0.011633634567260742,-0.2525248480133896,1.3840705544061427,0.21958497487678305,0.9514533877372742,0.24984952807426453,-0.17975488305091858
1728067728076,7i,9.84622149988147,0.9s : 0.3s,0.04742879186471437,0.02976220929187713,0.03692832511518629,0.04256843078197469,0.008863357827067375,-0.0107205118983984,0.04112166911363602,0.009940564632415771,-0.039207860827445984,0.013266503810882568,-0.25194798141355507,1.38397014692417,0.21949362336226338,0.9515767693519592,0.24929091334342957,-0.1798771619796753
1728067728086,7i,9.84622149988147,0.9s : 0.3s,0.04628392695323032,0.03036689836737123,0.034929262485167166,0.0372235920481323,-0.006026908289641142,-0.008887902833521366,0.04061433672904968,0.0060839056968688965,-0.035019293427467346,0.011055812239646912,-0.2513886407345208,1.3838671356824013,0.2195544782340042,0.9516952037811279,0.24874919652938843,-0.18000108003616333
1728067728096,7i,9.84622149988147,0.9s : 0.3s,0.044986526736689195,0.03098090584231901,0.03261856926691015,0.03235750033265174,-0.020561376586556435,-0.006969627924263477,0.039720579981803894,-0.001209557056427002,-0.03174889087677002,0.006128028035163879,-0.25089506117311144,1.38387424521318,0.2197767280749517,0.9518168568611145,0.24827109277248383,-0.18001708388328552
1728067728106,7i,9.84622149988147,0.9s : 0.3s,0.04365961957436789,0.03160976529132959,0.030116193644044442,0.03529212201281523,-0.03619879484176636,-0.004985261708498001,0.03785806521773338,-0.0035828351974487305,-0.03357867896556854,0.010255217552185059,-0.2504684795657232,1.3839352827567752,0.2201387329238465,0.951931893825531,0.24785785377025604,-0.1799786537885666
1728067728116,7i,9.84622149988147,0.9s : 0.3s,0.042659208190294805,0.03222215344795435,0.02795605248598949,0.021439670265917372,-0.04530760273337364,-0.006779965944588184,0.03657228872179985,-0.001381218433380127,-0.017949864268302917,0.01164276897907257,-0.25007078895782997,1.3840516939324896,0.2206444019371588,0.9520495533943176,0.24747253954410553,-0.1798861175775528
1728067728126,7i,9.84622149988147,0.9s : 0.3s,0.04235894317640344,0.03279525835202893,0.02680953368944436,0.010405942997504202,-0.03744608163833618,-0.00684268306940794,0.03853074461221695,-0.0002865791320800781,-0.007799595594406128,0.006882429122924805,-0.24962663418646946,1.3841528166848185,0.221162121184672,0.9521756768226624,0.24704217910766602,-0.17981021106243134
1728067728136,7i,9.84622149988147,0.9s : 0.3s,0.04243312627718897,0.03329657504234968,0.02630414978867482,0.002737789907415766,-0.015167143195867538,-0.01120281033217907,0.03606518730521202,-0.0019643306732177734,-0.0018926262855529785,-0.0002342313528060913,-0.24913662279890603,1.384166755666614,0.2215237878791396,0.9522969722747803,0.24656732380390167,-0.17981937527656555
1728067728146,7i,9.84622149988147,0.9s : 0.3s,0.04283127108360567,0.03371639041934468,0.02641444301376875,0.014275359772183884,0.025210505351424217,-0.010168838314712048,0.0349639393389225,-0.0033576488494873047,0.013419076800346375,-0.0035271048545837402,-0.24859396588896934,1.3841415512304438,0.22157916739593725,0.9524238705635071,0.24604138731956482,-0.1798682063817978
1728067728156,7i,9.84622149988147,0.9s : 0.3s,0.04330424845944899,0.03407050088941777,0.026729364073652635,0.010709553696087743,0.034104663878679276,-0.010679898783564568,0.03472718596458435,-0.0017778873443603516,0.009428411722183228,-0.004758015275001526,-0.24800419429943957,1.384068373001117,0.22135057229066507,0.9525532126426697,0.24546970427036285,-0.1799648106098175
1728067728166,7i,9.84622149988147,0.9s : 0.3s,0.04407381120307714,0.03439545313101622,0.027558186403980844,0.009164584461004361,0.05024874582886696,-0.021580662578344345,0.030147945508360863,0.002404928207397461,-0.005407840013504028,-0.006997227668762207,-0.2474423863785836,1.3838990005120508,0.22101378815305875,0.9526579976081848,0.24492505192756653,-0.18015173077583313
1728067728176,7i,9.84622149988147,0.9s : 0.3s,0.04921436070550386,0.03469128463929117,0.034907994352685504,0.01617008453241436,0.07921701669692993,-0.0208757221698761,0.03459728881716728,0.0031796693801879883,-0.0067826807498931885,-0.014330267906188965,-0.24686173246405937,1.3835675627124973,0.22043183747338482,0.9527377486228943,0.24436204135417938,-0.18049390614032745
1728067728186,7i,9.84622149988147,0.9s : 0.3s,0.05536281860441716,0.034968003078293404,0.04292179451679603,0.022172006168288325,0.0875786766409874,-0.017513437196612358,0.035369038581848145,-0.0015219449996948242,-0.012474745512008667,-0.018266424536705017,-0.24621714467714131,1.3832293495388759,0.21965878801970395,0.9528311491012573,0.24373693764209747,-0.1808454394340515
1728067728196,7i,9.84622149988147,0.9s : 0.3s,0.06046156747738978,0.03525952546182878,0.04911585289934,0.03425173197079435,0.09174572676420212,-0.014529897831380367,0.03815097734332085,-0.00568777322769165,-0.02826191484928131,-0.018495798110961914,-0.24561347493323238,1.3829383973066975,0.21882044708905526,0.9529228806495667,0.2431514412164688,-0.18115012347698212
1728067728206,7i,9.84622149988147,0.9s : 0.3s,0.06115591742370473,0.03555857965166777,0.04975573986075367,0.030862765220058836,0.07331718504428864,-0.007461779750883579,0.03854299709200859,-0.004752695560455322,-0.02488437294960022,-0.017626404762268066,-0.2450731718389612,1.3827083395787783,0.21807518033636988,0.9530102014541626,0.2426273077726364,-0.18139389157295227
1728067728216,7i,9.84622149988147,0.9s : 0.3s,0.061930756899103066,0.03587236613186431,0.05048358147157626,0.0328849832787919,0.07195977121591568,-0.005959490314126015,0.0457758754491806,-0.003117382526397705,-0.02789027988910675,-0.01714165508747101,-0.24453839345332976,1.3824972826718682,0.2174294591328774,0.953099250793457,0.24210847914218903,-0.1816193014383316
1728067728226,7i,9.84622149988147,0.9s : 0.3s,0.06261781629181684,0.03619205757133551,0.051099176959211956,0.032928800476645835,0.07097333669662476,-0.008184117265045643,0.045371271669864655,-0.0009786486625671387,-0.025106310844421387,-0.021284297108650208,-0.2440438274734766,1.3822565650797591,0.21678259579948653,0.953173041343689,0.24162860214710236,-0.18187114596366882
1728067728236,7i,9.84622149988147,0.9s : 0.3s,0.06340095134810869,0.036508183922588686,0.05183467120103765,0.027222485089312232,0.0714830607175827,-0.0178359467536211,0.04677315801382065,0.002581477165222168,-0.01907658576965332,-0.01924794912338257,-0.2435223129646581,1.3819698993382177,0.216170511493173,0.9532443881034851,0.24112249910831451,-0.18216797709465027
1728067728246,7i,9.84622149988147,0.9s : 0.3s,0.06366019732328598,0.036823943775478235,0.051928969641810964,0.023666364799180446,0.06184295192360878,-0.021656250581145287,0.044762540608644485,0.0032911300659179688,-0.018343448638916016,-0.01458708941936493,-0.24293984802191787,1.381590105915412,0.21558650837273705,0.953312873840332,0.24055717885494232,-0.1825563907623291
1728067728256,7i,9.84622149988147,0.9s : 0.3s,0.06458416102006569,0.03714152031408085,0.052835795853043516,0.026572567924171963,0.07500855624675751,-0.024770818650722504,0.04577001556754112,0.004193723201751709,-0.019849315285682678,-0.017161548137664795,-0.24233763712893208,1.3811340230035665,0.21497400658264282,0.9533716440200806,0.23997260630130768,-0.18301844596862793
1728067728266,7i,9.84622149988147,0.9s : 0.3s,0.07063260559496214,0.03745071632261113,0.05988663306662669,0.024762529933374522,0.10165934264659882,-0.03451887518167496,0.04637002572417259,0.00815880298614502,-0.014547109603881836,-0.01830296218395233,-0.2416698626949789,1.380538418146984,0.21415484231848883,0.9534195065498352,0.23932430148124695,-0.1836164891719818
1728067728276,7i,9.84622149988147,0.9s : 0.3s,0.08088339549417492,0.03773725373176816,0.07154036166704265,0.013213638031544815,0.13276638090610504,-0.03954532369971275,0.05183989182114601,0.006184935569763184,-0.004969298839569092,-0.0105665922164917,-0.24084190655656654,1.3797613823286854,0.2130339904112582,0.9534708857536316,0.2385203242301941,-0.18439486622810364
1728067728286,7i,9.84622149988147,0.9s : 0.3s,0.09148348657678038,0.03801460583038804,0.08321128565167217,0.016147778370356903,0.1507979929447174,-0.03312377631664276,0.05817365646362305,-0.00015300512313842773,-0.01145346462726593,-0.011381804943084717,-0.23991415626521606,1.3789480969889811,0.2116736063086182,0.9535374641418457,0.23761923611164093,-0.18521235883235931
1728067728296,7i,9.84622149988147,0.9s : 0.3s,0.09821331020068454,0.03832837298326116,0.09042560547229916,0.03227693110641643,0.14271317422389984,-0.03751133754849434,0.06727873533964157,-0.0005511641502380371,-0.03135533630847931,-0.007638022303581238,-0.2388977660347892,1.3781746569400255,0.21028145066871143,0.9536303877830505,0.236631840467453,-0.1859959214925766
1728067728306,7i,9.84622149988147,0.9s : 0.3s,0.1007326469665982,0.03874866067481152,0.09298175875302435,0.0468441471216822,0.13222284615039825,-0.047019753605127335,0.07739438861608505,0.0043024420738220215,-0.046143412590026855,-0.006829977035522461,-0.23781666565640747,1.3773147230506773,0.20898286878357156,0.9537206292152405,0.23558130860328674,-0.18686501681804657
1728067728316,7i,9.84622149988147,0.9s : 0.3s,0.10145169464926947,0.03942910571847092,0.09347615722445085,0.06368068238340127,0.11424357444047928,-0.054067276418209076,0.07792329043149948,0.0012616515159606934,-0.06314167380332947,-0.00817108154296875,-0.23670200855172688,1.3764540138021377,0.2078676487543645,0.9538165330886841,0.23449787497520447,-0.1877364218235016
1728067728326,7i,9.84622149988147,0.9s : 0.3s,0.10204240300823406,0.04020422071322783,0.09378844624225798,0.06156430695000337,0.10747449100017548,-0.06217487156391144,0.08047357201576233,-0.006671726703643799,-0.06091144680976868,-0.005953788757324219,-0.23566367242932623,1.3755864505314088,0.20691806703312954,0.9538916349411011,0.23348836600780487,-0.1886109709739685
1728067728336,7i,9.84622149988147,0.9s : 0.3s,0.103083455070232,0.04102651075099841,0.09456756380924038,0.058695185264196585,0.11165858060121536,-0.059986285865306854,0.08865799009799957,-0.005780696868896484,-0.058225661516189575,-0.00463472306728363,-0.2345336840492443,1.374673226329322,0.20595063429511032,0.953977108001709,0.23238946497440338,-0.1895332783460617
1728067728346,7i,9.84622149988147,0.9s : 0.3s,0.10294642699224126,0.04198595119730602,0.0939954612336484,0.07049657170538422,0.0830940455198288,-0.05722130462527275,0.09863904863595963,-0.005353689193725586,-0.07009755074977875,0.005238130688667297,-0.23337348476223801,1.3738481616334555,0.20513277904308844,0.9540840983390808,0.23126086592674255,-0.19037294387817383
1728067728356,7i,9.84622149988147,0.9s : 0.3s,0.10171392969986484,0.043158926604214096,0.0921033688274273,0.0815180047187083,0.04767080768942833,-0.06730589270591736,0.10416217893362045,-0.0005027055740356445,-0.08029836416244507,0.014039412140846252,-0.23226826046577878,1.3731041464659617,0.2046730073454577,0.9541922807693481,0.23018546402454376,-0.1911328285932541
1728067728366,7i,9.84622149988147,0.9s : 0.3s,0.09928749555701567,0.04451585466942104,0.08874877721431092,0.08796707136884292,0.0016621698159724474,-0.07185648381710052,0.11231262236833572,0.0011372566223144531,-0.08592356741428375,0.01881629228591919,-0.2311496892776442,1.3723886359801478,0.2046578859806814,0.9543071389198303,0.22909678518772125,-0.19186615943908691
1728067728376,7i,9.84622149988147,0.9s : 0.3s,0.09876670284277254,0.04590956368943842,0.08744811920377665,0.0770997089087704,0.02081003040075302,-0.08366440236568451,0.11281383037567139,-0.0004723072052001953,-0.07606615126132965,0.012573093175888062,-0.2299895842217336,1.3716305584552058,0.20480732169320204,0.9544212222099304,0.22796738147735596,-0.1926419734954834
1728067728386,7i,9.84622149988147,0.9s : 0.3s,0.10980756640667227,0.04719793435461464,0.09914664206524207,0.03587406244408178,0.11715015023946762,-0.09722477942705154,0.11303028464317322,0.0023280978202819824,-0.03575634956359863,0.0017354488372802734,-0.22866176959215995,1.3706103045607596,0.20437867310722221,0.9545201063156128,0.22667433321475983,-0.1936756670475006
1728067728396,7i,9.84622149988147,0.9s : 0.3s,0.13070493505336242,0.04815685447509402,0.12151007124665965,0.009570695198590919,0.21005772054195404,-0.08647040277719498,0.13048730790615082,-0.0022458434104919434,-0.009199634194374084,-0.0013860464096069336,-0.22701051917036427,1.3693386527304783,0.20293609315503935,0.9546384811401367,0.22506575286388397,-0.1949639618396759
1728067728406,7i,9.84622149988147,0.9s : 0.3s,0.1604325502623741,0.048982121716283716,0.1527722322146939,0.014263951288214043,0.29992035031318665,-0.08191892504692078,0.14393670856952667,-0.0013481378555297852,-0.010598883032798767,0.009450212121009827,-0.22503304069446792,1.367990782131597,0.2006743328958333,0.9548088312149048,0.22313857078552246,-0.19633975625038147
1728067728416,7i,9.84622149988147,0.9s : 0.3s,0.20515141070051568,0.04970939740180997,0.1990378786119883,0.012365527104327307,0.43189144134521484,-0.09543819725513458,0.14600197970867157,0.009937167167663574,-0.005941152572631836,0.004343003034591675,-0.2227600157495134,1.3663671238666086,0.19732194834564293,0.9549830555915833,0.22092227637767792,-0.1979922503232956
1728067728426,7i,9.84622149988147,0.9s : 0.3s,0.25866469504203876,0.0503630705328931,0.2537143779680011,0.022613422406353872,0.5422741770744324,-0.11225960403680801,0.15050198137760162,0.02186262607574463,0.0017348378896713257,-0.005512058734893799,-0.22016277745979324,1.364361890401353,0.19274883753019564,0.9551424384117126,0.21838846802711487,-0.20002374053001404
1728067728436,7i,9.84622149988147,0.9s : 0.3s,0.3188192674566545,0.05098550198340005,0.3147160686858847,0.03283991690730503,0.654072105884552,-0.13414786756038666,0.15273664891719818,0.023155570030212402,-0.01648692786693573,-0.016445696353912354,-0.21724257702679314,1.3619834279461636,0.1870601564074944,0.9552838206291199,0.21553783118724823,-0.20242628455162048
1728067728446,7i,9.84622149988147,0.9s : 0.3s,0.38565634712264907,0.05159122949966196,0.3821899568469826,0.04761735064301551,0.7828722596168518,-0.15300779044628143,0.132700577378273,0.02480679750442505,-0.024650976061820984,-0.032316625118255615,-0.21410345128936792,1.359193139905866,0.1801745576094881,0.9553720951080322,0.21247144043445587,-0.20523211359977722
1728067728456,7i,9.84622149988147,0.9s : 0.3s,0.4650828208055659,0.05219255304777914,0.4621449638531366,0.050175966069423476,0.9442994594573975,-0.17547395825386047,0.1348193883895874,0.0326998233795166,-0.027351006865501404,-0.026462644338607788,-0.21099627267915982,1.3557821891311437,0.17186486422209918,0.9553069472312927,0.20943418145179749,-0.20862950384616852
1728067728466,7i,9.84622149988147,0.9s : 0.3s,0.5552780586331038,0.05272325900990286,0.5527693735715857,0.06567193317020403,1.1177268028259277,-0.17356647551059723,0.15007267892360687,0.05043822526931763,-0.01632896065711975,-0.03875762224197388,-0.20741875382803138,1.3519365794023162,0.16187596156347145,0.9552228450775146,0.20593467354774475,-0.21246300637722015
1728067728476,7i,9.84622149988147,0.9s : 0.3s,0.6530466919596805,0.05316180517519533,0.6508792548161267,0.08114603944265195,1.2851279973983765,-0.21136391162872314,0.1593511402606964,0.06768161058425903,-0.008654415607452393,-0.043920159339904785,-0.20327346492547366,1.3476629127821689,0.15029683621245035,0.9551303386688232,0.2018764764070511,-0.21673038601875305
1728067728486,7i,9.84622149988147,0.9s : 0.3s,0.7621261122223443,0.05343253294655349,0.7602507318997205,0.08987658508825207,1.4880836009979248,-0.21459880471229553,0.17876721918582916,0.07534313201904297,0.01043403148651123,-0.04787842929363251,-0.1985554398461224,1.3428412383198662,0.13685164363495633,0.954991340637207,0.19725336134433746,-0.22154591977596283
1728067728496,7i,9.84622149988147,0.9s : 0.3s,0.8504983520278624,0.053585037112772696,0.8488086301397582,0.08712954086105827,1.550508975982666,-0.18432877957820892,0.19651132822036743,0.06589710712432861,0.02261313796043396,-0.05232374370098114,-0.1932324872691186,1.3379331607770855,0.1220706123895875,0.9549006223678589,0.19203221797943115,-0.2264695167541504
1728067728506,7i,9.84622149988147,0.9s : 0.3s,0.8996717752696325,0.053756517399537566,0.8980643295743826,0.04004808890243096,1.4849261045455933,-0.16878387331962585,0.21632200479507446,0.029153108596801758,0.006521314382553101,0.026672422885894775,-0.18770960033099554,1.3334248601209242,0.10755686611698051,0.954886257648468,0.18660922348499298,-0.2310180515050888
1728067728516,7i,9.84622149988147,0.9s : 0.3s,0.9419497229590335,0.053680786366225836,0.9404188714385221,0.08367374000443921,1.5250754356384277,-0.17082011699676514,0.20977357029914856,0.03565013408660889,0.07177053391933441,0.024069756269454956,-0.18207190039734572,1.329121284379936,0.09325622484455738,0.9548895955085754,0.18106761574745178,-0.235373392701149
1728067728526,7i,9.84622149988147,0.9s : 0.3s,0.9868644730774315,0.052509152888467366,0.985466527633147,0.19191270474414654,1.6167799234390259,-0.08941479027271271,0.17206230759620667,0.0490952730178833,0.18490208685398102,-0.015210479497909546,-0.17640882913718467,1.3249224410080578,0.07811707735583977,0.9548719525337219,0.17549528181552887,-0.2396264374256134
1728067728536,7i,9.84622149988147,0.9s : 0.3s,1.0121274580115847,0.05027119697177761,1.0108782310525914,0.22501116688181388,1.586981177330017,-0.1467987298965454,0.10075990110635757,-0.0027934908866882324,0.22467964887619019,0.011886000633239746,-0.17120556140050416,1.3209699579844392,0.06280604766170612,0.954789400100708,0.170370414853096,-0.24362118542194366
1728067728546,7i,9.84622149988147,0.9s : 0.3s,1.0342376311970691,0.047546194449605006,1.0331441512090582,0.19589047288106107,1.6121338605880737,-0.1009938195347786,0.10433022677898407,-0.012243032455444336,0.18862028419971466,0.05143514275550842,-0.1661624531539651,1.317212998115103,0.04724687849797765,0.9546870589256287,0.16539888083934784,-0.24741898477077484
1728067728556,7i,9.84622149988147,0.9s : 0.3s,1.042388968895905,0.04451904804891051,1.04143786028581,0.1850450140797506,1.5805413722991943,-0.09076754748821259,0.04145752638578415,-0.06013190746307373,0.16903911530971527,0.04529446363449097,-0.16146503246963154,1.3137143576381047,0.03213149750174369,0.954556405544281,0.16076435148715973,-0.2509523332118988
1728067728566,7i,9.84622149988147,0.9s : 0.3s,1.035324391242267,0.041211169351252304,1.0345038591623876,0.19071447162201993,1.5122699737548828,-0.10469511896371841,-0.016613533720374107,-0.08902770280838013,0.1673395335674286,0.021060824394226074,-0.15732909350707316,1.310280043725509,0.01722851318786004,0.9543231725692749,0.1566808521747589,-0.2543981671333313
1728067728576,7i,9.84622149988147,0.9s : 0.3s,1.0171429589042222,0.037735208941686,1.0164427445038722,0.18993665868371928,1.450715184211731,-0.11162227392196655,-0.058482952415943146,-0.10398679971694946,0.15748870372772217,-0.021447330713272095,-0.1538628855658707,1.3069048169495618,0.0029554594037403143,0.953977644443512,0.15325652062892914,-0.25775787234306335
1728067728586,7i,9.84622149988147,0.9s : 0.3s,0.9941925800310221,0.0337994983736757,0.9936178742848922,0.23217155272584558,1.3970288038253784,-0.11699595302343369,-0.15658451616764069,-0.11959004402160645,0.19530744850635529,-0.03816872835159302,-0.15118458017415246,1.3035426625055249,-0.010806934819723757,0.9534981846809387,0.15060929954051971,-0.2610712945461273
1728067728596,7i,9.84622149988147,0.9s : 0.3s,0.991890188982388,0.02890133105612304,0.9914690414040681,0.32582484368117043,1.438987374305725,-0.12084688991308212,-0.23116926848888397,-0.14113909006118774,0.27845442295074463,-0.09329909086227417,-0.14926908263369515,1.3001812405730253,-0.024850638643244653,0.95289146900177,0.14871537685394287,-0.26435157656669617
1728067728606,7i,9.84622149988147,0.9s : 0.3s,0.9911650316106593,0.02311714223228995,0.9908954120505208,0.3593662704462324,1.4532667398452759,-0.11547449231147766,-0.31935906410217285,-0.1565365195274353,0.3131817579269409,-0.08097913861274719,-0.14808270327634984,1.2967962817002412,-0.03928656402351922,0.9521602392196655,0.1475420892238617,-0.26762306690216064
1728067728616,7i,9.84622149988147,0.9s : 0.3s,0.9980666363038492,0.01649181443851174,0.9979303736029912,0.3996889674340759,1.4798038005828857,-0.11117375642061234,-0.3947773873806,-0.1616639494895935,0.358375608921051,-0.07199278473854065,-0.14751468462281286,1.2934385184871666,-0.05412739072553529,0.9513367414474487,0.14698027074337006,-0.2708415985107422
1728067728626,7i,9.84622149988147,0.9s : 0.3s,1.0268305335498904,0.009122396701457121,1.026790010912053,0.4631633811823771,1.5752453804016113,-0.1001163050532341,-0.4762064516544342,-0.18800878524780273,0.41518986225128174,-0.08240383863449097,-0.14750879305896342,1.2899934168267604,-0.06977554614965921,0.9503989815711975,0.14697444438934326,-0.27411770820617676
1728067728636,7i,9.84622149988147,0.9s : 0.3s,1.0649952909175475,0.004381832942520589,1.0649862765390996,0.49914667070369323,1.6399695873260498,-0.08007735013961792,-0.5595088005065918,-0.21165162324905396,0.44465744495391846,-0.0814293920993805,-0.14796871690846392,1.2866024140056598,-0.08652469407652505,0.9493989944458008,0.14742934703826904,-0.27731993794441223
1728067728646,7i,9.84622149988147,0.9s : 0.3s,1.095442212640323,0.011264506587686964,1.0953842942664744,0.4909775046857685,1.6259715557098389,-0.06554386019706726,-0.6529850363731384,-0.22358298301696777,0.4367869198322296,-0.016933590173721313,-0.14923082446866187,1.2833017471608057,-0.10358596744451762,0.9482991695404053,0.1486775428056717,-0.28039905428886414
1728067728656,7i,9.84622149988147,0.9s : 0.3s,1.1297193477471015,0.020971776561950133,1.1295246740385851,0.5141660438179412,1.654264211654663,-0.0578923299908638,-0.7470801472663879,-0.23407310247421265,0.45722705125808716,-0.022801905870437622,-0.1512437989138515,1.279968085701616,-0.12109933058421296,0.9470705389976501,0.15066784620285034,-0.2834724187850952
1728067728666,7i,9.84622149988147,0.9s : 0.3s,1.15236435729151,0.0316674031668689,1.1519291590773029,0.5619117050361211,1.599593162536621,-0.05529898777604103,-0.8484327793121338,-0.2578655481338501,0.4992389678955078,-0.0032521188259124756,-0.15418801668238102,1.2766680169186677,-0.13865058828194005,0.9457012414932251,0.1535778045654297,-0.28646641969680786
1728067728676,7i,9.84622149988147,0.9s : 0.3s,1.1854646128090787,0.04332741353442384,1.1846725638162623,0.6191051328410042,1.6329303979873657,-0.053518131375312805,-0.960344672203064,-0.2760694622993469,0.5541260242462158,-0.004600733518600464,-0.15817204074889066,1.2732694934317177,-0.1563253706753104,0.9441297650337219,0.1575133353471756,-0.28949710726737976
1728067728686,7i,9.84622149988147,0.9s : 0.3s,1.2313236483199401,0.05603615513087601,1.2300479162333784,0.6780691699130081,1.6876477003097534,-0.014385376125574112,-1.083700180053711,-0.28850018978118896,0.6133822798728943,-0.01753905415534973,-0.16301935243597784,1.269871645912943,-0.17492796623187143,0.942400336265564,0.1622982621192932,-0.2924736440181732
1728067728696,7i,9.84622149988147,0.9s : 0.3s,1.2933162841187933,0.06965455864958169,1.2914392177823064,0.7044860867744934,1.7743455171585083,0.01613364927470684,-1.2148094177246094,-0.3001798987388611,0.6373188495635986,-0.004166394472122192,-0.16887206692912288,1.2665446486360623,-0.19451129672229686,0.9404996633529663,0.16807056963443756,-0.29531776905059814
1728067728706,7i,9.84622149988147,0.9s : 0.3s,1.3414435785226955,0.08370616550516294,1.338829396232469,0.6759068117229342,1.7292526960372925,0.03348618373274803,-1.3171005249023438,-0.27009862661361694,0.6195117831230164,0.01009458303451538,-0.17564039755752262,1.2632067763083255,-0.2148680340658024,0.9384031295776367,0.17473872005939484,-0.2981041669845581
1728067728716,7i,9.84622149988147,0.9s : 0.3s,1.370690960526861,0.09773975386572055,1.367201758989622,0.6225211821156345,1.6149063110351562,0.013552425429224968,-1.4283937215805054,-0.25075018405914307,0.5668208599090576,0.05806100368499756,-0.18361404490591024,1.2597886289355626,-0.23467002181969784,0.9360224008560181,0.18258404731750488,-0.30087408423423767
1728067728726,7i,9.84622149988147,0.9s : 0.3s,1.3824665543189925,0.11174933194438372,1.3779426187692332,0.62187069962154,1.43539297580719,0.007212948054075241,-1.567529559135437,-0.2470499873161316,0.5657306909561157,0.07508832216262817,-0.19317424743017528,1.2562621461066488,-0.25343293621482804,0.9332530498504639,0.19197505712509155,-0.3036191761493683
1728067728736,7i,9.84622149988147,0.9s : 0.3s,1.4022327728006914,0.12600702762570432,1.3965596937135378,0.6723382639802579,1.3599827289581299,0.0032528273295611143,-1.7059308290481567,-0.24271130561828613,0.6222238540649414,0.0772491991519928,-0.20442282012176166,1.25261124117342,-0.2713636788019623,0.9300283789634705,0.20300203561782837,-0.3063293695449829
1728067728746,7i,9.84622149988147,0.9s : 0.3s,1.4373092846754194,0.1408377708572439,1.4303924993211228,0.7322359719527082,1.3353005647659302,0.028603456914424896,-1.8472627401351929,-0.22979629039764404,0.6931361556053162,0.05408746004104614,-0.21707296881690466,1.2488032413178984,-0.28931770310547295,0.9263448119163513,0.2153722047805786,-0.30903124809265137
1728067728756,7i,9.84622149988147,0.9s : 0.3s,1.4929987074649809,0.1562539980036811,1.4847995920662054,0.7625246229703305,1.365738034248352,0.04744132608175278,-2.0010933876037598,-0.21138888597488403,0.7305383086204529,0.055428504943847656,-0.2309828913875344,1.2449013391197339,-0.30784805865564147,0.9222043752670288,0.2289344221353531,-0.3116540312767029
1728067728766,7i,9.84622149988147,0.9s : 0.3s,1.5707873646077162,0.17214605489506588,1.5613259366946157,0.7761574218259252,1.4325225353240967,0.029122019186615944,-2.1771633625030518,-0.1868860125541687,0.7502536773681641,0.06792187690734863,-0.24629318407587875,1.24045210563429,-0.32740552490549685,0.9173853397369385,0.24381068348884583,-0.31458017230033875
1728067728776,7i,9.84622149988147,0.9s : 0.3s,1.6713786937546422,0.18863170399300777,1.6607000988094351,0.823694153133376,1.6177611351013184,0.0180352795869112,-2.313443660736084,-0.14193278551101685,0.8103622198104858,0.04049956798553467,-0.26260738202445627,1.2350159209234601,-0.3489419746721445,0.9117845296859741,0.2595994174480438,-0.3182094693183899
1728067728786,7i,9.84622149988147,0.9s : 0.3s,1.7759130131401317,0.20550613200613413,1.7639824998985503,0.8246122260233643,1.706824541091919,0.05782578885555267,-2.453389883041382,-0.10552608966827393,0.817168116569519,0.03295204043388367,-0.27955267297024794,1.2287988470420363,-0.37265367505129904,0.9055138826370239,0.27592572569847107,-0.3223501741886139
1728067728796,7i,9.84622149988147,0.9s : 0.3s,1.8645659668279868,0.2221337473895587,1.8512868073110273,0.7344600253466348,1.6415483951568604,0.032926302403211594,-2.590533971786499,-0.09214431047439575,0.7228403091430664,0.09188494086265564,-0.29760069498912767,1.222063019998574,-0.39703606994794155,0.8984950184822083,0.2932272255420685,-0.3266870975494385
1728067728806,7i,9.84622149988147,0.9s : 0.3s,1.9408927250566304,0.23829090411732612,1.9262092345310515,0.7111715401265499,1.5645233392715454,0.01877124421298504,-2.7214362621307373,-0.03728228807449341,0.7028226256370544,0.1020556092262268,-0.3170820121613269,1.2146449006764668,-0.42130734761954275,0.8905233144760132,0.31179535388946533,-0.33128833770751953
1728067728816,7i,9.84622149988147,0.9s : 0.3s,2.008661574648995,0.2543564849733715,1.9924919322354537,0.7223793010651797,1.4814943075180054,-0.01695852354168892,-2.8488101959228516,0.02806687355041504,0.7178524136543274,0.07571008801460266,-0.33775781618127754,1.206464373462476,-0.4457416465256815,0.8815705180168152,0.3313724398612976,-0.336192786693573
1728067728826,7i,9.84622149988147,0.9s : 0.3s,2.0805830149332047,0.27016869420611794,2.0629674158113853,0.7120197774953685,1.447116494178772,-0.05595541000366211,-2.9993391036987305,0.06385743618011475,0.7041101455688477,0.08439961075782776,-0.3597194387161488,1.1972406542207434,-0.47046391011120675,0.8714452981948853,0.35201165080070496,-0.341571182012558
1728067728836,7i,9.84622149988147,0.9s : 0.3s,2.157870763557875,0.2859196734131109,2.138844588223555,0.7325672763982972,1.4547579288482666,-0.10085871070623398,-3.1373705863952637,0.09257304668426514,0.7224507331848145,0.07842183113098145,-0.38289065486868773,1.186789342750983,-0.49592876073025827,0.8600332140922546,0.37360337376594543,-0.34751051664352417
1728067728846,7i,9.84622149988147,0.9s : 0.3s,2.243153704986881,0.3015245349993836,2.2227958743415415,0.7676301403272182,1.542800784111023,-0.12131696939468384,-3.2587108612060547,0.13818973302841187,0.7521136999130249,0.06696724891662598,-0.4068113731742512,1.1748394338967107,-0.5229202169571115,0.8473297357559204,0.3956829607486725,-0.3542138934135437
1728067728856,7i,9.84622149988147,0.9s : 0.3s,2.329734268856481,0.31696824006957125,2.3080712506921097,0.7669337221714969,1.5961180925369263,-0.15182481706142426,-3.3764491081237793,0.19644534587860107,0.7406408786773682,0.03236740827560425,-0.43119759454228374,1.1612150440854598,-0.5518916658604045,0.8333246111869812,0.417959064245224,-0.36177411675453186
1728067728866,7i,9.84622149988147,0.9s : 0.3s,2.4086717577594996,0.33225619806330986,2.3856457103846647,0.7176798393693389,1.577366828918457,-0.19067150354385376,-3.4819157123565674,0.24415981769561768,0.6731146574020386,0.04865175485610962,-0.45615808972512023,1.1459916902508782,-0.5821332129176295,0.8179587125778198,0.4405022859573364,-0.37000182271003723
1728067728876,7i,9.84622149988147,0.9s : 0.3s,2.4801348716542435,0.3464653451061756,2.455815698751816,0.6805344760092306,1.505212426185608,-0.2568920850753784,-3.5982720851898193,0.2991223931312561,0.610145092010498,0.03709357976913452,-0.4818480453781971,1.129065181169169,-0.6132073276702091,0.8010821342468262,0.46341758966445923,-0.37882938981056213
1728067728886,7i,9.84622149988147,0.9s : 0.3s,2.539495672452383,0.3605110763669169,2.5137760509283935,0.6987190530736086,1.4054220914840698,-0.29418399930000305,-3.6852619647979736,0.3430887460708618,0.6076675653457642,0.03519314527511597,-0.5085270811331116,1.1104573847722201,-0.6448444195163259,0.7825369834899902,0.4868912398815155,-0.38803738355636597
1728067728896,7i,9.84622149988147,0.9s : 0.3s,2.583948965337326,0.37429227983391017,2.556696607875986,0.7283962461776371,1.2594764232635498,-0.2937498986721039,-3.7535910606384277,0.38347166776657104,0.6189144253730774,0.021342575550079346,-0.5357253318584182,1.0908272781807387,-0.6766932932574384,0.7627381086349487,0.5104649066925049,-0.39705970883369446
1728067728906,7i,9.84622149988147,0.9s : 0.3s,2.635796698124527,0.3875658566838789,2.6071472801851927,0.7677286450958211,1.264139175415039,-0.38767096400260925,-3.8474836349487305,0.443159818649292,0.6268438100814819,0.00913703441619873,-0.5633595898259498,1.0696529957102743,-0.709064628756502,0.7415021061897278,0.5340296030044556,-0.40618592500686646
1728067728916,7i,9.84622149988147,0.9s : 0.3s,2.686275661468285,0.40058367240979187,2.6562397577770636,0.8311099692804976,1.2321332693099976,-0.46311962604522705,-3.921067237854004,0.5270525217056274,0.6407769322395325,-0.048624515533447266,-0.5911089730714072,1.0458536823753453,-0.7433862086752634,0.7185224890708923,0.5572821497917175,-0.41612762212753296
1728067728926,7i,9.84622149988147,0.9s : 0.3s,2.7376023752289753,0.4135714729523463,2.70618281008866,0.8741464569613525,1.2259633541107178,-0.5254414081573486,-3.995059013366699,0.5817579030990601,0.6491266489028931,-0.06575989723205566,-0.6188215733456929,1.019595040163353,-0.7792320189842122,0.6939226984977722,0.5800756812095642,-0.42659538984298706
1728067728936,7i,9.84622149988147,0.9s : 0.3s,2.7880143943365785,0.42656601328232346,2.7551888681795274,0.8832204267887439,1.188804268836975,-0.5884451270103455,-4.070871353149414,0.6079146265983582,0.6329448223114014,-0.09949362277984619,-0.6463982796248027,0.9907073207218468,-0.8171324555032213,0.6676744222640991,0.6023151874542236,-0.43752413988113403
1728067728946,7i,9.84622149988147,0.9s : 0.3s,2.837026924856473,0.4396596095458985,2.8027524328942297,0.9163175579478495,1.1367141008377075,-0.6654030680656433,-4.143828392028809,0.6566984057426453,0.6275040507316589,-0.12092864513397217,-0.6738791886200952,0.9591011214880342,-0.856882549856368,0.6397188305854797,0.6240218877792358,-0.44872769713401794
1728067728956,7i,9.84622149988147,0.9s : 0.3s,2.8878034186549324,0.4530248223040785,2.852047877433244,0.9609570643043129,1.0839192867279053,-0.7621996402740479,-4.225864887237549,0.6998940110206604,0.6356985569000244,-0.1716805100440979,-0.7012458202633994,0.924308638193453,-0.8987745248061124,0.6098594665527344,0.6451700329780579,-0.4602469205856323
1728067728966,7i,9.84622149988147,0.9s : 0.3s,2.934076607494431,0.4668755703959697,2.89669341498431,1.0113140508880176,1.0647547245025635,-0.8169238567352295,-4.27140998840332,0.7381512522697449,0.654396653175354,-0.22283145785331726,-0.7280460103881302,0.8862850604084834,-0.9430780870700585,0.5783160328865051,0.6654123067855835,-0.4719926714897156
1728067728976,7i,9.84622149988147,0.9s : 0.3s,2.9749777651565346,0.4810608040584581,2.935825813289065,1.0143555364856964,0.9217607975006104,-0.9054474234580994,-4.33195686340332,0.7649454474449158,0.6248704195022583,-0.23089516162872314,-0.7542966023474625,0.8451813224314341,-0.9895177344554631,0.5451741814613342,0.684776246547699,-0.4835975766181946
1728067728986,7i,9.84622149988147,0.9s : 0.3s,3.0163860666181512,0.49560890895815407,2.9753918586044144,1.0493212507558398,0.7814038991928101,-1.049445629119873,-4.396045684814453,0.8158595561981201,0.614118754863739,-0.24146723747253418,-0.7805366526468444,0.800790825001274,-1.0375465360740868,0.5100986957550049,0.7036608457565308,-0.49463197588920593
1728067728996,7i,9.84622149988147,0.9s : 0.3s,3.061758823790966,0.5109086739059635,3.018830803802937,1.1460961196436676,0.679253339767456,-1.1967980861663818,-4.459645748138428,0.8886241912841797,0.6535255908966064,-0.31110715866088867,-0.8065024197696548,0.7523518359318784,-1.0879993624796878,0.4729022681713104,0.7218711972236633,-0.5052379965782166
1728067729006,7i,9.84622149988147,0.9s : 0.3s,3.125327770926804,0.5272408470405264,3.080534168766562,1.2071821732416266,0.6832728385925293,-1.3568183183670044,-4.573681354522705,0.9257477521896362,0.6912640929222107,-0.34990549087524414,-0.8313859308104596,0.698594939535248,-1.1440248641060742,0.4333830773830414,0.7388659715652466,-0.5160002112388611
1728067729016,7i,9.84622149988147,0.9s : 0.3s,3.195984286963172,0.544973483202303,3.149177585516867,1.263892861479598,0.8648505806922913,-1.424934983253479,-4.647368431091309,0.9351202249526978,0.757651686668396,-0.3859264850616455,-0.8540235044095958,0.6387028830480844,-1.2038104002865067,0.39164674282073975,0.7539297342300415,-0.527449369430542
1728067729026,7i,9.84622149988147,0.9s : 0.3s,3.269519847682562,0.5637953358523677,3.220542633417748,1.2645009659143231,1.1388858556747437,-1.4807624816894531,-4.697016716003418,0.9661239385604858,0.7401013970375061,-0.3432450294494629,-0.872432705818827,0.5726074073868522,-1.2698154714726757,0.34837496280670166,0.7658953666687012,-0.5404066443443298
1728067729036,7i,9.84622149988147,0.9s : 0.3s,3.342269442312658,0.5831578136232194,3.2910016696178013,1.239135860642024,1.3628425598144531,-1.5313856601715088,-4.736298084259033,0.9953696727752686,0.6748617887496948,-0.2987615466117859,-0.8857223879402539,0.5008053174641935,-1.3417013569582479,0.30379414558410645,0.7743722796440125,-0.5550286173820496
1728067729046,7i,9.84622149988147,0.9s : 0.3s,3.40770538076615,0.6027860232950326,3.353968540732416,1.2205842707668313,1.4059160947799683,-1.6365115642547607,-4.7595648765563965,1.032101035118103,0.6014790534973145,-0.2506319284439087,-0.8945534937094481,0.4248429557907266,-1.4173110277772167,0.2579685151576996,0.7799296975135803,-0.5702298283576965
1728067729056,7i,9.84622149988147,0.9s : 0.3s,3.468789951146738,0.6226947972190346,3.4124411957853478,1.2032034547801977,1.4603254795074463,-1.7471115589141846,-4.781833648681641,1.0598045587539673,0.5353260040283203,-0.1947791576385498,-0.8992091779690151,0.3457693048644416,-1.49502623546848,0.21088631451129913,0.782835066318512,-0.5854026675224304
1728067729066,7i,9.84622149988147,0.9s : 0.3s,3.523137537892382,0.642795067843566,3.464002397756442,1.1858743335465545,1.4780659675598145,-1.8321980237960815,-4.801018714904785,1.0548791885375977,0.4950207471847534,-0.22018694877624512,-0.899588016543072,0.26475285667995574,-1.5738300641988487,0.16274160146713257,0.7830707430839539,-0.6002628803253174
1728067729076,7i,9.84622149988147,0.9s : 0.3s,3.571313047673447,0.6630477728182352,3.509222782247286,1.1952879797064038,1.517114281654358,-1.9250613451004028,-4.802966117858887,1.0809705257415771,0.4665684103965759,-0.20622801780700684,-0.8956636582931939,0.18306440138537672,-1.652549556717472,0.11377743631601334,0.7806240320205688,-0.6145575046539307
1728067729086,7i,9.84622149988147,0.9s : 0.3s,3.61205234551355,0.6830278867456605,3.5468852607122345,1.2280587553229387,1.5566433668136597,-2.0199778079986572,-4.785212516784668,1.1193283796310425,0.4603028893470764,-0.2082151174545288,-0.8872753261127622,0.10181679565253363,-1.7297181787245104,0.06418901681900024,0.7753539085388184,-0.6282564401626587
1728067729096,7i,9.84622149988147,0.9s : 0.3s,3.642083912692026,0.7032184228826717,3.5735499264468746,1.21815088658865,1.5643057823181152,-2.119445323944092,-4.741637229919434,1.114397406578064,0.4491814374923706,-0.20061415433883667,-0.874731402066925,0.02217720256500954,-1.8043076264489812,0.014218922704458237,0.7673712968826294,-0.641045331954956
1728067729106,7i,9.84622149988147,0.9s : 0.3s,3.684626922452365,0.723301889917418,3.612936469646634,1.2393547698565743,1.6776585578918457,-2.21695613861084,-4.777341365814209,1.1357662677764893,0.4351365566253662,-0.2380995750427246,-0.8573360973191873,-0.055228800170009064,-1.8754550657694697,-0.03612633794546127,0.7561018466949463,-0.6534560918807983
1728067729116,7i,9.84622149988147,0.9s : 0.3s,3.737877866214174,0.7440824745113112,3.6630686881164203,1.2818395666455074,1.995774507522583,-2.2312822341918945,-4.786670207977295,1.1116317510604858,0.5338523983955383,-0.3498415946960449,-0.8349282354935256,-0.12961770880915335,-1.9431094474002268,-0.08675999939441681,0.741248369216919,-0.6656002402305603
1728067729126,7i,9.84622149988147,0.9s : 0.3s,3.793042726943784,0.7650304043056225,3.7150910633400516,1.2018581797438532,2.251239538192749,-2.2328426837921143,-4.778736114501953,1.0623254776000977,0.4552859663963318,-0.32960939407348633,-0.805859579132115,-0.1988610409985104,-2.005097066998524,-0.13680371642112732,0.7214261889457703,-0.6788439154624939
1728067729136,7i,9.84622149988147,0.9s : 0.3s,3.8235923951832533,0.7848777288991294,3.742168589892945,1.0981859903570168,2.209429979324341,-2.258761167526245,-4.718761920928955,1.0493558645248413,0.2969629764556885,-0.12914228439331055,-0.7731785718874188,-0.26270463886638973,-2.061618361737552,-0.18586105108261108,0.6984136700630188,-0.6911396384239197
1728067729146,7i,9.84622149988147,0.9s : 0.3s,3.828409832804185,0.8041870291837103,3.742994131708524,1.152204253960092,1.9097249507904053,-2.441720485687256,-4.658969879150391,1.134207010269165,0.19400262832641602,-0.05926281213760376,-0.7399320650026249,-0.3230183307037958,-2.1132587070569055,-0.234426811337471,0.6742377281188965,-0.7003196477890015
1728067729156,7i,9.84622149988147,0.9s : 0.3s,3.8184104852479854,0.8235436705675028,3.7285432083482637,1.1823456827357526,1.7322773933410645,-2.575873374938965,-4.564682960510254,1.1632698774337769,0.20793014764785767,-0.03885304927825928,-0.7069560008527378,-0.3808896200173234,-2.1608087977747714,-0.28265467286109924,0.6495223045349121,-0.7058520913124084
1728067729166,7i,9.84622149988147,0.9s : 0.3s,3.802842082367399,0.8423930855474595,3.7083664588125926,1.122069825721576,1.6203900575637817,-2.636948823928833,-4.508853435516357,1.0933259725570679,0.24537616968154907,-0.058902859687805176,-0.6736474922897447,-0.43587584773107885,-2.204273366624907,-0.32997456192970276,0.6238408088684082,-0.7084768414497375
1728067729176,7i,9.84622149988147,0.9s : 0.3s,3.785468929032379,0.861208014960967,3.686203435465348,1.0647254386849212,1.6754714250564575,-2.599595546722412,-4.45203971862793,1.0076284408569336,0.3278666138648987,-0.10406088829040527,-0.6390137120807837,-0.48743355084894485,-2.2438545577197226,-0.37594518065452576,0.5964040756225586,-0.709201991558075
1728067729186,7i,9.84622149988147,0.9s : 0.3s,3.7585014070826186,0.8797978263377045,3.654078353266864,1.0327194125655859,1.6922203302383423,-2.584207057952881,-4.351590633392334,0.98561692237854,0.2995092272758484,-0.0732317566871643,-0.6026452896357898,-0.5347524405228665,-2.2788437397169083,-0.41985151171684265,0.5668237209320068,-0.7088268995285034
1728067729196,7i,9.84622149988147,0.9s : 0.3s,3.725253495477303,0.8979734520743462,3.6154055491653416,1.0043023834177633,1.588750958442688,-2.613389730453491,-4.275426387786865,0.9697411060333252,0.25707340240478516,-0.04624640941619873,-0.565857144662292,-0.5791962097344996,-2.3103609520518575,-0.4620354473590851,0.5361395478248596,-0.706454336643219
1728067729206,7i,9.84622149988147,0.9s : 0.3s,3.68029559497618,0.9161327253445343,3.56444616959688,1.0346047947943935,1.417962670326233,-2.654092788696289,-4.168741226196289,0.9997327327728271,0.26413094997406006,-0.034298479557037354,-0.5295629585413495,-0.6216190509784986,-2.3392944427476485,-0.5025861859321594,0.5051562190055847,-0.7015870809555054
1728067729216,7i,9.84622149988147,0.9s : 0.3s,3.63495944133419,0.9343421351064395,3.51282435010766,1.0267811449980733,1.3326858282089233,-2.6957781314849854,-4.072898864746094,0.9891982078552246,0.27286726236343384,-0.03619229793548584,-0.4940240142826619,-0.662355229945901,-2.3659134799390826,-0.5414443016052246,0.47417259216308594,-0.6942611336708069
1728067729226,7i,9.84622149988147,0.9s : 0.3s,3.597295061995153,0.9525506494880392,3.468887288917676,1.0001263189191902,1.3135979175567627,-2.713913679122925,-4.015769004821777,0.9542374610900879,0.2817394435405731,-0.10152047872543335,-0.45823562117345684,-0.701314313700111,-2.3900563348594797,-0.5786576271057129,0.44236645102500916,-0.6851768493652344
1728067729236,7i,9.84622149988147,0.9s : 0.3s,3.552211581613913,0.970699817606834,3.4170087773738707,0.9815776331233335,1.2592588663101196,-2.7015652656555176,-3.9091200828552246,0.9388193488121033,0.27899277210235596,-0.06539046764373779,-0.42242347402802777,-0.7384997870919435,-2.4118663786804837,-0.6140055656433105,0.40997210144996643,-0.6744776964187622
1728067729246,7i,9.84622149988147,0.9s : 0.3s,3.5110044131116274,0.9889377840811869,3.368850552949168,0.9887741965398221,1.2851063013076782,-2.691816568374634,-3.8308303356170654,0.9428274631500244,0.2780914902687073,-0.10684525966644287,-0.3866857593535449,-0.7738571454676558,-2.43118924507942,-0.6472952365875244,0.3771209716796875,-0.6624112725257874
1728067729256,7i,9.84622149988147,0.9s : 0.3s,3.4711474950560697,1.0071895288930048,3.321811882891973,0.9808070469780542,1.2546064853668213,-2.712385892868042,-3.7425711154937744,0.9341300129890442,0.25863876938819885,-0.14996522665023804,-0.35075865232296266,-0.807726503495904,-2.448257577362175,-0.6787131428718567,0.34361037611961365,-0.6490612030029297
1728067729266,7i,9.84622149988147,0.9s : 0.3s,3.4301488818728583,1.0255491799223027,3.2732507131862527,1.010087135268503,1.1796029806137085,-2.7634990215301514,-3.6319773197174072,0.9800841808319092,0.2299625277519226,-0.08263325691223145,-0.31541801035798617,-0.8406104126816618,-2.4653133895428674,-0.7082947492599487,0.3102138936519623,-0.6341025233268738
1728067729276,7i,9.84622149988147,0.9s : 0.3s,3.3918026363331797,1.0439022622653449,3.2271648843333067,1.0460703334961015,0.9943631887435913,-2.839275360107422,-3.5573832988739014,1.0267590284347534,0.19599851965904236,-0.04016989469528198,-0.28107660174021926,-0.873290240906177,-2.481273815425984,-0.7363690733909607,0.27739015221595764,-0.6171023845672607
1728067729286,7i,9.84622149988147,0.9s : 0.3s,3.345598160781388,1.0622688338950381,3.172477262008206,1.057900377725936,0.8059940934181213,-2.9244494438171387,-3.399319887161255,1.0428292751312256,0.17373955249786377,-0.03840416669845581,-0.2484245238918772,-0.9061962208366784,-2.496786813012348,-0.7629983425140381,0.24587716162204742,-0.5978109836578369
1728067729296,7i,9.84622149988147,0.9s : 0.3s,3.2978741372203237,1.0807687704497262,3.115752347309921,1.0585339987228224,0.7466175556182861,-2.939121723175049,-3.271982431411743,1.0419092178344727,0.18116500973701477,-0.0458109974861145,-0.21717510430991724,-0.9388517440161113,-2.511165817248804,-0.7879267334938049,0.21547195315361023,-0.576839029788971
1728067729306,7i,9.84622149988147,0.9s : 0.3s,3.250251791235755,1.0993532846337941,3.058685839048548,1.0337365693034413,0.6781896352767944,-2.928934335708618,-3.17370343208313,1.02104914188385,0.16145889461040497,-0.0009848475456237793,-0.18679344125117506,-0.9708011633729817,-2.5242011131443665,-0.8109813928604126,0.18570907413959503,-0.554816484451294
1728067729316,7i,9.84622149988147,0.9s : 0.3s,3.201632632037572,1.1179553792068184,3.000104544950121,1.0203377336561104,0.6281815767288208,-2.907832622528076,-3.0716915130615234,1.0112364292144775,0.13207396864891052,0.03234875202178955,-0.1570999137314587,-1.0020584122944358,-2.536173314270563,-0.8322051167488098,0.15645450353622437,-0.5319367051124573
1728067729326,7i,9.84622149988147,0.9s : 0.3s,3.1414875357694947,1.1365217440838848,2.9286963418250815,1.0168104468420105,0.5697619915008545,-2.8440968990325928,-2.930479049682617,1.0113147497177124,0.09421142935752869,0.047646284103393555,-0.12843140892584265,-1.0323448488836646,-2.546954569712207,-0.8514332175254822,0.1280786246061325,-0.5085837841033936
1728067729336,7i,9.84622149988147,0.9s : 0.3s,3.0700093857578694,1.154678518826632,2.8445869905491987,1.000292467272453,0.6075993776321411,-2.7337117195129395,-2.785169839859009,0.9958025217056274,0.039320506155490875,0.086117684841156,-0.10080374236519427,-1.061270213593542,-2.5562686526042606,-0.8685442209243774,0.10063311457633972,-0.4852875769138336
1728067729346,7i,9.84622149988147,0.9s : 0.3s,2.9931646699106946,1.1726146460525912,2.753908065470696,1.002710929450855,0.6358118057250977,-2.6263272762298584,-2.6577305793762207,0.9892420768737793,-0.034248195588588715,0.1601760983467102,-0.07389673706867927,-1.088730004574571,-2.563784620622256,-0.8836207389831543,0.07382950186729431,-0.46234574913978577
1728067729356,7i,9.84622149988147,0.9s : 0.3s,2.9076655954161734,1.1901690282483175,2.6529261013012304,1.0367166760242021,0.6192623972892761,-2.4930307865142822,-2.526413679122925,0.9955647587776184,-0.13300342857837677,0.25679245591163635,-0.04787767316816813,-1.1147323209550344,-2.569906668349869,-0.8967640995979309,0.04785938560962677,-0.4399131238460541
1728067729366,7i,9.84622149988147,0.9s : 0.3s,2.805344785506373,1.205959041156754,2.532907846057586,1.0729791089490623,0.6371055841445923,-2.3515634536743164,-2.3124423027038574,0.9930742383003235,-0.2474975287914276,0.32223081588745117,-0.023393833369131284,-1.139130930000029,-2.5746562893832343,-0.9080218076705933,0.02339169941842556,-0.4182695746421814
1728067729376,7i,9.84622149988147,0.9s : 0.3s,2.6994856101868083,1.219968141665883,2.4080905906809105,1.1037516177248048,0.6498578786849976,-2.216949701309204,-2.1512553691864014,0.975034236907959,-0.3674800395965576,0.36405259370803833,-0.0003993359677104916,-1.1620390803208582,-2.5778841242897648,-0.9176154136657715,0.00039933595689944923,-0.3974692225456238
1728067729386,7i,9.84622149988147,0.9s : 0.3s,2.5830954459383393,1.2324833820719354,2.270102816117347,1.2105359037418333,0.6159287691116333,-2.0498206615448,-1.9639742374420166,1.0049819946289062,-0.46912533044815063,0.48510801792144775,0.021049558181054296,-1.1833769619549497,-2.5800222370186114,-0.9256820678710938,-0.021048003807663918,-0.37771663069725037
1728067729396,7i,9.84622149988147,0.9s : 0.3s,2.4586833590124675,1.2437238900154248,2.120913658141163,1.2941440189732825,0.5822057127952576,-1.885312557220459,-1.7596781253814697,1.007491111755371,-0.5480111241340637,0.5995450019836426,0.040638359409692834,-1.2030146224422564,-2.5813923416576348,-0.9323567748069763,-0.04062717407941818,-0.3592495024204254
1728067729406,7i,9.84622149988147,0.9s : 0.3s,2.322144605143625,1.2541443870859106,1.9543483373080015,1.3915232657825567,0.5450003743171692,-1.6776750087738037,-1.530643343925476,1.047985553741455,-0.6165124773979187,0.676738977432251,0.05800427800495014,-1.2208222548266088,-2.581837525182141,-0.9378017783164978,-0.057971756905317307,-0.3422968089580536
1728067729416,7i,9.84622149988147,0.9s : 0.3s,2.169649135321405,1.2639768179790118,1.7634454837086886,1.4937888488773376,0.5420030355453491,-1.433621883392334,-1.2378545999526978,1.0537970066070557,-0.6667661070823669,0.8223989009857178,0.07293779875030233,-1.2364638050561563,-2.5814562483084758,-0.9421179890632629,-0.07287314534187317,-0.32726627588272095
1728067729426,7i,9.84622149988147,0.9s : 0.3s,2.004267037116308,1.2734541549759448,1.5477082642557303,1.5730656172843926,0.5522737503051758,-1.1286542415618896,-0.9409791827201843,1.0670545101165771,-0.7284510731697083,0.8973790407180786,0.08509764879720018,-1.24931510230223,-2.579766002380215,-0.9453352689743042,-0.08499497920274734,-0.31482887268066406
1728067729436,7i,9.84622149988147,0.9s : 0.3s,1.8311600465815603,1.2825369323436182,1.3069989033550113,1.6180262376572474,0.6095125675201416,-0.7618898153305054,-0.6197934746742249,1.030310034751892,-0.784517228603363,0.9700530171394348,0.09431515077796176,-1.25907509825468,-2.5767412163394865,-0.9475769400596619,-0.09417538344860077,-0.30533429980278015
1728067729446,7i,9.84622149988147,0.9s : 0.3s,1.6607811741617928,1.2914778241183034,1.0441643253151662,1.7291896770028992,0.6938637495040894,-0.3261672258377075,-0.2742694318294525,1.0399115085601807,-0.8376287817955017,1.0986623764038086,0.1006054366602708,-1.265001459246955,-2.57184147865022,-0.9487861394882202,-0.10043580830097198,-0.2995290160179138
1728067729456,7i,9.84622149988147,0.9s : 0.3s,1.5131473944073275,1.3004535333948988,0.7735862231725738,1.859411841660835,0.6566005349159241,0.0941978245973587,0.06383856385946274,1.0620231628417969,-0.9261186122894287,1.213187336921692,0.10363833898892255,-1.2667608533283234,-2.565659799895108,-0.9490166902542114,-0.10345291346311569,-0.29776671528816223
1728067729466,7i,9.84622149988147,0.9s : 0.3s,1.4114891151333022,1.3101815398580272,0.525096043362585,1.9598113435539153,0.605741024017334,0.5230979919433594,0.4238293170928955,1.1365318298339844,-0.9546290040016174,1.2797809839248657,0.1032478028245904,-1.2644369411981187,-2.5588455753867603,-0.9483604431152344,-0.10306446254253387,-0.2999834716320038
1728067729476,7i,9.84622149988147,0.9s : 0.3s,1.3820312298846296,1.3211193450545908,0.4057757958515394,2.0231232726176502,0.5553324222564697,0.9863596558570862,0.8021295070648193,1.1708197593688965,-0.9456154108047485,1.3520430326461792,0.09917906672318982,-1.2576160338493652,-2.55143083349066,-0.946683406829834,-0.09901655465364456,-0.3065717816352844
1728067729486,7i,9.84622149988147,0.9s : 0.3s,1.448216295660577,1.3336330260962443,0.5645824923978944,2.0547075113347724,0.5729565620422363,1.4361076354980469,1.199413776397705,1.2264633178710938,-0.956948459148407,1.3423339128494263,0.09142713396990808,-1.2463077165315393,-2.5429205260958168,-0.943855345249176,-0.09129981696605682,-0.3174925744533539
1728067729496,7i,9.84622149988147,0.9s : 0.3s,1.613070359534993,1.3484160300778483,0.8853079659866656,2.117616620464038,0.6569332480430603,1.9200351238250732,1.606697678565979,1.3346624374389648,-0.9292668700218201,1.3562593460083008,0.08014198360847948,-1.2304463835436077,-2.532574968697886,-0.9396124482154846,-0.08005622029304504,-0.33274558186531067
1728067729506,7i,9.84622149988147,0.9s : 0.3s,1.8611763374295232,1.3657702388353516,1.2643769270748344,2.2089136292302634,0.7519489526748657,2.4277782440185547,2.0276074409484863,1.438241958618164,-0.9511870741844177,1.3805805444717407,0.0655377084401793,-1.2096419264824236,-2.5197099824664777,-0.9334812760353088,-0.06549080461263657,-0.35259583592414856
1728067729516,7i,9.84622149988147,0.9s : 0.3s,2.171619432292173,1.3860223055453174,1.6717874049172106,2.337837946168349,0.8128653168678284,2.9468252658843994,2.4698538780212402,1.5836029052734375,-1.0191525220870972,1.3852856159210205,0.04751571976387126,-1.1836822388736117,-2.5041020167381327,-0.924957275390625,-0.04749784246087074,-0.37709155678749084
1728067729526,7i,9.84622149988147,0.9s : 0.3s,2.5332673076934573,1.4096148816502942,2.1048584602434635,2.5086720958879476,0.8841179013252258,3.509819269180298,2.9253273010253906,1.7576189041137695,-1.094207525253296,1.4166585206985474,0.02618730418871941,-1.1520948254726515,-2.485612140915843,-0.9133044481277466,-0.026184311136603355,-0.40643510222435
1728067729536,7i,9.84622149988147,0.9s : 0.3s,2.94094687849614,1.4373068706061,2.5657976346245017,2.728252825115336,0.9672961831092834,4.123575687408447,3.4019737243652344,1.99259352684021,-1.1634817123413086,1.4557626247406006,0.001450570469399534,-1.1142791571970967,-2.463777620603549,-0.8975923657417297,-0.0014505699509754777,-0.4408241808414459
1728067729546,7i,9.84622149988147,0.9s : 0.3s,3.387829971885443,1.4700027320178288,3.0522915794965337,3.0302896810987137,1.0380759239196777,4.752630233764648,3.9148383140563965,2.2929773330688477,-1.276421308517456,1.5151432752609253,-0.026424395756009786,-1.0695999300493284,-2.438062395417734,-0.8767021894454956,0.0264213215559721,-0.480307400226593
1728067729556,7i,9.84622149988147,0.9s : 0.3s,3.874176849256074,1.5087516248803767,3.568321004861046,3.3666518666107503,1.1392015218734741,5.442477226257324,4.437742233276367,2.6402275562286377,-1.3754029273986816,1.5721991062164307,-0.057013404419910624,-1.0172883489186069,-2.407604170512549,-0.8493034839630127,0.05698252096772194,-0.5248205065727234
1728067729566,7i,9.84622149988147,0.9s : 0.3s,4.405310981502316,1.5550956610874336,4.12170381379011,3.796384366217405,1.2264184951782227,6.194100856781006,5.022395610809326,3.079043388366699,-1.4391016960144043,1.6914527416229248,-0.0899645516406794,-0.9563701314164393,-2.37150496044654,-0.8137999773025513,0.08984324336051941,-0.5741584300994873
1728067729576,7i,9.84622149988147,0.9s : 0.3s,4.973989854101034,1.6108925198303534,4.705911214446639,4.338035047378651,1.2461214065551758,6.961792945861816,5.641082286834717,3.6284923553466797,-1.5136460065841675,1.8334304094314575,-0.12488655665312082,-0.8860593577343316,-2.329107560152654,-0.7685527801513672,0.12456217408180237,-0.6275435090065002
1728067729586,7i,9.84622149988147,0.9s : 0.3s,5.593260583456782,1.6787872998114195,5.335376008909136,5.0532468777335104,0.9907547235488892,7.821988582611084,6.392555236816406,4.343344211578369,-1.5427799224853516,2.0713510513305664,-0.1623273716261731,-0.8052473732872828,-2.280310525322023,-0.711523711681366,0.16161541640758514,-0.6838235259056091
1728067729596,7i,9.84622149988147,0.9s : 0.3s,6.283379682917815,1.7613915593818423,6.031447588617742,5.844742878058285,0.5949314832687378,8.818703651428223,7.250574111938477,5.1585917472839355,-1.5118054151535034,2.294426918029785,-0.20340592799590426,-0.7118826420142237,-2.224431155213066,-0.6397929191589355,0.20200620591640472,-0.7415245175361633
1728067729606,7i,9.84622149988147,0.9s : 0.3s,7.056123213978335,1.8614210753925626,6.80617266831575,6.731286764371654,0.14779487252235413,9.810112953186035,8.330379486083984,6.168735980987549,-1.424187183380127,2.2866151332855225,-0.24812115819221608,-0.6040894885146167,-2.158925523791748,-0.5506178736686707,0.24558308720588684,-0.7978151440620422
1728067729616,7i,9.84622149988147,0.9s : 0.3s,7.876299387354861,1.9806593900145884,7.623193584056067,7.63897266763869,-0.2376236468553543,10.79725170135498,9.271571159362793,7.243628978729248,-1.3099174499511719,2.0415334701538086,-0.29407241594022415,-0.4799902644978721,-2.0808636224399617,-0.4419473707675934,0.28985220193862915,-0.8489217758178711
1728067729626,7i,9.84622149988147,0.9s : 0.3s,8.709350028050075,2.1199943891498054,8.447390230187615,8.535034118064093,-0.453556090593338,11.651440620422363,10.176127433776855,8.317614555358887,-1.0436664819717407,1.6046357154846191,-0.3360424746311019,-0.3389411219550159,-1.9886258278423836,-0.31389158964157104,0.3297535181045532,-0.8903565406799316
1728067729636,7i,9.84622149988147,0.9s : 0.3s,9.482171994559842,2.281910549654337,9.203503136186308,9.786529163504332,-0.49385955929756165,12.243098258972168,10.832181930541992,9.706409454345703,-0.6152236461639404,1.0877814292907715,-0.3678482106975427,-0.18218181899129038,-1.8815730384631812,-0.16905565559864044,0.35960841178894043,-0.9176611304283142
1728067729646,7i,9.84622149988147,0.9s : 0.3s,10.156113945777564,2.4676812736435223,9.851761244129225,11.01690203419564,-1.1385880708694458,12.730253219604492,11.14453411102295,11.002681732177734,0.06944671273231506,0.5552497506141663,-0.3857590818702059,-0.014192707864418749,-1.7647694727281331,-0.013149288482964039,0.3762625455856323,-0.9264197945594788
1728067729656,7i,9.84622149988147,0.9s : 0.3s,10.769473867924733,2.678320956722544,10.431115196597847,12.32186445579446,-3.101052761077881,12.951491355895996,11.648067474365234,12.278843879699707,1.0281686782836914,0.03472483158111572,-0.3980627676930229,0.1621295306998833,-1.6400025918721606,0.14879931509494781,0.3876332938671112,-0.909724771976471
1728067729666,7i,9.84622149988147,0.9s : 0.3s,11.314835325895187,2.9124306064234364,10.93358342058511,13.463868880311033,-5.933875560760498,12.551642417907715,12.131831169128418,13.231589317321777,2.371138095855713,-0.760600745677948,-0.4110789508733831,0.3440625811560333,-1.5027759934866225,0.3092127740383148,0.399598628282547,-0.862964928150177
1728067729676,7i,9.84622149988147,0.9s : 0.3s,11.79443354498604,3.1677062027992373,11.361087098505989,14.532229476987574,-10.05756950378418,11.058500289916992,12.3952054977417,13.83443546295166,4.216586112976074,-1.4193274974822998,-0.430651136349855,0.5279732910377581,-1.3437223199074955,0.4577852487564087,0.4174625873565674,-0.7849571108818054
1728067729686,7i,9.84622149988147,0.9s : 0.3s,12.369470008969312,3.439524708737195,11.88164374490237,15.37742936305946,-14.87035846710205,8.234015464782715,12.951678276062012,13.738895416259766,6.684571266174316,-1.7391358613967896,-0.45781037347593045,0.7098702754874863,-1.1496500760067652,0.584621250629425,0.44198501110076904,-0.6803434491157532
1728067729696,7i,9.84622149988147,0.9s : 0.3s,12.881898987449109,3.7234351291185237,12.332045749270009,16.189755503965728,-18.809925079345703,3.0231668949127197,12.496123313903809,13.102402687072754,9.44243049621582,-1.129483699798584,-0.4851968628919496,0.8724969453099188,-0.9109276318406911,0.6775346398353577,0.4663825035095215,-0.5687127113342285
1728067729706,7i,9.84622149988147,0.9s : 0.3s,13.780598113248871,4.008513789604441,13.184714693819862,16.189303511729964,-20.010841369628906,-0.009743842296302319,14.359593391418457,11.066680908203125,11.816177368164062,-0.008618295192718506,-0.4828383784556401,1.0081093253150266,-0.6405261206351064,0.7491307258605957,0.4642949402332306,-0.4724760055541992
1728067729716,7i,9.84622149988147,0.9s : 0.3s,14.728983901935639,4.282577233657087,14.092639888297764,16.460136528408714,-18.416921615600586,0.5214206576347351,16.587059020996094,8.067824363708496,14.292624473571777,1.2518746852874756,-0.43271337790796405,1.1326658367491351,-0.3640235735380598,0.8220833539962769,0.41933563351631165,-0.385144978761673
1728067729726,7i,9.84622149988147,0.9s : 0.3s,14.529643777008115,4.533234969410383,13.804359057879708,16.170393815881173,-13.183874130249023,-1.4866124391555786,15.250788688659668,4.573822021484375,15.433079719543457,1.543320655822754,-0.3451557883994736,1.2124764653490263,-0.1400432807513157,0.8812559843063354,0.3383432924747467,-0.33001792430877686
1728067729736,7i,9.84622149988147,0.9s : 0.3s,14.51769334369172,4.75158655825838,13.718084603939761,12.869421337644226,-13.624024391174316,-0.30658993124961853,15.05087661743164,1.8643512725830078,12.337442398071289,3.1517796516418457,-0.2450188580370757,1.2571473188610427,0.04030889508235472,0.9228039383888245,0.24257461726665497,-0.2993166744709015
1728067729746,7i,9.84622149988147,0.9s : 0.3s,15.464942910094438,4.933184501448569,14.657017086950122,6.54390264568951,-20.721715927124023,1.337047815322876,14.589800834655762,1.394944429397583,5.611636638641357,3.063711166381836,-0.15074386047784097,1.3026840516513487,0.2501350441039543,0.9533374905586243,0.1501736044883728,-0.2619074285030365
1728067729756,7i,9.84622149988147,0.9s : 0.3s,14.49122206089483,5.09173293487573,13.567231572360916,5.989718773888006,-1.8667494058609009,6.465531349182129,19.565948486328125,4.603392601013184,1.1733111143112183,-3.648129463195801,-0.019149087321960113,1.3027456511192954,0.3899952979976342,0.9641122221946716,0.01914791762828827,-0.2648036777973175
1728067729766,7i,9.84622149988147,0.9s : 0.3s,15.745118768075924,5.266343853308628,14.838274409092692,12.093750526658862,-31.470508575439453,1.1106786727905273,5.584150791168213,11.192045211791992,-4.009450435638428,2.2183852195739746,0.08202629150432525,1.3088836077841308,0.5726650380640005,0.962648868560791,-0.08193434029817581,-0.25805792212486267
1728067729776,7i,9.84622149988147,0.9s : 0.3s,19.47147090039383,5.4074191678548456,18.705560589514544,19.894484521948694,-47.60386276245117,-11.305931091308594,-4.360318660736084,5.266469955444336,-12.323749542236328,14.7030611038208,-0.042512594846011706,1.2457719145720823,0.9283766878680995,0.9467867612838745,0.04249979183077812,-0.31904342770576477
1728067729786,7i,9.84622149988147,0.9s : 0.3s,18.322779771649806,5.617429848199432,17.440434067446187,22.894890753230786,-18.28868293762207,-22.07664680480957,-0.014804582111537457,9.399473190307617,16.435972213745117,12.871858596801758,-0.1949757950273468,1.0805392905622364,1.239582502866078,0.8654960989952087,0.1937427818775177,-0.46193116903305054
1728067729796,7i,9.84622149988147,0.9s : 0.3s,15.801984052891346,5.842045910773762,14.682411231955191,19.595180466113266,-9.435373306274414,-10.868054389953613,-1.0881423950195312,4.331945419311523,18.661643981933594,4.116842269897461,-0.274166837300209,0.9603104070360335,1.3651414764627525,0.7887670993804932,0.2707449793815613,-0.5518549084663391
1728067729806,7i,9.84622149988147,0.9s : 0.3s,13.562487245752974,6.024474093682753,12.15099881432623,8.715847701073288,-5.442897319793701,-10.934033393859863,-5.670273780822754,-0.3782525658607483,8.055281639099121,3.30686616897583,-0.3568946371965052,0.8645254656818706,1.4014720913273848,0.7128473520278931,0.3493662476539612,-0.6081052422523499
1728067729816,7i,9.84622149988147,0.9s : 0.3s,12.15182951190973,6.174464292638359,10.466276854041947,3.3988006327682143,-2.6629340648651123,-12.752006530761719,-1.0766682624816895,2.7085189819335938,0.1839112937450409,2.044981002807617,-0.40247417350948445,0.7498899608057328,1.4037787241105963,0.6270981431007385,0.3916960060596466,-0.6732921004295349
1728067729826,7i,9.84622149988147,0.9s : 0.3s,12.020558454967318,6.299382812925825,10.237753745109373,3.128469662627304,-6.43289041519165,-13.885601043701172,-2.6892330646514893,2.6411166191101074,0.16820275783538818,1.6683924198150635,-0.4504535642596639,0.6232614564497448,1.4221548467472394,0.5254636406898499,0.4353739023208618,-0.7309840321540833
1728067729836,7i,9.84622149988147,0.9s : 0.3s,12.167074119029397,6.411114943923282,10.340952460666212,4.560660865603522,-6.252547264099121,-14.804024696350098,-4.009937286376953,2.500875473022461,1.1737446784973145,3.6287150382995605,-0.5241356041693735,0.4814131138993775,1.4281605874298986,0.4008732736110687,0.5004648566246033,-0.767356276512146
1728067729846,7i,9.84622149988147,0.9s : 0.3s,12.043532553433304,6.51668604536289,10.12815281044773,4.872283873974748,-4.066302299499512,-13.825203895568848,-4.6382598876953125,2.559119701385498,2.243767023086548,3.486483335494995,-0.5881612214027113,0.3256912144194602,1.4052775076335366,0.2661977708339691,0.5548321604728699,-0.7882258892059326
1728067729856,7i,9.84622149988147,0.9s : 0.3s,11.802122500812544,6.610131530471025,9.777333822369908,4.130445841526997,-1.739231824874878,-13.194779396057129,-5.1729302406311035,1.4252811670303345,1.8167937994003296,3.424677610397339,-0.627724632990801,0.16298217466217083,1.3563066177852077,0.1313289999961853,0.5873046517372131,-0.7986400127410889
1728067729866,7i,9.84622149988147,0.9s : 0.3s,11.71188602064463,6.692771667685089,9.611195636589803,3.5382964701773254,-0.7494249939918518,-12.936273574829102,-6.8128533363342285,1.5023897886276245,0.9867771863937378,3.047726631164551,-0.6438629722670463,-0.00819653080290571,1.28850318769326,-0.006555370986461639,0.6002894639968872,-0.7997559309005737
1728067729876,7i,9.84622149988147,0.9s : 0.3s,11.694888081113623,6.771917627912124,9.534754263773477,3.5441837269861547,0.9267909526824951,-12.271398544311523,-7.304747104644775,2.2288057804107666,1.291224479675293,2.434420347213745,-0.6375958103606156,-0.18149234889239968,1.2115222545676336,-0.14503510296344757,0.5952653288841248,-0.7903316020965576
1728067729886,7i,9.84622149988147,0.9s : 0.3s,11.45125706630565,6.849219627913845,9.177117133785252,3.308586904459189,1.9418083429336548,-11.480380058288574,-6.571413993835449,2.7135097980499268,1.0722134113311768,1.5601186752319336,-0.6061883142217221,-0.34238864244866263,1.140173693473729,-0.2759181261062622,0.569739043712616,-0.7741230726242065
1728067729896,7i,9.84622149988147,0.9s : 0.3s,11.363437215909734,6.919581124017556,9.013717458854716,2.5776340100183175,1.852922797203064,-11.331311225891113,-6.806400299072266,2.1723697185516357,0.3445483446121216,1.3439841270446777,-0.5617093165937694,-0.4923028336185819,1.0763160552007185,-0.4000309109687805,0.5326336622238159,-0.7458395957946777
1728067729906,7i,9.84622149988147,0.9s : 0.3s,11.229897858878486,6.986678962895388,8.791866866046064,2.6699958660362957,2.2755770683288574,-10.67175006866455,-6.3877177238464355,2.320411205291748,0.8514022827148438,1.009793996810913,-0.5095160977939547,-0.62990311655885,1.0232683122653923,-0.5142436623573303,0.4877548813819885,-0.7054422497749329
1728067729916,7i,9.84622149988147,0.9s : 0.3s,11.016919241804551,7.0543459801450314,8.462193118385741,3.0835765822755996,3.198071241378784,-9.597055435180664,-6.091339588165283,2.687880516052246,1.122606873512268,1.0116801261901855,-0.4488976909284944,-0.747130705508409,0.9890963429262299,-0.6122121810913086,0.43397268652915955,-0.6609569191932678
1728067729926,7i,9.84622149988147,0.9s : 0.3s,10.794426055990938,7.1214097400322665,8.11203779532798,2.9670465479134696,3.699291467666626,-8.733287811279297,-5.9110236167907715,2.593141555786133,0.8713977336883545,1.148759365081787,-0.38170008533799765,-0.8461369849346381,0.9704179313227868,-0.6948415637016296,0.3724987506866455,-0.6151747107505798
1728067729936,7i,9.84622149988147,0.9s : 0.3s,10.592908023539845,7.187746251116916,7.781131294659508,2.898398424849469,4.137284278869629,-8.088363647460938,-5.665181636810303,2.5454955101013184,0.9817737340927124,0.9784101247787476,-0.31213417554524014,-0.9323664460273214,0.9641056848207223,-0.7642301917076111,0.3070904016494751,-0.5671399831771851
1728067729946,7i,9.84622149988147,0.9s : 0.3s,10.453685887701237,7.254072576551897,7.527149506475989,2.962966375899023,4.429938793182373,-7.674635887145996,-5.704548358917236,2.572934150695801,1.1683988571166992,0.8910800814628601,-0.24111125253688412,-1.0100358662659228,0.9679215995773167,-0.822354257106781,0.2387818843126297,-0.5164462327957153
1728067729956,7i,9.84622149988147,0.9s : 0.3s,10.371584614704492,7.321728349271289,7.345887379986985,3.1670372984835615,4.635087490081787,-7.480855464935303,-5.646881580352783,2.808753252029419,1.2446708679199219,0.7693015336990356,-0.16914409304037936,-1.083668594775413,0.9785072020242087,-0.8710702061653137,0.16833871603012085,-0.46140965819358826
1728067729966,7i,9.84622149988147,0.9s : 0.3s,10.31464426738173,7.390943871568406,7.1948478128419255,3.304587064506369,5.074513912200928,-7.020595550537109,-5.648190498352051,3.0388169288635254,1.2209657430648804,0.4417352080345154,-0.09739489377601794,-1.1538633804094236,0.9982506867435111,-0.9100021719932556,0.09724099189043045,-0.40303894877433777
1728067729976,7i,9.84622149988147,0.9s : 0.3s,10.240997118734263,7.461154230060093,7.014926909183006,3.2682834815998745,5.273286819458008,-6.454895973205566,-5.44769287109375,3.0048184394836426,1.1047544479370117,0.6574653387069702,-0.026535239626239868,-1.2197170853273285,1.0254843600093688,-0.9386715292930603,0.02653212659060955,-0.34379035234451294
1728067729986,7i,9.84622149988147,0.9s : 0.3s,10.167203908448839,7.53303985278123,6.828275469866978,3.395658610686893,5.806553840637207,-5.659801006317139,-5.344827651977539,3.0310726165771484,1.1819926500320435,0.9726199507713318,0.04194454658386596,-1.2805901500157462,1.0606906588348546,-0.9573421478271484,-0.04193224757909775,-0.2858981192111969
1728067729996,7i,9.84622149988147,0.9s : 0.3s,10.117537402552028,7.604747845989341,6.673258071658827,3.183995377068342,6.298567295074463,-5.254604339599609,-4.975373268127441,2.795538902282715,1.2217034101486206,0.9111693501472473,0.10759206334536585,-1.3383989122079587,1.1062263964799919,-0.9674900770187378,-0.10738459974527359,-0.22897939383983612
1728067730006,7i,9.84622149988147,0.9s : 0.3s,10.091335721306198,7.674575693034009,6.552552523406587,2.935538644045189,6.321649074554443,-5.094202518463135,-4.850358963012695,2.646453857421875,0.9799420237541199,0.808320939540863,0.1679404640080972,-1.3973945120019768,1.1584753231641456,-0.971145749092102,-0.16715215146541595,-0.17010679841041565
1728067730016,7i,9.84622149988147,0.9s : 0.3s,10.070484466941608,7.743810705623655,6.4380162437183,3.03796911944361,6.6217041015625,-4.717127323150635,-4.54024600982666,2.676213502883911,1.0848376750946045,0.94353848695755,0.22364500083054978,-1.4579387152968306,1.217128507501269,-0.9688923358917236,-0.221785306930542,-0.10981349647045135
1728067730026,7i,9.84622149988147,0.9s : 0.3s,10.02921738469059,7.813931835258671,6.287103516191776,3.2509677595614086,6.507492542266846,-4.331921100616455,-4.310243606567383,2.682426691055298,1.2878800630569458,1.3094820976257324,0.2729935172215041,-1.5187165410045964,1.280990878752474,-0.9616625308990479,-0.2696152925491333,-0.0501285083591938
1728067730036,7i,9.84622149988147,0.9s : 0.3s,10.00657031975073,7.883280203374352,6.163225032335125,3.0552434828872173,6.680209636688232,-3.8936283588409424,-4.282547473907471,2.4388484954833984,1.3027480840682983,1.2997608184814453,0.31708322919672083,-1.579900173732236,1.348647311408733,-0.9501095414161682,-0.31179651618003845,0.008649890311062336
1728067730046,7i,9.84622149988147,0.9s : 0.3s,10.003774410578112,7.950783714215549,6.071288231298384,2.8653963825248834,7.115713596343994,-3.450866460800171,-3.963099241256714,2.246271848678589,1.27939772605896,1.2360827922821045,0.3557800388392484,-1.6414223815477407,1.423884419445729,-0.9350383877754211,-0.3483216464519501,0.06614809483289719
1728067730056,7i,9.84622149988147,0.9s : 0.3s,9.95407222989562,8.014167435573324,5.9039541218216876,2.4776706585574964,6.643578052520752,-3.2800490856170654,-3.6717541217803955,1.932084321975708,0.8824111819267273,1.2756381034851074,0.38684556795311126,-1.7030545588090988,1.5015767153666184,-0.918015718460083,-0.3772689700126648,0.12212806195020676
1728067730066,7i,9.84622149988147,0.9s : 0.3s,9.896394463526791,8.073275111676576,5.723709666720287,2.3007768642003397,6.51627254486084,-2.9522061347961426,-3.464674234390259,1.6845037937164307,0.8824360370635986,1.295116901397705,0.4111660840591997,-1.7639625162872323,1.5775615073237017,-0.8996068835258484,-0.399678498506546,0.175967738032341
1728067730076,7i,9.84622149988147,0.9s : 0.3s,9.837608084122142,8.129690553412665,5.539554523834762,2.358357415245921,6.523552417755127,-2.4075748920440674,-3.265228271484375,1.611788272857666,1.1606366634368896,1.271578073501587,0.4293360286499196,-1.8225205728538887,1.65564096651443,-0.8805871605873108,-0.41626718640327454,0.22646887600421906
1728067730086,7i,9.84622149988147,0.9s : 0.3s,9.778621793616226,8.183536450444192,5.352679268071038,2.370220799429555,6.4240946769714355,-1.9331282377243042,-3.124866485595703,1.4334602355957031,1.0879789590835571,1.5425434112548828,0.44253840852984644,-1.8771542698676866,1.7340096464566281,-0.8615911602973938,-0.428234726190567,0.27253541350364685
1728067730096,7i,9.84622149988147,0.9s : 0.3s,9.712199762944547,8.233550639903678,5.151258884533162,2.1131836012111855,6.169456481933594,-1.604239583015442,-2.977978229522705,1.1895673274993896,0.8773715496063232,1.510196566581726,0.45068677557349124,-1.9279969373567707,1.8110391686946279,-0.8433300852775574,-0.43558382987976074,0.3147394061088562
1728067730106,7i,9.84622149988147,0.9s : 0.3s,9.64445577188515,8.279073963167836,4.9469648723480155,1.8602460566100703,5.956844329833984,-1.3624857664108276,-2.7703213691711426,0.9835014939308167,0.7221941947937012,1.4041637182235718,0.4548321680290017,-1.975529374330153,1.8854746222783025,-0.8257561326026917,-0.43931156396865845,0.3537403643131256
1728067730116,7i,9.84622149988147,0.9s : 0.3s,9.56483509609305,8.320256274300965,4.717987488899137,1.7705143460326862,5.653904914855957,-1.0403168201446533,-2.5305957794189453,0.8470975160598755,0.5207627415657043,1.464907169342041,0.4548319703322727,-2.0188354514930813,1.956614306742607,-0.809667706489563,-0.4393113851547241,0.38915780186653137
1728067730126,7i,9.84622149988147,0.9s : 0.3s,9.47112294917726,8.35647789347026,4.457740137600559,1.5879866778405933,5.2861480712890625,-0.8003654479980469,-2.1963140964508057,0.6154012680053711,0.32747882604599,1.4267938137054443,0.4513689755608557,-2.056910578934869,2.0228487875016246,-0.7956077456474304,-0.43619781732559204,0.420404851436615
1728067730136,7i,9.84622149988147,0.9s : 0.3s,9.378815394137806,8.389416352395823,4.192835730561104,1.5808743954991045,5.026018142700195,-0.5481289625167847,-1.8300012350082397,0.6586697101593018,0.31478312611579895,1.4022231101989746,0.44420809914377446,-2.090127063225789,2.083910120583878,-0.7838987708091736,-0.4297429621219635,0.4481341540813446
1728067730146,7i,9.84622149988147,0.9s : 0.3s,9.283879198169718,8.419612036531722,3.9115912517156657,1.6541388449599737,4.602293014526367,-0.22504132986068726,-1.672943353652954,0.5291286706924438,0.31589367985725403,1.5350600481033325,0.4347957219458111,-2.117556656816329,2.1394619408549826,-0.7747341990470886,-0.4212251305580139,0.47154706716537476
1728067730156,7i,9.84622149988147,0.9s : 0.3s,9.197798895859632,8.447047250277235,3.639628728354093,1.5972626119536892,4.33402156829834,0.11188050359487534,-1.3812191486358643,0.3660494089126587,0.35725030303001404,1.5131516456604004,0.424328554924942,-2.1391888076378702,2.189667922400034,-0.7680270075798035,-0.4117089807987213,0.49054110050201416
1728067730166,7i,9.84622149988147,0.9s : 0.3s,9.127012336569335,8.47174196307389,3.3958713613713005,1.4169829630629645,4.117906093597412,0.4131264090538025,-1.1663751602172852,0.3126879930496216,0.2872069776058197,1.3518798351287842,0.4120330575208331,-2.1553164346542135,2.2360029865727094,-0.7641804218292236,-0.40047305822372437,0.5056185126304626
1728067730176,7i,9.84622149988147,0.9s : 0.3s,9.06383273627352,8.493239282163135,3.1651145898789457,1.298100386150823,3.8317999839782715,0.6433167457580566,-0.9667248725891113,0.197024405002594,0.11132147908210754,1.2782227993011475,0.3985367321327589,-2.1666501781769423,2.2784672283913188,-0.7628051042556763,-0.38807016611099243,0.51723313331604
1728067730186,7i,9.84622149988147,0.9s : 0.3s,9.000174960926078,8.51142686867522,2.925536187859285,1.1441660677178895,3.444277763366699,0.751872718334198,-0.7537496089935303,0.0932396650314331,0.03820568323135376,1.1397204399108887,0.3852009662852651,-2.1740007634607283,2.3162222555081686,-0.7631767988204956,-0.37574538588523865,0.5257154107093811
1728067730196,7i,9.84622149988147,0.9s : 0.3s,8.941635972702677,8.526965378716383,2.6914151107740154,1.0379888680517821,3.0959203243255615,0.847359836101532,-0.6058797240257263,0.03889882564544678,0.11044061183929443,1.0313634872436523,0.37209585577412607,-2.178167287649229,2.349236765217129,-0.7649576663970947,-0.36356866359710693,0.5316553115844727
1728067730206,7i,9.84622149988147,0.9s : 0.3s,8.888359863624101,8.540485277183205,2.4623266021185692,1.0393621177664663,2.7217040061950684,0.9235037565231323,-0.5758774876594543,-0.041900038719177246,0.22974905371665955,1.0127849578857422,0.36032922461826195,-2.1797362747730356,2.3784457805527186,-0.7675787806510925,-0.35258233547210693,0.5352650284767151
1728067730216,7i,9.84622149988147,0.9s : 0.3s,8.84354099228356,8.552460207438186,2.25025369289466,1.0085677541942302,2.4081051349639893,1.041945219039917,-0.5414731502532959,-0.07896870374679565,0.29562488198280334,0.9610300660133362,0.3502099826915292,-2.178842582104088,2.404202583389475,-0.7709459662437439,-0.343095064163208,0.5365897417068481
1728067730226,7i,9.84622149988147,0.9s : 0.3s,8.807302768501058,8.562179688703978,2.0634100499879926,0.8064895280368831,2.170907735824585,1.1190489530563354,-0.4721681475639343,-0.14834779500961304,0.1553814709186554,0.7773512005805969,0.341419407157387,-2.175748752607341,2.4272390540364244,-0.7750532627105713,-0.33482491970062256,0.5358965992927551
1728067730236,7i,9.84622149988147,0.9s : 0.3s,8.7749014833959,8.569497325902034,1.887488178681241,0.6895822290233196,1.9472297430038452,1.060254693031311,-0.3517402708530426,-0.15932011604309082,-0.03783330321311951,0.6698577404022217,0.3331157792634607,-2.1715399150699892,2.4477373354601912,-0.7795684933662415,-0.3269891142845154,0.5341829061508179
1728067730246,7i,9.84622149988147,0.9s : 0.3s,8.743244327790345,8.574637210464358,1.7087767801436384,0.6923320493015664,1.6604074239730835,1.0159121751785278,-0.2625163495540619,-0.19828879833221436,-0.12490886449813843,0.651462197303772,0.3253986048279246,-2.1667869373117643,2.4653535707982632,-0.7841636538505554,-0.31968650221824646,0.5318722724914551
1728067730256,7i,9.84622149988147,0.9s : 0.3s,8.711683830268612,8.577777344172926,1.521568596007839,0.6625036211595331,1.3355531692504883,0.954930305480957,-0.209700807929039,-0.26611435413360596,-0.11373752355575562,0.5959513187408447,0.31903030329830273,-2.1614524099107397,2.479781909048846,-0.788664698600769,-0.3136459290981293,0.5288046002388
1728067730266,7i,9.84622149988147,0.9s : 0.3s,8.68313860214659,8.579415669893717,1.3381041615922018,0.5772113693058528,1.0748215913772583,0.8776386380195618,-0.13241302967071533,-0.2789902687072754,-0.048936158418655396,0.5029340386390686,0.3138253013737676,-2.1557242970294404,2.491263707246016,-0.7930312156677246,-0.308699369430542,0.5251727104187012
1728067730276,7i,9.84622149988147,0.9s : 0.3s,8.660281657994425,8.579993589970876,1.1765153598033982,0.5284700885290201,0.9136257171630859,0.8128583431243896,-0.06674374639987946,-0.2890993356704712,0.01843547821044922,0.44199812412261963,0.3091968499655268,-2.1499555464517957,2.500479080377718,-0.7972348928451538,-0.3042936623096466,0.5213656425476074
1728067730286,7i,9.84622149988147,0.9s : 0.3s,8.641469057412573,8.579716146431556,1.0312411536011359,0.50984969692315,0.7304649353027344,0.7780616283416748,-0.047635432332754135,-0.30363529920578003,0.034715890884399414,0.4081018567085266,0.3053060815216367,-2.1436452550033227,2.507829032462667,-0.8014978766441345,-0.3005851209163666,0.5169623494148254
1728067730296,7i,9.84622149988147,0.9s : 0.3s,8.625841643699273,8.578827107907204,0.8993717333856545,0.45467701941445293,0.5576380491256714,0.7394490242004395,-0.005810487549751997,-0.2810032367706299,0.025300264358520508,0.35655051469802856,0.302138917714756,-2.1375108820661066,2.5135570376244494,-0.8054531812667847,-0.29756292700767517,0.5125445127487183
1728067730306,7i,9.84622149988147,0.9s : 0.3s,8.614152830945219,8.57766377678423,0.7920310141182936,0.3872910960339959,0.4602617025375366,0.7209699749946594,0.0974930003285408,-0.2388351559638977,0.03902500867843628,0.30237263441085815,0.2990470802275663,-2.131416872225643,2.5177954607181783,-0.80933678150177,-0.2946097254753113,0.5081132650375366
1728067730316,7i,9.84622149988147,0.9s : 0.3s,8.60471752432066,8.576260404390995,0.6992289678111688,0.38351078523817167,0.3253539502620697,0.6990532279014587,0.11901134252548218,-0.23803472518920898,0.021428406238555908,0.2999346852302551,0.2960911708571923,-2.1250735354438293,2.520665513290179,-0.8132807016372681,-0.29178372025489807,0.5034254193305969
1728067730326,7i,9.84622149988147,0.9s : 0.3s,8.59656398791603,8.574667377097699,0.6131816781927238,0.385788335819031,0.14076533913612366,0.6778606176376343,0.10452743619680405,-0.23572415113449097,0.003507673740386963,0.30537593364715576,0.2938671738053352,-2.1185451484708633,2.522124514612492,-0.817101776599884,-0.28965577483177185,0.4984419643878937
1728067730336,7i,9.84622149988147,0.9s : 0.3s,8.590303020803841,8.573166705603471,0.5423270481579505,0.33513374204191143,0.003485769499093294,0.6531198620796204,0.11816122382879257,-0.19446194171905518,0.02851685881614685,0.27145159244537354,0.29259210074270686,-2.1118514379400333,2.522103922967735,-0.8207358121871948,-0.2884351313114166,0.4931512176990509
1728067730346,7i,9.84622149988147,0.9s : 0.3s,8.58612895766827,8.571845748378111,0.49504640562450153,0.2713398802879393,-0.042615149170160294,0.6335615515708923,0.1452626883983612,-0.16930341720581055,0.08336752653121948,0.19496548175811768,0.2916151664473617,-2.1051014378996316,2.521223738982802,-0.8242877721786499,-0.2874995768070221,0.48774319887161255
1728067730356,7i,9.84622149988147,0.9s : 0.3s,8.582686011640481,8.570492608494158,0.4573353497775892,0.21760059974093385,-0.07057860493659973,0.5816943645477295,0.13325822353363037,-0.1597573161125183,0.05530843138694763,0.13699853420257568,0.29069331367230433,-2.098601375423021,2.5199206619274404,-0.8276696801185608,-0.2866165339946747,0.48250851035118103
1728067730366,7i,9.84622149988147,0.9s : 0.3s,8.579512681218967,8.56913281670219,0.42190119330794207,0.19600487551672136,-0.12983088195323944,0.520926833152771,0.12640926241874695,-0.14153176546096802,0.026952385902404785,0.13289183378219604,0.29008265729714156,-2.0926095951377195,2.518374392542698,-0.8306973576545715,-0.28603142499923706,0.47762778401374817
1728067730376,7i,9.84622149988147,0.9s : 0.3s,8.576869913686783,8.56795640780227,0.3909226397966058,0.17596735634085903,-0.19647862017154694,0.4729979634284973,0.10209807008504868,-0.11004048585891724,0.029480665922164917,0.13411372900009155,0.2899185550797189,-2.086986901855703,2.5162475454653315,-0.8334105610847473,-0.2858741879463196,0.4729726314544678
1728067730386,7i,9.84622149988147,0.9s : 0.3s,8.574588629224833,8.56692002109148,0.3625624258713678,0.15634631885554057,-0.22992338240146637,0.41613778471946716,0.08092254400253296,-0.09920042753219604,0.024922162294387817,0.11824691295623779,0.2901454286759856,-2.081829996261614,2.5138280392285806,-0.8357816934585571,-0.28609156608581543,0.4686366617679596
1728067730396,7i,9.84622149988147,0.9s : 0.3s,8.572868379403273,8.566061186911005,0.3415669665955988,0.17126633500611987,-0.29130420088768005,0.37938883900642395,0.05115905776619911,-0.0980425477027893,0.036653608083724976,0.1355593204498291,0.29081169979126353,-2.0770617739576984,2.5111548792245117,-0.8378400206565857,-0.28672993183135986,0.46455371379852295
1728067730406,7i,9.84622149988147,0.9s : 0.3s,8.571934639997714,8.565320831328862,0.33666382163310266,0.18087568499962323,-0.367898166179657,0.3378625512123108,0.046202145516872406,-0.08674949407577515,0.033856362104415894,0.15506219863891602,0.2920173136212832,-2.0725103568139036,2.507840560139824,-0.8396421074867249,-0.2878847122192383,0.46056902408599854
1728067730416,7i,9.84622149988147,0.9s : 0.3s,8.571059503781216,8.564676195802425,0.330730522349546,0.1464571183416178,-0.41873764991760254,0.2843835949897766,0.014770188368856907,-0.0756075382232666,0.0013160109519958496,0.12542510032653809,0.29366579414597715,-2.0682661089723813,2.504042766674588,-0.8411710262298584,-0.28946301341056824,0.45677411556243896
1728067730426,7i,9.84622149988147,0.9s : 0.3s,8.570220393500781,8.564095620212088,0.32395030643726397,0.1127380300777822,-0.429764986038208,0.23320439457893372,0.031691648066043854,-0.06410914659500122,0.004746437072753906,0.09261399507522583,0.2954647071021327,-2.0644882746993303,2.5000302606228884,-0.8424307107925415,-0.2911844551563263,0.45334553718566895
