timestamp,club,max_speed,tempo,speed,l.speed,t.spped,acc,rotation.x,rotation.y,rotation.z,userAcceleration.x,userAcceleration.y,userAcceleration.z,pitch,roll,yaw,gravity.x,gravity.y,gravity.z
1728067955898,7i,10.034273018110778,1.0s : 0.3s,0.25176010268756194,0.0011345504596659195,0.2517575462632773,0.12169332126406195,-1.1659404039382935,-0.056596655398607254,-0.00579936895519495,0.011552691459655762,-0.04234984517097473,0.11350017786026001,-0.29653950460452644,1.4370549493685343,0.2597602755105132,0.947813093662262,0.29221251606941223,-0.12752306461334229
1728067955918,7i,10.034273018110778,1.0s : 0.3s,0.3321946405400337,0.00219880694634574,0.33218736347358985,0.09881741309318724,-0.7731496691703796,-0.03227551653981209,-0.04479716718196869,-0.003742218017578125,0.0779678225517273,0.06059616804122925,-0.2994903406832771,1.4421378010705657,0.28021373381594356,0.9475898146629333,0.2950332760810852,-0.12259268760681152
1728067955908,7i,10.034273018110778,1.0s : 0.3s,0.4336183994961788,0.003672778216459013,0.4336028448728172,0.10380403179821623,-0.9979519248008728,-0.04798532649874687,-0.01157842855900526,0.005980432033538818,0.002203226089477539,0.10360819101333618,-0.2980583114741108,1.4398471666734585,0.27103405101847994,0.9477244019508362,0.29366469383239746,-0.12481797486543655
1728067955928,7i,10.034273018110778,1.0s : 0.3s,0.4125903189321523,0.004928054760986512,0.4125608870855403,0.13458120060594161,-0.5396173000335693,-0.011854663491249084,-0.06089358031749725,-0.025775432586669922,0.13060137629508972,0.019773900508880615,-0.3008577650549351,1.443924604298796,0.2869725177406626,0.9474062323570251,0.2963395416736603,-0.1208481714129448
1728067955938,7i,10.034273018110778,1.0s : 0.3s,0.3442876082095869,0.00625984744084841,0.3442306951401855,0.16001672943323814,-0.2697935700416565,0.00902886874973774,-0.09140681475400925,-0.040756821632385254,0.15473726391792297,0.0007838010787963867,-0.30213980976625626,1.4451390041753869,0.2911104359376387,0.947174608707428,0.297563761472702,-0.11964984238147736
1728067955948,7i,10.034273018110778,1.0s : 0.3s,0.24331900583034607,0.00800668582694958,0.24318723564434158,0.18185957741550965,0.0015585729852318764,0.035124652087688446,-0.0968276783823967,-0.0399625301361084,0.1769964098930359,-0.012172631919384003,-0.3032623435358698,1.4457411254031665,0.29234598673613965,0.9469143748283386,0.2986352741718292,-0.11903774738311768
1728067955958,7i,10.034273018110778,1.0s : 0.3s,0.13862333689304138,0.010282439238100686,0.13824145895742138,0.17865884341911098,0.19221721589565277,0.05024581402540207,-0.09505301713943481,-0.02933448553085327,0.17569363117218018,-0.013791963458061218,-0.30409990769336853,1.4458390607487472,0.29119026866707115,0.9466774463653564,0.29943451285362244,-0.11891379207372665
1728067955968,7i,10.034273018110778,1.0s : 0.3s,0.05834149088191014,0.012766119700967648,0.05692763604879944,0.10864265518476342,0.3543959856033325,0.05582859739661217,-0.0807662233710289,-0.016786634922027588,0.10720676183700562,0.005305245518684387,-0.3046493936310831,1.445502167357435,0.28823776076168695,0.946474015712738,0.299958735704422,-0.11921214312314987
1728067955978,7i,10.034273018110778,1.0s : 0.3s,0.1087752849026053,0.014950496357541655,0.10774295923310295,0.0558847494068037,0.5220288038253784,0.05361165106296539,-0.0781238004565239,0.0005826950073242188,0.05429840087890625,0.013207927346229553,-0.30489578252893745,1.444671512400529,0.2836075183190601,0.9463013410568237,0.30019375681877136,-0.11998900026082993
1728067955988,7i,10.034273018110778,1.0s : 0.3s,0.21354254589526742,0.01681757083119126,0.21287928085835467,0.049845155244645875,0.6957457065582275,0.058483369648456573,-0.0824626237154007,0.012720465660095215,0.04683670401573181,0.011360123753547668,-0.30492791990783097,1.4433010804358108,0.2771524100686012,0.9461264610290527,0.3002244234085083,-0.12128449976444244
1728067955998,7i,10.034273018110778,1.0s : 0.3s,0.3060025791637387,0.01840215372722831,0.30544875051808545,0.04798753667718954,0.7742295861244202,0.07087470591068268,-0.07938800007104874,0.01864391565322876,0.044178515672683716,0.0018619447946548462,-0.3047552461883212,1.4416060384081275,0.26930168323093495,0.9459708333015442,0.3000597059726715,-0.12289471924304962
1728067956008,7i,10.034273018110778,1.0s : 0.3s,0.3696010823841802,0.019642437881766804,0.3690787649453955,0.029016409815188462,0.7621247172355652,0.07966712862253189,-0.09267611056566238,0.02097851037979126,0.017571747303009033,0.00964820384979248,-0.30462253697086583,1.4399293095387684,0.26114694330005217,0.9458031058311462,0.2999331057071686,-0.12448589503765106
1728067956018,7i,10.034273018110778,1.0s : 0.3s,0.4159735092022386,0.020677135759904184,0.415459283702737,0.03348500429876952,0.7518010139465332,0.08556514233350754,-0.20269161462783813,0.02272331714630127,-0.015501171350479126,0.019094765186309814,-0.30488593279403836,1.4383194813757414,0.25314625811807506,0.9455231428146362,0.30018436908721924,-0.1259978860616684
1728067956028,7i,10.034273018110778,1.0s : 0.3s,0.4976773154874156,0.021460432342804665,0.49721440063057354,0.1420682382818106,0.8252443671226501,0.05617769435048103,-0.7535331845283508,0.14151984453201294,0.010629236698150635,0.006522059440612793,-0.3050861944210278,1.436212112279237,0.24486481964066334,0.9451958537101746,0.30037540197372437,-0.12798207998275757
1728067956038,7i,10.034273018110778,1.0s : 0.3s,0.5873988438134692,0.022220387399810894,0.5869784119515833,0.06834839867503664,1.0248117446899414,-0.091218501329422,-0.6184687614440918,0.06750833988189697,0.003942370414733887,-0.00992901623249054,-0.3045300603571998,1.4342685739103467,0.23556590606546288,0.9451107978820801,0.299844890832901,-0.12984159588813782
1728067956048,7i,10.034273018110778,1.0s : 0.3s,0.6407244081161387,0.022784956118847215,0.6403191492767013,0.08501760505476788,1.207593321800232,-0.0022380338050425053,-0.05974872037768364,-0.07730263471603394,-0.0351908802986145,-0.0037279725074768066,-0.3039804184594506,1.4318965911756436,0.22448745003364956,0.9449631571769714,0.2993204891681671,-0.13210581243038177
1728067956058,7i,10.034273018110778,1.0s : 0.3s,0.7095283684414108,0.02325259998693967,0.7091472500242652,0.0398414412809071,1.345427393913269,0.13245585560798645,0.053752873092889786,-0.01792895793914795,-0.0319591760635376,0.0156366229057312,-0.30249683036267555,1.429167444166439,0.21153801766456437,0.9450377225875854,0.2979046106338501,-0.13474678993225098
1728067956068,7i,10.034273018110778,1.0s : 0.3s,0.7826153230407262,0.02364434437719316,0.7822580704838481,0.05685833132851902,1.4360523223876953,0.15695294737815857,0.07050842046737671,0.02104496955871582,-0.02786850929260254,0.04487009346485138,-0.2997472394871075,1.4263549998324514,0.19720832371052432,0.9454618692398071,0.29527872800827026,-0.13752149045467377
1728067956078,7i,10.034273018110778,1.0s : 0.3s,0.8467791904213577,0.023880270658494906,0.8464423961522292,0.07848655203288077,1.4853096008300781,0.16932235658168793,0.09328177571296692,0.0014120936393737793,-0.03640258312225342,0.0695197582244873,-0.2968624379495182,1.4235737995652062,0.18215079627212155,0.9459145069122314,0.29252132773399353,-0.14027485251426697
1728067956088,7i,10.034273018110778,1.0s : 0.3s,0.9132686161205399,0.024206293406136607,0.9129477644149538,0.06877429578211215,1.5842012166976929,0.17928418517112732,0.07589320093393326,0.013395547866821289,-0.005714148283004761,0.06721466779708862,-0.2937332467371962,1.4207339345855743,0.1664389793494235,0.9464128017425537,0.2895275950431824,-0.1430967003107071
1728067956098,7i,10.034273018110778,1.0s : 0.3s,0.9760529700192834,0.024593138481848156,0.9757430900719085,0.054400929683236725,1.6612733602523804,0.19363245368003845,0.07665003836154938,0.00308072566986084,0.005561232566833496,0.05402816832065582,-0.290531414456316,1.4178054093604944,0.14972349958833708,0.9469009041786194,0.28646141290664673,-0.1460081934928894
1728067956108,7i,10.034273018110778,1.0s : 0.3s,0.9989742597907276,0.0248364769315118,0.998665470083983,0.08452087108552238,1.553249716758728,0.20976188778877258,0.07725963741540909,-0.010491132736206055,-0.045022547245025635,0.0707579255104065,-0.2873009218072784,1.4150968575876328,0.13316568878757953,0.947411298751831,0.28336480259895325,-0.14871510863304138
1728067956118,7i,10.034273018110778,1.0s : 0.3s,0.9742603207810233,0.02452338149593762,0.9739516293986819,0.14345874571689243,1.348289132118225,0.20624859631061554,0.09457846730947495,-0.008306264877319336,-0.12942004203796387,0.06133408844470978,-0.28421677371804105,1.4130116287093708,0.11833404506423963,0.9479576349258423,0.280405730009079,-0.15082696080207825
1728067956128,7i,10.034273018110778,1.0s : 0.3s,0.9102211161392104,0.02361358458223607,0.909914764628472,0.17164649390845382,1.1166865825653076,0.17963296175003052,0.08996027708053589,0.012374341487884521,-0.16856452822685242,0.02992314100265503,-0.28136252742638956,1.4114151880687196,0.10581900021994489,0.9485021233558655,0.2776648700237274,-0.1524665355682373
1728067956138,7i,10.034273018110778,1.0s : 0.3s,0.8228783248992422,0.022441377612000418,0.822572259537032,0.14662203589591627,0.9042217135429382,0.16870202124118805,0.08535487204790115,0.00459057092666626,-0.1458420753479004,0.014388784766197205,-0.278899296783116,1.4103242564397092,0.09571859364083136,0.9490075707435608,0.2752976417541504,-0.15361003577709198
1728067956148,7i,10.034273018110778,1.0s : 0.3s,0.7212303248391141,0.021401813615211308,0.7209127158273142,0.11658882499948518,0.6993050575256348,0.16994890570640564,0.08115693181753159,0.006529450416564941,-0.11631754040718079,-0.004533231258392334,-0.276790186003918,1.4097799653752379,0.08774913268777586,0.9494947195053101,0.2732694149017334,-0.15421926975250244
1728067956158,7i,10.034273018110778,1.0s : 0.3s,0.603661983101408,0.02052002187370746,0.6033131181602361,0.10272977243653694,0.46554169058799744,0.16542309522628784,0.05396822467446327,0.012796580791473389,-0.09998580813407898,-0.01981140673160553,-0.27518342667594886,1.4098742541425102,0.08203247959093449,0.9499415755271912,0.2717234790325165,-0.15419991314411163
1728067956178,7i,10.034273018110778,1.0s : 0.3s,0.4993714036749861,0.020143413472751517,0.49896497041575144,0.1569378844386811,0.21222727000713348,0.19449332356452942,-0.9675678014755249,0.15369737148284912,-0.024106472730636597,-0.020627543330192566,-0.2744092652721053,1.4108007054988125,0.07899890660126023,0.9502912163734436,0.2709783613681793,-0.15335321426391602
1728067956188,7i,10.034273018110778,1.0s : 0.3s,0.5059024517817947,0.020132837855617355,0.5055016909553425,0.13040319525079846,0.20981018245220184,0.23518455028533936,-1.062398076057434,0.12717920541763306,0.0027762651443481445,-0.028683364391326904,-0.27312890759191444,1.411547996099626,0.07719989531336782,0.9507474303245544,0.26974567770957947,-0.15269793570041656
1728067956208,7i,10.034273018110778,1.0s : 0.3s,0.39008501449822,0.02000140379038,0.38957189629449746,0.04877200253276706,0.22280612587928772,0.06995351612567902,0.010235290974378586,-0.014886915683746338,0.01572364568710327,-0.043701887130737305,-0.27402401684302413,1.4120575577627161,0.07289311631421888,0.9505863785743713,0.27060750126838684,-0.15217523276805878
1728067956218,7i,10.034273018110778,1.0s : 0.3s,0.31126724856315025,0.01993144388868926,0.31062845583202126,0.0441423718812052,0.1855652928352356,0.0434286966919899,-0.05680732801556587,0.030527114868164062,0.0007554590702056885,-0.03187590837478638,-0.2739440757102211,1.4120927749874512,0.0708694243838175,0.9506129622459412,0.2705305516719818,-0.1521451622247696
1728067956228,7i,10.034273018110778,1.0s : 0.3s,0.2625083995664183,0.019863176448889852,0.26175582909322687,0.04803964047612838,0.24390795826911926,0.05076463893055916,-0.012955982238054276,-0.004425048828125,0.018262743949890137,-0.044211968779563904,-0.27390667842639616,1.411989442111225,0.06896510390091712,0.9506072402000427,0.2704945206642151,-0.15224498510360718
1728067956238,7i,10.034273018110778,1.0s : 0.3s,0.24129137753091293,0.019768899195471874,0.24048018524478235,0.061738420827696906,0.3199959397315979,0.04139488562941551,0.021185310557484627,-0.008381664752960205,0.029106229543685913,-0.05379784107208252,-0.2735637427218494,1.4117194358975265,0.06640044048435367,0.9506576657295227,0.2701643705368042,-0.15251633524894714
1728067956248,7i,10.034273018110778,1.0s : 0.3s,0.2376933922184818,0.01964628550466749,0.23688007972431557,0.04570772085226386,0.35228756070137024,0.005545009858906269,0.06934831291437149,-0.011037766933441162,0.01120215654373169,-0.042917072772979736,-0.27295147601371533,1.4114568401950465,0.06351495166730052,0.9507808089256287,0.2695748209953308,-0.15279220044612885
1728067956258,7i,10.034273018110778,1.0s : 0.3s,0.23590269743925368,0.019496345493180398,0.2350956723794094,0.042977862122160246,0.38153666257858276,-0.03544259071350098,0.0921267569065094,-0.007194817066192627,0.0059320926666259766,-0.04195404052734375,-0.27226032979645637,1.4110688761798762,0.060567316007661805,0.9509051442146301,0.26890918612480164,-0.15319065749645233
1728067956268,7i,10.034273018110778,1.0s : 0.3s,0.24511490358648977,0.019310643418959404,0.24435305402421303,0.0496037808483183,0.4081685245037079,-0.06270084530115128,0.11429517716169357,-0.007908225059509277,0.010234355926513672,-0.04788792133331299,-0.27151654733127095,1.410554859360568,0.05748368457831877,0.9510234594345093,0.26819273829460144,-0.15371127426624298
1728067956278,7i,10.034273018110778,1.0s : 0.3s,0.2473407766045127,0.019088092199184965,0.24660313158497985,0.04399446614389799,0.36890077590942383,-0.0887691080570221,0.1290333867073059,-0.01246267557144165,-0.02228724956512451,-0.03582559525966644,-0.2707616468915163,1.4100992761114575,0.0546517956425195,0.9511528015136719,0.26746541261672974,-0.15417687594890594
1728067956288,7i,10.034273018110778,1.0s : 0.3s,0.2444265241680094,0.01883645020156345,0.2436996386141319,0.057698789993021665,0.3029651641845703,-0.1286800354719162,0.1399768441915512,-0.009427130222320557,-0.0519026517868042,-0.023375079035758972,-0.27007878307371636,1.409729621848767,0.0525348017137998,0.9512758255004883,0.2668073773384094,-0.1545577198266983
1728067956298,7i,10.034273018110778,1.0s : 0.3s,0.22308843393257846,0.018559677163264336,0.22231506412766056,0.060074554282975465,0.21367669105529785,-0.1535412222146988,0.1484367400407791,-0.0057446956634521484,-0.05529606342315674,-0.02276611328125,-0.26945175463214993,1.4095186795996286,0.0512129134291195,0.9514081478118896,0.26620301604270935,-0.15478521585464478
1728067956308,7i,10.034273018110778,1.0s : 0.3s,0.19474442350818175,0.018275136709156686,0.19388504291408268,0.06069650876803906,0.10706183314323425,-0.19138766825199127,0.13357150554656982,-0.007271170616149902,-0.057281672954559326,-0.018708452582359314,-0.26897891439969474,1.409509074096615,0.050827300888613286,0.9515307545661926,0.26574721932411194,-0.15481454133987427
1728067956318,7i,10.034273018110778,1.0s : 0.3s,0.17469214941378813,0.018004959457029627,0.1737618154306636,0.045481082025941214,0.04296353831887245,-0.22161996364593506,0.11370266228914261,-0.0011584162712097168,-0.03628244996070862,-0.027400195598602295,-0.2687541135058405,1.4095611936565877,0.051129609412165385,0.9515978693962097,0.26553046703338623,-0.15477454662322998
1728067956328,7i,10.034273018110778,1.0s : 0.3s,0.1676939407266392,0.01775446227565684,0.16675142225999712,0.03825921129800404,-0.022367797791957855,-0.24211937189102173,0.09577532857656479,0.0016725659370422363,-0.01994723081588745,-0.032604873180389404,-0.2686505361439768,1.4097276899357403,0.05184693434639021,0.9516507983207703,0.26543062925338745,-0.15462052822113037
1728067956338,7i,10.034273018110778,1.0s : 0.3s,0.1603739452532185,0.017518194405483467,0.1594142878817768,0.037968677468142,-0.05478845536708832,-0.24679629504680634,0.05878717824816704,-0.0001767277717590332,-0.011434167623519897,-0.03620564937591553,-0.2686360918522954,1.409920383693771,0.05286750883900101,0.951684296131134,0.26541668176651,-0.15443775057792664
1728067956348,7i,10.034273018110778,1.0s : 0.3s,0.15273269581386295,0.017302790707350958,0.15174943098511967,0.039907548777781,-0.07248569279909134,-0.22826682031154633,0.027610354125499725,0.004668831825256348,0.0019485056400299072,-0.039585575461387634,-0.2686511232628355,1.4100882268226127,0.05381789604828552,0.9517062306404114,0.2654311954975128,-0.15427736937999725
1728067956358,7i,10.034273018110778,1.0s : 0.3s,0.1444077249977806,0.017113385388355076,0.1433901080255687,0.029606794910355994,-0.09590219706296921,-0.21741048991680145,-0.027403531596064568,0.0007621645927429199,0.011824190616607666,-0.02713245153427124,-0.2687110963884854,1.410291926925867,0.05464486110326842,0.9517219662666321,0.26548901200294495,-0.15408095717430115
1728067956368,7i,10.034273018110778,1.0s : 0.3s,0.13909262661128036,0.016934987698487877,0.13805783197369542,0.0568600184323418,-0.0326385460793972,-0.21312172710895538,-0.07071025669574738,0.0035919547080993652,0.043237656354904175,-0.036751389503479004,-0.26892140074456267,1.4102085376887974,0.054871036823594135,0.9516539573669434,0.26569175720214844,-0.15415139496326447
1728067956378,7i,10.034273018110778,1.0s : 0.3s,0.13418897690336626,0.016758384168787083,0.13313841700434742,0.04618998536426104,-0.021367115899920464,-0.19725891947746277,-0.10627574473619461,-0.005235135555267334,0.036251217126846313,-0.02814173698425293,-0.26909335397114587,1.4099564566729084,0.05430885744222196,0.9515699744224548,0.2658575177192688,-0.15438397228717804
1728067956388,7i,10.034273018110778,1.0s : 0.3s,0.12992418670685038,0.01657015326177178,0.12886319999254212,0.039867188928194804,0.008244304917752743,-0.17438901960849762,-0.1314266473054886,-0.015190482139587402,0.0316084623336792,-0.018961727619171143,-0.2692083827867985,1.4097008327132472,0.053331587612069804,0.9515002965927124,0.2659684121608734,-0.15462230145931244
1728067956398,7i,10.034273018110778,1.0s : 0.3s,0.12631966628910027,0.01638787078615827,0.12525212885410705,0.05744699394777149,0.03460587188601494,-0.16685795783996582,-0.17841917276382446,-0.0015107989311218262,0.054482102394104004,-0.01815420389175415,-0.26936595291939525,1.4093261406012922,0.05299359297496449,0.9514009356498718,0.2661203145980835,-0.15497207641601562
1728067956408,7i,10.034273018110778,1.0s : 0.3s,0.13668493673268522,0.01623738910586683,0.13571705539335444,0.05562104984989702,0.08979482203722,-0.16231673955917358,-0.20247045159339905,0.000903010368347168,0.054834961891174316,-0.009274303913116455,-0.2696013868303952,1.4087227852158224,0.05225033276096505,0.9512453675270081,0.2663472294807434,-0.1555359661579132
1728067956418,7i,10.034273018110778,1.0s : 0.3s,0.15349882878066373,0.016108785525453494,0.15265122818349827,0.01850155961311087,0.12641409039497375,-0.14739318192005157,-0.2441452592611313,-0.00348585844039917,0.016384154558181763,-0.00785595178604126,-0.2698374756925971,1.4079107240046052,0.05098757971832998,0.9510566592216492,0.26657480001449585,-0.1562981754541397
1728067956428,7i,10.034273018110778,1.0s : 0.3s,0.17621798614830433,0.016001536613583136,0.1754899697081521,0.01618513756060206,0.19087377190589905,-0.15236131846904755,-0.2567140460014343,-0.007614076137542725,0.010093867778778076,0.010104373097419739,-0.27009456299067275,1.4069355143565645,0.04931169342355749,0.9508360028266907,0.26682257652282715,-0.15721437335014343
1728067956438,7i,10.034273018110778,1.0s : 0.3s,0.20594494131479738,0.0159401188192736,0.2053271328031996,0.03737756552377369,0.30968964099884033,-0.13240526616573334,-0.26817750930786133,0.014765739440917969,0.02417922019958496,-0.024380743503570557,-0.270061371611206,1.4055570102242376,0.04656962301706052,0.9506272673606873,0.26679059863090515,-0.1585264354944229
1728067956448,7i,10.034273018110778,1.0s : 0.3s,0.23988721354160344,0.015895016943777516,0.23936002936395184,0.023146981453576555,0.39688313007354736,-0.10436537861824036,-0.27803945541381836,0.0022234320640563965,0.00017496943473815918,-0.023039281368255615,-0.2698894922629025,1.4040252821125727,0.041259247312503064,0.9504285454750061,0.26662492752075195,-0.15998996794223785
1728067956458,7i,10.034273018110778,1.0s : 0.3s,0.26607269241767817,0.01583253582831846,0.26560122074199394,0.041141860685859,0.3975690007209778,-0.07958666235208511,-0.28832733631134033,-0.011219799518585205,-0.035604327917099,-0.01729452610015869,-0.2695702242945146,1.4025552393458076,0.03569936083112808,0.9502761960029602,0.266317218542099,-0.1614011973142624
1728067956468,7i,10.034273018110778,1.0s : 0.3s,0.2773992721349356,0.01563913037312875,0.2769580722458985,0.0773310355011486,0.34187591075897217,-0.057814788073301315,-0.2981078028678894,-0.015977680683135986,-0.0733964741230011,-0.018378257751464844,-0.26932874369626764,1.4012983982260352,0.030619729164218984,0.9501360058784485,0.2660844326019287,-0.16260628402233124
1728067956478,7i,10.034273018110778,1.0s : 0.3s,0.276849918546444,0.015447410989917684,0.27641862255079924,0.0882600311564245,0.2555501163005829,-0.051958851516246796,-0.3218565881252289,-0.005592763423919678,-0.08550462126731873,-0.02115452289581299,-0.26930531073287317,1.4002706689479032,0.026483992949001653,0.9499744176864624,0.26606184244155884,-0.16358371078968048
1728067956488,7i,10.034273018110778,1.0s : 0.3s,0.2630433528691367,0.015386931708214781,0.2625929317808153,0.0861203823127692,0.1574975848197937,-0.0479462668299675,-0.32512640953063965,0.0037706494331359863,-0.08352893590927124,-0.02062569558620453,-0.2695351269430826,1.3994620426859947,0.023449734858099643,0.9497814774513245,0.2662833631038666,-0.16434139013290405
1728067956498,7i,10.034273018110778,1.0s : 0.3s,0.24523715867166201,0.015553936452271919,0.24474341473099662,0.11434814340822119,0.06146664917469025,-0.042633526027202606,-0.3316517770290375,0.00638580322265625,-0.11374306678771973,-0.00986073911190033,-0.2699801902578792,1.3988383229763999,0.021645230788863063,0.9495620131492615,0.26671233773231506,-0.16491347551345825
1728067956508,7i,10.034273018110778,1.0s : 0.3s,0.22557740574519947,0.01601450601311442,0.22500822558273345,0.12486433486242345,-0.029660597443580627,-0.03641398251056671,-0.3156110346317291,0.003009617328643799,-0.12424370646476746,0.012064233422279358,-0.2705687310945012,1.398506623249202,0.020947434893232964,0.9493523836135864,0.2672795057296753,-0.16520148515701294
1728067956518,7i,10.034273018110778,1.0s : 0.3s,0.21519837305927195,0.016716934243844742,0.2145480922237356,0.109345181092826,-0.10065887868404388,-0.025920948013663292,-0.290966659784317,0.0012229084968566895,-0.10602676868438721,0.026705756783485413,-0.27115681064625724,1.3984372488586037,0.021514429361600012,0.9491859674453735,0.26784616708755493,-0.1652403622865677
1728067956528,7i,10.034273018110778,1.0s : 0.3s,0.20976811068392442,0.017581610710183312,0.20903001512878178,0.06856620056452904,-0.12307204306125641,-0.017274197190999985,-0.27980294823646545,-0.005324602127075195,-0.06743031740188599,0.011230528354644775,-0.2717356435819928,1.3985408298242414,0.022654646585667654,0.9490501880645752,0.2684037983417511,-0.16511544585227966
1728067956538,7i,10.034273018110778,1.0s : 0.3s,0.20339280061881446,0.01844861152591218,0.20255438794637548,0.051392369015733526,-0.177215576171875,0.0031727105379104614,-0.25691157579421997,-0.009465813636779785,-0.04909583926200867,0.011881604790687561,-0.27231272992370104,1.3988558227822054,0.024287511212823725,0.94894939661026,0.2689596712589264,-0.16478997468948364
1728067956548,7i,10.034273018110778,1.0s : 0.3s,0.1937985338851836,0.019407281575870586,0.19282434793843212,0.06551679065392345,-0.2277945876121521,-0.0019703858997672796,-0.23793789744377136,0.0009642839431762695,-0.053010255098342896,0.038489386439323425,-0.27290750154584753,1.3993934964824,0.02682074549348291,0.9488801956176758,0.2695324718952179,-0.16425243020057678
1728067956558,7i,10.034273018110778,1.0s : 0.3s,0.18971252539666886,0.020282275744110893,0.18862521460033274,0.032690322181810345,-0.20786122977733612,-2.2505642846226692e-05,-0.2173961102962494,0.00980144739151001,-0.020002931356430054,0.023926377296447754,-0.2735069737407724,1.399885540712952,0.029523378132031368,0.9488014578819275,0.27010971307754517,-0.16375799477100372
1728067956568,7i,10.034273018110778,1.0s : 0.3s,0.17960231826815629,0.02092452440063026,0.17837925049148382,0.018327398259211154,-0.14832599461078644,0.00553178321570158,-0.1983662247657776,0.009692072868347168,0.011405706405639648,0.010576725006103516,-0.2740237109848764,1.4002768272165125,0.03184824644828197,0.9487276673316956,0.27060720324516296,-0.1633630096912384
1728067956578,7i,10.034273018110778,1.0s : 0.3s,0.1609960144106206,0.021487736007556234,0.1595556136817954,0.015904117454399798,-0.055278610438108444,0.0019328760681673884,-0.16509301960468292,0.008786380290985107,0.0131625235080719,0.0015774816274642944,-0.27433861348637856,1.400450919130516,0.033426484263152215,0.9486722350120544,0.2709103524684906,-0.16318342089653015
1728067956588,7i,10.034273018110778,1.0s : 0.3s,0.14069163187450479,0.021998994129383227,0.13896107201949232,0.02324496176571643,0.028789395466446877,0.005876485258340836,-0.14347214996814728,0.01266700029373169,0.01335260272026062,-0.014198005199432373,-0.2744740066669344,1.4003617511369553,0.034062185028899065,0.9486214518547058,0.271040678024292,-0.1632617712020874
1728067956598,7i,10.034273018110778,1.0s : 0.3s,0.11731865376104673,0.022494282473065404,0.11514197226175305,0.016547793305521107,0.0671202763915062,0.028832577168941498,-0.09387470036745071,0.0031149983406066895,-0.016225099563598633,-0.0009340196847915649,-0.2743853586361964,1.4002169677759109,0.0339445147499925,0.9486215114593506,0.270955353975296,-0.1634031981229782
1728067956608,7i,10.034273018110778,1.0s : 0.3s,0.09445196856428964,0.02304973109870218,0.09159631139924292,0.05273401231439677,0.06040830537676811,0.027868246659636497,-0.04942147806286812,0.0006496906280517578,-0.0493474006652832,0.018581926822662354,-0.2740477156814876,1.4001850998933372,0.03371782051808752,0.9487063884735107,0.2706303000450134,-0.16344894468784332
1728067956618,7i,10.034273018110778,1.0s : 0.3s,0.0771879087884983,0.023644781985835386,0.07347719066474878,0.04172341115296148,0.04501377418637276,0.010689571499824524,-0.037925444543361664,0.0183488130569458,-0.03742596507072449,0.0018604397773742676,-0.27372626914615733,1.4001340667448676,0.03351043645147869,0.9487837553024292,0.2703208327293396,-0.16351212561130524
1728067956628,7i,10.034273018110778,1.0s : 0.3s,0.06178218816755782,0.024270321132203506,0.05681540536607336,0.04124447365484409,0.05105195939540863,0.00952470488846302,-0.009867181070148945,0.01316225528717041,-0.03872579336166382,0.005307972431182861,-0.2734439308342128,1.400132677555427,0.033227680543135865,0.9488586187362671,0.27004900574684143,-0.16352638602256775
1728067956638,7i,10.034273018110778,1.0s : 0.3s,0.057256820076328034,0.024925655639594608,0.05154663069677151,0.04359892252449392,0.07402225583791733,0.016024859622120857,0.032552845776081085,0.01116853952407837,-0.04182279109954834,0.005194604396820068,-0.2731422817204678,1.4001701937976427,0.03279810747991186,0.9489449858665466,0.26975855231285095,-0.16350461542606354
1728067956648,7i,10.034273018110778,1.0s : 0.3s,0.053866533162957975,0.02564604221222526,0.047369651823132616,0.05576590254514068,0.06319624185562134,0.020304560661315918,0.026484834030270576,0.019936442375183105,-0.05184328556060791,-0.004964664578437805,-0.27275731163536154,1.400233790425874,0.032382870773101785,0.9490578174591064,0.2693878412246704,-0.16346190869808197
1728067956658,7i,10.034273018110778,1.0s : 0.3s,0.04922296479751606,0.02659040484636169,0.041422827445311956,0.0742043906158534,0.0210258811712265,0.024965889751911163,0.04501817375421524,0.01807016134262085,-0.07163172960281372,0.00697539746761322,-0.2723747893525699,1.4003887453337425,0.03213691896163687,0.9491845965385437,0.2690194249153137,-0.16333231329917908
1728067956668,7i,10.034273018110778,1.0s : 0.3s,0.04540495130820147,0.0276487703607725,0.03601603949405618,0.07417139173626279,0.01577039808034897,0.014799272641539574,0.044446658343076706,0.024249732494354248,-0.06841108202934265,0.015273168683052063,-0.2719300755513973,1.4005097335331755,0.03216485202654952,0.949321985244751,0.2685910761356354,-0.16323769092559814
1728067956678,7i,10.034273018110778,1.0s : 0.3s,0.0417364762169545,0.028740758750000824,0.030263876709414796,0.06288375038064992,0.009863641113042831,0.0009486603084951639,0.02903997153043747,0.022730469703674316,-0.058587223291397095,-0.0022867172956466675,-0.271457768146233,1.4005452702628696,0.03227126452814609,0.9494526982307434,0.2681361138820648,-0.1632254272699356
1728067956688,7i,10.034273018110778,1.0s : 0.3s,0.03920898384930982,0.02983057786971273,0.025445648713570725,0.05654519176425216,-0.01475515216588974,0.0005340061616152525,0.02548891305923462,0.0014025568962097168,-0.05645233392715454,-0.0029198527336120605,-0.2709365678454713,1.400706706251733,0.03258373297117373,0.9496167302131653,0.26763394474983215,-0.16309580206871033
1728067956698,7i,10.034273018110778,1.0s : 0.3s,0.03825233682691973,0.03087848978261605,0.02257786839949679,0.04138829931361665,0.010570843704044819,0.009901009500026703,0.026901686564087868,-0.005041539669036865,-0.03947439789772034,-0.011373043060302734,-0.2704509432216283,1.400793915417888,0.03289005829783902,0.9497588872909546,0.26716601848602295,-0.16303496062755585
1728067956708,7i,10.034273018110778,1.0s : 0.3s,0.03823852076672263,0.03187878759508418,0.021116992491701667,0.032181864221441814,0.02198515087366104,0.008943603374063969,0.016711633652448654,-0.0023881196975708008,-0.031187444925308228,-0.007570505142211914,-0.26997446908868544,1.400877508043569,0.03289771734842364,0.9498978853225708,0.26670682430267334,-0.16297706961631775
1728067956718,7i,10.034273018110778,1.0s : 0.3s,0.03831925938742454,0.03284603944465082,0.019735838791426277,0.04076155674777398,0.014972249045968056,0.004745041020214558,0.006808668375015259,-0.009320259094238281,-0.0390266478061676,0.007180392742156982,-0.2695747018879663,1.4009171411165335,0.03288030844942538,0.950009286403656,0.2663215100765228,-0.16295742988586426
1728067956728,7i,10.034273018110778,1.0s : 0.3s,0.0387900159246503,0.033769838639501136,0.019085683998659314,0.04016315098343756,0.020695116370916367,0.008931796997785568,0.0018858147086575627,-0.015822887420654297,-0.034611523151397705,0.012835785746574402,-0.26907851828398954,1.400882316965909,0.03271661663499283,0.9501339197158813,0.2658432126045227,-0.16301286220550537
1728067956738,7i,10.034273018110778,1.0s : 0.3s,0.03979271513146733,0.03463660077822197,0.019589948036280815,0.04201243460085171,0.03482038900256157,0.00729763600975275,-0.009167268872261047,-0.022430360317230225,-0.027222901582717896,0.022821858525276184,-0.26825197164465975,1.400962362126026,0.03271600745413952,0.950363039970398,0.2650463283061981,-0.16297386586666107
1728067956748,7i,10.034273018110778,1.0s : 0.3s,0.041086442536068704,0.035461729452582504,0.020749976012070914,0.06294819347175233,0.04491722956299782,0.009532028809189796,-0.011272231116890907,-0.03197377920150757,-0.0348014235496521,0.0415814071893692,-0.2675346440516462,1.4011658377462453,0.032574990681330344,0.9505833387374878,0.2643545866012573,-0.16281253099441528
1728067956758,7i,10.034273018110778,1.0s : 0.3s,0.041833449498597824,0.036316474203692446,0.02076418065718644,0.07888330228479916,0.03460387513041496,0.009574373252689838,0.008463722653687,-0.028001606464385986,-0.05844274163246155,0.044977009296417236,-0.26693915515495964,1.4011209771048583,0.03240937994496485,0.9507310390472412,0.26378023624420166,-0.1628817468881607
1728067956768,7i,10.034273018110778,1.0s : 0.3s,0.04162251506578455,0.037373042856158355,0.01832182927748246,0.08647962721327854,0.0037255871575325727,-0.011168722994625568,0.022137723863124847,-0.004333019256591797,-0.08072531223297119,0.030714407563209534,-0.2662954925637848,1.401018136577402,0.03250385731336909,0.9508814215660095,0.26315930485725403,-0.16300815343856812
1728067956778,7i,10.034273018110778,1.0s : 0.3s,0.041617613229469275,0.03845812267390778,0.015905927552845058,0.058844687297998716,-0.0001153568591689691,-0.04376452788710594,0.0029424906242638826,0.026502788066864014,-0.049665987491607666,-0.017134442925453186,-0.2658289697767552,1.4005717776742987,0.03267603859996243,0.950929582118988,0.26270920038223267,-0.1634533703327179
1728067956788,7i,10.034273018110778,1.0s : 0.3s,0.04915470272205372,0.03942031042342844,0.029363649735923737,0.07390827155834376,0.06038394197821617,-0.06877107918262482,-0.052835285663604736,0.03365755081176758,0.01973399519920349,-0.0627707839012146,-0.26582580540835654,1.3998308760061848,0.032591543348064876,0.9508090019226074,0.2627061605453491,-0.16415801644325256
1728067956798,7i,10.034273018110778,1.0s : 0.3s,0.07602387097032003,0.03953485005160796,0.0649355417988388,0.12073773776446076,0.18556462228298187,-0.04594418779015541,-0.11395706236362457,0.007483541965484619,0.08555474877357483,-0.08486449718475342,-0.2663377809608183,1.3989068353513296,0.03151012535402811,0.9505242109298706,0.2632001042366028,-0.16501350700855255
1728067956808,7i,10.034273018110778,1.0s : 0.3s,0.12206080016278065,0.038765485192410555,0.11574141909521962,0.14856224166527926,0.3271356225013733,-0.005665744189172983,-0.1387351155281067,-0.018935441970825195,0.12345340847969055,-0.0804452896118164,-0.26714884020410284,1.3979110452265353,0.028929601943543132,0.9501488208770752,0.26398250460624695,-0.16592316329479218
1728067956818,7i,10.034273018110778,1.0s : 0.3s,0.17673675082683526,0.03752821595878958,0.17270643329006974,0.12776217717598143,0.4401501715183258,0.025027498602867126,-0.13565386831760406,-0.018680095672607422,0.10215988755226135,-0.07441495358943939,-0.2678052587646391,1.3969446688366096,0.024735847705981896,0.9498171210289001,0.26461556553840637,-0.1668112725019455
1728067956828,7i,10.034273018110778,1.0s : 0.3s,0.22797079117432137,0.03630165429028966,0.2250619281985168,0.08365432961259908,0.507412314414978,0.024118294939398766,-0.11625859886407852,-0.011751115322113037,0.06002911925315857,-0.05706542730331421,-0.2682021626463051,1.3959129050131405,0.0196508325767785,0.9495409727096558,0.26499831676483154,-0.16777287423610687
1728067956838,7i,10.034273018110778,1.0s : 0.3s,0.2750103290422789,0.035150389380143934,0.27275470886194936,0.06262565671513978,0.5685678124427795,0.026932990178465843,-0.08915048092603683,-0.003000617027282715,0.03533750772476196,-0.05161617696285248,-0.2682209643101621,1.3947207306479468,0.013993990121396,0.9493353962898254,0.26501643657684326,-0.1689039021730423
1728067956848,7i,10.034273018110778,1.0s : 0.3s,0.31044671276695546,0.03428833251225971,0.3085473573397401,0.03756926616654088,0.583491325378418,0.0269609522074461,-0.0631103590130806,-0.00612872838973999,-0.00026220083236694336,-0.03706507384777069,-0.26785802592802577,1.3934426506322053,0.007950640896302277,0.9492133259773254,0.26466646790504456,-0.170134037733078
1728067956858,7i,10.034273018110778,1.0s : 0.3s,0.3302676323926411,0.03372483386444542,0.3285412372702341,0.02813105811306048,0.5600237250328064,0.023010997101664543,-0.03842449188232422,-0.01014477014541626,-0.0232255756855011,-0.012207075953483582,-0.2672714865805571,1.3921197088987534,0.002018986736716766,0.9491400718688965,0.2641007900238037,-0.1714172214269638
1728067956868,7i,10.034273018110778,1.0s : 0.3s,0.3571410778947692,0.033248571796507566,0.3555900476578754,0.024730784677194306,0.6237467527389526,0.014484087936580181,-0.04157767444849014,-0.005253136157989502,-0.00261649489402771,-0.024024367332458496,-0.26661282562627353,1.390632393349346,-0.004053038894636642,0.9490549564361572,0.2634654641151428,-0.17285983264446259
1728067956878,7i,10.034273018110778,1.0s : 0.3s,0.3969089917426605,0.032672954773673275,0.39556191140266883,0.07093148614004151,0.7275016903877258,0.021286245435476303,-0.04475848376750946,-0.0009984970092773438,0.061517298221588135,-0.035297319293022156,-0.265836684428539,1.3889633157127128,-0.01100541575095726,0.9489659667015076,0.2627166509628296,-0.17448055744171143
1728067956888,7i,10.034273018110778,1.0s : 0.3s,0.4478813419920748,0.03201435021041095,0.4467356913044077,0.07620452444335646,0.8439577221870422,0.014815029688179493,-0.030838409438729286,0.0060710906982421875,0.06560960412025452,-0.0382838249206543,-0.2647900492773654,1.3870496903600569,-0.019119001683601446,0.9489002227783203,0.2617066502571106,-0.17634634673595428
1728067956898,7i,10.034273018110778,1.0s : 0.3s,0.49966628831455107,0.03139678243227414,0.49867889641626156,0.04001957327382236,0.9242175221443176,0.004338731057941914,-0.023486919701099396,0.01339024305343628,0.036192864179611206,-0.010599255561828613,-0.26342836891595905,1.3847653134974243,-0.028178926144144,0.9488442540168762,0.2603921890258789,-0.17857928574085236
1728067956908,7i,10.034273018110778,1.0s : 0.3s,0.5495783855234904,0.030824552261338338,0.5487132664812235,0.03983042461240046,0.9922940135002136,0.0010073829907923937,-0.010935441590845585,0.016887903213500977,0.03444641828536987,-0.010710075497627258,-0.2618555421253053,1.3822605125217768,-0.037965585505702365,0.9487951397895813,0.2588732838630676,-0.1810319423675537
1728067956918,7i,10.034273018110778,1.0s : 0.3s,0.5887342993533133,0.030335078905914352,0.5879522584554027,0.030262869336824413,1.0134613513946533,0.009195538237690926,0.018391620367765427,0.02262347936630249,0.0163286030292511,-0.011721611022949219,-0.25991875528798153,1.379662772714335,-0.048197974069054614,0.9488120675086975,0.2570020258426666,-0.18359093368053436
1728067956928,7i,10.034273018110778,1.0s : 0.3s,0.6089272703840999,0.030004384448603084,0.6081876006063351,0.03936208512291877,0.9769906997680664,0.0016470743576064706,0.020054498687386513,0.01937544345855713,-0.03260844945907593,-0.010519266128540039,-0.25783738567403763,1.3771521415833716,-0.05825843095280908,0.9488709568977356,0.25499001145362854,-0.18607500195503235
1728067956938,7i,10.034273018110778,1.0s : 0.3s,0.6165252421128519,0.029835824849672052,0.6158028886891082,0.05206447972042132,0.9451919198036194,-0.0064433878287673,0.02346857264637947,0.015436172485351562,-0.04547891020774841,-0.020102322101593018,-0.2557782318109561,1.3746704336996132,-0.06795514523000423,0.9489192962646484,0.252998411655426,-0.18853117525577545
1728067956948,7i,10.034273018110778,1.0s : 0.3s,0.6179372214598284,0.029801546397901883,0.6172181765776076,0.050361424933872335,0.9371238350868225,-0.014105301350355148,0.04555416479706764,0.011530935764312744,-0.04154738783836365,-0.026021629571914673,-0.2536077874236001,1.3721612806412433,-0.07745143490921212,0.948979377746582,0.25089797377586365,-0.1910194754600525
1728067956958,7i,10.034273018110778,1.0s : 0.3s,0.614184413709741,0.02993674975194114,0.613454387104916,0.05413671975517723,0.8889243602752686,-0.01675461418926716,0.059775445610284805,0.014237582683563232,-0.049559086561203,-0.016491591930389404,-0.2512763835310836,1.369717624222897,-0.08659938969312636,0.9490802884101868,0.24864046275615692,-0.19345417618751526
1728067956968,7i,10.034273018110778,1.0s : 0.3s,0.5896164868656376,0.030462587211770097,0.5888290349194254,0.07177431965057161,0.7901602387428284,-0.02446792833507061,0.06513399630784988,0.012969732284545898,-0.07045625150203705,-0.0043881237506866455,-0.24900096589706844,1.3674380453018489,-0.09496034648399522,0.9491885900497437,0.24643586575984955,-0.19573095440864563
1728067956978,7i,10.034273018110778,1.0s : 0.3s,0.5566857681670664,0.03133358861185459,0.5558032481953122,0.08597339042642531,0.7110896706581116,-0.03829612210392952,0.057238250970840454,0.014505147933959961,-0.08473005890846252,-0.0013570785522460938,-0.24689880356241783,1.3652875353649048,-0.10238185653313804,0.949270486831665,0.24439798295497894,-0.19787700474262238
1728067956988,7i,10.034273018110778,1.0s : 0.3s,0.5281848744691464,0.03224081369501454,0.5271999540499518,0.05831234713557434,0.6837595105171204,-0.04558306559920311,0.044848959892988205,0.01234656572341919,-0.05581042170524597,-0.01153641939163208,-0.2449751165566198,1.3631723780078473,-0.10927582914550088,0.9493080973625183,0.2425321787595749,-0.1999809592962265
1728067956998,7i,10.034273018110778,1.0s : 0.3s,0.5140951064328702,0.033082454392602226,0.5130295602298034,0.02540174550900451,0.7126308679580688,-0.042650483548641205,0.046807050704956055,0.007591843605041504,0.0009321868419647217,-0.02422279119491577,-0.24312458370024206,1.3610424119345654,-0.11618664128690562,0.9493173360824585,0.2407364845275879,-0.20209559798240662
1728067957008,7i,10.034273018110778,1.0s : 0.3s,0.5141052446944618,0.03385142310550514,0.5129895552309857,0.04154691567590695,0.7612862586975098,-0.032712098211050034,0.055109720677137375,0.015155494213104248,0.01709093153476715,-0.034703850746154785,-0.2410659495773004,1.358915222869816,-0.12350534126422662,0.9493678212165833,0.23873788118362427,-0.204218327999115
1728067957018,7i,10.034273018110778,1.0s : 0.3s,0.5131438841034728,0.03458868423389205,0.5119768243932203,0.0254422872039157,0.7471117377281189,-0.03266012296080589,0.047723542898893356,0.007683813571929932,-0.011810302734375,-0.021184563636779785,-0.23897775524923284,1.3568238587328154,-0.13102654908653968,0.9494237303733826,0.23670955002307892,-0.2063087522983551
1728067957028,7i,10.034273018110778,1.0s : 0.3s,0.5084390871172914,0.03529708359936912,0.507212402448958,0.022495047001225885,0.728945255279541,-0.04195988178253174,0.03209478408098221,0.008125007152557373,-0.020517215132713318,0.0043652355670928955,-0.23702478315925535,1.3547346298473335,-0.13834813311890873,0.9494404196739197,0.23481163382530212,-0.20839059352874756
1728067957038,7i,10.034273018110778,1.0s : 0.3s,0.5086593146757911,0.035926054848025656,0.5073890193820735,0.021784282225136262,0.7567700743675232,-0.0411534309387207,0.03143468499183655,0.015619754791259766,0.015093207359313965,0.0016653239727020264,-0.23514517502856627,1.3525994767771274,-0.1457136210325851,0.9494224786758423,0.23298417031764984,-0.21051247417926788
1728067957048,7i,10.034273018110778,1.0s : 0.3s,0.5085065866735384,0.03648069641095174,0.5071963204517013,0.01991978105500669,0.750727653503418,-0.04589758440852165,0.04173339530825615,0.013362705707550049,0.014531254768371582,0.00266052782535553,-0.23316591638753437,1.3504028870557359,-0.15322752830035838,0.9494057893753052,0.23105892539024353,-0.2126978188753128
1728067957058,7i,10.034273018110778,1.0s : 0.3s,0.4915299681320094,0.03703403396127829,0.4901328288335816,0.03746065464104123,0.6679069399833679,-0.04768744856119156,0.04670741409063339,-0.0008158683776855469,-0.035329341888427734,0.012428700923919678,-0.23116936776633942,1.348320742789921,-0.1602728561917709,0.949409008026123,0.22911594808101654,-0.21477553248405457
1728067957068,7i,10.034273018110778,1.0s : 0.3s,0.461507726474023,0.03769274895881705,0.4599659099011026,0.0627393998543651,0.577207624912262,-0.05032744258642197,0.04008945822715759,-0.008256614208221436,-0.06130234897136688,0.010492026805877686,-0.22936966416611396,1.3464384736535338,-0.1664167941602535,0.9494034647941589,0.2273637354373932,-0.21665357053279877
1728067957078,7i,10.034273018110778,1.0s : 0.3s,0.4271098426047346,0.038365768851900774,0.42538322184853944,0.05168756676750252,0.5098921060562134,-0.051152266561985016,0.03930652514100075,-0.007362067699432373,-0.050538212060928345,0.007955729961395264,-0.22778045755050919,1.344710557777132,-0.171759851148589,0.9493786692619324,0.22581586241722107,-0.21837446093559265
1728067957088,7i,10.034273018110778,1.0s : 0.3s,0.3894320828198866,0.03906868120111083,0.3874673989881484,0.05744156825490623,0.44121024012565613,-0.04985104501247406,0.041753701865673065,-0.006452083587646484,-0.05603170394897461,0.010878995060920715,-0.22633998882317424,1.3431547041282417,-0.17642394319226187,0.9493536353111267,0.22441238164901733,-0.2199244648218155
1728067957098,7i,10.034273018110778,1.0s : 0.3s,0.3464058380706238,0.03993092748304219,0.3440966807159803,0.07956291957739543,0.3566056191921234,-0.04812309890985489,0.04632441699504852,-0.006216645240783691,-0.07686249911785126,0.019589990377426147,-0.2250118921190827,1.3418130154261756,-0.18030801074908306,0.949347198009491,0.22311794757843018,-0.22126547992229462
1728067957108,7i,10.034273018110778,1.0s : 0.3s,0.30673529507338776,0.040825884543343544,0.30400623084899403,0.06952199502517471,0.3066098392009735,-0.054361023008823395,0.04800061136484146,0.0023179054260253906,-0.06476612389087677,0.025165140628814697,-0.22379503803094777,1.3406021650870659,-0.18348304944536248,0.9493422508239746,0.2219316065311432,-0.22247663140296936
1728067957118,7i,10.034273018110778,1.0s : 0.3s,0.2745617991351345,0.04171510922200073,0.27137433778255177,0.04469607611081671,0.2830154001712799,-0.06129753589630127,0.03990903124213219,0.003924071788787842,-0.04154680669307709,0.016006365418434143,-0.222704415291953,1.3393942234629619,-0.18630592443091723,0.9493076205253601,0.2208680510520935,-0.22367854416370392
1728067957128,7i,10.034273018110778,1.0s : 0.3s,0.24912464645893478,0.042577303549881554,0.24545928928380467,0.03737916165036974,0.2684553861618042,-0.04660434275865555,0.045131757855415344,-0.00673753023147583,-0.034652575850486755,0.012288466095924377,-0.22167476163275093,1.3382542294599624,-0.18897817455061194,0.949272871017456,0.21986371278762817,-0.22481290996074677
1728067957138,7i,10.034273018110778,1.0s : 0.3s,0.22557534290001857,0.043446124750376014,0.22135191340631266,0.051381679313411,0.23790253698825836,-0.04751709848642349,0.044764839112758636,-0.006156980991363525,-0.04984787106513977,0.010833203792572021,-0.22064000693668026,1.3372706129004615,-0.1914096887766047,0.9492722153663635,0.218854159116745,-0.2257990688085556
1728067957148,7i,10.034273018110778,1.0s : 0.3s,0.19879899910962404,0.04431370363595041,0.19379715611188272,0.05371219411685332,0.18388190865516663,-0.05208228901028633,0.034952688962221146,-0.0031048059463500977,-0.047652438282966614,0.02458871901035309,-0.21978191222777316,1.3363281265169413,-0.19340996543652786,0.9492412209510803,0.21801678836345673,-0.22673717141151428
1728067957158,7i,10.034273018110778,1.0s : 0.3s,0.1706219182261915,0.04516772208001712,0.1645348469512994,0.047343599963929756,0.13349449634552002,-0.046360354870557785,0.03403159976005554,-0.003007352352142334,-0.04044148325920105,0.024430692195892334,-0.2190693591499771,1.335503769951747,-0.19491533800349714,0.9492048621177673,0.21732132136821747,-0.2275557816028595
1728067957168,7i,10.034273018110778,1.0s : 0.3s,0.14271961967305108,0.04599230256626774,0.13510587679399158,0.04215909182294183,0.08833687752485275,-0.041602615267038345,0.02961927466094494,-0.013171076774597168,-0.03491769731044769,0.019612908363342285,-0.2185065329019646,1.3348544392800126,-0.19594784451105,0.9491756558418274,0.2167719155550003,-0.22820062935352325
1728067957179,7i,10.034273018110778,1.0s : 0.3s,0.11238314218778056,0.04677493604831388,0.10218647662814806,0.03852743180554441,0.024383461102843285,-0.039282381534576416,0.02248619869351387,-0.01656574010848999,-0.028307095170021057,0.02021503448486328,-0.21812780209671753,1.3343367611871033,-0.19646105121863033,0.9491371512413025,0.21640217304229736,-0.22871117293834686
1728067957189,7i,10.034273018110778,1.0s : 0.3s,0.08333201844243406,0.0475298387454306,0.06844808051745158,0.047981983650745394,-0.037115320563316345,-0.03333048149943352,0.02566787600517273,-0.015552759170532227,-0.034312814474105835,0.029715538024902344,-0.21793385430693124,1.3339994848024195,-0.19629246971851877,0.9491007328033447,0.21621280908584595,-0.22904112935066223
1728067957199,7i,10.034273018110778,1.0s : 0.3s,0.0753119669202336,0.048254772567942646,0.057821875495442814,0.04518453811199236,-0.08529190719127655,-0.030094122514128685,0.008461393415927887,-0.01019740104675293,-0.029183372855186462,0.03295430541038513,-0.21791567045785015,1.3338516189199463,-0.19559308322283803,0.9490707516670227,0.21619506180286407,-0.2291824221611023
1728067957209,7i,10.034273018110778,1.0s : 0.3s,0.06656705609816019,0.048878556359208146,0.045189154515384765,0.02610488566336533,0.014816055074334145,-0.02892952226102352,-0.011928834021091461,-0.020768702030181885,0.007034271955490112,0.014164924621582031,-0.21806320723511968,1.3336408329150968,-0.19517016582902755,0.9489913582801819,0.2163390964269638,-0.2293749451637268
1728067957219,7i,10.034273018110778,1.0s : 0.3s,0.08137053117187582,0.04934240110555318,0.06470309727000645,0.05280315289016786,0.18382105231285095,0.002873859368264675,-0.019737955182790756,-0.023872673511505127,0.0444713830947876,-0.015510141849517822,-0.21800882302598143,1.333286561879061,-0.195977078154017,0.9489215016365051,0.21628600358963013,-0.22971391677856445
1728067957229,7i,10.034273018110778,1.0s : 0.3s,0.1283186902504105,0.04943748009348729,0.11841292931765028,0.06518674619454994,0.37016376852989197,0.03873332589864731,-0.04094710201025009,-0.027602553367614746,0.05285273492336273,-0.02634386718273163,-0.21747308633029158,1.3330258229267262,-0.1985856214839631,0.9489738941192627,0.2157629132270813,-0.22998854517936707
1728067957239,7i,10.034273018110778,1.0s : 0.3s,0.20416313665297936,0.04916534444657255,0.19815487698624276,0.06550547884637703,0.5664768218994141,0.09301839768886566,-0.06344668567180634,-0.020669102668762207,0.052689626812934875,-0.03297816216945648,-0.21674945055708295,1.3327395170683212,-0.2031739248096901,0.9490595459938049,0.21505627036094666,-0.2302969992160797
1728067957249,7i,10.034273018110778,1.0s : 0.3s,0.3020697871501084,0.04845603101226463,0.2981579604294513,0.0945144960205021,0.776213526725769,0.14003251492977142,-0.09023009985685349,-0.00870579481124878,0.087484210729599,-0.034694552421569824,-0.21585431593045065,1.3324574114988375,-0.20989969776201414,0.9491811990737915,0.21418198943138123,-0.23061008751392365
1728067957259,7i,10.034273018110778,1.0s : 0.3s,0.4139560050979419,0.04724947174792362,0.41125060677911407,0.12941917559483646,0.9885044693946838,0.15259934961795807,-0.10918101668357849,0.010802924633026123,0.1262410432100296,-0.02637837827205658,-0.2147614427178766,1.3319688630268574,-0.21895471112360007,0.9492952823638916,0.21311435103416443,-0.2311290055513382
1728067957269,7i,10.034273018110778,1.0s : 0.3s,0.5245435960701781,0.0457242178812648,0.5225469166279528,0.13349011105789443,1.1478984355926514,0.16619159281253815,-0.11592680215835571,0.016485631465911865,0.12803635001182556,-0.03397832810878754,-0.21333019642025516,1.3312583460238827,-0.2297240683934666,0.9494261741638184,0.21171577274799347,-0.23187556862831116
1728067957279,7i,10.034273018110778,1.0s : 0.3s,0.615652823497125,0.04408917637419817,0.6140720996809959,0.11859484760053605,1.2143000364303589,0.1763453334569931,-0.1239207461476326,0.005041778087615967,0.11327590048313141,-0.03475469350814819,-0.2116809140299438,1.33045957294745,-0.24162234043874498,0.949578583240509,0.2101035863161087,-0.23271669447422028
1728067957289,7i,10.034273018110778,1.0s : 0.3s,0.6842339173865192,0.042387262039765256,0.682919741784402,0.11889161049185461,1.2393229007720947,0.17331385612487793,-0.11920562386512756,0.00034683942794799805,0.11778794229030609,-0.016158446669578552,-0.2099378655815889,1.3296397339802557,-0.2538876962311632,0.9497416019439697,0.20839913189411163,-0.23358219861984253
1728067957299,7i,10.034273018110778,1.0s : 0.3s,0.7456704878266234,0.04041937351808639,0.7445742076247336,0.14619729470978027,1.310595154762268,0.13890422880649567,-0.13110056519508362,0.004273355007171631,0.14546909928321838,-0.013933002948760986,-0.20812674592435274,1.3285159790884147,-0.2666840456640017,0.9498434662818909,0.20662742853164673,-0.2347395271062851
1728067957309,7i,10.034273018110778,1.0s : 0.3s,0.8011742021396702,0.03805103332842283,0.8002700925542428,0.18465088073349709,1.3751204013824463,0.12136757373809814,-0.13355652987957,-0.006110727787017822,0.1840289682149887,-0.013854444026947021,-0.20619236530323487,1.3269758000727367,-0.2802558622707828,0.9498668313026428,0.2047344148159027,-0.23629820346832275
1728067957319,7i,10.034273018110778,1.0s : 0.3s,0.8535328700118644,0.03520791809498318,0.852806403994545,0.2134732542097635,1.4434211254119873,0.11143389344215393,-0.13651317358016968,-0.03190147876739502,0.21102075278759003,-0.004834026098251343,-0.20410489167710977,1.3252503834348461,-0.29442820220014143,0.9498701095581055,0.2026907056570053,-0.23804013431072235
1728067957329,7i,10.034273018110778,1.0s : 0.3s,0.9144859027005353,0.0318632547477472,0.9139306315223782,0.24255518666253562,1.5672959089279175,0.08305870741605759,-0.13917873799800873,-0.05382096767425537,0.23634560406208038,0.008779376745223999,-0.2017885726491563,1.323134674441343,-0.30950785591232743,0.9498171210289001,0.20042192935943604,-0.24016372859477997
1728067957339,7i,10.034273018110778,1.0s : 0.3s,0.9681941856913414,0.027930094307930097,0.9677912435223154,0.2979203652006352,1.6200346946716309,0.08720884472131729,-0.15663659572601318,-0.07332909107208252,0.28831201791763306,0.015986517071723938,-0.19928680855519645,1.3207845403606548,-0.325562484069745,0.9497328400611877,0.19797030091285706,-0.24251852929592133
1728067957349,7i,10.034273018110778,1.0s : 0.3s,1.016318490029771,0.023515667755932744,1.0160463997999238,0.33410827928911524,1.6712472438812256,0.08311343938112259,-0.1726565659046173,-0.09336543083190918,0.31782984733581543,0.04353649914264679,-0.19680481305488726,1.3183493818186058,-0.3421843649252792,0.9496123194694519,0.19553682208061218,-0.24495252966880798
1728067957359,7i,10.034273018110778,1.0s : 0.3s,1.0621574342272577,0.019223260502243933,1.0619834656621985,0.33261466612922935,1.7299518585205078,0.08037668466567993,-0.19307315349578857,-0.10226929187774658,0.31520819664001465,0.028588473796844482,-0.19428192986758555,1.3157733134162755,-0.35941902229085754,0.9494525194168091,0.19306202232837677,-0.24752165377140045
1728067957369,7i,10.034273018110778,1.0s : 0.3s,1.0829621705218395,0.015794189753805896,1.0828469912002316,0.31980625941999746,1.669695496559143,0.0881698876619339,-0.2218262404203415,-0.12198126316070557,0.2931438982486725,0.03825271129608154,-0.19196538022341972,1.3132986337869579,-0.37667738732149353,0.9492670297622681,0.19078853726387024,-0.24998369812965393
1728067957379,7i,10.034273018110778,1.0s : 0.3s,1.0836880851295843,0.01428255023645408,1.0835939620589292,0.32601891433628427,1.6023117303848267,0.08925259858369827,-0.26664140820503235,-0.13630640506744385,0.2925495505332947,0.046083152294158936,-0.19016180422413406,1.3110570316751482,-0.39329389768159545,0.9490352869033813,0.18901778757572174,-0.2521989345550537
1728067957389,7i,10.034273018110778,1.0s : 0.3s,1.0931115043769108,0.01582846278677122,1.0929968987910994,0.3470047615675059,1.628580927848816,0.08163329213857651,-0.34206265211105347,-0.12529778480529785,0.321850448846817,0.03354188799858093,-0.18894578648674298,1.3087699448142804,-0.4098966838477116,0.9486772418022156,0.18782354891300201,-0.25442811846733093
1728067957399,7i,10.034273018110778,1.0s : 0.3s,1.098073410662349,0.020276643432521106,1.0978861839620508,0.3870468757712766,1.6109750270843506,0.07521188259124756,-0.4105437695980072,-0.1360120177268982,0.361917644739151,0.017934143543243408,-0.18840454710029464,1.3063662670006901,-0.42686330279456136,0.9481610059738159,0.1872919201850891,-0.2567342519760132
1728067957409,7i,10.034273018110778,1.0s : 0.3s,1.0985337195415004,0.026168362972558295,1.098221994748339,0.363201345033136,1.580183506011963,0.04858560115098953,-0.48239827156066895,-0.17401987314224243,0.3183029592037201,0.017763078212738037,-0.188518432587367,1.30383629087357,-0.44365484631186114,0.9474878907203674,0.18740378320217133,-0.2591266334056854
1728067957419,7i,10.034273018110778,1.0s : 0.3s,1.1037953673135312,0.03278727454178197,1.1033083012154559,0.3767312602904421,1.5804203748703003,0.028833243995904922,-0.5585468411445618,-0.2254212498664856,0.30087098479270935,-0.024255990982055664,-0.18937942393407917,1.3010159189505206,-0.4605084812593544,0.9465973973274231,0.18824945390224457,-0.26175475120544434
1728067957429,7i,10.034273018110778,1.0s : 0.3s,1.1041403986776852,0.04028841607587582,1.1034051221207082,0.44161616069425924,1.5426312685012817,0.02244964800775051,-0.6209375262260437,-0.2578333020210266,0.35105568170547485,-0.07284730672836304,-0.19087261429032149,1.2980566960508655,-0.47741270758482013,0.9455468654632568,0.18971572816371918,-0.26447877287864685
1728067957439,7i,10.034273018110778,1.0s : 0.3s,1.1028090092366654,0.048727379115728976,1.1017319789214015,0.4839652382975871,1.4850555658340454,0.05397401750087738,-0.716219961643219,-0.26339787244796753,0.40439289808273315,-0.03619801998138428,-0.1932119614833752,1.2952346059292104,-0.4940912000250591,0.9443671107292175,0.19201207160949707,-0.2670246660709381
1728067957449,7i,10.034273018110778,1.0s : 0.3s,1.1237094879126914,0.05813062523098418,1.1222049026961423,0.5307103626917521,1.56524658203125,0.03200160712003708,-0.833147406578064,-0.2716335654258728,0.45570313930511475,0.014259874820709229,-0.19654552428863423,1.2924150186168166,-0.5108724803747293,0.9429897665977478,0.19528253376483917,-0.2695089280605316
1728067957459,7i,10.034273018110778,1.0s : 0.3s,1.1836002324405566,0.06933673360355352,1.181567572171194,0.6772725485267781,1.7289280891418457,-0.003507207613438368,-0.9835766553878784,-0.2445228099822998,0.625121533870697,-0.09016522765159607,-0.20073243166077034,1.2888296571962894,-0.5295152143160514,0.9412238001823425,0.1993871033191681,-0.27265825867652893
1728067957469,7i,10.034273018110778,1.0s : 0.3s,1.275369543002061,0.0823793555953932,1.272706216292265,0.7701396048546725,1.939148187637329,-0.016219275072216988,-1.0870870351791382,-0.21869683265686035,0.7354192137718201,-0.06667298078536987,-0.20557023071197,1.2844877931832324,-0.5503237135255482,0.9390947818756104,0.20412541925907135,-0.2764666974544525
1728067957479,7i,10.034273018110778,1.0s : 0.3s,1.3711334017705563,0.09632508024886507,1.3677456943328123,0.7161917073958446,2.0509419441223145,-0.013387223705649376,-1.1978673934936523,-0.24865669012069702,0.6670895218849182,-0.07805114984512329,-0.21082681901798578,1.2795973344507712,-0.5731589525201992,0.9366907477378845,0.2092684805393219,-0.2807440459728241
1728067957489,7i,10.034273018110778,1.0s : 0.3s,1.4486461594031046,0.11043878637570269,1.4444303270207348,0.6572718110567877,2.0495452880859375,-0.024215370416641235,-1.2987421751022339,-0.2582085132598877,0.6000509262084961,-0.0726187527179718,-0.21684519777600827,1.2743727672006613,-0.5968233661513177,0.9339897036552429,0.21514977514743805,-0.2852609157562256
1728067957499,7i,10.034273018110778,1.0s : 0.3s,1.5163910696841174,0.12463667636501233,1.5112602605515786,0.656286554430291,2.0529940128326416,-0.04417065903544426,-1.4139283895492554,-0.2352283000946045,0.6097366213798523,-0.060007840394973755,-0.2237603545660887,1.268781868402006,-0.6207817607499698,0.9309374690055847,0.22189779579639435,-0.29002878069877625
1728067957509,7i,10.034273018110778,1.0s : 0.3s,1.59058298002503,0.13907918850604833,1.5844908316774207,0.6736014773648175,2.121535062789917,-0.08810775727033615,-1.5415996313095093,-0.2289489507675171,0.6312490701675415,-0.05334734916687012,-0.2316101279425203,1.2624858558095855,-0.6455621574567508,0.9274047613143921,0.22954495251178741,-0.29534652829170227
1728067957519,7i,10.034273018110778,1.0s : 0.3s,1.6712312714430178,0.1538462290665542,1.6641350006688302,0.6942272324506353,2.1983489990234375,-0.12862269580364227,-1.6704832315444946,-0.215068519115448,0.6562856435775757,-0.0706125795841217,-0.24027618132336745,1.2552593949395199,-0.6716021740847634,0.9233204126358032,0.23797088861465454,-0.3014119267463684
1728067957529,7i,10.034273018110778,1.0s : 0.3s,1.7300234769065659,0.1686696966438485,1.7217815668899337,0.6820000256774644,2.116086959838867,-0.14079013466835022,-1.7941032648086548,-0.22072941064834595,0.6432749629020691,-0.0509890615940094,-0.24991274776057162,1.247420183929465,-0.6981537257827208,0.9187121391296387,0.24731941521167755,-0.3078976571559906
1728067957539,7i,10.034273018110778,1.0s : 0.3s,1.7890303330309854,0.18350721720204297,1.7795939519282822,0.6711971966639876,2.090693473815918,-0.18832410871982574,-1.9546244144439697,-0.25592905282974243,0.6201143264770508,-0.021545737981796265,-0.26093407229096915,1.2390201678761976,-0.7244521803891134,0.9134606719017029,0.25798311829566956,-0.31469690799713135
1728067957549,7i,10.034273018110778,1.0s : 0.3s,1.8614012976790497,0.19874581100483166,1.8507606256913078,0.7231783277993419,2.133267641067505,-0.205060213804245,-2.12668776512146,-0.2620511054992676,0.6701608300209045,-0.07211500406265259,-0.27322846197307915,1.2297675273398216,-0.7516380355805685,0.9074521064758301,0.2698415517807007,-0.3220500648021698
1728067957559,7i,10.034273018110778,1.0s : 0.3s,1.9488144283966555,0.21483824487362504,1.9369362934455547,0.8095807184427302,2.2040891647338867,-0.2300361841917038,-2.3045995235443115,-0.24849307537078857,0.7686138153076172,-0.0538974404335022,-0.2867683528802666,1.2195712326320265,-0.780170961909403,0.9006079435348511,0.28285402059555054,-0.3299984633922577
1728067957569,7i,10.034273018110778,1.0s : 0.3s,2.0317840382451795,0.23203875217199407,2.0184906231038955,0.8872860837683322,2.1920583248138428,-0.21599945425987244,-2.461517095565796,-0.23631519079208374,0.8516089916229248,-0.07870101928710938,-0.30138566824033214,1.2085721982637698,-0.8100565119197294,0.8929619193077087,0.2968437075614929,-0.338382750749588
1728067957579,7i,10.034273018110778,1.0s : 0.3s,2.1224874153109488,0.2501198660578224,2.1076984795640406,0.9078441336909803,2.2363271713256836,-0.2520291209220886,-2.629194974899292,-0.20424795150756836,0.8836994171142578,-0.039231181144714355,-0.31722734853700013,1.196700304494272,-0.8407525894014367,0.8843932151794434,0.3119334578514099,-0.34719768166542053
1728067957589,7i,10.034273018110778,1.0s : 0.3s,2.213391614453891,0.2690034012283369,2.196984207740781,0.9466389814835532,2.250159502029419,-0.2986019551753998,-2.786113739013672,-0.1280834674835205,0.9333697557449341,-0.092416912317276,-0.33403812340003103,1.18350950764232,-0.8728591351647764,0.8747569918632507,0.32786062359809875,-0.356801837682724
1728067957599,7i,10.034273018110778,1.0s : 0.3s,2.3002850570535753,0.28843695622570836,2.28212959009501,0.9620554040422316,2.25679087638855,-0.3629191815853119,-2.9163715839385986,-0.04694491624832153,0.9566304087638855,-0.09058165550231934,-0.35172421788604796,1.1688524829327211,-0.9059835071290048,0.8639615178108215,0.3445169925689697,-0.36725831031799316
1728067957609,7i,10.034273018110778,1.0s : 0.3s,2.3780829711619544,0.3080005597614015,2.358053068299595,0.934334259970797,2.2032320499420166,-0.4221758246421814,-3.0531203746795654,0.008641362190246582,0.926116943359375,-0.12334197759628296,-0.37021554920837835,1.1526746546376836,-0.9400143749580787,0.8519392013549805,0.3618163764476776,-0.3785349130630493
1728067957619,7i,10.034273018110778,1.0s : 0.3s,2.431835346892866,0.3274860896017468,2.409683799902988,0.8773527730780603,2.0000603199005127,-0.49159306287765503,-3.183546781539917,0.05206644535064697,0.8730083703994751,-0.06995254755020142,-0.3898926986841092,1.1353098578559413,-0.9738910359051768,0.838619589805603,0.3800891637802124,-0.3901914954185486
1728067957629,7i,10.034273018110778,1.0s : 0.3s,2.4885473691240523,0.34686129348371064,2.464255516673758,0.8785336302264166,1.9100937843322754,-0.5798895955085754,-3.332993507385254,0.11183696985244751,0.8690222501754761,-0.06414172053337097,-0.41094005903776337,1.116526619978436,-1.0075031023276526,0.8237708806991577,0.39947131276130676,-0.40227368474006653
1728067957639,7i,10.034273018110778,1.0s : 0.3s,2.549765073074462,0.36608819289482714,2.5233472537273616,0.9473505861553553,1.8076577186584473,-0.6777283549308777,-3.4933364391326904,0.19447386264801025,0.9195067882537842,-0.11899712681770325,-0.4331944431972468,1.0959321437257588,-1.0418111118605426,0.80720454454422,0.41977229714393616,-0.41498416662216187
1728067957649,7i,10.034273018110778,1.0s : 0.3s,2.620917422993403,0.3854977290565678,2.592411934674466,1.032465108518029,1.822515845298767,-0.7597150802612305,-3.6159989833831787,0.3013218641281128,0.9783524870872498,-0.13422274589538574,-0.4562249000767229,1.0731290493422196,-1.0773275313643458,0.7888270616531372,0.44056227803230286,-0.42855194211006165
1728067957659,7i,10.034273018110778,1.0s : 0.3s,2.696318179192801,0.40512367267261146,2.6657093865021815,1.0884725064459762,1.8162955045700073,-0.8641637563705444,-3.733128309249878,0.40797239542007446,1.0000662803649902,-0.1349012851715088,-0.4796473464384244,1.047739158092041,-1.1146289654440769,0.7685412764549255,0.46146634221076965,-0.4431626796722412
1728067957669,7i,10.034273018110778,1.0s : 0.3s,2.775860719825197,0.42479103768069093,2.7431651992132413,1.1122863354296821,1.9303381443023682,-0.9493995308876038,-3.795626163482666,0.5034862756729126,0.9783187508583069,-0.16301804780960083,-0.5025797366487458,1.0196425128062336,-1.1540832498173499,0.7465747594833374,0.48168787360191345,-0.45891493558883667
1728067957679,7i,10.034273018110778,1.0s : 0.3s,2.8526212901174195,0.4440261259633734,2.8178518456961377,1.0756550051767726,1.9946566820144653,-1.0112746953964233,-3.861222743988037,0.5728311538696289,0.8943700194358826,-0.1702951192855835,-0.5243135695746942,0.9888179433907214,-1.195985155843816,0.7231588363647461,0.5006188750267029,-0.4758383333683014
1728067957689,7i,10.034273018110778,1.0s : 0.3s,2.9161898852951196,0.46318707236371587,2.879170224750995,1.0071708704109619,1.8581966161727905,-1.117702603340149,-3.9561402797698975,0.605791449546814,0.7940332293510437,-0.1300811767578125,-0.5457350877348798,0.9556711705592192,-1.239280180664508,0.698072075843811,0.5190465450286865,-0.4932403564453125
1728067957699,7i,10.034273018110778,1.0s : 0.3s,2.986610910442013,0.4820079244334939,2.9474587513915416,1.0371320240702735,1.824845552444458,-1.2491382360458374,-4.078008651733398,0.6858596205711365,0.7632110118865967,-0.1508256196975708,-0.5673356908604308,0.91980645856773,-1.2838960203154006,0.6708604097366333,0.5373870730400085,-0.5110396146774292
1728067957709,7i,10.034273018110778,1.0s : 0.3s,3.054312984498763,0.5001137291785217,3.013090450876789,1.1045422308849937,1.7979862689971924,-1.3635023832321167,-4.154049396514893,0.7688913941383362,0.7682667970657349,-0.19643241167068481,-0.5883148753500934,0.8807740372131366,-1.330676301894763,0.6415700316429138,0.5549600124359131,-0.5295349359512329
1728067957719,7i,10.034273018110778,1.0s : 0.3s,3.125360816085068,0.5177666784301989,3.082174215943557,1.1255914360310064,1.756646752357483,-1.480610966682434,-4.2631096839904785,0.8198931813240051,0.747553288936615,-0.1894606351852417,-0.6086770375153125,0.8386340716229446,-1.379476471963937,0.6101605892181396,0.5717825889587402,-0.5484239459037781
1728067957729,7i,10.034273018110778,1.0s : 0.3s,3.1884333400653593,0.535138986728944,3.1432043250356894,1.1761177407328458,1.8009428977966309,-1.567422866821289,-4.28153657913208,0.9066928625106812,0.7220231890678406,-0.19960838556289673,-0.6276470266150574,0.7933232280976743,-1.430537290713698,0.5768581032752991,0.5872418880462646,-0.5677865743637085
1728067957739,7i,10.034273018110778,1.0s : 0.3s,3.2493693902938743,0.5520554577059374,3.2021299483618515,1.1938659462853203,1.8139845132827759,-1.7180759906768799,-4.312600135803223,0.9790166020393372,0.6425769925117493,-0.2322438359260559,-0.6445214187353385,0.7448478540642648,-1.4837892808312294,0.5418727397918701,0.6008159518241882,-0.5877025127410889
1728067957749,7i,10.034273018110778,1.0s : 0.3s,3.302729058921818,0.568389732974169,3.2534523737248944,1.183327560623067,1.7597856521606445,-1.852565050125122,-4.339365005493164,1.013164758682251,0.5612579584121704,-0.2423856258392334,-0.6595590631459418,0.6930976341197377,-1.538915073951483,0.5049170255661011,0.6127684712409973,-0.6079256534576416
1728067957759,7i,10.034273018110778,1.0s : 0.3s,3.349453572385798,0.5845461471886647,3.298051702956591,1.2133291115607079,1.71152663230896,-1.954219937324524,-4.363796234130859,1.0531495809555054,0.5552772283554077,-0.233903169631958,-0.6728728709155499,0.6386794226294423,-1.5952965275254052,0.4661986231803894,0.6232352256774902,-0.6278826594352722
1728067957769,7i,10.034273018110778,1.0s : 0.3s,3.3884367160545565,0.600702434035373,3.334765353731888,1.2268724070162884,1.7022953033447266,-2.039968729019165,-4.358259201049805,1.0831687450408936,0.5348103642463684,-0.2143344283103943,-0.6838538865871685,0.5820001802478225,-1.6529837293897855,0.42609331011772156,0.6317850351333618,-0.6475277543067932
1728067957779,7i,10.034273018110778,1.0s : 0.3s,3.4181534207325734,0.6168896251110316,3.3620261745108655,1.2419603875564036,1.6330703496932983,-2.146484136581421,-4.344046592712402,1.1186716556549072,0.49740129709243774,-0.20888102054595947,-0.692499493375488,0.5233414197682867,-1.7115289934597226,0.3846547603607178,0.6384629011154175,-0.6666377782821655
1728067957789,7i,10.034273018110778,1.0s : 0.3s,3.438962658427094,0.6330483580555978,3.3801943645919317,1.2479605333897912,1.490913987159729,-2.292264461517334,-4.321221351623535,1.1461597681045532,0.44651085138320923,-0.21059757471084595,-0.699262286298835,0.46308832663205907,-1.7708555935090375,0.34187740087509155,0.6436532735824585,-0.6847118735313416
1728067957799,7i,10.034273018110778,1.0s : 0.3s,3.4555743742570266,0.6493665322609317,3.3940119862489073,1.249207368878488,1.4041557312011719,-2.4039926528930664,-4.296532154083252,1.1491678953170776,0.4322845935821533,-0.23035240173339844,-0.7041638489747599,0.40133255305379345,-1.8294062202947496,0.2977316081523895,0.6473968029022217,-0.7015934586524963
1728067957809,7i,10.034273018110778,1.0s : 0.3s,3.4715983510012114,0.6661434067227215,3.407087916733905,1.2604994629462616,1.3958323001861572,-2.4732630252838135,-4.275049686431885,1.1580036878585815,0.4517176151275635,-0.20937418937683105,-0.7067179576016317,0.3385764407373999,-1.8878535407543073,0.25259509682655334,0.6493412852287292,-0.717322587966919
1728067957819,7i,10.034273018110778,1.0s : 0.3s,3.477379251233575,0.683406671458278,3.409563282638422,1.2611489208590572,1.4542895555496216,-2.5045158863067627,-4.203655242919922,1.168558120727539,0.43750250339508057,-0.183194100856781,-0.7059678763004552,0.2754965371880117,-1.9458587241468395,0.20700649917125702,0.6487706899642944,-0.7322874665260315
1728067957829,7i,10.034273018110778,1.0s : 0.3s,3.484975751771889,0.7011763171032819,3.4137087987658705,1.2327663323439582,1.5308836698532104,-2.5183684825897217,-4.178365707397461,1.1552746295928955,0.4016166925430298,-0.1541343331336975,-0.7015610688986975,0.2127926564929657,-2.0031723958157532,0.16131474077701569,0.6454108953475952,-0.74660724401474
1728067957839,7i,10.034273018110778,1.0s : 0.3s,3.494711236094266,0.7191601211257704,3.4199145228888224,1.1992977588316927,1.5283052921295166,-2.5387356281280518,-4.180386066436768,1.1168674230575562,0.39947032928466797,-0.1770472526550293,-0.6940668467862663,0.15074567439006334,-2.05969260376281,0.11543246358633041,0.6396684646606445,-0.7599340081214905
1728067957849,7i,10.034273018110778,1.0s : 0.3s,3.507973640601932,0.7375660652879665,3.42955906240053,1.2075549217311694,1.608119249343872,-2.549816846847534,-4.171106815338135,1.1334813833236694,0.3741101026535034,-0.18289470672607422,-0.6834927911492205,0.08962475058950453,-2.115149427755091,0.06939949840307236,0.6315050721168518,-0.7722597122192383
1728067957859,7i,10.034273018110778,1.0s : 0.3s,3.5237791555989775,0.7562805806528791,3.4416651813854857,1.2111277393145723,1.6089684963226318,-2.616819381713867,-4.162150859832764,1.1581292152404785,0.32620692253112793,-0.13840579986572266,-0.6699369974722661,0.02970687274277065,-2.1690274678603276,0.023282628506422043,0.6209366321563721,-0.7835149765014648
1728067957869,7i,10.034273018110778,1.0s : 0.3s,3.533133992122852,0.7753329571047052,3.4470124183009894,1.2214671720464947,1.605603575706482,-2.628206253051758,-4.143667697906494,1.1656867265701294,0.3406077027320862,-0.13093090057373047,-0.6539243528614194,-0.02894595160047155,-2.221113694985232,-0.022971272468566895,0.6083058714866638,-0.793370246887207
1728067957879,7i,10.034273018110778,1.0s : 0.3s,3.5397199823362606,0.7947286107257201,3.4493512417039502,1.2271817779693859,1.7504615783691406,-2.6508729457855225,-4.069770336151123,1.1664177179336548,0.33895808458328247,-0.17479199171066284,-0.6347452862192511,-0.08538428778850907,-2.2704720561900755,-0.0686698630452156,0.592972457408905,-0.8022893071174622
1728067957889,7i,10.034273018110778,1.0s : 0.3s,3.543729164384019,0.8136052685621493,3.4490669546232025,1.1670907584190378,1.7223879098892212,-2.6878695487976074,-4.0290141105651855,1.128639817237854,0.26117557287216187,-0.14163446426391602,-0.6128167080637427,-0.1396149852416023,-2.317008085620555,-0.11383873969316483,0.5751739144325256,-0.8100714683532715
1728067957899,7i,10.034273018110778,1.0s : 0.3s,3.540776919033878,0.832013385070869,3.441635500372745,1.1527713742657035,1.600648283958435,-2.764150857925415,-3.9796712398529053,1.1248148679733276,0.23021411895751953,-0.10331898927688599,-0.5898532805493155,-0.19211807375113743,-2.3609118173400545,-0.15867409110069275,0.556239128112793,-0.8157331347465515
1728067957909,7i,10.034273018110778,1.0s : 0.3s,3.533193829224161,0.850251280292211,3.4293631180190216,1.1487782228096566,1.5979825258255005,-2.826205253601074,-3.8985164165496826,1.1227235794067383,0.23275703191757202,-0.0707625150680542,-0.565777488880323,-0.2429826956035687,-2.4021305886434776,-0.20310676097869873,0.536072313785553,-0.8193742036819458
1728067957919,7i,10.034273018110778,1.0s : 0.3s,3.514958200276875,0.8681521092146811,3.406059756516281,1.0958074307231442,1.5712531805038452,-2.82486891746521,-3.813141107559204,1.072679877281189,0.2208026647567749,-0.03738969564437866,-0.5401967320587109,-0.2915310136828046,-2.440127902302531,-0.2464926689863205,0.5143046975135803,-0.8214207291603088
1728067957929,7i,10.034273018110778,1.0s : 0.3s,3.4904510471021313,0.8857275620165668,3.376201297034961,1.0251837841357714,1.5003172159194946,-2.855853319168091,-3.7303783893585205,0.9973808526992798,0.23145049810409546,-0.051612913608551025,-0.5139815448219232,-0.33810088893246876,-2.4755168742459306,-0.2888389229774475,0.49164822697639465,-0.821494996547699
1728067957939,7i,10.034273018110778,1.0s : 0.3s,3.46521078569677,0.9031238110364677,3.345452610820873,1.0162269233903396,1.5218806266784668,-2.868706464767456,-3.645648717880249,0.985964834690094,0.2264385223388672,-0.09651994705200195,-0.4866684591874678,-0.38265739212842237,-2.5079862092246428,-0.3300352096557617,0.4676837623119354,-0.8199687004089355
1728067957949,7i,10.034273018110778,1.0s : 0.3s,3.4310521522294293,0.9200376907928599,3.3053970289268944,0.9808005031066529,1.3428832292556763,-2.912461757659912,-3.5614380836486816,0.9624496698379517,0.167484313249588,-0.0872310996055603,-0.4592706788347359,-0.4256046663096834,-2.5381604872751256,-0.3700881898403168,0.4432944655418396,-0.816409707069397
1728067957959,7i,10.034273018110778,1.0s : 0.3s,3.39470008460895,0.936491277540506,3.26296992807696,0.9396745288805355,1.233681321144104,-2.9443488121032715,-3.4801344871520996,0.9199533462524414,0.1577734351158142,-0.10854309797286987,-0.4325214217186154,-0.4674552459550347,-2.5665559902873474,-0.409119576215744,0.4191613495349884,-0.8105090856552124
1728067957969,7i,10.034273018110778,1.0s : 0.3s,3.362619311896293,0.9527195677609271,3.2248308578812823,0.9164825801325759,1.1608699560165405,-2.94686222076416,-3.4441850185394287,0.893115758895874,0.191360205411911,-0.07527172565460205,-0.40572398765955137,-0.508085877795513,-2.5931493615428534,-0.44700974225997925,0.3946840763092041,-0.8027494549751282
1728067957979,7i,10.034273018110778,1.0s : 0.3s,3.33172636584025,0.9690643972633333,3.187681723571494,0.908263866404221,1.1273094415664673,-2.9566895961761475,-3.3742780685424805,0.8693053126335144,0.25225165486335754,-0.07497084140777588,-0.3787481522364194,-0.5473757069226669,-2.618862740060091,-0.48356306552886963,0.36975762248039246,-0.7933763265609741
1728067957989,7i,10.034273018110778,1.0s : 0.3s,3.3116818342200305,0.9857296825299864,3.161577701730938,0.935577789139409,1.1656246185302734,-3.010533332824707,-3.3111894130706787,0.8750833868980408,0.28361713886260986,-0.1705760359764099,-0.35106765916194865,-0.585600927234557,-2.642392078620659,-0.5189889073371887,0.34390053153038025,-0.7825489640235901
1728067957999,7i,10.034273018110778,1.0s : 0.3s,3.2887383279953646,1.0025975260284659,3.1321874131072276,0.9491259876374782,1.0185824632644653,-3.0729715824127197,-3.2298011779785156,0.9018052816390991,0.24543240666389465,-0.16537928581237793,-0.3233600483438493,-0.6232958664300061,-2.664258845084451,-0.5534623265266418,0.31775426864624023,-0.7698776721954346
1728067958009,7i,10.034273018110778,1.0s : 0.3s,3.2615474734984296,1.0196101355115386,3.098077967618977,0.9548845272024803,0.8682458400726318,-3.128983974456787,-3.1301064491271973,0.9179328083992004,0.20750018954277039,-0.16170185804367065,-0.29680803450567306,-0.660714007683957,-2.685022186895262,-0.5868475437164307,0.2924692928791046,-0.7550309300422668
1728067958019,7i,10.034273018110778,1.0s : 0.3s,3.234753299424425,1.0367274358652332,3.0641189813487175,0.9352301362626326,0.7234275341033936,-3.131046772003174,-3.093492269515991,0.8985443711280823,0.20590907335281372,-0.15771770477294922,-0.2710930854238837,-0.6976925134778067,-2.705093159956721,-0.618988037109375,0.2677847743034363,-0.7383394837379456
1728067958029,7i,10.034273018110778,1.0s : 0.3s,3.2088958146680073,1.0538669940259253,3.0309036125051243,0.9286853361251604,0.6028446555137634,-3.1373393535614014,-3.045261859893799,0.9043638110160828,0.19178880751132965,-0.08831536769866943,-0.2459714680571411,-0.7339942070454868,-2.724580791794731,-0.6496793031692505,0.24349866807460785,-0.7201563715934753
1728067958039,7i,10.034273018110778,1.0s : 0.3s,3.1877014570620634,1.07114713276331,3.002346482224952,0.962361667611898,0.5471190810203552,-3.177456855773926,-2.972614288330078,0.9343569874763489,0.2018277943134308,-0.11127686500549316,-0.22122156775199955,-0.7698888346157251,-2.7432098035296124,-0.6790926456451416,0.21942158043384552,-0.7004907727241516
1728067958049,7i,10.034273018110778,1.0s : 0.3s,3.1730607733596865,1.0891109008611253,2.98029396487317,1.076017433265248,0.5541477203369141,-3.2572338581085205,-2.866375207901001,1.0493202209472656,0.2135968953371048,-0.10543698072433472,-0.19663386325014007,-0.8056112084731413,-2.7602061212496074,-0.7073553800582886,0.1953691691160202,-0.6793226003646851
1728067958059,7i,10.034273018110778,1.0s : 0.3s,3.1526023824079354,1.1075552066278844,2.951647547698684,1.1072656350489036,0.5482199192047119,-3.2344274520874023,-2.78769588470459,1.0921351909637451,0.1755310446023941,-0.049666523933410645,-0.17219675759346587,-0.8409742880180036,-2.7757571510289236,-0.7342706918716431,0.17134703695774078,-0.6568764448165894
1728067958069,7i,10.034273018110778,1.0s : 0.3s,3.1400338063111226,1.125464459339149,2.9314061567004246,0.9498965236744268,0.491617888212204,-3.2396585941314697,-2.787781000137329,0.9407427310943604,0.1262749880552292,-0.03689372539520264,-0.14768352389255227,-0.8756822665016183,-2.790200733474865,-0.7596209049224854,0.1471472680568695,-0.6335012316703796
1728067958079,7i,10.034273018110778,1.0s : 0.3s,3.117568818032537,1.1431175842909582,2.900434023323681,0.9640887035710265,0.4602893888950348,-3.210676431655884,-2.6967146396636963,0.9565873146057129,0.11462109535932541,-0.03563344478607178,-0.12334710522214386,-0.9098269896923303,-2.8038813113059025,-0.7833999991416931,0.12303456664085388,-0.6092182993888855
1728067958089,7i,10.034273018110778,1.0s : 0.3s,3.085497746759573,1.160796253532833,2.858819407210351,0.9764162850805556,0.4788055717945099,-3.1435816287994385,-2.615368366241455,0.9707406759262085,0.10382502526044846,0.016482293605804443,-0.09931054420800585,-0.9429725784154556,-2.8161850833675617,-0.8053200840950012,0.09914737939834595,-0.5844907164573669
1728067958099,7i,10.034273018110778,1.0s : 0.3s,3.043361565750754,1.1777233009775134,2.8062461485449752,0.9294874077673959,0.48520246148109436,-3.0556986331939697,-2.5348947048187256,0.9256693124771118,0.0424504354596138,0.07267135381698608,-0.0754342039718636,-0.9749358858965317,-2.827035190143882,-0.8253121972084045,0.0753626823425293,-0.5596250891685486
1728067958109,7i,10.034273018110778,1.0s : 0.3s,2.985652750196442,1.1937179544066296,2.7366329293646285,0.9157026591944087,0.4401415288448334,-2.939507484436035,-2.425931930541992,0.901890218257904,-0.013306297361850739,0.15788710117340088,-0.05213302070717983,-1.0055257861583695,-2.836854930871663,-0.843296468257904,0.052109409123659134,-0.5349165797233582
1728067958119,7i,10.034273018110778,1.0s : 0.3s,2.9129166547876117,1.2094741554694446,2.6499539062011106,0.9244938034625085,0.5042819976806641,-2.793506383895874,-2.2915163040161133,0.898237407207489,-0.04973921924829483,0.21303606033325195,-0.029556156922707254,-1.0345682060944459,-2.8452144868070106,-0.859266459941864,0.029551854357123375,-0.5106740593910217
1728067958129,7i,10.034273018110778,1.0s : 0.3s,2.8276259826708365,1.2248204352483096,2.548584626665035,0.9634531193203592,0.47052404284477234,-2.6355295181274414,-2.1689624786376953,0.8980350494384766,-0.1384069323539734,0.32034119963645935,-0.007746013543990338,-1.0618335463041955,-2.85205817649503,-0.873224139213562,0.007745936047285795,-0.48725712299346924
1728067958139,7i,10.034273018110778,1.0s : 0.3s,2.7244044745833205,1.2384578965084239,2.4266441394867826,1.0322784643581,0.33466529846191406,-2.4423694610595703,-2.0289251804351807,0.8947064280509949,-0.26235198974609375,0.4430244565010071,0.012642247926939682,-1.0871746601985166,-2.8584949856185733,-0.8852459192276001,-0.012641911394894123,-0.46495136618614197
1728067958149,7i,10.034273018110778,1.0s : 0.3s,2.597888420581362,1.250654739362332,2.2770346876368093,1.0935218541364018,0.26902449131011963,-2.20528244972229,-1.8229979276657104,0.9048445224761963,-0.3412184417247772,0.5105060338973999,0.03111626270371543,-1.1102676466030863,-2.8645782770171677,-0.8953840136528015,-0.03111124224960804,-0.4442066252231598
1728067958159,7i,10.034273018110778,1.0s : 0.3s,2.454805514811389,1.2616597107615755,2.1057741782511785,1.1521493264597333,0.28809165954589844,-1.9458343982696533,-1.6107922792434692,0.9194073677062988,-0.42364490032196045,0.5501483082771301,0.04783940434910433,-1.1308792071753107,-2.8695798398019394,-0.903751790523529,-0.04782116040587425,-0.4253772497177124
1728067958169,7i,10.034273018110778,1.0s : 0.3s,2.298337223008851,1.2717161633059664,1.914442997494151,1.252194441209972,0.28582799434661865,-1.666992425918579,-1.3876606225967407,0.9535837769508362,-0.5128811597824097,0.6289847493171692,0.06269089787482825,-1.148791922499734,-2.8732096325017014,-0.9104776978492737,-0.06264983862638474,-0.40878522396087646
1728067958179,7i,10.034273018110778,1.0s : 0.3s,2.1346007260122986,1.2811260707581962,1.707406293275241,1.3408166165545037,0.29231157898902893,-1.3883987665176392,-1.148896336555481,0.9763134121894836,-0.564803421497345,0.7249816656112671,0.07543534602713917,-1.1639237543335972,-2.8757490866082285,-0.9157512187957764,-0.07536382228136063,-0.39461371302604675
1728067958189,7i,10.034273018110778,1.0s : 0.3s,1.968821231748275,1.29024347651247,1.4871209815949105,1.3901349500097364,0.3556112051010132,-1.1008799076080322,-0.8880132436752319,0.9939419627189636,-0.5933794975280762,0.7697111964225769,0.0860632786349443,-1.1762883286749883,-2.87673943230819,-0.9197689294815063,-0.08595707267522812,-0.3829314708709717
1728067958199,7i,10.034273018110778,1.0s : 0.3s,1.8036056100438222,1.2989565449876674,1.251281379552677,1.4502057940510111,0.35362887382507324,-0.786207377910614,-0.6175960302352905,0.9784968495368958,-0.6693366169929504,0.8352420330047607,0.09441441417100878,-1.1857400494594124,-2.8763202506923147,-0.9226497411727905,-0.09427420794963837,-0.3739384412765503
1728067958209,7i,10.034273018110778,1.0s : 0.3s,1.6501197640888274,1.307487662105308,1.0066634240295829,1.4849309618163378,0.36604800820350647,-0.46583765745162964,-0.3563880920410156,0.9778017997741699,-0.7012467980384827,0.8701589107513428,0.10025160954792993,-1.1921146834885306,-2.8748406052926447,-0.9244875907897949,-0.10008376836776733,-0.36783960461616516
1728067958219,7i,10.034273018110778,1.0s : 0.3s,1.5219083656584198,1.3163512315691568,0.7638223017217071,1.5050325587149371,0.4363434612751007,-0.16733084619045258,-0.07614793628454208,0.9953610301017761,-0.6689439415931702,0.9093368053436279,0.10377943828094886,-1.1955587320713932,-2.8718975421429156,-0.9254146218299866,-0.10359325259923935,-0.36452174186706543
1728067958229,7i,10.034273018110778,1.0s : 0.3s,1.4266369882989887,1.325548295326646,0.527460721892571,1.6094058384206404,0.4611729085445404,0.1640622615814209,0.20225732028484344,1.0208735466003418,-0.7398146390914917,1.0003392696380615,0.10484446489397534,-1.1960930090693576,-2.8674371290091862,-0.9255061149597168,-0.10465248674154282,-0.36398670077323914
1728067958239,7i,10.034273018110778,1.0s : 0.3s,1.3730580301951996,1.3351244005982517,0.32051706539696306,1.7294277079420262,0.4139178991317749,0.5248292684555054,0.5304493308067322,1.0422710180282593,-0.8065395951271057,1.1198594570159912,0.10312796938590137,-1.193229668497987,-2.8620505699761583,-0.9246256947517395,-0.10294526815414429,-0.3667009472846985
1728067958249,7i,10.034273018110778,1.0s : 0.3s,1.3816740444589313,1.3453749200005756,0.3146259521478569,1.8120406514385679,0.44567131996154785,0.8980206847190857,0.8974558711051941,1.0831427574157715,-0.8505465388298035,1.1776517629623413,0.09806636925839354,-1.1868185183249684,-2.8553589463001434,-0.9227270483970642,-0.09790926426649094,-0.3728116750717163
1728067958259,7i,10.034273018110778,1.0s : 0.3s,1.4619907115712711,1.356517643559418,0.5452308900206188,1.9252136928803156,0.43637341260910034,1.308479905128479,1.269287109375,1.135332465171814,-0.922301173210144,1.25173020362854,0.08975165274925642,-1.176557920187534,-2.8470447746424727,-0.9195730686187744,-0.08963120728731155,-0.3825590908527374
1728067958269,7i,10.034273018110778,1.0s : 0.3s,1.6098233953928158,1.3690227790496357,0.8469403726339104,2.0508645941274763,0.40553611516952515,1.704793095588684,1.6213726997375488,1.2108755111694336,-0.9589802026748657,1.3491415977478027,0.07810176295750866,-1.1622857959934916,-2.837513753691414,-0.9149160385131836,-0.07802238315343857,-0.39603191614151
1728067958279,7i,10.034273018110778,1.0s : 0.3s,1.815770498231248,1.3837379458875756,1.1757090623780135,2.1393731561360974,0.3521918058395386,2.1103198528289795,2.001847267150879,1.3485126495361328,-0.9580356478691101,1.3566867113113403,0.06300209395132918,-1.1439733769153435,-2.8266781010381283,-0.9084795713424683,-0.0629604235291481,-0.4131595194339752
1728067958289,7i,10.034273018110778,1.0s : 0.3s,2.068285080871026,1.4012032749780161,1.5213259210125056,2.192511370228701,0.3657233417034149,2.5280330181121826,2.3684768676757812,1.4710376262664795,-0.941982090473175,1.3250751495361328,0.044788267286736724,-1.1214779066633191,-2.8141572958239194,-0.8998400568962097,-0.044773295521736145,-0.4339161217212677
1728067958299,7i,10.034273018110778,1.0s : 0.3s,2.359946712405749,1.4220067040453872,1.8834132363994576,2.3001944768810234,0.3980278968811035,2.982099771499634,2.7444193363189697,1.6326487064361572,-0.931994616985321,1.3254202604293823,0.023604511267186323,-1.0944234571611366,-2.799306587973189,-0.8884164094924927,-0.02360231988132,-0.4584311246871948
1728067958309,7i,10.034273018110778,1.0s : 0.3s,2.6854043004769554,1.4464444376723713,2.262563755067862,2.4323671111551923,0.46003028750419617,3.4421141147613525,3.1557576656341553,1.794736623764038,-0.9645212888717651,1.3285439014434814,-0.00034892900350673315,-1.0625391237425674,-2.78168557515943,-0.8735939860343933,0.00034892899566330016,-0.48665547370910645
1728067958319,7i,10.034273018110778,1.0s : 0.3s,3.045068977424667,1.475200916323098,2.6638744966220913,2.619418098110073,0.5593752264976501,3.9385416507720947,3.600506544113159,2.0373692512512207,-1.0015970468521118,1.3066296577453613,-0.027006224750929998,-1.02532091969152,-2.760223996480459,-0.8545689582824707,0.027002941817045212,-0.5186353325843811
1728067958329,7i,10.034273018110778,1.0s : 0.3s,3.433612535609967,1.5087905446839107,3.0843550601333716,2.8383451898923027,0.6642827391624451,4.466206073760986,4.0392165184021,2.2819089889526367,-1.0497021675109863,1.321824550628662,-0.055941716146513075,-0.9822769306390805,-2.734602472035325,-0.8304623365402222,0.05591254308819771,-0.5542616844177246
1728067958339,7i,10.034273018110778,1.0s : 0.3s,3.8592014667052714,1.5481634884338802,3.535056686066061,3.149360051251481,0.7914626598358154,5.053552150726318,4.533502101898193,2.628206491470337,-1.1238967180252075,1.3220648765563965,-0.08675879937591742,-0.932508985357856,-2.703873351271345,-0.8000966906547546,0.08664999902248383,-0.5935798287391663
1728067958349,7i,10.034273018110778,1.0s : 0.3s,4.319497020916451,1.5944010547773464,4.014466314496982,3.5171475998966555,0.8495994806289673,5.711584568023682,5.017283916473389,3.0171847343444824,-1.1769739389419556,1.371734619140625,-0.11918098354797288,-0.8750075032059146,-2.6676975789266537,-0.7621035575866699,0.11889903992414474,-0.636444091796875
1728067958359,7i,10.034273018110778,1.0s : 0.3s,4.832692040786099,1.648812315405548,4.542722785912024,3.937331570068619,0.8749991059303284,6.467366695404053,5.611471652984619,3.461297035217285,-1.1748600006103516,1.4634571075439453,-0.15294888323901737,-0.8084071528788006,-2.625448344299493,-0.7147455811500549,0.15235324203968048,-0.6825886368751526
1728067958369,7i,10.034273018110778,1.0s : 0.3s,5.401389573764754,1.7128396187822692,5.122615520210784,4.4607439096305415,0.7681179046630859,7.325859546661377,6.239228248596191,3.9800617694854736,-1.1983566284179688,1.6190385818481445,-0.1882357537735598,-0.7311124682184176,-2.576437699177451,-0.6559039354324341,0.18712610006332397,-0.7312823534011841
1728067958379,7i,10.034273018110778,1.0s : 0.3s,6.038893761379396,1.7885563553040222,5.767954925719217,5.1459577573176984,0.7182353138923645,8.200273513793945,7.056612014770508,4.626623630523682,-1.2022485733032227,1.905212163925171,-0.22465669689087667,-0.6417595098674531,-2.5193119795896224,-0.5835632085800171,0.22277170419692993,-0.7809140086174011
1728067958389,7i,10.034273018110778,1.0s : 0.3s,6.749951030235145,1.8785190471273046,6.483286597101229,5.974520609432293,0.12572486698627472,9.262099266052246,7.893514633178711,5.436791896820068,-1.1840355396270752,2.175833225250244,-0.26241534264903826,-0.5388337982506111,-2.453119779671351,-0.49556881189346313,0.2594139575958252,-0.8289245367050171
1728067958399,7i,10.034273018110778,1.0s : 0.3s,7.481258123668571,1.98524527569461,7.21304542535878,6.893028680873621,-0.17334319651126862,10.075581550598145,8.689881324768066,6.380402088165283,-1.1509792804718018,2.340846061706543,-0.30074065730763977,-0.4206550508997486,-2.3765463821532147,-0.39003026485443115,0.29622769355773926,-0.8718517422676086
1728067958409,7i,10.034273018110778,1.0s : 0.3s,8.323030502223391,2.112217741941821,8.050551096140385,7.999826780082257,-0.3947586715221405,11.142724990844727,9.921835899353027,7.744861125946045,-0.9331328272819519,1.7730250358581543,-0.33533247093510077,-0.28605390690407706,-2.285300113160418,-0.2664521634578705,0.3290831446647644,-0.9059290885925293
1728067958419,7i,10.034273018110778,1.0s : 0.3s,9.141146496049936,2.260637930192132,8.857204717676037,9.041779456194822,-0.7946990132331848,11.88652515411377,10.7142333984375,8.950414657592773,-0.6027623414993286,1.1316053867340088,-0.36272397448038074,-0.1345677040675476,-2.1791904475299044,-0.12543252110481262,0.3548222780227661,-0.9264814257621765
1728067958429,7i,10.034273018110778,1.0s : 0.3s,9.913297594037553,2.4314510163451497,9.61048984927745,10.13953685281123,-1.7385894060134888,12.550130844116211,11.31289005279541,10.102754592895508,-0.2532537877559662,0.8248755931854248,-0.3806177591843764,0.030817974905490576,-2.0617365799725893,0.028607968240976334,0.3714940845966339,-0.9279944896697998
1728067958439,7i,10.034273018110778,1.0s : 0.3s,10.58766498122364,2.6257955404541953,10.256892684159284,11.349099171646317,-3.137424945831299,12.774158477783203,11.750514030456543,11.339668273925781,0.3046378791332245,0.3480965495109558,-0.39089466537921264,0.20531756317020775,-1.9347781051108226,0.18849924206733704,0.38101574778556824,-0.9051491618156433
1728067958449,7i,10.034273018110778,1.0s : 0.3s,11.150178730606159,2.842792971562906,10.781698096556706,12.41971327193015,-5.561183929443359,12.454096794128418,12.034378051757812,12.336503028869629,1.3435909748077393,-0.5047118663787842,-0.39725986851952244,0.38426835756877453,-1.7981897702242657,0.3456869423389435,0.38689306378364563,-0.8548767566680908
1728067958459,7i,10.034273018110778,1.0s : 0.3s,11.666618843955414,3.0808627298849816,11.252478842003711,13.469433358887388,-8.736495018005371,11.32218074798584,12.607771873474121,13.037214279174805,3.1581954956054688,-1.2175713777542114,-0.4043041915034526,0.5636073324991198,-1.6442378181811055,0.49116674065589905,0.3933791518211365,-0.7771795392036438
1728067958469,7i,10.034273018110778,1.0s : 0.3s,12.198290103899836,3.3352390617766474,11.733476120046433,14.200737077440955,-13.122599601745605,9.645856857299805,12.392990112304688,12.972787857055664,5.566476345062256,-1.543389081954956,-0.4112836297970165,0.7424896668685168,-1.4637186109957232,0.6197412610054016,0.39978623390197754,-0.6753456592559814
1728067958479,7i,10.034273018110778,1.0s : 0.3s,12.605856313242501,3.6016453816805014,12.080387573862659,15.034899678689165,-17.619335174560547,4.1622796058654785,12.244240760803223,12.368030548095703,8.524879455566406,-0.6375413537025452,-0.4287820514779107,0.8989470784804002,-1.2485668305754571,0.7118188142776489,0.41576340794563293,-0.5660871267318726
1728067958489,7i,10.034273018110778,1.0s : 0.3s,13.547760664424963,3.8725237966911177,12.98250278122833,15.322006132933181,-20.664220809936523,0.992583155632019,13.643216133117676,11.069190979003906,10.594160079956055,0.025597035884857178,-0.4303034885016694,1.0311540470269804,-0.994229636218338,0.7796863913536072,0.4171466529369354,-0.46698805689811707
1728067958499,7i,10.034273018110778,1.0s : 0.3s,14.306317467155568,4.13309068438356,13.696287119716144,14.828458387108432,-18.282102584838867,-0.4659903049468994,15.456550598144531,7.994598865509033,12.33056926727295,1.9815722703933716,-0.3959921949316762,1.1403148486111743,-0.7255059111417337,0.8384395837783813,0.3857237994670868,-0.38501471281051636
1728067958509,7i,10.034273018110778,1.0s : 0.3s,14.135987052416056,4.377675143813236,13.441059864508977,15.652567807719262,-12.233341217041016,-1.6371228694915771,15.74198055267334,5.613712310791016,14.503835678100586,1.768576741218567,-0.30753873125007064,1.203396054353534,-0.5129980810156619,0.889477014541626,0.3027137517929077,-0.34233778715133667
1728067958519,7i,10.034273018110778,1.0s : 0.3s,13.754567084401689,4.59434767277031,12.964570380117362,13.705188307906898,-8.919793128967285,1.0081439018249512,15.810478210449219,2.4041748046875,13.188684463500977,2.8479347229003906,-0.19561766262433022,1.2400598095268225,-0.35724691515299434,0.927764892578125,0.19437246024608612,-0.31854620575904846
1728067958529,7i,10.034273018110778,1.0s : 0.3s,13.859438062229714,4.7705392246879,13.012531610201602,6.156021403499246,-11.567901611328125,1.7661129236221313,15.72177505493164,0.9617810845375061,5.46279764175415,2.6700971126556396,-0.07453346258745402,1.2756290068011278,-0.21208773244740087,0.9540970921516418,0.07446447014808655,-0.29009225964546204
1728067958539,7i,10.034273018110778,1.0s : 0.3s,13.75803052069419,4.903417620881904,12.854567260066661,3.694299619070577,3.7406423091888428,9.657032012939453,22.263763427734375,2.074127435684204,-2.1532247066497803,-2.170130968093872,0.09214504596175599,1.3175177121555512,-0.12625830361723245,0.9639891982078552,-0.09201470762491226,-0.2495163083076477
1728067958549,7i,10.034273018110778,1.0s : 0.3s,15.053449612895518,5.030226861415006,14.188134583893795,14.06005398384058,-37.25753402709961,2.2477993965148926,2.864551305770874,7.676817417144775,-9.764185905456543,6.588798522949219,0.18762717891731973,1.3293437825207126,0.07876512852633394,0.9539503455162048,-0.1865282505750656,-0.23491674661636353
1728067958559,7i,10.034273018110778,1.0s : 0.3s,19.18260497943417,5.186730581268658,18.46808489460521,20.785063927524746,-48.294803619384766,-5.6711249351501465,0.3615746796131134,11.948729515075684,-10.455633163452148,13.413667678833008,0.07893339752482582,1.2441313853731486,0.4827015914340092,0.9441688656806946,-0.07885145395994186,-0.31988704204559326
1728067958569,7i,10.034273018110778,1.0s : 0.3s,21.008417591718327,5.394846639740203,20.30392177491097,21.52480800986498,-38.077693939208984,-12.483742713928223,-3.018571376800537,8.303213119506836,12.321550369262695,15.574126243591309,-0.08893698419111731,1.1474625003525785,0.8910225565701743,0.9081210494041443,0.08881978690624237,-0.40917864441871643
1728067958579,7i,10.034273018110778,1.0s : 0.3s,20.247723505373365,5.620761505566903,19.45192399860709,20.43103545749138,-24.570167541503906,-15.066280364990234,-4.3600873947143555,4.359524726867676,15.929716110229492,12.027713775634766,-0.26953515972335207,1.0244839832554924,1.1443269224276802,0.8235962390899658,0.26628342270851135,-0.500781774520874
1728067958589,7i,10.034273018110778,1.0s : 0.3s,17.391250575629783,5.86481700754021,16.372523264677636,19.074610240309177,-11.182687759399414,-11.170918464660645,-2.959693193435669,5.543587684631348,17.13774871826172,6.277496337890625,-0.3966160529492611,0.941983889785713,1.286184972366499,0.7459478974342346,0.3862992823123932,-0.5425260066986084
1728067958599,7i,10.034273018110778,1.0s : 0.3s,15.088228165482313,6.040407912506674,13.826355319612633,6.086207828647496,-8.301831245422363,-10.271583557128906,-7.348165035247803,-2.6123902797698975,4.70110559463501,2.8490259647369385,-0.48810574339089197,0.8546806034212259,1.3236178067570255,0.666269063949585,0.4689536690711975,-0.579800009727478
1728067958609,7i,10.034273018110778,1.0s : 0.3s,13.685592770083003,6.16426676223568,12.218725987292807,2.444443785497189,-7.234492301940918,-11.294229507446289,-7.191592216491699,-1.1726378202438354,2.1296253204345703,-0.25479787588119507,-0.5967216060942738,0.7484683027278483,1.3285681865758703,0.5629118084907532,0.561933696269989,-0.6061030030250549
1728067958619,7i,10.034273018110778,1.0s : 0.3s,12.855857578081501,6.28187938393934,11.216553190421443,4.764141716502573,-6.1985650062561035,-12.00165843963623,-6.650829315185547,4.69035005569458,0.7937347888946533,-0.26009178161621094,-0.6895983886442149,0.6258305817471612,1.3173477566045408,0.4519229829311371,0.6362273693084717,-0.6252841949462891
1728067958629,7i,10.034273018110778,1.0s : 0.3s,12.766471982290884,6.395601727707239,11.048940465726403,5.142000892453294,-7.663686752319336,-12.240239143371582,-8.722638130187988,4.570767879486084,-0.24829542636871338,2.3423500061035156,-0.7875657826023915,0.47951962182894503,1.2827988532502892,0.3255179524421692,0.7086378335952759,-0.6259955763816833
1728067958639,7i,10.034273018110778,1.0s : 0.3s,12.526086153443494,6.494558492126605,10.710907726044278,3.8988996246874814,-5.615641117095947,-11.259716033935547,-9.453707695007324,1.8091098070144653,0.6877716183662415,3.384598970413208,-0.8847567803475749,0.2972397867333168,1.1948635064837299,0.1855342984199524,0.7737609148025513,-0.6056987047195435
1728067958649,7i,10.034273018110778,1.0s : 0.3s,12.270294226239445,6.584142166607319,10.354187188204998,3.55441135156555,-3.9782795906066895,-10.194621086120605,-10.498775482177734,1.7995611429214478,1.674026608467102,2.5676944255828857,-0.9504721800754684,0.07411644971745053,1.0483507069106779,0.043044380843639374,0.8136900663375854,-0.5797030925750732
1728067958659,7i,10.034273018110778,1.0s : 0.3s,12.120875643961286,6.668858298543023,10.121361339776769,3.6061545193627165,-2.6528170108795166,-9.446573257446289,-11.665610313415527,2.3947489261627197,1.0393532514572144,2.4878249168395996,-0.9775517858990487,-0.18704994575584732,0.8504196355404096,-0.10396230965852737,0.8291311860084534,-0.5493025183677673
1728067958669,7i,10.034273018110778,1.0s : 0.3s,11.904388507049113,6.751832628843451,9.80444908594297,3.61192694469468,-0.17526040971279144,-8.866853713989258,-11.574649810791016,2.807884693145752,1.205150842666626,1.925983190536499,-0.9568859778555675,-0.44697790280275496,0.646403127751105,-0.24900102615356445,0.817401647567749,-0.5194737911224365
1728067958679,7i,10.034273018110778,1.0s : 0.3s,11.700805112965229,6.830745113308885,9.499987446760127,3.1195022052452495,1.1639946699142456,-8.426466941833496,-11.04941463470459,2.722764015197754,1.402367353439331,0.5926347374916077,-0.8926534495367776,-0.6576453480461826,0.4910187044010083,-0.3834695518016815,0.7787390947341919,-0.4965043067932129
1728067958689,7i,10.034273018110778,1.0s : 0.3s,11.5016701368331,6.906075134312781,9.19752913426998,3.131481423530858,2.4100563526153564,-7.85795783996582,-10.560013771057129,2.9947831630706787,0.34014391899108887,0.8495597839355469,-0.8059685201059643,-0.8166207696220938,0.3885131940979893,-0.5046555399894714,0.7215015888214111,-0.474086731672287
1728067958699,7i,10.034273018110778,1.0s : 0.3s,11.274854738467802,6.981863336838864,8.853018339484851,3.7451479490605237,2.186042547225952,-7.113533020019531,-9.85037612915039,3.3986661434173584,-0.006650865077972412,1.5732632875442505,-0.7128262473588834,-0.9364178339841257,0.32330099033936444,-0.6093289256095886,0.6539744734764099,-0.4483700692653656
1728067958709,7i,10.034273018110778,1.0s : 0.3s,11.118702872581805,7.058769039290234,8.590653829524067,3.80063034070971,2.5189995765686035,-6.215579032897949,-10.183234214782715,3.2769434452056885,0.28142935037612915,1.9045288562774658,-0.6176121348022239,-1.0313119354558309,0.27875690413172477,-0.6994746923446655,0.5790900588035583,-0.41879576444625854
1728067958719,7i,10.034273018110778,1.0s : 0.3s,10.932580330835524,7.138068220090278,8.280657870936887,3.920571569954894,3.6832237243652344,-5.501404762268066,-9.574814796447754,3.5884885787963867,0.545722246170044,1.4818294048309326,-0.5186292610993746,-1.1033209748993984,0.256269401080442,-0.7753171324729919,0.49569010734558105,-0.391375333070755
1728067958729,7i,10.034273018110778,1.0s : 0.3s,10.741309303131134,7.218619975540785,7.9540713596406105,3.897514602551391,5.319620132446289,-5.163090705871582,-8.495356559753418,3.7629644870758057,0.4778754413127899,0.8957418203353882,-0.41959837252865956,-1.1553025681259448,0.2605722290722081,-0.8355504870414734,0.4073936939239502,-0.3686268925666809
1728067958739,7i,10.034273018110778,1.0s : 0.3s,10.579778446129934,7.2939882280687245,7.663514056749055,3.1049538260303757,5.306704521179199,-5.054607391357422,-7.843301773071289,3.034437894821167,-0.040430545806884766,0.6567269563674927,-0.3239444903772917,-1.1996382264960974,0.2808415560676582,-0.8834368586540222,0.31830835342407227,-0.3438301682472229
1728067958749,7i,10.034273018110778,1.0s : 0.3s,10.39865669804178,7.363940527477291,7.34196438506117,2.7545279969326977,5.180476188659668,-4.685910701751709,-7.188567638397217,2.578700065612793,0.0189102441072464,0.9681801795959473,-0.2346092997185938,-1.2420242887143196,0.3041531864937392,-0.9205119609832764,0.23246300220489502,-0.3140358030796051
1728067958759,7i,10.034273018110778,1.0s : 0.3s,10.247465222753886,7.433490731444347,7.053634455873181,3.0910526311645854,5.8973307609558105,-4.050579071044922,-6.66755485534668,2.7975382804870605,0.7570657730102539,1.0748196840286255,-0.15267583086615188,-1.279906721578077,0.33610917846434224,-0.9468454122543335,0.1520833820104599,-0.2834683358669281
1728067958769,7i,10.034273018110778,1.0s : 0.3s,10.210554170236207,7.504289571111143,6.923947898146009,3.3019458079211237,7.074566841125488,-3.3830668926239014,-6.596080303192139,2.7478764057159424,1.2811284065246582,1.3079493045806885,-0.07098201019084818,-1.3121074801622228,0.3807297147029834,-0.9642919301986694,0.07092241942882538,-0.2551690936088562
1728067958779,7i,10.034273018110778,1.0s : 0.3s,10.225002800438466,7.576450428858206,6.866446036198695,3.3980086872268522,7.618654727935791,-2.8805649280548096,-6.396501064300537,2.896791696548462,0.9874647855758667,1.4764735698699951,0.0098190674781894,-1.341467711476831,0.4373612143302012,-0.9737722873687744,-0.00981890968978405,-0.2273128181695938
1728067958789,7i,10.034273018110778,1.0s : 0.3s,10.224902667229353,7.648947111964222,6.785443436702432,3.3440463948196126,7.388291835784912,-2.834329605102539,-6.107051849365234,2.935635566711426,0.6665672659873962,1.4561518430709839,0.0868270906116494,-1.372664817294528,0.49758914915761154,-0.9767427444458008,-0.08671803772449493,-0.1960962414741516
1728067958799,7i,10.034273018110778,1.0s : 0.3s,10.19475436951797,7.7205429445695,6.657794927441357,3.1254842525660953,7.271035671234131,-2.8738350868225098,-5.541606903076172,2.686131238937378,0.9297810792922974,1.2995606660842896,0.15939807746565018,-1.4073938317922698,0.558352960032632,-0.9741714596748352,-0.15872395038604736,-0.16061408817768097
1728067958809,7i,10.034273018110778,1.0s : 0.3s,10.190494966726424,7.792201669448018,6.567174492087758,3.250203318539711,7.554042339324951,-2.543299674987793,-5.305915355682373,2.6672070026397705,1.1546270847320557,1.454876184463501,0.22667739268722487,-1.445273970801952,0.624088212427223,-0.9667522311210632,-0.2247411608695984,-0.1219903752207756
1728067958819,7i,10.034273018110778,1.0s : 0.3s,10.19092289559873,7.863274608284058,6.482578337263158,3.174030737656684,7.638078212738037,-2.107099771499634,-5.162203788757324,2.5518198013305664,1.0037930011749268,1.598463773727417,0.28768250180471266,-1.4860244132032587,0.696754660312897,-0.9554606676101685,-0.28373074531555176,-0.0811908096075058
1728067958829,7i,10.034273018110778,1.0s : 0.3s,10.172043077397468,7.930105567087046,6.370548333015359,2.641771068711346,7.504161834716797,-1.9213111400604248,-4.898087501525879,2.0970396995544434,0.6331131458282471,1.4766674041748047,0.3425793606180882,-1.5296708546679874,0.7730847630385196,-0.9410949349403381,-0.3359176814556122,-0.038724809885025024
1728067958839,7i,10.034273018110778,1.0s : 0.3s,10.13545052449739,7.991366421113407,6.234213667980553,2.263966378310628,7.482154369354248,-1.753029704093933,-4.4419755935668945,1.769226312637329,0.4848315417766571,1.3267706632614136,0.3906746728525606,-1.5765516651218732,0.8520418966795766,-0.924636960029602,-0.3808123469352722,0.005321657285094261
1728067958849,7i,10.034273018110778,1.0s : 0.3s,10.0800406747187,8.0477328454337,6.06969653710225,2.119730604012747,7.358659744262695,-1.6020278930664062,-4.002399444580078,1.5727169513702393,0.561077356338501,1.3057608604431152,0.4305661148819523,-1.6260622000880038,0.9341771392953447,-0.907342255115509,-0.4173853099346161,0.05019617825746536
1728067958859,7i,10.034273018110778,1.0s : 0.3s,10.025569301095105,8.099855356527543,5.907993146102376,2.013516533533646,7.335055351257324,-1.451409935951233,-3.601391553878784,1.412306308746338,0.6121660470962524,1.2980340719223022,0.4623228952797803,-1.6780505166616766,1.019121626415507,-0.8898760080337524,-0.44602835178375244,0.09581059962511063
1728067958869,7i,10.034273018110778,1.0s : 0.3s,9.938448852395558,8.147732605156476,5.690976979970368,1.8562854084222467,6.903468608856201,-1.2655258178710938,-3.3149328231811523,1.2358078956604004,0.521430492401123,1.2832320928573608,0.48695064467566834,-1.7301083454978732,1.10377152460247,-0.8725724816322327,-0.46793314814567566,0.14019939303398132
1728067958879,7i,10.034273018110778,1.0s : 0.3s,9.816731645515887,8.19193251339084,5.40929402936493,1.8483677208318439,6.295918941497803,-1.1920514106750488,-3.0499768257141113,1.1144554615020752,0.3873911201953888,1.422807216644287,0.5060159767349831,-1.780284906551359,1.183821194396565,-0.8555595874786377,-0.4846963584423065,0.18189868330955505
1728067958889,7i,10.034273018110778,1.0s : 0.3s,9.724018717238838,8.232773216924853,5.174744937858881,1.6821501090133215,6.24950647354126,-1.0640732049942017,-2.7681972980499268,1.003798007965088,0.4694438874721527,1.2655595541000366,0.5196999792245508,-1.8295910795749675,1.2612581475433544,-0.8390641808509827,-0.4966197609901428,0.22212664783000946
1728067958899,7i,10.034273018110778,1.0s : 0.3s,9.650327510727404,8.270434086296294,4.9728001255359695,1.531780180918875,6.231338977813721,-0.7905385494232178,-2.4566657543182373,0.8593712449073792,0.6180850863456726,1.1071596145629883,0.5272996970988619,-1.8777652575362207,1.3390015356313238,-0.8237726092338562,-0.5032016634941101,0.2611265778541565
1728067958909,7i,10.034273018110778,1.0s : 0.3s,9.570541032662712,8.304870842821352,4.756508797630511,1.5087477219102796,5.910508155822754,-0.5881302952766418,-2.2841200828552246,0.6874621510505676,0.4727184772491455,1.2570810317993164,0.5300255467959331,-1.9225684741542937,1.4143940808399271,-0.8099598288536072,-0.5055553913116455,0.29728609323501587
1728067958919,7i,10.034273018110778,1.0s : 0.3s,9.505649393823315,8.336076646884454,4.568062667648197,1.4465302010186405,5.779613018035889,-0.3871234655380249,-2.1513407230377197,0.5356395244598389,0.4047379493713379,1.2812989950180054,0.5293682732878987,-1.9639733842304847,1.4866845802583526,-0.7972668409347534,-0.5049881935119629,0.3306852877140045
1728067958929,7i,10.034273018110778,1.0s : 0.3s,9.462220774664846,8.364433719099017,4.423784640700584,1.3002372823450024,5.792360305786133,-0.08461817353963852,-2.003664016723633,0.4588305950164795,0.5070412158966064,1.105893611907959,0.5252812591751681,-2.0020641404996966,1.557677737969112,-0.7859636545181274,-0.5014563798904419,0.361666202545166
1728067958939,7i,10.034273018110778,1.0s : 0.3s,9.41436630867794,8.3908165722296,4.269015137612823,1.28979595731081,5.596719264984131,0.16428148746490479,-1.7593697309494019,0.47118711471557617,0.48997199535369873,1.096122145652771,0.5174218407194621,-2.0357501396252786,1.6263666101003766,-0.7768358588218689,-0.49464112520217896,0.3896871507167816
1728067958949,7i,10.034273018110778,1.0s : 0.3s,9.351686503860769,8.414868054211263,4.079710295683555,1.2783375770364904,5.191286563873291,0.31125015020370483,-1.646173357963562,0.3698890805244446,0.23449689149856567,1.200974702835083,0.5075504278088141,-2.0646414836662124,1.690318368534712,-0.7695167064666748,-0.486037939786911,0.4142596423625946
1728067958959,7i,10.034273018110778,1.0s : 0.3s,9.279878039529118,8.436253361185713,3.8659753820242466,1.2226877773752862,4.793842792510986,0.41086477041244507,-1.512856364250183,0.2244807481765747,0.15689536929130554,1.1916197538375854,0.4972314757555984,-2.0892506355811964,1.748885863121823,-0.7634057998657227,-0.4769940972328186,0.4355315864086151
1728067958969,7i,10.034273018110778,1.0s : 0.3s,9.198560006957043,8.455596418793691,3.6216564447877837,1.113460373103201,4.342321872711182,0.5294014811515808,-1.332044243812561,0.2329677939414978,0.1712494194507599,1.0752644538879395,0.48628647501460387,-2.109510879794227,1.8019362836930453,-0.7588618397712708,-0.46734607219696045,0.4535593092441559
1728067958979,7i,10.034273018110778,1.0s : 0.3s,9.122467528149423,8.472705877457162,3.381222991203549,1.0541196206983825,3.9939839839935303,0.5956546664237976,-1.237088680267334,0.15452629327774048,0.055087506771087646,1.0412757396697998,0.47558488565233126,-2.125888794081752,1.8496291428828988,-0.75553959608078,-0.45785850286483765,0.46853575110435486
1728067958989,7i,10.034273018110778,1.0s : 0.3s,9.051740806123185,8.487684226950224,3.1453502324567877,0.9551060233905806,3.6796817779541016,0.630737841129303,-1.0747735500335693,0.09673845767974854,0.04478004574775696,0.9491385221481323,0.464946477864302,-2.139400318866835,1.8928513523354467,-0.7532020807266235,-0.4483749568462372,0.48129671812057495
1728067958999,7i,10.034273018110778,1.0s : 0.3s,8.988401025151497,8.500904668232288,2.9199268502089177,0.8844643829221702,3.3787624835968018,0.6854581832885742,-0.9804854989051819,0.07714211940765381,0.046556442975997925,0.8798629641532898,0.4542953796052929,-2.150164664699066,1.9321273774918608,-0.7519314289093018,-0.4388292729854584,0.4919631779193878
1728067959009,7i,10.034273018110778,1.0s : 0.3s,8.932127510727115,8.512375243098969,2.705987728827304,0.8407450549014738,3.0870933532714844,0.6708992123603821,-0.9519582390785217,0.010553359985351562,0.026543527841567993,0.8402596712112427,0.44461230131246376,-2.1588644895885793,1.9679131681448112,-0.7511234283447266,-0.4301079213619232,0.5008201003074646
1728067959019,7i,10.034273018110778,1.0s : 0.3s,8.890055159741646,8.5222484717542,2.530684043679155,0.6668575584883779,2.97847843170166,0.6570084095001221,-0.8591943979263306,0.0027874112129211426,0.06747481226921082,0.6634292602539062,0.43524355004825516,-2.1663604479927585,2.001202686604088,-0.7506511807441711,-0.42163124680519104,0.5086745619773865
1728067959029,7i,10.034273018110778,1.0s : 0.3s,8.85784945984913,8.53042733786928,2.386065063379863,0.5191167523610132,2.88159441947937,0.6366280317306519,-0.7986100912094116,-0.028221309185028076,0.053074151277542114,0.5156247615814209,0.4254926280596473,-2.1730731942258874,2.033019528723271,-0.7505720257759094,-0.41276952624320984,0.5160067081451416
1728067959039,7i,10.034273018110778,1.0s : 0.3s,8.824607942139915,8.537106196474392,2.234171686016409,0.6032277033662794,2.6372182369232178,0.5317367911338806,-0.7820903062820435,-0.10295772552490234,0.01942199468612671,0.5940590500831604,0.41629070718167543,-2.1793457181285096,2.0628060504908587,-0.7504054307937622,-0.4043707549571991,0.5228538513183594
1728067959049,7i,10.034273018110778,1.0s : 0.3s,8.790488095469968,8.542615002887766,2.0727782971258786,0.628486750228534,2.3727328777313232,0.454984188079834,-0.743491530418396,-0.12373656034469604,-0.005832701921463013,0.616158127784729,0.4081453814480322,-2.1852022569998315,2.0898930851614645,-0.7499969601631165,-0.3969077467918396,0.5291208624839783
1728067959059,7i,10.034273018110778,1.0s : 0.3s,8.761796163762494,8.54715364535879,1.927494896997935,0.536824751525579,2.2139217853546143,0.4406156837940216,-0.7137494087219238,-0.11681783199310303,0.008490890264511108,0.5238915085792542,0.4008704530977887,-2.1904979118901604,2.1147989271203707,-0.7495151162147522,-0.39021992683410645,0.5347480177879333
1728067959069,7i,10.034273018110778,1.0s : 0.3s,8.733761300641092,8.550689701032955,1.7788457193430047,0.48747736468744784,1.97609543800354,0.4568796157836914,-0.6687212586402893,-0.13232821226119995,-0.03169858455657959,0.4681010842323303,0.3941704376727271,-2.1946364003433896,2.1375940289263538,-0.7494010329246521,-0.3840423822402954,0.539360523223877
1728067959079,7i,10.034273018110778,1.0s : 0.3s,8.70681288763135,8.552991410983376,1.6293951589065225,0.5523960084265277,1.74738609790802,0.4497944414615631,-0.6307963132858276,-0.1728854775428772,-0.19905421137809753,0.4854167103767395,0.38872596824752265,-2.1975787593795157,2.1578908956325678,-0.7494931817054749,-0.37900975346565247,0.5427815914154053
1728067959089,7i,10.034273018110778,1.0s : 0.3s,8.686822115134861,8.554486220674972,1.510511158607611,0.4566024619311196,1.7047531604766846,0.457498699426651,-0.5184429287910461,-0.11489969491958618,-0.19597569108009338,0.3960775136947632,0.3833853414299386,-2.1993601399447202,2.176261510346972,-0.7501518130302429,-0.374062180519104,0.5452983379364014
1728067959099,7i,10.034273018110778,1.0s : 0.3s,8.670755760105697,8.555485980007761,1.4091362947908035,0.4091570310656279,1.6131702661514282,0.4778103530406952,-0.4825626611709595,-0.10072416067123413,-0.16462475061416626,0.36078083515167236,0.3775778036827255,-2.200986517537788,2.1938605011359105,-0.7510063648223877,-0.3686699867248535,0.5477886199951172
1728067959109,7i,10.034273018110778,1.0s : 0.3s,8.656524239140388,8.556510770314175,1.3120729173039907,0.459745269352733,1.4964274168014526,0.47970467805862427,-0.40142014622688293,-0.1039113998413086,-0.08556699752807617,0.439598023891449,0.37197209782950796,-2.2020287202939137,2.210083276580692,-0.7520915269851685,-0.36345335841178894,0.549781858921051
1728067959119,7i,10.034273018110778,1.0s : 0.3s,8.644205907713761,8.557662464785421,1.2201265974300393,0.46667102828958046,1.3833309412002563,0.4954150915145874,-0.32576847076416016,-0.08229470252990723,-0.02196449041366577,0.4588322043418884,0.3664950800430893,-2.2024139158056153,2.224797212807316,-0.7534748911857605,-0.35834547877311707,0.5512385964393616
1728067959129,7i,10.034273018110778,1.0s : 0.3s,8.63200878271507,8.558955114755946,1.1206529206061693,0.4962868954541782,1.1776691675186157,0.5380100011825562,-0.3252891004085541,-0.08594363927841187,-0.013247132301330566,0.4886091351509094,0.3613240525558973,-2.201874583537986,2.2379433637814508,-0.755258321762085,-0.35351309180259705,0.5519182085990906
1728067959139,7i,10.034273018110778,1.0s : 0.3s,8.621389882925252,8.560724815078036,1.0209574691988945,0.5640413034168181,0.9909703135490417,0.570988655090332,-0.340432345867157,-0.11303406953811646,0.03264164924621582,0.5516343116760254,0.35784150336222803,-2.2003057594925433,2.249320659430957,-0.7571136355400085,-0.35025328397750854,0.5514540076255798
1728067959149,7i,10.034273018110778,1.0s : 0.3s,8.613526344041759,8.5627616169121,0.9337824004757539,0.4734831980479464,0.8759611248970032,0.6227080225944519,-0.292841374874115,-0.08482527732849121,0.09341353178024292,0.45636051893234253,0.35489041633382234,-2.1977541861469505,2.2593327588108,-0.7593520879745483,-0.34748759865760803,0.5501245260238647
1728067959159,7i,10.034273018110778,1.0s : 0.3s,8.60805913878479,8.564872416723533,0.8611867521419092,0.4428270877007639,0.773492693901062,0.6736612915992737,-0.2778831124305725,-0.0890575647354126,0.025080770254135132,0.43305373191833496,0.3524138611342497,-2.194334474480681,2.268239407359642,-0.7619251608848572,-0.34516432881355286,0.5480253100395203
1728067959169,7i,10.034273018110778,1.0s : 0.3s,8.604217670954155,8.567034492498411,0.799050519993716,0.4556025482891379,0.6797976493835449,0.6988508105278015,-0.25225311517715454,-0.07627648115158081,-0.0009091496467590332,0.44917118549346924,0.35034535845578696,-2.1901281154479766,2.2760900957445016,-0.7648031711578369,-0.3432222008705139,0.5452287197113037
1728067959179,7i,10.034273018110778,1.0s : 0.3s,8.601283667904195,8.569291997842315,0.7411581420122781,0.43209026549083257,0.5864269137382507,0.6968982815742493,-0.20383858680725098,-0.06619155406951904,-0.00037041306495666504,0.4269900918006897,0.34856398982032943,-2.1854595213782697,2.283030081297667,-0.767838716506958,-0.34154850244522095,0.5420041084289551
1728067959189,7i,10.034273018110778,1.0s : 0.3s,8.598975521742144,8.57154645876934,0.6862735086533246,0.3731388365619593,0.4941987693309784,0.686384379863739,-0.16028285026550293,-0.05129241943359375,-0.0033103525638580322,0.36958181858062744,0.34694634334128027,-2.1804925511822923,2.2888189266134966,-0.7709734439849854,-0.34002768993377686,0.5384993553161621
1728067959199,7i,10.034273018110778,1.0s : 0.3s,8.59686825697337,8.573719891366773,0.6304530530801316,0.34851324550802354,0.3650933802127838,0.6732866764068604,-0.1499897688627243,-0.05815082788467407,0.007739216089248657,0.3435404896736145,0.3457157558807099,-2.1752590100445093,2.2935177637202706,-0.7741246819496155,-0.33887016773223877,0.5346943736076355
1728067959209,7i,10.034273018110778,1.0s : 0.3s,8.59544129947095,8.575933798647434,0.578766458830717,0.3464816277036865,0.2743663787841797,0.6503280997276306,-0.1276591718196869,-0.06020152568817139,0.06061705946922302,0.3357839584350586,0.3451547499965524,-2.169835028130419,2.2971373570824616,-0.7771704792976379,-0.3383423089981079,0.5305948853492737
