timestamp,club,max_speed,tempo,speed,l.speed,t.spped,acc,rotation.x,rotation.y,rotation.z,userAcceleration.x,userAcceleration.y,userAcceleration.z,pitch,roll,yaw,gravity.x,gravity.y,gravity.z
1728067629068,7i,9.592122109710791,0.9s : 0.3s,0.020010439742120315,9.611255482826702e-05,0.02001020892069427,0.026322777795082308,-0.050552964210510254,0.08394932001829147,-0.01660817489027977,0.0081138014793396,0.01717984676361084,-0.018218334764242172,-0.29798631245862894,1.5141311612560073,0.281784522881535,0.9543952345848083,0.2935958504676819,-0.054138921201229095
1728067629078,7i,9.592122109710791,0.9s : 0.3s,0.03267830307940779,0.0002836046183947828,0.03267707239900873,0.030314117298605267,-0.030262073501944542,0.08792275190353394,-0.011127122677862644,0.005034983158111572,0.01607605814933777,-0.025202281773090363,-0.29803963191131844,1.5149248643397988,0.2821349375929362,0.9544224739074707,0.29364684224128723,-0.053380537778139114
1728067629088,7i,9.592122109710791,0.9s : 0.3s,0.036127856884248945,0.0005485983658739731,0.036123691434870465,0.03275799545651605,-0.005860860925167799,0.07769958674907684,-0.007447832264006138,0.00495535135269165,0.01650458574295044,-0.027859099209308624,-0.2980542669661285,1.5156458682506682,0.2822901226274626,0.9544563889503479,0.29366081953048706,-0.05269213765859604
1728067629098,7i,9.592122109710791,0.9s : 0.3s,0.03685697566955764,0.0008570620855172263,0.036847009377803414,0.031271821532546165,0.027663277462124825,0.07215594500303268,0.003517200704663992,0.009887278079986572,0.016585201025009155,-0.024598773568868637,-0.29806566584185296,1.5162265476455128,0.28214102246380834,0.9544833302497864,0.29367172718048096,-0.05213770642876625
1728067629108,7i,9.592122109710791,0.9s : 0.3s,0.039823991729901004,0.0012068312713676133,0.03980570154620658,0.03266590569819874,0.06438574194908142,0.06907285749912262,0.007884485647082329,0.012541532516479492,0.01639610528945923,-0.02531677484512329,-0.2979921165640043,1.516708228887098,0.281625251016078,0.9545299410820007,0.293601393699646,-0.05167911574244499
1728067629118,7i,9.592122109710791,0.9s : 0.3s,0.04783632808152879,0.0015947942346385326,0.047809736619990106,0.03444492152146096,0.11205898970365524,0.0568406879901886,0.004617852158844471,0.010104954242706299,0.008930712938308716,-0.03169518709182739,-0.29790039465984475,1.5169817575617168,0.28069232519223863,0.9545709490776062,0.2935137152671814,-0.051419470459222794
1728067629128,7i,9.592122109710791,0.9s : 0.3s,0.059246323234320636,0.002033566933311648,0.05921141293968032,0.038725974324385466,0.12846380472183228,0.05294102430343628,0.01639368385076523,0.009653866291046143,0.010790139436721802,-0.03591763973236084,-0.2977749235324873,1.5170273077995429,0.27936623086379453,0.9546099901199341,0.2933937907218933,-0.05137796700000763
1728067629138,7i,9.592122109710791,0.9s : 0.3s,0.06034398653440957,0.0024919761168820925,0.06029251003149473,0.037435814828581444,0.09682117402553558,0.04491798207163811,0.015257580205798149,0.011235833168029785,-0.007325261831283569,-0.03495049104094505,-0.29765056102509996,1.5170072504324221,0.2781294536717039,0.9546453952789307,0.2932748794555664,-0.051399074494838715
1728067629148,7i,9.592122109710791,0.9s : 0.3s,0.05563714757747259,0.0028801571705524853,0.05556254930463845,0.05046517018183415,0.04706227406859398,0.031126227229833603,0.01430599857121706,0.01030886173248291,-0.04331502318382263,-0.023754358291625977,-0.2975488884940508,1.516949021257325,0.27730694478005796,0.9546721577644348,0.29317769408226013,-0.051456268876791
1728067629168,7i,9.592122109710791,0.9s : 0.3s,0.036419760467053267,0.0031780872797162662,0.03628083121594711,0.06234521302688163,-0.04190554469823837,0.012594219297170639,0.010798582807183266,0.01101064682006836,-0.05881735682487488,-0.01749885082244873,-0.2974365210393896,1.5169035597205551,0.2772581802723321,0.9547027945518494,0.2930702567100525,-0.05150144547224045
1728067629158,7i,9.592122109710791,0.9s : 0.3s,0.03081643686243244,0.003586865764786027,0.030606979185827717,0.06340370517855386,-0.006670195143669844,0.019091665744781494,0.012370679527521133,0.013591110706329346,-0.05743017792701721,-0.02317512035369873,-0.29748582992718237,1.5168548027842734,0.27702124881892304,0.9546858668327332,0.2931174039840698,-0.05154721438884735
1728067629178,7i,9.592122109710791,0.9s : 0.3s,0.027127492596845947,0.0041012112321349185,0.026815684235561507,0.043143616319279,-0.038723599165678024,0.012077299878001213,0.004188350401818752,0.0016775131225585938,-0.04125598073005676,-0.012510061264038086,-0.2974221135130883,1.5170165594627347,0.27765269540537774,0.9547128677368164,0.2930564880371094,-0.051393792033195496
1728067629188,7i,9.592122109710791,0.9s : 0.3s,0.024315003981548004,0.004657819345367514,0.02386470484981148,0.01629391442885845,-0.03007032535970211,0.012141881510615349,-0.000281598768197,-0.008296012878417969,-0.010465145111083984,-0.009335339069366455,-0.2974555089135596,1.517094979913027,0.27796346387819676,0.954707145690918,0.2930884063243866,-0.05131839960813522
1728067629198,7i,9.592122109710791,0.9s : 0.3s,0.02216037402243391,0.00520808334232939,0.021539685343883615,0.01720479901675429,-0.03541183099150658,0.016035690903663635,-8.798696217127144e-05,-0.014150619506835938,-0.009209662675857544,-0.0033086538314819336,-0.29748296345208675,1.5171589904527172,0.2782304374109343,0.9547023177146912,0.29311466217041016,-0.051256854087114334
1728067629208,7i,9.592122109710791,0.9s : 0.3s,0.020773036140992192,0.005716885511275044,0.019970885072172973,0.020676519073075834,-0.031429339200258255,0.018954958766698837,-0.0033873773645609617,-0.019645750522613525,-0.005263686180114746,0.0037224367260932922,-0.2975371064948406,1.517209446638531,0.2785053517263925,0.9546889066696167,0.2931664288043976,-0.05120782554149628
1728067629218,7i,9.592122109710791,0.9s : 0.3s,0.0674881723296576,0.006163970811660886,0.06720609249339345,0.048404182705689205,-0.04939475655555725,-0.028227467089891434,0.3154558539390564,-0.04823702573776245,-0.003208160400390625,0.002421148121356964,-0.29714280263596776,1.517268326916625,0.27882252127494644,0.9548072814941406,0.29278942942619324,-0.05115779489278793
1728067629228,7i,9.592122109710791,0.9s : 0.3s,0.17736382404072115,0.006341934798479595,0.1772504046296079,0.15334187812111982,-0.025369981303811073,0.1461404711008072,0.6309968829154968,-0.15188926458358765,-0.019511133432388306,0.007918242365121841,-0.2976763428374109,1.5176230666028396,0.279260299670406,0.9546693563461304,0.29329952597618103,-0.05081077665090561
1728067629238,7i,9.592122109710791,0.9s : 0.3s,0.17820184770239686,0.006612179875617544,0.1780791329770019,0.04122399138411405,-0.02504241093993187,0.0573730543255806,0.2694602310657501,0.030827045440673828,0.017295658588409424,0.021212518215179443,-0.2984717684206031,1.5178618206277443,0.27982245432675007,0.9544481635093689,0.2940598726272583,-0.05057048425078392
1728067629248,7i,9.592122109710791,0.9s : 0.3s,0.11988860753928597,0.0069111325241748385,0.11968924122469084,0.05077244986142716,-0.07324443012475967,-0.0010246087331324816,-0.03440794348716736,0.04703867435455322,0.017650634050369263,0.007325291633605957,-0.2982281021676358,1.518123378340123,0.280545427146059,0.9545329213142395,0.29382699728012085,-0.050324611365795135
1728067629258,7i,9.592122109710791,0.9s : 0.3s,0.08705413196553385,0.007245780988226822,0.08675206366504046,0.02740734608958691,-0.0857706069946289,-0.011418393813073635,-0.007979266345500946,-0.026102125644683838,0.007990270853042603,-0.002448923885822296,-0.29821380752762927,1.5184523328309136,0.2813635865456374,0.9545537829399109,0.2938133180141449,-0.050010841339826584
1728067629268,7i,9.592122109710791,0.9s : 0.3s,0.0651332931630785,0.0075620509721478785,0.06469282234809488,0.020060176830561275,-0.07928287982940674,0.00421587098389864,-0.023943185806274414,0.0012946128845214844,0.01968565583229065,0.003634504973888397,-0.2984297918088472,1.5186617169154708,0.2821710053296969,0.9545007944107056,0.29401975870132446,-0.04980766028165817
1728067629278,7i,9.592122109710791,0.9s : 0.3s,0.05625157955104235,0.007877604217509122,0.055697249068329464,0.033751478101766576,-0.06171214208006859,0.010045530274510384,-0.027605030685663223,-0.023057758808135986,0.023953348398208618,-0.005808539688587189,-0.29869024422055934,1.51895904836082,0.28291138096283186,0.954439103603363,0.2942686975002289,-0.04951988905668259
1728067629288,7i,9.592122109710791,0.9s : 0.3s,0.05134616578177688,0.00818031881762523,0.05069034547654731,0.025650010058633065,-0.052088141441345215,0.007899332791566849,-0.031125430017709732,-0.004361450672149658,0.023357540369033813,-0.009660542011260986,-0.29901026481137827,1.5192328458822089,0.2834854725665995,0.9543583989143372,0.2945745289325714,-0.04925369843840599
1728067629298,7i,9.592122109710791,0.9s : 0.3s,0.047312457196431144,0.008466282155924987,0.04654879882897511,0.01506085451239911,-0.046550896018743515,-0.002327738329768181,-0.03922916203737259,0.0009033679962158203,0.013782769441604614,-0.00600404292345047,-0.2994014271279573,1.5193923948621106,0.2839881998733977,0.9542511105537415,0.2949483096599579,-0.049095507711172104
1728067629308,7i,9.592122109710791,0.9s : 0.3s,0.04368988874625266,0.008753083929724674,0.042804087426075686,0.016198497478858865,-0.04267093911767006,-0.002010910538956523,-0.0438961535692215,-0.006664633750915527,0.009656518697738647,-0.011168062686920166,-0.29988717075568827,1.5195034656623359,0.28442718279051143,0.9541133642196655,0.29541242122650146,-0.0489821657538414
1728067629318,7i,9.592122109710791,0.9s : 0.3s,0.04141389358820007,0.009047243065682494,0.04041358651549277,0.011875844176370704,-0.05386846885085106,-0.012664088048040867,-0.043035686016082764,-0.0009784698486328125,-0.00492057204246521,-0.010764118283987045,-0.30035554373970264,1.5196324139083288,0.28492285389606375,0.9539812803268433,0.29585984349250793,-0.04885204881429672
1728067629328,7i,9.592122109710791,0.9s : 0.3s,0.04067445404544752,0.00935233806321375,0.03958465592431726,0.022201992304154212,-0.06816910952329636,-0.00844111293554306,-0.04419555887579918,0.005335748195648193,-0.017801225185394287,-0.01214803010225296,-0.30082121276483653,1.5197001522910907,0.2855274270544058,0.9538470506668091,0.2963046431541443,-0.048780396580696106
1728067629338,7i,9.592122109710791,0.9s : 0.3s,0.04392015908217573,0.009676486734288624,0.04284093811163289,0.024742589197977356,-0.08305457979440689,-0.010079755447804928,-0.04665099456906319,-0.004303157329559326,-0.022305160760879517,-0.009806036949157715,-0.3013191869799699,1.5198124829802966,0.28628941916895667,0.9537050127983093,0.29678022861480713,-0.04866572096943855
1728067629348,7i,9.592122109710791,0.9s : 0.3s,0.050826027665008246,0.010011424253681511,0.04983027666606901,0.026642362222533158,-0.0942198783159256,-0.013147804886102676,-0.04224366322159767,-0.0009050369262695312,-0.025521159172058105,-0.007593866437673569,-0.30184271977154675,1.5199645940674584,0.28721257886842894,0.9535568952560425,0.29728013277053833,-0.048512741923332214
1728067629358,7i,9.592122109710791,0.9s : 0.3s,0.05754787620603742,0.01033978428727887,0.05661136738074738,0.03260624255254553,-0.10314413160085678,-0.02346808835864067,-0.037760764360427856,0.012922227382659912,-0.0290546715259552,-0.007211737334728241,-0.3023313612729779,1.520068139134765,0.2882349101867799,0.9534167647361755,0.2977466285228729,-0.048406634479761124
1728067629368,7i,9.592122109710791,0.9s : 0.3s,0.09631624178884032,0.010697535551926,0.09572032785903749,0.03292927841086905,-0.09358631819486618,-0.12209276109933853,0.4026809334754944,-0.008664965629577637,-0.029342085123062134,-0.012177757918834686,-0.302168900876416,1.5199339457513694,0.28923186554593106,0.9534584879875183,0.29759153723716736,-0.048537030816078186
1728067629378,7i,9.592122109710791,0.9s : 0.3s,0.29414923271427673,0.011790377357177945,0.2939128410059232,0.15949538395796287,-0.07946304231882095,-0.08742319047451019,1.1728236675262451,-0.15378761291503906,-0.03755709528923035,-0.019432246685028076,-0.30292626865349204,1.519784722296831,0.2899417761357526,0.9532260298728943,0.29831451177597046,-0.04866781085729599
1728067629388,7i,9.592122109710791,0.9s : 0.3s,0.329653221251379,0.012742024318483737,0.32940687166129035,0.02415436430095816,-0.0726526752114296,-0.19005365669727325,0.587378203868866,-0.011999785900115967,-0.020910203456878662,0.001483861356973648,-0.3041739279319548,1.5198487300931929,0.2903859183204358,0.9528566598892212,0.2995051145553589,-0.04858780279755592
1728067629398,7i,9.592122109710791,0.9s : 0.3s,0.23344354241210288,0.013564481554308852,0.23304912000278846,0.06215225659947989,-0.04889727756381035,-0.04976312071084976,-0.00783592090010643,0.056181132793426514,-0.025940269231796265,-0.005803942680358887,-0.3040723897554415,1.5194438389656708,0.2907648833108784,0.9528672695159912,0.2994082570075989,-0.04897516220808029
1728067629408,7i,9.592122109710791,0.9s : 0.3s,0.16562035675365944,0.014347843174159358,0.16499770291570473,0.04406780854718099,-0.061960216611623764,-0.06970313936471939,-0.026991205289959908,0.011081397533416748,-0.04234069585800171,-0.0051419697701931,-0.3041654273653323,1.5189717775374938,0.29120447829041574,0.9528161883354187,0.29949700832366943,-0.049423523247241974
1728067629418,7i,9.592122109710791,0.9s : 0.3s,0.1225923996222112,0.015099747040037538,0.12165892521495826,0.05394826205463355,-0.07295693457126617,-0.0661800429224968,-0.02069070003926754,0.012340843677520752,-0.05250445008277893,-0.0011837556958198547,-0.3044708121256875,1.5184958707314813,0.2918567409375617,0.9527013301849365,0.29978835582733154,-0.04987219721078873
1728067629428,7i,9.592122109710791,0.9s : 0.3s,0.09457185032956122,0.01582942057955433,0.09323767649868003,0.04515011347173635,-0.06567585468292236,-0.08208213746547699,-0.038574691861867905,0.006151676177978516,-0.04445016384124756,-0.004987239837646484,-0.30476118504967004,1.5179827456753425,0.292564700367782,0.9525885581970215,0.30006536841392517,-0.050356440246105194
1728067629438,7i,9.592122109710791,0.9s : 0.3s,0.08084644964399651,0.01652945259593604,0.07913864806096935,0.04875199120715633,-0.06682047992944717,-0.06562886387109756,-0.05098901689052582,0.015010714530944824,-0.046087563037872314,-0.005231790244579315,-0.30502204761484425,1.5172419081301876,0.29326639951093547,0.9524726867675781,0.3003142178058624,-0.05105794221162796
1728067629448,7i,9.592122109710791,0.9s : 0.3s,0.07668431536944283,0.01719645886952243,0.0747312921474598,0.05975998467222108,-0.08897652477025986,-0.05148725211620331,-0.07294734567403793,0.01852250099182129,-0.056807875633239746,-0.0010188184678554535,-0.3052390463412007,1.5163874762204907,0.29414824228502917,0.9523636102676392,0.30052119493484497,-0.05186820402741432
1728067629458,7i,9.592122109710791,0.9s : 0.3s,0.07111700622983601,0.0178327267797629,0.06884491579407197,0.06339399334441215,-0.10479729622602463,-0.04168921709060669,-0.0936153382062912,0.021537482738494873,-0.05958986282348633,0.0019958652555942535,-0.30550014984229223,1.5153803575263072,0.2952725243309461,0.9522325396537781,0.30077019333839417,-0.05282297357916832
1728067629468,7i,9.592122109710791,0.9s : 0.3s,0.07332542787010797,0.018447628490876427,0.0709669174714318,0.05717284725330513,-0.10989991575479507,-0.02704804204404354,-0.10781178623437881,0.026139557361602783,-0.05054560303688049,0.005531728267669678,-0.30576061998379367,1.5143865733962507,0.2966023933700308,0.9521014094352722,0.3010185956954956,-0.05376484617590904
1728067629478,7i,9.592122109710791,0.9s : 0.3s,0.08131031575619443,0.019033231169077333,0.07905127171422674,0.04947892566027196,-0.11205121129751205,-0.01970330998301506,-0.12437291443347931,0.02725905179977417,-0.04080173373222351,0.006350331008434296,-0.30603950335658925,1.513297320251497,0.2980330023572635,0.9519585371017456,0.3012845516204834,-0.05479707196354866
1728067629488,7i,9.592122109710791,0.9s : 0.3s,0.0885943230483133,0.019582230427216442,0.08640306897260244,0.041547756375866926,-0.10325385630130768,0.0035400937777012587,-0.13589346408843994,0.028901636600494385,-0.02975994348526001,0.0022928640246391296,-0.3064134163697976,1.5121187914235419,0.2994581154611897,0.9517807960510254,0.301641047000885,-0.055912334471940994
1728067629498,7i,9.592122109710791,0.9s : 0.3s,0.09349660115539717,0.020086073497239756,0.09131354816824773,0.033119161074400674,-0.08880647271871567,0.032290782779455185,-0.13954252004623413,0.02659928798675537,-0.019283264875411987,0.0041847825050354,-0.30691596681461275,1.5109871894733065,0.300805832417129,0.9515653252601624,0.3021201491355896,-0.05698025971651077
1728067629508,7i,9.592122109710791,0.9s : 0.3s,0.09371931858089741,0.02053213347713895,0.09144256213681182,0.025516282882740354,-0.06970761716365814,0.06117720156908035,-0.12785395979881287,0.024329781532287598,-0.0062417685985565186,0.004492521286010742,-0.30743319539422176,1.5099161538725407,0.30201255191846027,0.9513476490974426,0.30261316895484924,-0.05798987299203873
1728067629518,7i,9.592122109710791,0.9s : 0.3s,0.09295607047931928,0.020924571267578376,0.09057037791808206,0.023163560013384883,-0.06550568342208862,0.10292172431945801,-0.1067926287651062,0.022494018077850342,-0.003901153802871704,0.003917992115020752,-0.3078912053508097,1.5089712266163342,0.30313785554729056,0.9511539936065674,0.3030496835708618,-0.05888023227453232
1728067629528,7i,9.592122109710791,0.9s : 0.3s,0.09103816080695931,0.02127535933606401,0.08851726276967187,0.026400955079861323,-0.05930011719465256,0.12844905257225037,-0.062156349420547485,0.024178922176361084,-0.009618371725082397,0.004458371549844742,-0.30822237675705527,1.5082361020229236,0.30426125508325935,0.9510102272033691,0.3033652603626251,-0.05957315117120743
1728067629538,7i,9.592122109710791,0.9s : 0.3s,0.0865156367794981,0.02156097854051889,0.08378591535417708,0.03222124174735281,-0.028093460947275162,0.11271429061889648,-0.02290029264986515,0.03202950954437256,0.0029228031635284424,0.0019432343542575836,-0.30851223639122305,1.507537570810034,0.30525048166698276,0.9508805274963379,0.3036414384841919,-0.06023188307881355
1728067629548,7i,9.592122109710791,0.9s : 0.3s,0.07907646939935994,0.021776728787415822,0.07601882724685541,0.03797966783930685,0.016266945749521255,0.10699369013309479,0.021486379206180573,0.02417886257171631,0.023788511753082275,-0.01708638295531273,-0.30845690417131844,1.5068827956996973,0.30583211050814046,0.9508576393127441,0.30358871817588806,-0.06085555627942085
1728067629558,7i,9.592122109710791,0.9s : 0.3s,0.06328523770709374,0.02195431565183248,0.05935511212947931,0.034788395515246436,0.07212887704372406,0.10616837441921234,0.058090467005968094,0.010872960090637207,0.020787060260772705,-0.02568870037794113,-0.3084201572792627,1.506205685183274,0.3058971566890874,0.9508273601531982,0.3035537302494049,-0.061500098556280136
1728067629568,7i,9.592122109710791,0.9s : 0.3s,0.055832821001853716,0.022138597138489167,0.051256086641146496,0.03584662969907283,0.15928508341312408,0.12179261445999146,0.08964452892541885,-0.0008861422538757324,0.007925987243652344,-0.03494816645979881,-0.308353887743902,1.5055463636504594,0.3051423788899719,0.9508066773414612,0.3034905791282654,-0.06212829798460007
1728067629578,7i,9.592122109710791,0.9s : 0.3s,0.07865860245717064,0.022350691974177547,0.07541632654001815,0.03840452356275517,0.1537981778383255,0.13172566890716553,0.13236109912395477,-0.008465826511383057,0.0005567371845245361,-0.03745567053556442,-0.3082089748146397,1.5050251279789728,0.30380018318766805,0.9508180022239685,0.3033525049686432,-0.06262677162885666
1728067629588,7i,9.592122109710791,0.9s : 0.3s,0.09101970835773415,0.022687327987730602,0.08814688002592103,0.04491538059190968,0.07412105798721313,0.10698238015174866,0.14062198996543884,-0.0047814249992370605,-0.04060867428779602,-0.018586687743663788,-0.30817399863868133,1.5047434528586707,0.3030229116161802,0.950810968875885,0.30331915616989136,-0.0628952905535698
1728067629598,7i,9.592122109710791,0.9s : 0.3s,0.09920891277615007,0.023071009433539486,0.09648905066349904,0.04013197321520638,0.02908913418650627,0.08361979573965073,0.17319191992282867,0.005202531814575195,-0.03491133451461792,-0.01909732073545456,-0.30824796066436905,1.5045407441656062,0.3028423726452173,0.9507758021354675,0.30338963866233826,-0.06308654695749283
1728067629608,7i,9.592122109710791,0.9s : 0.3s,0.10847961949578117,0.02347948787231489,0.10590817482707975,0.0337555727789432,-0.00709989620372653,0.07110831141471863,0.19961722195148468,0.007696568965911865,-0.02491980791091919,-0.021429061889648438,-0.30820309637956833,1.5044584359722728,0.303092260850267,0.9507842063903809,0.3033469021320343,-0.06316570192575455
1728067629618,7i,9.592122109710791,0.9s : 0.3s,0.1172625322831049,0.023940901950098455,0.11479257245685365,0.04034807711217466,-0.04652399942278862,0.061498288065195084,0.20714278519153595,-0.009445607662200928,-0.0343346893787384,-0.018970422446727753,-0.30825133045846886,1.5045516082963482,0.3037115565797582,0.9507753849029541,0.30339285731315613,-0.06307613849639893
1728067629628,7i,9.592122109710791,0.9s : 0.3s,0.12681832357429493,0.024433959937214207,0.1244422307578146,0.03315062377213377,-0.07114811986684799,0.05528353527188301,0.2145310640335083,-0.012339174747467041,-0.025798439979553223,-0.016767501831054688,-0.30853272258565373,1.5046039288187516,0.3045802320846423,0.950693666934967,0.30366095900535583,-0.06302075833082199
1728067629638,7i,9.592122109710791,0.9s : 0.3s,0.13663813576915235,0.02491117079216315,0.1343481064854767,0.020475688709215487,-0.06602952629327774,0.04162658005952835,0.22830067574977875,-0.004101097583770752,-0.004562973976135254,-0.019534945487976074,-0.30882600441100533,1.504587591223917,0.3054856087424843,0.950603723526001,0.30394038558006287,-0.06303039938211441
1728067629648,7i,9.592122109710791,0.9s : 0.3s,0.1468923656824101,0.025352272394716616,0.14468804159362647,0.021232683930642593,-0.060061514377593994,0.03826412186026573,0.2442309409379959,-0.005382895469665527,0.007388561964035034,-0.019164040684700012,-0.3089981325631746,1.5044505511820545,0.30622063184327647,0.9505429863929749,0.30410435795783997,-0.06315720826387405
1728067629658,7i,9.592122109710791,0.9s : 0.3s,0.15476353433009982,0.02576704169991736,0.1526034439990746,0.013048113393559721,-0.06774420291185379,0.03335671126842499,0.24553614854812622,-0.012051224708557129,-0.0007465183734893799,-0.004946105182170868,-0.3091284377637043,1.504354901185818,0.3069623867348495,0.9504972100257874,0.3042285144329071,-0.06324548274278641
1728067629668,7i,9.592122109710791,0.9s : 0.3s,0.15803302107687772,0.026131868482788815,0.15585750286811065,0.012582979467684094,-0.06089748069643974,0.022298647090792656,0.24731788039207458,-0.008168935775756836,0.009473413228988647,-0.0013617277145385742,-0.3090199885017295,1.5044550585842382,0.3077158651577936,0.9505364894866943,0.30412518978118896,-0.06315246969461441
1728067629678,7i,9.592122109710791,0.9s : 0.3s,0.1591785775760942,0.026431793398768923,0.15696872254329344,0.018160488073158846,-0.05497274547815323,0.010411093942821026,0.24497376382350922,-0.004683971405029297,0.01753777265548706,0.0005387663841247559,-0.30894780213790046,1.504495888128725,0.3083641165743588,0.950560986995697,0.30405643582344055,-0.06311511993408203
1728067629688,7i,9.592122109710791,0.9s : 0.3s,0.15965098220163446,0.026691192575158312,0.15740399091783666,0.01290442075863381,-0.0631563737988472,0.002912697149440646,0.23509037494659424,-0.009297370910644531,0.006701350212097168,0.005930840969085693,-0.30898266203200947,1.5045051994460725,0.30898199101339996,0.9505509734153748,0.30408963561058044,-0.06310556083917618
1728067629698,7i,9.592122109710791,0.9s : 0.3s,0.16011806670550588,0.026918091343240188,0.15783919552489428,0.009347500277965928,-0.05148240551352501,0.003731086617335677,0.2377125322818756,-0.0067054033279418945,0.003551870584487915,0.005458712577819824,-0.3089891227204215,1.5045683138571226,0.30958541470799633,0.9505530595779419,0.3040957748889923,-0.0630454421043396
1728067629708,7i,9.592122109710791,0.9s : 0.3s,0.15966155887750919,0.027093635201616253,0.15734595105930774,0.017286832344917277,-0.01999945007264614,-0.004517388995736837,0.2316667139530182,-0.003367185592651367,0.016954004764556885,0.00024157017469406128,-0.3089839951888877,1.5045991057214443,0.3099419875002123,0.9505565762519836,0.3040909171104431,-0.06301628053188324
1728067629718,7i,9.592122109710791,0.9s : 0.3s,0.1582223956409414,0.027248738765044352,0.15585837391065313,0.018471225082697187,0.004309618379920721,0.0033517193514853716,0.21864253282546997,-0.012898147106170654,0.011075466871261597,-0.0072220489382743835,-0.30910014860296375,1.5045827697096847,0.30996785935245436,0.9505201578140259,0.30420154333114624,-0.0630294606089592
1728067629728,7i,9.592122109710791,0.9s : 0.3s,0.15286499041062568,0.027417015596926348,0.15038621129943588,0.01660724729862938,0.026617852970957756,-0.0015535573475062847,0.20012010633945465,-0.012904047966003418,-0.004858851432800293,-0.009256228804588318,-0.309328725858755,1.5045668640397099,0.3097505469649782,0.9504496455192566,0.30441927909851074,-0.06303996592760086
1728067629738,7i,9.592122109710791,0.9s : 0.3s,0.1449473459409241,0.027601198479319602,0.14229514024668283,0.015465011379782833,0.02050057239830494,-0.005914216861128807,0.18491850793361664,-0.006616532802581787,-0.008663594722747803,-0.010969512164592743,-0.3095425982769139,1.504615037700767,0.3094192268065356,0.9503877758979797,0.304623007774353,-0.06298988312482834
1728067629748,7i,9.592122109710791,0.9s : 0.3s,0.13431615599545138,0.027813311314031957,0.13140490658701892,0.021766770966810033,-0.023152099922299385,-0.015203944407403469,0.15739601850509644,-0.005425631999969482,-0.020730525255203247,-0.0038210153579711914,-0.30987616254136985,1.504760749348147,0.3093730846919631,0.9502955675125122,0.30494070053100586,-0.06284469366073608
1728067629758,7i,9.592122109710791,0.9s : 0.3s,0.12218070202230763,0.02806267560272114,0.1189142976461635,0.02956081553950993,-0.040002454072237015,-0.021180875599384308,0.13010181486606598,-0.00571364164352417,-0.028983980417251587,-0.0010606572031974792,-0.31037124049156006,1.5049445518881879,0.3096685645780863,0.9501562118530273,0.3054121732711792,-0.06266007572412491
1728067629768,7i,9.592122109710791,0.9s : 0.3s,0.10621364203619774,0.028323459120877963,0.10236757014807718,0.017918103805093986,0.007911942899227142,-0.023244250565767288,0.09573740512132645,-0.011615753173828125,-0.013312667608261108,-0.0029842257499694824,-0.31091554887584477,1.5051106614245895,0.30986483805573023,0.9500007033348083,0.30593040585517883,-0.06249133124947548
1728067629778,7i,9.592122109710791,0.9s : 0.3s,0.102285581834241,0.02857579726442584,0.0982128507980073,0.024937714126916973,0.09338822960853577,-0.010356413200497627,0.09601011127233505,-0.013870596885681152,0.00746995210647583,-0.01933121681213379,-0.31131614062264606,1.50505910997502,0.30920625745900987,0.9498751759529114,0.30631178617477417,-0.06253225356340408
1728067629788,7i,9.592122109710791,0.9s : 0.3s,0.09069821380812017,0.028829177774295278,0.0859944445696439,0.022437311934648832,0.04837761074304581,0.003449146868661046,0.08424287289381027,-0.008060455322265625,0.0013420283794403076,-0.020896434783935547,-0.3115982552867659,1.5050303116160995,0.3082988838348117,0.9497870802879333,0.3065803050994873,-0.06255392730236053
1728067629798,7i,9.592122109710791,0.9s : 0.3s,0.07727456539290657,0.02912173252141473,0.07157711332272186,0.03121703794326324,-0.021085884422063828,-0.0030353839974850416,0.05767064914107323,0.00023406744003295898,-0.029367119073867798,-0.010583996772766113,-0.3118956867526981,1.505123009572735,0.3080895355294141,0.9497017860412598,0.3068634271621704,-0.06245988979935646
1728067629808,7i,9.592122109710791,0.9s : 0.3s,0.0646829201046848,0.02942843546550944,0.05760075814884196,0.026740523967040932,-0.035883475095033646,-0.011579603888094425,0.034909944981336594,0.009878695011138916,-0.01817581057548523,-0.01694422960281372,-0.3121132113942654,1.5051959381502407,0.30833337656266163,0.9496396780014038,0.30707043409347534,-0.062386248260736465
1728067629818,7i,9.592122109710791,0.9s : 0.3s,0.055255595605986835,0.029744263178027554,0.04656672260067898,0.03155484718263597,-0.04765757545828819,0.011548618786036968,0.012359628453850746,-0.0018398165702819824,-0.002337425947189331,-0.031414326280355453,-0.31228978525683776,1.5053257241692413,0.308667666232924,0.9495936632156372,0.30723845958709717,-0.06225945055484772
1728067629828,7i,9.592122109710791,0.9s : 0.3s,0.049713621707789764,0.03010453414978255,0.03956211833218491,0.03553566345408418,-0.09968935698270798,0.013837960548698902,-0.024755049496889114,-0.000794827938079834,-0.028294086456298828,-0.021484792232513428,-0.31243569993260345,1.5056803077621965,0.30936329228431586,0.9495710134506226,0.30737733840942383,-0.06191982328891754
1728067629838,7i,9.592122109710791,0.9s : 0.3s,0.053759646457996385,0.030513138975698566,0.04426113348230554,0.03935812718220335,-0.11335829645395279,0.010972399264574051,-0.021949410438537598,0.007184922695159912,-0.03467443585395813,-0.017179131507873535,-0.3125662411977732,1.5060925466693154,0.31046311129708254,0.9495563507080078,0.30750155448913574,-0.061525773257017136
1728067629848,7i,9.592122109710791,0.9s : 0.3s,0.061273959402119244,0.03092083406533348,0.052899906630509946,0.026120967226226293,-0.1170496940612793,0.006826478987932205,-0.019746510311961174,0.009266912937164307,-0.013319253921508789,-0.020470142364501953,-0.3127661714899941,1.506485002094435,0.3116230771578917,0.9495190382003784,0.3076917827129364,-0.06114915385842323
1728067629858,7i,9.592122109710791,0.9s : 0.3s,0.07103132714910046,0.03134437362353004,0.06374150671823729,0.02891649148134026,-0.1340595781803131,0.009255548007786274,-0.015283051878213882,0.004952549934387207,-0.022196143865585327,-0.017859645187854767,-0.3130830427882156,1.506766344138063,0.3128790600189118,0.9494390487670898,0.3079932630062103,-0.0608757808804512
1728067629868,7i,9.592122109710791,0.9s : 0.3s,0.07499745277315563,0.031789819311734066,0.06792661709955096,0.035792592572580884,-0.125367671251297,-0.000390554778277874,-0.010593725368380547,0.011087656021118164,-0.03004547953605652,-0.015982575714588165,-0.3132821354527655,1.5070030515082156,0.3141688456383078,0.9493921995162964,0.3081826865673065,-0.06064713001251221
1728067629878,7i,9.592122109710791,0.9s : 0.3s,0.07472935454081304,0.032240756775555816,0.06741668957035779,0.028058396385592127,-0.09322785586118698,0.010039448738098145,-0.0010012849234044552,0.006870388984680176,-0.016591668128967285,-0.021558940410614014,-0.3132226342293385,1.5073008177171563,0.3152880395178741,0.949428379535675,0.3081260621547699,-0.06036558747291565
1728067629888,7i,9.592122109710791,0.9s : 0.3s,0.07262835572655992,0.032691830824867485,0.064854623989828,0.027132771502174895,-0.07490544021129608,0.007833952084183693,0.0011895314091816545,0.005676746368408203,-0.011756032705307007,-0.023785658180713654,-0.31314392843767397,1.5074620710850493,0.3160806944603613,0.9494624733924866,0.308051198720932,-0.06021403148770332
1728067629898,7i,9.592122109710791,0.9s : 0.3s,0.06889184619921249,0.0331497527229081,0.060391889912023745,0.026733673943388273,-0.06492497771978378,0.007441668771207333,0.003193560056388378,0.004209399223327637,-0.016994744539260864,-0.020202696323394775,-0.3131330642102819,1.5074491848901581,0.3167294178731823,0.9494649171829224,0.3080408573150635,-0.06022647023200989
1728067629908,7i,9.592122109710791,0.9s : 0.3s,0.0601634103544843,0.03360566645519351,0.04990285690804035,0.024018047252477102,-0.0370723120868206,0.010743900202214718,0.002441616728901863,0.0008906126022338867,-0.009890913963317871,-0.02186877280473709,-0.31296376726278397,1.5074717887308122,0.3171811332418806,0.9495183825492859,0.307879775762558,-0.060208313167095184
1728067629918,7i,9.592122109710791,0.9s : 0.3s,0.04933272920459263,0.03403965495584116,0.03570742305545088,0.018456196074217144,-0.0017132534412667155,0.013528501614928246,0.007048618979752064,0.001680135726928711,-0.0010809600353240967,-0.01834774762392044,-0.312701283834918,1.507465063315843,0.31731679792165507,0.9495986104011536,0.3076300323009491,-0.060219813138246536
1728067629928,7i,9.592122109710791,0.9s : 0.3s,0.04442882213011059,0.034483189426346365,0.02801481541712739,0.02592865245570708,-0.007919616997241974,0.009939758107066154,0.010165615938603878,0.00448298454284668,-0.020902425050735474,-0.014672644436359406,-0.3125252001407732,1.5074067503082371,0.3173009383460003,0.9496491551399231,0.3074624836444855,-0.06027861684560776
1728067629938,7i,9.592122109710791,0.9s : 0.3s,0.04293415468302508,0.034943119705310256,0.024946342890417483,0.032834147705666554,-0.01078810729086399,0.004653916694223881,0.0106598986312747,0.00981682538986206,-0.02885761857032776,-0.012204468250274658,-0.3122902937986565,1.5073352277498506,0.31736532192413974,0.9497168064117432,0.30723896622657776,-0.060351110994815826
1728067629948,7i,9.592122109710791,0.9s : 0.3s,0.04288446991512468,0.03539463059267054,0.024213588852328854,0.021097579515844653,-0.022932255640625954,0.006876013241708279,0.015490439720451832,0.00825643539428711,-0.015339374542236328,-0.011901374906301498,-0.31197066853645045,1.507295742156859,0.31748464272696897,0.9498122930526733,0.30693477392196655,-0.060394834727048874
1728067629958,7i,9.592122109710791,0.9s : 0.3s,0.04277026345573963,0.035850720751496,0.02332426328250543,0.026464597603682808,-0.023527206853032112,-0.008176972158253193,0.010644285939633846,0.00857698917388916,-0.020786166191101074,-0.013955123722553253,-0.31174564511478925,1.507165305528829,0.31770362177983646,0.9498733878135681,0.3067206144332886,-0.06052312254905701
1728067629968,7i,9.592122109710791,0.9s : 0.3s,0.04225359325837204,0.03631640842581819,0.021598255075193105,0.028460316094684333,-0.006810410879552364,-0.00228317454457283,0.01313011348247528,0.00532907247543335,-0.01699119806289673,-0.022201120853424072,-0.31155794254973257,1.5069348277009438,0.3177812192224223,0.9499168992042542,0.30654194951057434,-0.0607457160949707
1728067629978,7i,9.592122109710791,0.9s : 0.3s,0.04197864164275983,0.0367980474596848,0.020201734017802394,0.02885241934987818,-0.00837981142103672,-0.004691204521805048,0.015973838046193123,-0.0014007091522216797,-0.019099116325378418,-0.021580636501312256,-0.31131979586591224,1.5067523477819729,0.31782338003969995,0.9499785304069519,0.30631524324417114,-0.06092372536659241
1728067629988,7i,9.592122109710791,0.9s : 0.3s,0.04245344964512474,0.03731756362599608,0.020240919736782617,0.04254405756927015,-0.01752563938498497,0.005624549929052591,0.039760857820510864,0.008254170417785645,-0.036718159914016724,-0.01984041929244995,-0.3110261930751784,1.5065970861141424,0.3179035126076449,0.9500587582588196,0.30603575706481934,-0.06107698380947113
1728067629998,7i,9.592122109710791,0.9s : 0.3s,0.039965438752402334,0.03781849926019978,0.012922747710076656,0.03743409541579694,0.0549115426838398,-0.06255104392766953,0.010579272173345089,0.027921617031097412,-0.024725377559661865,-0.0032172203063964844,-0.31070629663195903,1.5060188154456697,0.3178222287632887,0.9501209855079651,0.3057311773300171,-0.061632703989744186
1728067630008,7i,9.592122109710791,0.9s : 0.3s,0.040465814918271434,0.03837785851681197,0.012830516461287212,0.0546491305395202,-0.0008092434727586806,0.0477474108338356,0.03556744381785393,-0.0480039119720459,-0.015202075242996216,-0.02123790979385376,-0.3103358302598428,1.5058821050130404,0.31746002354671665,0.9502255320549011,0.30537843704223633,-0.061769939959049225
1728067630018,7i,9.592122109710791,0.9s : 0.3s,0.041177081440632035,0.038950426734767354,0.013357256198335199,0.0358576873874117,-0.006275914143770933,-0.0009085396304726601,0.0269867405295372,-0.0061779022216796875,-0.03524783253669739,-0.002279818058013916,-0.3098666336813208,1.5060132814650673,0.3175580996291436,0.9503765106201172,0.3049316108226776,-0.06165456026792526
1728067630028,7i,9.592122109710791,0.9s : 0.3s,0.0421831473449793,0.0394766468066543,0.0148664816560915,0.036342650694846663,0.00418085465207696,-0.0034975316375494003,0.04099919646978378,0.03217744827270508,-0.00497850775718689,-0.0161435604095459,-0.3094223789914602,1.5058872361517053,0.31755827792897007,0.9505037665367126,0.3045085072517395,-0.06178312748670578
1728067630038,7i,9.592122109710791,0.9s : 0.3s,0.04354503794990912,0.039970644476769505,0.01727767085491331,0.011631176189903019,-0.005327429156750441,0.026059560477733612,0.04019518569111824,-0.009180426597595215,-0.004600316286087036,-0.005462702363729477,-0.308897189457673,1.5058824010731846,0.3175306798112828,0.9506628513336182,0.30400821566581726,-0.061798084527254105
1728067630048,7i,9.592122109710791,0.9s : 0.3s,0.04496353453545869,0.040439375730069144,0.019656457678932933,0.015184546634741997,-0.03114943765103817,0.032418567687273026,0.03074975311756134,-0.013003408908843994,-0.0070781409740448,-0.0033736824989318848,-0.3084549957143601,1.506069618096526,0.3177076943987392,0.9508085250854492,0.3035869002342224,-0.0616287961602211
1728067630058,7i,9.592122109710791,0.9s : 0.3s,0.049542751278493974,0.040872678248003884,0.027998363828585886,0.008967534237837957,-0.06428635865449905,0.039574213325977325,0.030360398814082146,0.0045514702796936035,-0.0077262818813323975,-7.319077849388123e-05,-0.3080942369654378,1.5064091611678838,0.31816564802676944,0.9509385228157043,0.30324316024780273,-0.06131298840045929
1728067630068,7i,9.592122109710791,0.9s : 0.3s,0.060351017953781685,0.04130177653263957,0.04400464320166205,0.035070467007608755,-0.12241517007350922,0.03435157984495163,0.03083217889070511,0.012007534503936768,-0.03175482153892517,0.008797049522399902,-0.30762570301420983,1.5069270432599509,0.31910075132659516,0.951111912727356,0.3027966618537903,-0.06082957237958908
1728067630078,7i,9.592122109710791,0.9s : 0.3s,0.07260662740484505,0.04170799440639298,0.059432024580206674,0.029936853710494357,-0.14197075366973877,0.03318937495350838,0.019556621089577675,0.002164781093597412,-0.02407217025756836,0.017665207386016846,-0.30731365919483333,1.50765231142703,0.320514193878395,0.9512500762939453,0.3024992346763611,-0.06014570966362953
1728067630088,7i,9.592122109710791,0.9s : 0.3s,0.07958464753014036,0.042061323882857736,0.0675615360668925,0.008648233156607456,-0.12516261637210846,0.030382094904780388,0.018537195399403572,0.00018066167831420898,0.0010812580585479736,0.008578471839427948,-0.3072103648933416,1.5081597399162177,0.32186977285747265,0.9513117074966431,0.3024007976055145,-0.05966496840119362
1728067630098,7i,9.592122109710791,0.9s : 0.3s,0.08026625951450271,0.04234693342806368,0.06818657965970018,0.01836481736129219,-0.10618866235017776,0.024946583434939384,0.017354484647512436,0.0010210871696472168,0.01832941174507141,-0.0005065202713012695,-0.30693222861515285,1.508781046133928,0.3230866398944869,0.951432466506958,0.3021356761455536,-0.059079110622406006
1728067630108,7i,9.592122109710791,0.9s : 0.3s,0.07909415915882984,0.04257219499469709,0.06665953965019406,0.019379111940063167,-0.07337745279073715,0.026159387081861496,0.02136567234992981,-0.0022954940795898438,0.01921558380126953,-0.0010207965970039368,-0.3067389586803954,1.509181007390709,0.32401149113973704,0.9515143632888794,0.30195140838623047,-0.05870216339826584
1728067630118,7i,9.592122109710791,0.9s : 0.3s,0.06981145302433606,0.04275198263135631,0.0551897359520526,0.023760202220466334,-0.02325250208377838,0.03903630003333092,0.031316839158535004,-0.0012597441673278809,0.02091953158378601,-0.011195242404937744,-0.30650411097680835,1.5095671248998692,0.3244918972131823,0.9516075849533081,0.3017275333404541,-0.05833909660577774
1728067630128,7i,9.592122109710791,0.9s : 0.3s,0.06762296835544003,0.04291650646329385,0.052259346744739366,0.016256041918191983,-0.0057159848511219025,0.05861688032746315,0.031027255579829216,-0.008079707622528076,0.008583217859268188,-0.011193998157978058,-0.30619164429849843,1.5100367729378679,0.32462145080890986,0.9517290592193604,0.3014295995235443,-0.05789789929986
1728067630138,7i,9.592122109710791,0.9s : 0.3s,0.06529347594848083,0.043082022878062266,0.049062993245102396,0.010838522745866499,0.006983831524848938,0.06000252440571785,0.023453224450349808,-0.00854027271270752,-0.006612926721572876,-0.0008980631828308105,-0.30588585570324583,1.510607694488921,0.3246306386426719,0.9518538117408752,0.3011380136013031,-0.05736006051301956
1728067630148,7i,9.592122109710791,0.9s : 0.3s,0.06437333820134007,0.04326113260926142,0.04766970816512313,0.020959811605897924,-0.012449387460947037,0.06292681396007538,0.027349328622221947,-0.003962814807891846,-0.019735068082809448,0.005842678248882294,-0.30545346366741005,1.5112769130155597,0.32466160048670256,0.9520219564437866,0.30072566866874695,-0.05673079565167427
1728067630158,7i,9.592122109710791,0.9s : 0.3s,0.06602916029576546,0.04347330233771846,0.049698309762176145,0.03452595205711579,-0.07079365849494934,0.0574345737695694,0.024276839569211006,0.0004917383193969727,-0.03133288025856018,0.014493107795715332,-0.3051026525287595,1.5121342353329879,0.32512403430079456,0.952175498008728,0.3003910779953003,-0.055920764803886414
1728067630168,7i,9.592122109710791,0.9s : 0.3s,0.07255700361481732,0.04368948249736036,0.05792881746310257,0.03352515747585658,-0.11045651137828827,0.04313885420560837,0.013377821072936058,0.005219459533691406,-0.027537792921066284,0.018394656479358673,-0.30499518790466273,1.5129744233204747,0.3261271213631553,0.9522541165351868,0.300288587808609,-0.05512259155511856
1728067630178,7i,9.592122109710791,0.9s : 0.3s,0.0779205988360734,0.04388562750923013,0.06438688858062167,0.020760497804864105,-0.11657512187957764,0.03894757479429245,0.014547481201589108,0.005114078521728516,-0.012574613094329834,0.015707436949014664,-0.3050331458575428,1.513712570728676,0.3273264025172179,0.9522832632064819,0.30032479763031006,-0.054419029504060745
1728067630188,7i,9.592122109710791,0.9s : 0.3s,0.08060435032652788,0.04407453103261215,0.06748701360867099,0.014390608939408099,-0.1160707175731659,0.03777116537094116,0.018362460657954216,0.0017063617706298828,-0.01200401782989502,0.0077512264251708984,-0.3050428570658042,1.514424064433071,0.32853365700857934,0.9523189067840576,0.30033406615257263,-0.05374130979180336
1728067630198,7i,9.592122109710791,0.9s : 0.3s,0.08039665687085698,0.04425901028432676,0.06711752710478966,0.011248663287115261,-0.09201092272996902,0.023031635209918022,0.0172420684248209,0.00018221139907836914,-0.010367661714553833,0.0043601393699646,-0.305039012134681,1.5149406975499526,0.32961197889795646,0.9523476362228394,0.30033040046691895,-0.05324936658143997
1728067630208,7i,9.592122109710791,0.9s : 0.3s,0.07866723875388486,0.04443294842992437,0.06491723613174244,0.013645100400932291,-0.07259261608123779,0.015647711232304573,0.019232681021094322,0.006931126117706299,0.0018253028392791748,-0.011611051857471466,-0.30495779701752834,1.5152575737392953,0.3304339225964493,0.9523890018463135,0.30025291442871094,-0.052948951721191406
1728067630218,7i,9.592122109710791,0.9s : 0.3s,0.07711092485896949,0.04460444956724401,0.06290101598073615,0.024424719666325465,-0.07308077812194824,0.0030336491763591766,0.016555670648813248,0.007386267185211182,0.004894167184829712,-0.022760868072509766,-0.30479588726049794,1.515544210441312,0.3311861203771217,0.952452540397644,0.3000984787940979,-0.05267863720655441
1728067630228,7i,9.592122109710791,0.9s : 0.3s,0.0755996094856301,0.0447173072727095,0.060956241556200434,0.041293596435352624,-0.08124522864818573,-0.02318969927728176,-0.019338946789503098,0.004724264144897461,0.02520310878753662,-0.03236735612154007,-0.304748457408589,1.515698358243718,0.33203363235213523,0.9524748921394348,0.3000532388687134,-0.05253260210156441
1728067630238,7i,9.592122109710791,0.9s : 0.3s,0.07051522968711373,0.04479548192439108,0.05445881395135188,0.03680797493568359,-0.055159565061330795,0.0012253629975020885,-0.011071695014834404,-0.018717288970947266,0.02335605025291443,-0.021423935890197754,-0.3048131729476149,1.5158544314448297,0.3327249208411819,0.9524636268615723,0.3001149594783783,-0.052382875233888626
1728067630248,7i,9.592122109710791,0.9s : 0.3s,0.07119644563439552,0.0450586778547345,0.0551239459849773,0.048898798273173644,-0.09148521721363068,0.00927640963345766,0.00525085162371397,-0.020741283893585205,-0.042579472064971924,0.01216059923171997,-0.30470365575971564,1.516288912853684,0.3335037805203047,0.9525191783905029,0.3000105023384094,-0.051970839500427246
1728067630258,7i,9.592122109710791,0.9s : 0.3s,0.06773834947929981,0.04530949230555374,0.0503540852085779,0.025124314035781647,-0.05059690773487091,-0.005770184565335512,0.0038159408140927553,0.0011659860610961914,-0.01880025863647461,0.016625940799713135,-0.304649337843127,1.5166480138805183,0.3343489080022822,0.9525541067123413,0.2999586760997772,-0.05162966623902321
1728067630268,7i,9.592122109710791,0.9s : 0.3s,0.0657755994174337,0.04548324019711963,0.047515306374828585,0.03428319269468671,-0.048932433128356934,-0.01248028501868248,-0.00229308451525867,0.021602213382720947,0.024101465940475464,-0.011304911226034164,-0.30457561897024166,1.5167209563467572,0.33478957131190057,0.9525797963142395,0.29988834261894226,-0.051561374217271805
1728067630278,7i,9.592122109710791,0.9s : 0.3s,0.06708818528182706,0.04566577384013295,0.04914734686624075,0.027651724061605525,-0.09270042181015015,-0.009496744722127914,-0.005432152189314365,-0.004467964172363281,-0.022848427295684814,0.014919936656951904,-0.30462216846987905,1.516853612513984,0.3355317117837575,0.9525728225708008,0.2999327480792999,-0.05143425986170769
1728067630288,7i,9.592122109710791,0.9s : 0.3s,0.06814022369749108,0.04601501160172433,0.050256430363061995,0.05253215965512475,-0.09093461185693741,-0.012419342994689941,0.0074350107461214066,-0.0009860992431640625,-0.05017274618148804,0.015535473823547363,-0.30464975043228554,1.5169598157880195,0.33649696987138816,0.9525699615478516,0.29995906352996826,-0.05133264511823654
1728067630298,7i,9.592122109710791,0.9s : 0.3s,0.06737088179396633,0.046358329979563434,0.048884976784309656,0.017455771085693333,-0.05561549961566925,-0.02004503831267357,0.0031715556979179382,0.008722543716430664,-0.014572352170944214,-0.004033327102661133,-0.3046480347032825,1.516871111742703,0.33721852929333473,0.9525658488273621,0.29995742440223694,-0.051417168229818344
1728067630308,7i,9.592122109710791,0.9s : 0.3s,0.06667378747711547,0.04672643127531492,0.0475608510943279,0.029714477656825184,-0.053358737379312515,-0.028750644996762276,0.0065732779912650585,0.0077078938484191895,-0.02680748701095581,-0.010241933166980743,-0.304725529500522,1.5165796371949838,0.3377099663201134,0.9525277614593506,0.3000313639640808,-0.05169356241822243
1728067630318,7i,9.592122109710791,0.9s : 0.3s,0.0653923964605081,0.04712920976911264,0.0453321420339614,0.040693170520089306,-0.035552311688661575,-0.042644355446100235,0.010358428582549095,0.004981279373168945,-0.04033467173576355,0.002057969570159912,-0.3047817804913603,1.5162248797577884,0.33815179291271147,0.9524924159049988,0.30008500814437866,-0.052030548453330994
1728067630328,7i,9.592122109710791,0.9s : 0.3s,0.06401093148164158,0.04756395435756458,0.04283771229908205,0.034041816084808635,-0.0232118871062994,-0.054906394332647324,0.0165171567350626,0.003832101821899414,-0.0317690372467041,-0.011614151298999786,-0.30450418330356727,1.5158935121187267,0.3384423844938214,0.9525583386421204,0.299820214509964,-0.05235074460506439
1728067630338,7i,9.592122109710791,0.9s : 0.3s,0.06668628549057262,0.04819956932803961,0.04608537934227795,0.05834622912002918,-0.0635603740811348,-0.07502231746912003,0.01324066799134016,0.0016221404075622559,-0.054268062114715576,-0.02136886864900589,-0.30433616006408104,1.5154684784305545,0.3389107547042036,0.9525863528251648,0.2996599078178406,-0.05275839567184448
1728067630348,7i,9.592122109710791,0.9s : 0.3s,0.07946800011079272,0.049036311303825145,0.06253481602534146,0.06878077893259295,-0.10699693113565445,-0.11326855421066284,0.021460946649312973,0.012028932571411133,-0.06511074304580688,-0.018619652837514877,-0.30426549842834416,1.5147781302719192,0.33982166810012465,0.9525706171989441,0.2995924949645996,-0.05341717228293419
1728067630358,7i,9.592122109710791,0.9s : 0.3s,0.09851629444996084,0.050015327388522976,0.08487595241509957,0.07454270718740348,-0.14137966930866241,-0.14670133590698242,0.0325562059879303,0.021597087383270264,-0.06593775749206543,-0.02724689245223999,-0.30401282814984554,1.5139239709764496,0.34116472345182697,0.9526002407073975,0.29935142397880554,-0.05423510819673538
1728067630368,7i,9.592122109710791,0.9s : 0.3s,0.11965883383749665,0.05107545485637101,0.10821060219111822,0.07381448240256351,-0.16795602440834045,-0.17100973427295685,0.0398932509124279,0.014963209629058838,-0.067969411611557,-0.024593479931354523,-0.3036313994701623,1.5128913900805916,0.34282729378523824,0.9526576995849609,0.2989874482154846,-0.05522532016038895
1728067630378,7i,9.592122109710791,0.9s : 0.3s,0.13560582393146706,0.052152898430010794,0.12517593486561635,0.05885969379643211,-0.1585095226764679,-0.18229301273822784,0.04957756772637367,0.013304293155670166,-0.0530572235584259,-0.02173454314470291,-0.3032591095532508,1.5116431294502726,0.3445860353881083,0.9526991844177246,0.2986321747303009,-0.05642102658748627
1728067630388,7i,9.592122109710791,0.9s : 0.3s,0.14522653221614906,0.05322612975434859,0.13512114849608642,0.05237845295490567,-0.13554735481739044,-0.18651621043682098,0.05981425940990448,0.01841062307357788,-0.039537668228149414,-0.029005587100982666,-0.30271522271934664,1.5102361761588181,0.34615393391504556,0.9527807831764221,0.298113077878952,-0.057771191000938416
1728067630398,7i,9.592122109710791,0.9s : 0.3s,0.15755953957512608,0.05427350843117066,0.14791685094571672,0.03828888360169993,-0.16409750282764435,-0.20802870392799377,0.02551780827343464,0.007904291152954102,-0.02834540605545044,-0.024496912956237793,-0.30219582074999873,1.5087810757601088,0.34769081127388074,0.9528500437736511,0.29761722683906555,-0.059167101979255676
1728067630408,7i,9.592122109710791,0.9s : 0.3s,0.14822571829794942,0.05526392260839642,0.13753822167992516,0.031126762365699254,-0.05406993627548218,-0.16345621645450592,0.04968782514333725,-0.0033431649208068848,-0.005549609661102295,-0.03044503927230835,-0.3017811653815655,1.5072649556920812,0.34879495173829533,0.9528822898864746,0.2972213625907898,-0.060619499534368515
1728067630418,7i,9.592122109710791,0.9s : 0.3s,0.1436519714436463,0.05612741094535776,0.13223313745131024,0.04150567564529511,0.059850241988897324,-0.1779336929321289,0.05335206538438797,0.012479007244110107,0.028530150651931763,-0.027441319078207016,-0.30115072359328005,1.5054865925401175,0.34881054469639483,0.9529597163200378,0.29661932587623596,-0.062326185405254364
1728067630428,7i,9.592122109710791,0.9s : 0.3s,0.136934465610093,0.056869003112488985,0.12456710784518304,0.04425131468430583,0.1409071385860443,-0.15794040262699127,0.039718449115753174,-0.0036059021949768066,0.035012245178222656,-0.026820123195648193,-0.3004507888599122,1.5034561857361621,0.34775124465111096,0.953038215637207,0.29595082998275757,-0.06427491456270218
1728067630438,7i,9.592122109710791,0.9s : 0.3s,0.12488723651524758,0.05750953735012586,0.11085790435593605,0.046885803676167535,0.2696422338485718,-0.1295950561761856,0.07180314511060715,-0.0015110373497009277,0.03342875838279724,-0.032840728759765625,-0.2996006891311975,1.5014180308125964,0.3455499074761881,0.9531558752059937,0.29513871669769287,-0.06623463332653046
1728067630448,7i,9.592122109710791,0.9s : 0.3s,0.15575892815833894,0.05783180706724973,0.14462477585936306,0.06472944952372597,0.3925319015979767,-0.158232644200325,0.0680030807852745,0.021992981433868408,0.05277717113494873,-0.030344367027282715,-0.2985784760036266,1.4989175209692078,0.3421704304105522,0.9532877802848816,0.2941618859767914,-0.06863943487405777
1728067630458,7i,9.592122109710791,0.9s : 0.3s,0.20441975921310684,0.05792667817692964,0.19604065372297397,0.0635942185539205,0.4928380250930786,-0.1259029358625412,0.07998357713222504,0.007086277008056641,0.04919242858886719,-0.03967510908842087,-0.29744399663107757,1.4961181124880134,0.33755749048504097,0.9534239172935486,0.29307740926742554,-0.071332648396492
1728067630468,7i,9.592122109710791,0.9s : 0.3s,0.2551327452243806,0.05802372683559997,0.24844710666424835,0.043037358604670485,0.5521344542503357,-0.11238805949687958,0.08788041770458221,-0.0016461610794067383,0.020580679178237915,-0.0377616211771965,-0.2961531181432664,1.493309304730788,0.3321333216844336,0.9535961747169495,0.2918429672718048,-0.07403957098722458
1728067630478,7i,9.592122109710791,0.9s : 0.3s,0.2938991603898587,0.058155287635825226,0.28808797093571664,0.03123998128613833,0.5574195384979248,-0.10608009994029999,0.0858771875500679,0.005767166614532471,-0.0014818310737609863,-0.030667252838611603,-0.2947956367144731,1.4905429846749878,0.32639411896058135,0.9537818431854248,0.2905443012714386,-0.07670893520116806
1728067630488,7i,9.592122109710791,0.9s : 0.3s,0.32050141093163376,0.058328924441572956,0.3151489980670369,0.03165709698384577,0.5513872504234314,-0.10510360449552536,0.07610265165567398,0.008089721202850342,-0.008280634880065918,-0.029464542865753174,-0.2935451073184184,1.4878253865996849,0.32068386468692545,0.9539311528205872,0.28934749960899353,-0.0793306902050972
1728067630498,7i,9.592122109710791,0.9s : 0.3s,0.3419377112292676,0.058542162339432074,0.3368890226607771,0.03533666333554191,0.565470814704895,-0.10181166976690292,0.07295186817646027,0.005271852016448975,-0.005401164293289185,-0.03452122211456299,-0.2923384770037998,1.4851593850296898,0.3149723149290642,0.9540634155273438,0.2881922721862793,-0.08190339058637619
1728067630508,7i,9.592122109710791,0.9s : 0.3s,0.364091466415386,0.05879486317488813,0.3593128998251417,0.03759271482129166,0.6027038097381592,-0.09576518833637238,0.07378341257572174,0.0010851621627807617,-0.004724234342575073,-0.03727889806032181,-0.2911059712201022,1.4824525793940848,0.3089607173729446,0.9541914463043213,0.2870118319988251,-0.08451683819293976
1728067630518,7i,9.592122109710791,0.9s : 0.3s,0.3821449289571241,0.059099212830335514,0.3775473874502115,0.038893497448073126,0.6150835156440735,-0.09925339370965958,0.06734761595726013,-0.0012742280960083008,-0.013391345739364624,-0.03649318218231201,-0.2898638130627834,1.479679814243084,0.3026948002779299,0.9543076157569885,0.28582173585891724,-0.08719462156295776
1728067630528,7i,9.592122109710791,0.9s : 0.3s,0.3916237636293624,0.059470313960464906,0.3870819732261766,0.04233441588039299,0.5988174676895142,-0.0949140414595604,0.06932821124792099,-0.00010180473327636719,-0.027783840894699097,-0.03194136172533035,-0.2886257134503624,1.4769430708711933,0.2964296498594335,0.9544170498847961,0.284635066986084,-0.08983908593654633
1728067630538,7i,9.592122109710791,0.9s : 0.3s,0.39031064837968055,0.05991023860139128,0.3856853193333796,0.05023571743795791,0.5387834310531616,-0.11833468079566956,0.07460419833660126,0.010499179363250732,-0.04701682925224304,-0.014241218566894531,-0.2873597271304047,1.4742292573184366,0.29057877556075895,0.9545276165008545,0.28342121839523315,-0.09246353060007095
1728067630548,7i,9.592122109710791,0.9s : 0.3s,0.3745183812374227,0.06054013762423135,0.3695928971464937,0.06553919305621338,0.47008636593818665,-0.14190001785755157,0.0772332027554512,0.017577171325683594,-0.06269675493240356,-0.007452905178070068,-0.28611253875223264,1.4714859407455958,0.2854324259140144,0.9546212553977966,0.2822249233722687,-0.09511671215295792
1728067630558,7i,9.592122109710791,0.9s : 0.3s,0.35363779801431805,0.06127496896333401,0.34828877438550626,0.059853087454519775,0.4100475311279297,-0.16529108583927155,0.08440323173999786,0.008939683437347412,-0.05728107690811157,-0.014877915382385254,-0.28487336856997114,1.4686873131145906,0.28097522306270156,0.9546985626220703,0.2810359299182892,-0.09782354533672333
1728067630568,7i,9.592122109710791,0.9s : 0.3s,0.34138355122513264,0.062123286825236566,0.33568352101512544,0.06270130463239976,0.4106917381286621,-0.1948159635066986,0.08361080288887024,0.0038904547691345215,-0.05053508281707764,-0.03691237419843674,-0.2836158452096131,1.4657535560036556,0.276857970625312,0.9547581076622009,0.27982887625694275,-0.10066094249486923
1728067630578,7i,9.592122109710791,0.9s : 0.3s,0.3451371155700228,0.06300509077918273,0.3393375709819091,0.0568110391550875,0.47683534026145935,-0.21921157836914062,0.07650522887706757,0.0006353259086608887,-0.03052341938018799,-0.047910451889038086,-0.28236865074164313,1.4624166192741892,0.27239267196852834,0.9547631740570068,0.2786312699317932,-0.1038840189576149
1728067630588,7i,9.592122109710791,0.9s : 0.3s,0.36466240010484036,0.06387218401452699,0.35902508291125995,0.045274138547887546,0.5584853291511536,-0.21432507038116455,0.08155227452516556,-0.0020092129707336426,-0.007719099521636963,-0.04456597566604614,-0.28101045612282916,1.4587653841760049,0.26710582323877136,0.9547527432441711,0.2773266136646271,-0.10741160064935684
1728067630598,7i,9.592122109710791,0.9s : 0.3s,0.38849701257208835,0.06471070455731227,0.38306977627206984,0.03540997749520542,0.6192959547042847,-0.1986212134361267,0.07682490348815918,-0.007357776165008545,-0.006056070327758789,-0.034103572368621826,-0.2795656876880329,1.4550625448152963,0.2611067192948374,0.9547454118728638,0.2759382128715515,-0.11099229753017426
1728067630608,7i,9.592122109710791,0.9s : 0.3s,0.40514155306284827,0.06555173860676208,0.39980326109701436,0.03889873007859114,0.6158772706985474,-0.20445336401462555,0.0814099982380867,0.0038034915924072266,-0.03018435835838318,-0.02423941344022751,-0.2780463111639622,1.451318817476614,0.25475112442218334,0.9547382593154907,0.2744775116443634,-0.11461564153432846
1728067630618,7i,9.592122109710791,0.9s : 0.3s,0.40436523721994516,0.06640878357146074,0.39887481562076765,0.060723991262013575,0.5327965021133423,-0.2208501696586609,0.08527344465255737,0.011029362678527832,-0.05946183204650879,0.005481496453285217,-0.27653483339314944,1.4475868468604973,0.24892823295893468,0.9547144770622253,0.273023784160614,-0.1182287409901619
1728067630628,7i,9.592122109710791,0.9s : 0.3s,0.3946962406113363,0.06727555067119655,0.38892045797901803,0.05754397612114979,0.4894111752510071,-0.2252490222454071,0.0945684164762497,0.007649064064025879,-0.056857794523239136,0.0044712647795677185,-0.2750178386421575,1.4439840349830357,0.24382318690430987,0.954692006111145,0.2715640962123871,-0.1217198595404625
1728067630638,7i,9.592122109710791,0.9s : 0.3s,0.3906319185641099,0.06814925671091783,0.38464135842473673,0.043947548633366765,0.48390138149261475,-0.24380671977996826,0.093021921813488,0.002785325050354004,-0.041391998529434204,-0.014502808451652527,-0.2734554935151806,1.440308622779835,0.23893925877414415,0.9546577334403992,0.27006015181541443,-0.12528297305107117
1728067630648,7i,9.592122109710791,0.9s : 0.3s,0.39912683674243926,0.06902653601066017,0.39311266722708743,0.04142469017569092,0.5556546449661255,-0.24714453518390656,0.09505490213632584,-0.0121726393699646,-0.03251877427101135,-0.02259117364883423,-0.2718470928880958,1.436485647049799,0.23382311495454033,0.9546011686325073,0.2685111463069916,-0.12898969650268555
1728067630658,7i,9.592122109710791,0.9s : 0.3s,0.431591906482992,0.06987068703018767,0.42589865089661094,0.03887924901351588,0.7017889618873596,-0.24582494795322418,0.09436914324760437,-0.018703162670135498,-0.0036039352416992188,-0.03389394283294678,-0.27007400297587436,1.4323130011161425,0.22751096781404984,0.9545246958732605,0.26680275797843933,-0.1330372840166092
1728067630668,7i,9.592122109710791,0.9s : 0.3s,0.4736891295199892,0.07063860652153049,0.4683925476500469,0.03552125158119894,0.8136188387870789,-0.2176530510187149,0.10784859955310822,-0.019026339054107666,0.01591479778289795,-0.02542591094970703,-0.2680135112147179,1.4279819349552636,0.21984147175599225,0.9544816613197327,0.26481640338897705,-0.13724808394908905
1728067630678,7i,9.592122109710791,0.9s : 0.3s,0.52151432126521,0.0713695028634671,0.5166077635360644,0.0274075258291123,0.9107754826545715,-0.2123456448316574,0.1027904525399208,-0.01642787456512451,-0.004797935485839844,-0.021407410502433777,-0.26572651834123395,1.4235593259192398,0.2111884648359173,0.9544618725776672,0.2626103460788727,-0.1415565013885498
1728067630688,7i,9.592122109710791,0.9s : 0.3s,0.5746045735321246,0.07202853780998955,0.5700721933799172,0.014663361922070644,1.020123839378357,-0.17221547663211823,0.11337196081876755,-0.01167607307434082,0.005573958158493042,-0.006900325417518616,-0.2632488975765069,1.4190604230744803,0.20146816605674517,0.9544557332992554,0.26021888852119446,-0.14594700932502747
1728067630698,7i,9.592122109710791,0.9s : 0.3s,0.6395762734691585,0.07260674157281703,0.6354416343480132,0.022816286143587886,1.1659265756607056,-0.13721781969070435,0.12399318069219589,-0.017846763134002686,0.013471931219100952,-0.004536852240562439,-0.26039584684444517,1.4146886245145585,0.19048446684380962,0.9545378684997559,0.2574630677700043,-0.15023307502269745
1728067630708,7i,9.592122109710791,0.9s : 0.3s,0.731737639443345,0.07310009968210437,0.7280771582769131,0.03456431513808865,1.4083611965179443,-0.08271928876638412,0.11948727816343307,-0.02920907735824585,0.01847285032272339,-0.000524863600730896,-0.25717992405977697,1.4102221723830446,0.17760313778746373,0.954669713973999,0.25435423851013184,-0.1546265333890915
1728067630718,7i,9.592122109710791,0.9s : 0.3s,0.8640671538967395,0.07310138428059026,0.8609693572128296,0.0769632350134496,1.748422384262085,-0.004056173842400312,0.15678271651268005,-0.03394877910614014,0.06904897093772888,-0.0017491579055786133,-0.25326031100805135,1.4058073666240452,0.1617481508776649,0.9549539685249329,0.25056159496307373,-0.15900224447250366
1728067630728,7i,9.592122109710791,0.9s : 0.3s,1.025586430783776,0.07272207314974453,1.0230049008116278,0.10022399267362658,2.0878803730010986,0.06945879012346268,0.17799033224582672,-0.025700151920318604,0.09363414347171783,-0.02483944594860077,-0.24842112459807844,1.4013400564433758,0.14246501336926745,0.9554181098937988,0.2458738535642624,-0.16346928477287292
1728067630738,7i,9.592122109710791,0.9s : 0.3s,1.182373012836961,0.07205313678157958,1.1801755322684364,0.08434893793918213,2.3005943298339844,0.10202978551387787,0.17941433191299438,-0.00039446353912353516,0.08399716019630432,-0.007685363292694092,-0.24286131043939196,1.3968525007058512,0.12038402336636085,0.9560065865516663,0.2404809445142746,-0.167989119887352
1728067630748,7i,9.592122109710791,0.9s : 0.3s,1.328858141235862,0.07097644483379123,1.3269613045630178,0.10326802997367351,2.482348680496216,0.12878026068210602,0.15694518387317657,0.025423049926757812,0.09763972461223602,0.022009968757629395,-0.23701639022041798,1.3923185485873795,0.09645525466804504,0.9566020965576172,0.2348034828901291,-0.17256847023963928
1728067630758,7i,9.592122109710791,0.9s : 0.3s,1.4326911502822277,0.06947736435363559,1.431005530366492,0.1278851659126035,2.490506410598755,0.1269775629043579,0.10788548737764359,0.023987412452697754,0.12321266531944275,0.024451151490211487,-0.231181747152612,1.3878528237540229,0.07143803145723371,0.9571526050567627,0.22912798821926117,-0.17708484828472137
1728067630768,7i,9.592122109710791,0.9s : 0.3s,1.5063132498656315,0.06744808841153989,1.5048024329095129,0.1664960871191187,2.5001120567321777,0.11650774627923965,-0.0003387568867765367,-0.01661139726638794,0.1596491038799286,0.044239938259124756,-0.2260917397353567,1.3833746554088484,0.042962077847857175,0.9574835300445557,0.22417044639587402,-0.18158432841300964
1728067630778,7i,9.592122109710791,0.9s : 0.3s,1.5649953735990028,0.06481010691201661,1.563652828932412,0.23258297755333288,2.5347678661346436,0.12593773007392883,-0.053955111652612686,-0.049411237239837646,0.22467011213302612,0.03430323302745819,-0.22159702947351523,1.3789213967144112,0.014104082030491691,0.9576449394226074,0.21978788077831268,-0.18603672087192535
1728067630788,7i,9.592122109710791,0.9s : 0.3s,1.5871701049362645,0.061550252984336806,1.58597620043964,0.26325166960752705,2.4383444786071777,0.1440284103155136,-0.10065304487943649,-0.07147526741027832,0.24245429039001465,0.0735434889793396,-0.21758675768866198,1.3747690398157744,-0.014591579740178478,0.9577209949493408,0.21587391197681427,-0.19018173217773438
1728067630798,7i,9.592122109710791,0.9s : 0.3s,1.5522843376181157,0.05773243555818314,1.5512103760286782,0.26386835978202033,2.1851963996887207,0.1435258686542511,-0.14273472130298615,-0.06169158220291138,0.21885782480239868,0.13387274742126465,-0.21418783913790254,1.3711944705452728,-0.04153742991128377,0.9577486515045166,0.21255390346050262,-0.19374831020832062
1728067630808,7i,9.592122109710791,0.9s : 0.3s,1.5098732234295487,0.053172468514780795,1.5089366585187,0.3153284517723981,2.092730760574341,0.1435541957616806,-0.1800956130027771,-0.05147463083267212,0.25228649377822876,0.18202725052833557,-0.21158421003537792,1.3680772793721072,-0.06647556591671835,0.9576789140701294,0.21000903844833374,-0.19684360921382904
1728067630818,7i,9.592122109710791,0.9s : 0.3s,1.48970733291807,0.04832516624722965,1.488923307647861,0.34470785447042984,2.137457847595215,0.1267978399991989,-0.21985846757888794,-0.03381437063217163,0.3345681428909302,0.07579083740711212,-0.20922171700918188,1.3649202522211212,-0.09131912948425955,0.9575356245040894,0.20769865810871124,-0.19996687769889832
1728067630828,7i,9.592122109710791,0.9s : 0.3s,1.445373595382626,0.043601787483384634,1.444715790166894,0.31265953109927747,1.978545904159546,0.14078454673290253,-0.29561230540275574,-0.04956942796707153,0.2960554361343384,0.08746446669101715,-0.20747447616983228,1.3618415914196067,-0.11270000667346153,0.9572689533233643,0.20598919689655304,-0.20298881828784943
1728067630838,7i,9.592122109710791,0.9s : 0.3s,1.3821896329248133,0.03930698451876705,1.3816306099435087,0.28168284798991866,1.8078876733779907,0.11617054790258408,-0.3721124231815338,-0.08611565828323364,0.2414601743221283,0.11673176288604736,-0.2068344757970431,1.359127077348634,-0.13541811231727266,0.9568431973457336,0.20536288619041443,-0.20561425387859344
1728067630848,7i,9.592122109710791,0.9s : 0.3s,1.3314714177455877,0.035719958845159744,1.3309921941219438,0.2935757589041147,1.761296033859253,0.09923839569091797,-0.44281038641929626,-0.09862697124481201,0.27294063568115234,0.04430413246154785,-0.20703557072955053,1.3563680874545532,-0.15741542582571583,0.9562318921089172,0.20555968582630157,-0.20824460685253143
1728067630858,7i,9.592122109710791,0.9s : 0.3s,1.2744621288026803,0.033297999178657056,1.274027064470358,0.32371479455021235,1.6292394399642944,0.08761449158191681,-0.5389465093612671,-0.11393100023269653,0.29859286546707153,0.05151015520095825,-0.20818725075486225,1.3536129307377736,-0.17870567900724973,0.9554226994514465,0.20668663084506989,-0.21082721650600433
1728067630868,7i,9.592122109710791,0.9s : 0.3s,1.2456056782241407,0.032511897026638314,1.2451813049415537,0.36626516175207363,1.6577370166778564,0.07865122705698013,-0.6207492351531982,-0.13469010591506958,0.33880215883255005,0.034954845905303955,-0.21035309763629848,1.3508257354624555,-0.1994110544184398,0.9543921947479248,0.20880523324012756,-0.21339115500450134
1728067630878,7i,9.592122109710791,0.9s : 0.3s,1.2558526100830458,0.03426744731487341,1.2553850087948801,0.4526246377739372,1.7817531824111938,0.06564247608184814,-0.7089661955833435,-0.1530855894088745,0.4226028621196747,-0.05329808592796326,-0.21303811370024123,1.3476039516308687,-0.22121683526446237,0.9531495571136475,0.21143029630184174,-0.21634000539779663
1728067630888,7i,9.592122109710791,0.9s : 0.3s,1.2793629863478835,0.03857325605875632,1.2787813553356182,0.4861103605738445,1.830170750617981,0.10258793830871582,-0.793944239616394,-0.19759052991867065,0.44254499673843384,-0.03761902451515198,-0.21631886621834567,1.3441954236735334,-0.2441816639036608,0.9517255425453186,0.21463574469089508,-0.21943055093288422
1728067630898,7i,9.592122109710791,0.9s : 0.3s,1.322723885308293,0.04476249423360754,1.3219662612468794,0.4837061941860414,1.9324095249176025,0.10206622630357742,-0.8857032060623169,-0.2454296350479126,0.41615450382232666,0.023482024669647217,-0.2202814682354713,1.3408089505647929,-0.26771280473930653,0.9501414895057678,0.21850429475307465,-0.2224566787481308
1728067630908,7i,9.592122109710791,0.9s : 0.3s,1.3802436612556832,0.05274062068684352,1.379235654761745,0.5439774691180332,2.037477731704712,0.10815323144197464,-0.9722049236297607,-0.2606421709060669,0.477411687374115,-0.007431447505950928,-0.22477843066220432,1.3370152332282963,-0.29274591961865676,0.9483252167701721,0.22289037704467773,-0.22582972049713135
1728067630918,7i,9.592122109710791,0.9s : 0.3s,1.4166128494665613,0.061999901341698124,1.415255446026402,0.5743390507076839,1.9681016206741333,0.1334599256515503,-1.0689144134521484,-0.27232110500335693,0.5037119388580322,0.04450666904449463,-0.23001567169820944,1.3331674150571455,-0.31818613535108126,0.9463018178939819,0.22799278795719147,-0.2291990965604782
1728067630928,7i,9.592122109710791,0.9s : 0.3s,1.4641255579735262,0.07227785064780129,1.4623404397803623,0.5834854025475705,2.0246737003326416,0.1270614117383957,-1.190824270248413,-0.2913128733634949,0.5034201145172119,0.046478092670440674,-0.23625945431005965,1.329234131845123,-0.3408412601323684,0.9439923167228699,0.2340676337480545,-0.23257429897785187
1728067630938,7i,9.592122109710791,0.9s : 0.3s,1.511957898842853,0.08353058019286198,1.5096487439288448,0.6148162763851015,2.038872003555298,0.14337193965911865,-1.3036384582519531,-0.29790574312210083,0.5371929407119751,0.025980114936828613,-0.243480135687395,1.3250130924789456,-0.36705586119191524,0.9413383603096008,0.24108156561851501,-0.2361394613981247
1728067630948,7i,9.592122109710791,0.9s : 0.3s,1.5535053256767606,0.09557196286476796,1.550562735531921,0.636969917400515,2.001474142074585,0.1541874259710312,-1.4332531690597534,-0.29689663648605347,0.5619145035743713,0.0428386926651001,-0.25181942796359685,1.3206989917206005,-0.39331958494312896,0.9383302927017212,0.24916641414165497,-0.23969236016273499
1728067630958,7i,9.592122109710791,0.9s : 0.3s,1.5960430064718463,0.10830519112599644,1.5923640488540463,0.6598020591695142,1.9895505905151367,0.1649087816476822,-1.5586822032928467,-0.29019230604171753,0.5903705358505249,0.050890207290649414,-0.2613177739503989,1.3162498501646884,-0.4198159249971823,0.93492192029953,0.2583537995815277,-0.2432577908039093
1728067630968,7i,9.592122109710791,0.9s : 0.3s,1.641788898842123,0.1217207967099463,1.6372705445373184,0.6936264107353894,1.978622555732727,0.16179250180721283,-1.696720004081726,-0.28874826431274414,0.6268008947372437,0.06973288953304291,-0.2720344135681594,1.3115412531573947,-0.4464955349918883,0.9310362935066223,0.2686915993690491,-0.2469332218170166
1728067630978,7i,9.592122109710791,0.9s : 0.3s,1.6946180567669302,0.13586832217206246,1.6891625609605119,0.7203843751126898,1.9878836870193481,0.1428542286157608,-1.8402025699615479,-0.2800239324569702,0.6633350849151611,0.022952347993850708,-0.2839782495744172,1.3062543771955268,-0.4737478584887769,0.9265539646148682,0.2801767587661743,-0.2509949803352356
1728067630988,7i,9.592122109710791,0.9s : 0.3s,1.7494453634777807,0.15064544681246825,1.742947225003837,0.7416408459301088,1.9756393432617188,0.13401275873184204,-1.9787741899490356,-0.2625346779823303,0.6931703686714172,0.024930447340011597,-0.2971609085833871,1.300440752600609,-0.5013555058961953,0.9214395880699158,0.2928067445755005,-0.2553686797618866
1728067630998,7i,9.592122109710791,0.9s : 0.3s,1.824175298418595,0.16598594105563227,1.8166078791892448,0.7624915078632482,2.063343048095703,0.12296489626169205,-2.1378984451293945,-0.25107747316360474,0.7192779779434204,0.031505435705184937,-0.3115556662591778,1.293890592722544,-0.5298337397833465,0.9155976176261902,0.30653977394104004,-0.26021942496299744
1728067631008,7i,9.592122109710791,0.9s : 0.3s,1.8998036074992886,0.18188726992429724,1.891076616138753,0.7863860881557929,2.083204746246338,0.13224366307258606,-2.273181438446045,-0.22817951440811157,0.7524797916412354,-0.01055234670639038,-0.32693703659868195,1.2864254961396389,-0.5597303557006007,0.9089961051940918,0.3211438059806824,-0.265692800283432
1728067631018,7i,9.592122109710791,0.9s : 0.3s,1.9535368940406934,0.19790653650694628,1.943486403138953,0.763594681631343,1.9206708669662476,0.11774221062660217,-2.427687883377075,-0.20158684253692627,0.7302873730659485,0.09549835324287415,-0.34381385776152595,1.2787632037878376,-0.589099152094986,0.9016143679618835,0.337080180644989,-0.2710508108139038
1728067631028,7i,9.592122109710791,0.9s : 0.3s,2.0164461703265144,0.21396686854635474,2.0050619284672813,0.7507796696283363,1.9021525382995605,0.09859159588813782,-2.5967512130737305,-0.16072863340377808,0.7282207012176514,0.08678150177001953,-0.36231097114887584,1.270362124103807,-0.6164498422484954,0.8931962251663208,0.35443612933158875,-0.2767229676246643
1728067631038,7i,9.592122109710791,0.9s : 0.3s,2.080371351660873,0.23016152074837587,2.0676002116410426,0.7942726687618936,1.870524525642395,0.09115765243768692,-2.735116958618164,-0.10023647546768188,0.7824251651763916,0.09291169047355652,-0.3820602738078775,1.2611724358438663,-0.644382080438702,0.8837751746177673,0.3728329837322235,-0.2827310264110565
1728067631048,7i,9.592122109710791,0.9s : 0.3s,2.1531224426888924,0.24642913915475378,2.138973803623137,0.7994440835105994,1.886373519897461,0.0736495852470398,-2.8852145671844482,-0.05547523498535156,0.7919306755065918,0.09422922134399414,-0.40298559051200217,1.2510515966185474,-0.67309002507933,0.8732699751853943,0.39216652512550354,-0.2891450524330139
1728067631058,7i,9.592122109710791,0.9s : 0.3s,2.2239080723298756,0.26270751106305223,2.2083369031479414,0.7667442138667393,1.8441659212112427,0.05952364578843117,-3.026193618774414,-0.022544503211975098,0.7615476846694946,0.08621808886528015,-0.42500586137367785,1.2397838138205333,-0.7027876130647114,0.8615794777870178,0.4123261272907257,-0.29608744382858276
1728067631068,7i,9.592122109710791,0.9s : 0.3s,2.286131253240656,0.27893710978022157,2.2690505053504535,0.7555454249148909,1.720015287399292,0.04554200544953346,-3.1734344959259033,0.010670006275177002,0.7463335990905762,0.11713752150535583,-0.4484310050351833,1.2276658794297677,-0.7326359072594112,0.8485981225967407,0.43355220556259155,-0.30317267775535583
1728067631078,7i,9.592122109710791,0.9s : 0.3s,2.350007447578921,0.29507343470928576,2.3314087311763374,0.759530776058806,1.7020741701126099,0.023296620696783066,-3.2895331382751465,0.08215737342834473,0.7480478286743164,0.10276970267295837,-0.4729559459680547,1.2145519145231323,-0.76291202550984,0.8343313336372375,0.45551973581314087,-0.31047236919403076
1728067631088,7i,9.592122109710791,0.9s : 0.3s,2.4168803512861126,0.31107653197916435,2.3967774247277736,0.7746873708981651,1.6653540134429932,-0.006468287669122219,-3.427356719970703,0.15926486253738403,0.7494361996650696,0.11454522609710693,-0.4983891808925949,1.2000344459377688,-0.7942061275008084,0.818670928478241,0.47801128029823303,-0.31825006008148193
1728067631098,7i,9.592122109710791,0.9s : 0.3s,2.486454764004237,0.326547732685086,2.4649186338939453,0.805160733522912,1.645887851715088,-0.02919836714863777,-3.5570480823516846,0.22446316480636597,0.7651588320732117,0.1114991307258606,-0.5247540191594681,1.1839452608641805,-0.8267080377132974,0.8014920353889465,0.501000165939331,-0.3265107572078705
1728067631108,7i,9.592122109710791,0.9s : 0.3s,2.555978884064406,0.3416753844262423,2.5330388839219005,0.8389780404160816,1.579046607017517,-0.06472267210483551,-3.6986494064331055,0.29661357402801514,0.7780954241752625,0.10233303904533386,-0.5520578986350382,1.166243157420743,-0.8603085317428338,0.7827168107032776,0.5244405269622803,-0.33513638377189636
1728067631118,7i,9.592122109710791,0.9s : 0.3s,2.6273742996688676,0.3566164229043114,2.603059822108475,0.8799811809138972,1.5555918216705322,-0.113308846950531,-3.8256421089172363,0.3753334879875183,0.7918978333473206,0.07993417978286743,-0.5804540254370532,1.146606971551007,-0.8952238191429422,0.7621023654937744,0.5484036803245544,-0.34417062997817993
1728067631128,7i,9.592122109710791,0.9s : 0.3s,2.6995093106640566,0.37141320151899304,2.673836710066518,0.9156447370704524,1.6046286821365356,-0.17881639301776886,-3.915597677230835,0.45795291662216187,0.790625810623169,0.05996030569076538,-0.6090341638996422,1.1244088740025546,-0.9321769354485857,0.7398315072059631,0.5720755457878113,-0.35408878326416016
1728067631138,7i,9.592122109710791,0.9s : 0.3s,2.767265438075659,0.38601952842662474,2.7402092855184175,0.9228264466460534,1.6528476476669312,-0.21975822746753693,-3.9816248416900635,0.5144415497779846,0.7647584080696106,0.04585978388786316,-0.6372441490651659,1.099300446798724,-0.9717828286741615,0.7160423994064331,0.5949827432632446,-0.36507365107536316
1728067631148,7i,9.592122109710791,0.9s : 0.3s,2.825603345373364,0.4001530720570169,2.7971256289820947,0.8883924768013306,1.6108990907669067,-0.2909603416919708,-4.051599502563477,0.5531038045883179,0.6941147446632385,0.03901404142379761,-0.6651338886507472,1.071419659027335,-1.0135712119174447,0.6907469034194946,0.6171644926071167,-0.3767978549003601
1728067631158,7i,9.592122109710791,0.9s : 0.3s,2.8710525523679684,0.4143499689334577,2.8409957517925766,0.8725563254247883,1.4262349605560303,-0.3772246539592743,-4.141575336456299,0.5957384705543518,0.6350123286247253,0.056652963161468506,-0.6933031466850621,1.0411011732371487,-1.0564901890322504,0.6637372374534607,0.6390812397003174,-0.3886232078075409
1728067631168,7i,9.592122109710791,0.9s : 0.3s,2.915476568135764,0.42810878536707375,2.8838735213667435,0.916428861806267,1.340836763381958,-0.43119505047798157,-4.2288947105407715,0.6436903476715088,0.6508431434631348,0.043678343296051025,-0.7219888255113766,1.0084072127171966,-1.100540283568385,0.6349046230316162,0.660878598690033,-0.4001694321632385
1728067631178,7i,9.592122109710791,0.9s : 0.3s,2.962317235906283,0.44202481942861016,2.929153028634138,0.9996346652591304,1.3390053510665894,-0.5055106282234192,-4.297944068908691,0.7109006643295288,0.7023152112960815,-0.025358498096466064,-0.750337609950482,0.9723647752971055,-1.147232649816953,0.6043459177017212,0.6818857192993164,-0.4120652675628662
1728067631188,7i,9.592122109710791,0.9s : 0.3s,3.0077124762122533,0.4562034300024856,2.9729131790243746,1.0351023959225065,1.3705112934112549,-0.5634759664535522,-4.340782642364502,0.7608462572097778,0.6992129683494568,-0.06042489409446716,-0.7776685572951303,0.9324156369879183,-1.1972360275707494,0.5722225308418274,0.7016200423240662,-0.42460623383522034
1728067631198,7i,9.592122109710791,0.9s : 0.3s,3.0483061048169486,0.47032479941402605,3.011804225330796,1.018829901355667,1.349734902381897,-0.6448382139205933,-4.379523754119873,0.7941330671310425,0.6333038806915283,-0.07932990789413452,-0.8037555914592832,0.8884482451034034,-1.2505945617674437,0.538615345954895,0.7199675440788269,-0.43765315413475037
1728067631208,7i,9.592122109710791,0.9s : 0.3s,3.0757077291828154,0.4841371275946853,3.0373655158770863,0.9963594039824964,1.2666397094726562,-0.7464278340339661,-4.381844520568848,0.8231940865516663,0.5554769039154053,-0.08080202341079712,-0.8286036864404097,0.8406204026009804,-1.3066840250577387,0.5035882592201233,0.7369883060455322,-0.45082950592041016
1728067631218,7i,9.592122109710791,0.9s : 0.3s,3.095691562610742,0.49805800958733415,3.055363230436807,0.9904609453035592,1.2167009115219116,-0.8229734301567078,-4.382758140563965,0.8360825777053833,0.5232940912246704,-0.09023359417915344,-0.852024878122204,0.7891348725491958,-1.3652250444739746,0.4673384428024292,0.7526152729988098,-0.46385881304740906
1728067631228,7i,9.592122109710791,0.9s : 0.3s,3.118291016974316,0.5119628738043334,3.0759767363211186,1.0077376499465456,1.238340973854065,-0.886378824710846,-4.404280662536621,0.8411698341369629,0.541570246219635,-0.1211203932762146,-0.8734759282797504,0.7336056832103041,-1.4270586894985595,0.4299635589122772,0.7665656805038452,-0.4769783914089203
1728067631238,7i,9.592122109710791,0.9s : 0.3s,3.144173166182448,0.526200606827494,3.0998286759619695,1.0352640582209227,1.2748316526412964,-0.9318283796310425,-4.432326316833496,0.8581885099411011,0.5642253756523132,-0.13013023138046265,-0.8925436024011131,0.6735773797227691,-1.4929856326494833,0.3913842737674713,0.7786701917648315,-0.49039900302886963
1728067631248,7i,9.592122109710791,0.9s : 0.3s,3.171848190511393,0.5408716643821324,3.12539258115183,1.0743953649935374,1.3507955074310303,-1.0082334280014038,-4.440284252166748,0.9029865264892578,0.5630275011062622,-0.14812415838241577,-0.9085223793978486,0.6090610674093024,-1.562952409746873,0.3517895042896271,0.788595974445343,-0.5043416619300842
1728067631258,7i,9.592122109710791,0.9s : 0.3s,3.2038690353596615,0.5561146183232987,3.155235859174965,1.1024412354616642,1.4542073011398315,-1.0798224210739136,-4.455571174621582,0.9215996861457825,0.5727106332778931,-0.19502109289169312,-0.9210152807415041,0.5402504891971774,-1.6365559787336412,0.3111884295940399,0.7962163090705872,-0.5188460946083069
1728067631268,7i,9.592122109710791,0.9s : 0.3s,3.2398428107349626,0.5717830479726714,3.1889881756322187,1.099823462212519,1.5525990724563599,-1.1526120901107788,-4.474576950073242,0.9200822114944458,0.5489753484725952,-0.2483675479888916,-0.9293209570862011,0.46746798867099376,-1.7136999070284098,0.2696455717086792,0.801213800907135,-0.5341794490814209
1728067631278,7i,9.592122109710791,0.9s : 0.3s,3.2746206173875922,0.5878179425497061,3.221429846238549,1.080558403492027,1.5748244524002075,-1.234082818031311,-4.4923882484436035,0.9323555827140808,0.4999728202819824,-0.21987885236740112,-0.933807939247523,0.39190529303963945,-1.7929803043697923,0.22717507183551788,0.8038906455039978,-0.5496828556060791
1728067631288,7i,9.592122109710791,0.9s : 0.3s,3.3077000796765486,0.6040460474338356,3.252077519013316,1.0971136771681615,1.588688611984253,-1.327077031135559,-4.504403114318848,0.9493984580039978,0.49098533391952515,-0.24745583534240723,-0.9345267163338621,0.31455515072085694,-1.8732064187672688,0.18384133279323578,0.8043179512023926,-0.5650442242622375
1728067631298,7i,9.592122109710791,0.9s : 0.3s,3.3442910830803227,0.6207821657804529,3.286169860341898,1.1303010717527953,1.6686564683914185,-1.3936220407485962,-4.524853229522705,0.9613714218139648,0.5246763229370117,-0.27939265966415405,-0.9311964948698265,0.23630139609176531,-1.9536055755772943,0.13973329961299896,0.8023346662521362,-0.580287516117096
1728067631308,7i,9.592122109710791,0.9s : 0.3s,3.392257620756752,0.6385310276129113,3.3316197100446296,1.1838159090551774,1.8159288167953491,-1.4608501195907593,-4.568329811096191,0.9761667251586914,0.5981441140174866,-0.30123454332351685,-0.9229140868293806,0.15799644459816378,-2.033713426242395,0.09495451301336288,0.7973636388778687,-0.5959822535514832
1728067631318,7i,9.592122109710791,0.9s : 0.3s,3.453355902966037,0.6574732370087056,3.3901911354918712,1.243004505901381,2.106656312942505,-1.5522046089172363,-4.574246406555176,0.9941080212593079,0.6431695818901062,-0.37834155559539795,-0.9085672373020117,0.08081789597976524,-2.1119808842940597,0.04963893070816994,0.788623571395874,-0.612869381904602
1728067631328,7i,9.592122109710791,0.9s : 0.3s,3.4910686630557244,0.6767382239538541,3.4248482866266454,1.14860525024817,1.9926209449768066,-1.6437242031097412,-4.547940731048584,1.0021108388900757,0.5060439705848694,-0.2428731918334961,-0.8898479289093394,0.006342482945497246,-2.1867492276022205,0.003992757759988308,0.7769760489463806,-0.6295174956321716
1728067631338,7i,9.592122109710791,0.9s : 0.3s,3.502512600081269,0.6952840070515467,3.432808567815339,1.1011030862385551,1.6888706684112549,-1.8125629425048828,-4.518743515014648,1.0185209512710571,0.37671107053756714,-0.18202155828475952,-0.8701371716331258,-0.06507844700749586,-2.2570045319256895,-0.041927874088287354,0.7644174098968506,-0.6433568596839905
1728067631348,7i,9.592122109710791,0.9s : 0.3s,3.5043878670820874,0.7136906375389247,3.4309444759193384,1.1031426592335378,1.4834052324295044,-1.9432185888290405,-4.486280918121338,1.0146602392196655,0.35701268911361694,-0.24480658769607544,-0.849928403268931,-0.1341814035366539,-2.3233157600418233,-0.08829915523529053,0.7512331604957581,-0.6541039347648621
1728067631358,7i,9.592122109710791,0.9s : 0.3s,3.495903018584931,0.7320841675362642,3.418390072386995,1.0909850625890751,1.4457374811172485,-1.9804186820983887,-4.434857368469238,0.9881238341331482,0.39961761236190796,-0.23273473978042603,-0.8281159332353947,-0.20008560181302956,-2.3854690644624146,-0.1344098150730133,0.7366585731506348,-0.6627730131149292
1728067631368,7i,9.592122109710791,0.9s : 0.3s,3.494096454926085,0.7503501067355641,3.412577435553509,1.0607629509413723,1.4371799230575562,-2.024106025695801,-4.413232326507568,0.9579522013664246,0.39537400007247925,-0.22632944583892822,-0.8039528820386062,-0.26234647405822364,-2.4434830366425766,-0.17995229363441467,0.720104455947876,-0.6701244711875916
1728067631378,7i,9.592122109710791,0.9s : 0.3s,3.4960510327248517,0.7686851583330222,3.410497903646187,1.06837320094028,1.3695430755615234,-2.1084983348846436,-4.402770042419434,0.978767991065979,0.3795982599258423,-0.19834232330322266,-0.7777815518128001,-0.3216162955693637,-2.4978080487453136,-0.2252126783132553,0.7017005681991577,-0.6759405136108398
1728067631388,7i,9.592122109710791,0.9s : 0.3s,3.4984105494788533,0.7873607969365359,3.408656531267472,1.1254524724189139,1.3006808757781982,-2.19899845123291,-4.3866963386535645,1.0339808464050293,0.4098697304725647,-0.1718536615371704,-0.7501855521398401,-0.37826386692518377,-2.548608982994076,-0.270171582698822,0.6817744970321655,-0.6798462271690369
1728067631398,7i,9.592122109710791,0.9s : 0.3s,3.497747014041458,0.8065738239678196,3.4034795196571794,1.1614660149882,1.297100305557251,-2.273507595062256,-4.3227219581604,1.0642192363739014,0.42741096019744873,-0.1837405562400818,-0.7211321855125902,-0.43234166140941904,-2.595778331970976,-0.3146921694278717,0.6602354049682617,-0.6819515228271484
1728067631408,7i,9.592122109710791,0.9s : 0.3s,3.5003260093312245,0.8260718284893455,3.401453734181449,1.1322974382628304,1.3424071073532104,-2.325828790664673,-4.290126800537109,1.0432100296020508,0.3985578417778015,-0.186981201171875,-0.690237605661578,-0.4832387230382751,-2.6398316742756207,-0.3582887649536133,0.6367204189300537,-0.68280029296875
1728067631418,7i,9.592122109710791,0.9s : 0.3s,3.5046136368756877,0.84562467432964,3.4010639003023635,1.0889230348531125,1.3665518760681152,-2.3980603218078613,-4.269481658935547,1.010359287261963,0.3704795837402344,-0.1663501262664795,-0.6576461210938235,-0.531502661763981,-2.6804211874552126,-0.40112149715423584,0.6112555861473083,-0.6822521686553955
1728067631428,7i,9.592122109710791,0.9s : 0.3s,3.508451038136934,0.8653888807379466,3.4000486426078163,1.1028131442219646,1.4664175510406494,-2.4257922172546387,-4.2068047523498535,1.0251249074935913,0.37951821088790894,-0.14588242769241333,-0.6233631937636148,-0.5769305714992662,-2.7161169347231264,-0.4428647756576538,0.5837690830230713,-0.6805030703544617
1728067631438,7i,9.592122109710791,0.9s : 0.3s,3.510673826452986,0.8852485326956644,3.397229128437207,1.0890572860926466,1.4734588861465454,-2.4694201946258545,-4.14691686630249,1.0271100997924805,0.34412479400634766,-0.11255550384521484,-0.5875736257391018,-0.6195993610718609,-2.7480377813076546,-0.4833172559738159,0.5543432235717773,-0.6775751113891602
1728067631449,7i,9.592122109710791,0.9s : 0.3s,3.4858240026398364,0.9051714776821635,3.3662491846817724,1.120863448343803,1.3712183237075806,-2.552145481109619,-3.992631196975708,1.0846915245056152,0.28174299001693726,-0.020001351833343506,-0.5518420577806724,-0.6601045046195659,-2.77663778760415,-0.522176206111908,0.5242567658424377,-0.6726714372634888
1728067631459,7i,9.592122109710791,0.9s : 0.3s,3.456645826287289,0.9249208500513105,3.3306038175576655,1.0851821042098282,1.2814370393753052,-2.6213059425354004,-3.886608839035034,1.065587043762207,0.20261028409004211,-0.03306847810745239,-0.5168237832208181,-0.6992432109015465,-2.8026409913180346,-0.5595749616622925,0.494121253490448,-0.6653720736503601
1728067631469,7i,9.592122109710791,0.9s : 0.3s,3.4250296230615125,0.9438110974949129,3.2924228967576954,1.0535518286061023,1.2652523517608643,-2.6425371170043945,-3.7868595123291016,1.0375953912734985,0.17313793301582336,-0.058228135108947754,-0.4819977874990854,-0.736816205920638,-2.82603620048792,-0.5953803658485413,0.46355026960372925,-0.6562341451644897
1728067631479,7i,9.592122109710791,0.9s : 0.3s,3.3888407546471155,0.9620693775150216,3.2494098192141125,1.0343077955017146,1.253176212310791,-2.6625359058380127,-3.6697123050689697,1.019411325454712,0.16424745321273804,-0.06013268232345581,-0.44729003891203756,-0.7726290406791851,-2.8467616504952584,-0.6293507218360901,0.4325237572193146,-0.6456320285797119
1728067631489,7i,9.592122109710791,0.9s : 0.3s,3.3521257788858003,0.97961577804922,3.2057916596166622,1.0114282407397392,1.197625994682312,-2.6864192485809326,-3.5817627906799316,1.0028188228607178,0.10984277725219727,-0.07263648509979248,-0.4128648654968313,-0.8070389645234632,-2.8651904895700873,-0.6615560054779053,0.40123510360717773,-0.633525013923645
1728067631499,7i,9.592122109710791,0.9s : 0.3s,3.3137347856937773,0.9971521517928285,3.160146486492662,1.0377871959915235,1.0992685556411743,-2.719681978225708,-3.490746021270752,1.034940481185913,0.07494178414344788,-0.016858041286468506,-0.37912885188909873,-0.8406253749806812,-2.8821263193761806,-0.692151665687561,0.3701113164424896,-0.6196317672729492
1728067631509,7i,9.592122109710791,0.9s : 0.3s,3.276399896424921,1.014715656867022,3.115308719373116,1.062968902508217,0.9815297722816467,-2.7529656887054443,-3.4168546199798584,1.060023307800293,0.07088890671730042,0.03504621982574463,-0.3462190245283229,-0.8736024341438784,-2.8979101721754104,-0.7211560010910034,0.3393436074256897,-0.6039701700210571
1728067631519,7i,9.592122109710791,0.9s : 0.3s,3.2364660345315364,1.0323311285148415,3.067410118287993,1.068934218476023,0.9370986819267273,-2.748439073562622,-3.3217289447784424,1.0646228790283203,0.09284543991088867,0.02404606342315674,-0.3140075666870736,-0.9058849031482433,-2.9125146664062336,-0.7484912276268005,0.3088727295398712,-0.5868207812309265
1728067631529,7i,9.592122109710791,0.9s : 0.3s,3.185153489910218,1.0499568984370555,3.0071237529758696,1.0807791702699843,0.9085037708282471,-2.6904242038726807,-3.1973648071289062,1.0739953517913818,0.10344070196151733,0.06259089708328247,-0.28247239748529984,-0.9368990720419558,-2.925488969581802,-0.7737937569618225,0.2787308990955353,-0.5688164234161377
1728067631539,7i,9.592122109710791,0.9s : 0.3s,3.126168613360662,1.0675758632885877,2.938232798007154,1.053449577554893,0.8697412014007568,-2.6381633281707764,-3.073198080062866,1.0461735725402832,0.0368439257144928,0.1179804801940918,-0.2517253008109037,-0.966498862713123,-2.9367713703905918,-0.7969670295715332,0.249075248837471,-0.5502772927284241
1728067631549,7i,9.592122109710791,0.9s : 0.3s,3.0549878959514687,1.0850023866974254,2.8558222748047317,1.0437851023036198,0.7607663869857788,-2.5819361209869385,-2.923318862915039,1.0254175662994385,-0.06000043451786041,0.18548882007598877,-0.22224100671441113,-0.9950506781254008,-2.9469265398335023,-0.8181573748588562,0.22041606903076172,-0.5310698747634888
1728067631559,7i,9.592122109710791,0.9s : 0.3s,2.979682451300305,1.102125698473808,2.7683616915696936,1.0437977248069474,0.663985013961792,-2.539930582046509,-2.7845966815948486,1.0052051544189453,-0.12710236012935638,0.2508411407470703,-0.19431719065618275,-1.0226015790253122,-2.9563916244686665,-0.8374042510986328,0.19309662282466888,-0.5113392472267151
1728067631569,7i,9.592122109710791,0.9s : 0.3s,2.904576398058424,1.1182798079170935,2.680674229249604,1.073760278201363,0.6648709177970886,-2.489957094192505,-2.6462931632995605,1.015909194946289,-0.17374049127101898,0.30117085576057434,-0.16759649786182146,-1.0492752209177711,-2.9646939802826036,-0.8549135327339172,0.16681300103664398,-0.49121907353401184
1728067631579,7i,9.592122109710791,0.9s : 0.3s,2.8209387931461527,1.1332694735784128,2.5832916937373103,1.110760611727996,0.75667405128479,-2.3915512561798096,-2.4619345664978027,1.0314878225326538,-0.21866416931152344,0.3492964208126068,-0.14185367588135803,-1.0747009326652746,-2.971088232360887,-0.8706142902374268,0.14137841761112213,-0.4712141752243042
1728067631589,7i,9.592122109710791,0.9s : 0.3s,2.729397109577917,1.1470373544713102,2.4766739569874243,1.095346947549785,0.8682449460029602,-2.2745609283447266,-2.2684333324432373,0.9951076507568359,-0.2961435914039612,0.34906256198883057,-0.11710502293736894,-1.098553236266737,-2.9748886029442088,-0.8844507336616516,0.11683755367994308,-0.45176947116851807
1728067631599,7i,9.592122109710791,0.9s : 0.3s,2.617917995694544,1.1594539901523444,2.347160215430797,1.166401928394114,0.8879480361938477,-2.1144096851348877,-2.022045135498047,0.9913240075111389,-0.4156898856163025,0.4527384340763092,-0.09392853728078454,-1.1207551001455147,-2.9765758581940833,-0.8964599967002869,0.09379048645496368,-0.4330851137638092
1728067631609,7i,9.592122109710791,0.9s : 0.3s,2.4870313378948046,1.1704311487267653,2.1944055691145534,1.248652029321355,0.884971022605896,-1.9178898334503174,-1.7621674537658691,0.9796037077903748,-0.5361030101776123,0.5586609244346619,-0.0730331762529705,-1.1409110015390334,-2.9765926060793544,-0.9065904021263123,0.0729682669043541,-0.41565558314323425
1728067631619,7i,9.592122109710791,0.9s : 0.3s,2.3404759847163876,1.1801279221476433,2.021169444257861,1.2874049580172473,0.8505504727363586,-1.6803630590438843,-1.5208840370178223,0.9555246829986572,-0.609795331954956,0.6103554368019104,-0.05450926297839935,-1.1588494165724956,-2.975335413202004,-0.91498202085495,0.05448227375745773,-0.3997994363307953
1728067631629,7i,9.592122109710791,0.9s : 0.3s,2.1833757568204564,1.1888868944948945,1.8313049029502393,1.37595287025797,0.7954903841018677,-1.4256553649902344,-1.2877572774887085,0.9584527015686035,-0.6611721515655518,0.7331207990646362,-0.038363601125941726,-1.1742974146490366,-2.973298423698937,-0.921739935874939,0.038354191929101944,-0.38590705394744873
1728067631639,7i,9.592122109710791,0.9s : 0.3s,2.0165342823686196,1.1970067598208547,1.6228325018038994,1.4757784369165245,0.7173758745193481,-1.150420069694519,-1.0332245826721191,0.9700633883476257,-0.7207311987876892,0.8470215797424316,-0.024765111979935323,-1.187141273140405,-2.9707657324043937,-0.927018404006958,0.024762580171227455,-0.3741975426673889
1728067631649,7i,9.592122109710791,0.9s : 0.3s,1.8448103160251361,1.2047000091285571,1.3971481632663076,1.534765274972683,0.7107027173042297,-0.832953155040741,-0.7476202249526978,0.9669642448425293,-0.7768250107765198,0.9038957357406616,-0.01387078186269523,-1.197009824632823,-2.9674943139747336,-0.9308618903160095,0.013870337046682835,-0.3651079833507538
1728067631659,7i,9.592122109710791,0.9s : 0.3s,1.67426607724825,1.2121783238660848,1.1548985273925376,1.6090068742282475,0.6704607605934143,-0.49430981278419495,-0.4453418552875519,0.9627951979637146,-0.8232175707817078,0.9920893907546997,-0.00578901943745391,-1.2036239037220329,-2.9631919503313684,-0.9333304166793823,0.005788987036794424,-0.3589717149734497
1728067631669,7i,9.592122109710791,0.9s : 0.3s,1.5184398880151213,1.2197103121050998,0.9044149755835835,1.7021883791063563,0.6468466520309448,-0.1480926126241684,-0.11730355769395828,0.9761232733726501,-0.8738710880279541,1.0867280960083008,-0.0007784203142173303,-1.2068448485765022,-2.958087957612318,-0.9344972372055054,0.000778420246206224,-0.35596954822540283
1728067631679,7i,9.592122109710791,0.9s : 0.3s,1.3939442272343805,1.2278320209939115,0.6599310849339206,1.7934927867442003,0.6305240988731384,0.20996539294719696,0.25526946783065796,1.022249698638916,-0.8948257565498352,1.1708581447601318,0.0007888319947128556,-1.2065421613997411,-2.9519593689774335,-0.9343894720077515,-0.0007888319087214768,-0.35625240206718445
1728067631689,7i,9.592122109710791,0.9s : 0.3s,1.3237452414570798,1.2368735484941196,0.4716410598281574,1.9146504688752404,0.607049286365509,0.5964051485061646,0.6448943614959717,1.0713307857513428,-0.9468982815742493,1.2733893394470215,-0.001219615641386817,-1.202562776162973,-2.944663919439369,-0.9329639673233032,0.0012196153402328491,-0.3599676787853241
1728067631699,7i,9.592122109710791,0.9s : 0.3s,1.3360660540809823,1.2470107876354575,0.4796213051860003,1.9944602314570694,0.6471149325370789,1.0152604579925537,1.0338093042373657,1.0995228290557861,-0.9967993497848511,1.3324084281921387,-0.006748155728511825,-1.1944637936440223,-2.935813647325457,-0.9299975633621216,0.006748104467988014,-0.3675037622451782
1728067631709,7i,9.592122109710791,0.9s : 0.3s,1.440067021854313,1.2585230084133787,0.6999377577517086,2.0792122677200795,0.673622727394104,1.4424089193344116,1.442194938659668,1.1690715551376343,-1.0755232572555542,1.3415085077285767,-0.015740000607905542,-1.1820802498666052,-2.9250164286016633,-0.9252817034721375,0.015739351511001587,-0.37895360589027405
1728067631719,7i,9.592122109710791,0.9s : 0.3s,1.6248326098963355,1.271835355918567,1.0111952519756162,2.1788269295124363,0.6428062319755554,1.898558259010315,1.8383244276046753,1.2583365440368652,-1.1356605291366577,1.3689963817596436,-0.02831873950681529,-1.1651070799667442,-2.912575673736927,-0.9184621572494507,0.028314955532550812,-0.3944939076900482
1728067631729,7i,9.592122109710791,0.9s : 0.3s,1.8773310126809652,1.2876081434522009,1.3661760501814235,2.2620248688060522,0.6401582360267639,2.3615078926086426,2.2546629905700684,1.3835926055908203,-1.1536715030670166,1.3680168390274048,-0.04444847529155237,-1.1432936898122972,-2.8984271036420854,-0.9091051816940308,0.0444338396191597,-0.41418999433517456
1728067631739,7i,9.592122109710791,0.9s : 0.3s,2.1755406198587255,1.306395161456591,1.7396288888087872,2.343959623719694,0.6661195158958435,2.8107736110687256,2.6454436779022217,1.5330793857574463,-1.178296446800232,1.3249270915985107,-0.06382256098774451,-1.116503261495723,-2.8820567089594236,-0.8967419862747192,0.06377924233675003,-0.4379337430000305
1728067631749,7i,9.592122109710791,0.9s : 0.3s,2.506973095324052,1.3287406408142548,2.125879208733926,2.453817857968982,0.7512062788009644,3.2561347484588623,3.045551300048828,1.7046564817428589,-1.1966363191604614,1.2974705696105957,-0.08599395486692472,-1.0847313317820166,-2.86281985132533,-0.8809106945991516,0.08588800579309464,-0.4654240310192108
1728067631759,7i,9.592122109710791,0.9s : 0.3s,2.8696138307962706,1.3552477663323095,2.529424248667774,2.595550041594069,0.8455876708030701,3.7442493438720703,3.4735898971557617,1.9123163223266602,-1.2114168405532837,1.269801378250122,-0.11064448666998491,-1.047497548375163,-2.8399855680554276,-0.8608787655830383,0.11041887104511261,-0.49668431282043457
1728067631769,7i,9.592122109710791,0.9s : 0.3s,3.2683855425541726,1.3865928968246033,2.9596797450488936,2.793043550269658,0.9772932529449463,4.236098766326904,4.000373840332031,2.1627819538116455,-1.2377480268478394,1.2615253925323486,-0.1378577899413796,-1.0042229714132553,-2.8126629787453017,-0.8357402086257935,0.13742154836654663,-0.5316516757011414
1728067631779,7i,9.592122109710791,0.9s : 0.3s,3.70445054659928,1.42373131282299,3.41993318664079,3.1216446573959895,1.0587021112442017,4.803327560424805,4.54606819152832,2.502000093460083,-1.3337624073028564,1.3060393333435059,-0.16758405699653753,-0.9541326406924637,-2.77993223525059,-0.804383397102356,0.16680073738098145,-0.5702147483825684
1728067631789,7i,9.592122109710791,0.9s : 0.3s,4.18595974828561,1.4678451855630967,3.9201644768410633,3.5408685633676567,1.0352270603179932,5.421575546264648,5.201394557952881,2.9000062942504883,-1.451496958732605,1.4215731620788574,-0.20011386419851182,-0.8960312448816027,-2.741644376692385,-0.765271008014679,0.19878092408180237,-0.612247109413147
1728067631799,7i,9.592122109710791,0.9s : 0.3s,4.722703791874481,1.520347418481274,4.471294536585901,4.004406821690155,1.0568310022354126,6.074808597564697,5.970944881439209,3.3889591693878174,-1.5546650886535645,1.4605636596679688,-0.23572079525234158,-0.8287247397402917,-2.6962833365788024,-0.7166873812675476,0.23354390263557434,-0.6571273803710938
1728067631809,7i,9.592122109710791,0.9s : 0.3s,5.30223477308499,1.5826987999516078,5.060509667765034,4.544911050070119,1.0165164470672607,6.775250434875488,6.717299461364746,3.9363162517547607,-1.6726536750793457,1.537485122680664,-0.2734614375851803,-0.7509417452049381,-2.6424635755384562,-0.6569734811782837,0.27006587386131287,-0.7038822770118713
1728067631819,7i,9.592122109710791,0.9s : 0.3s,5.930010552028199,1.6570405659516634,5.693789749363457,5.192380069576212,1.0004849433898926,7.518810749053955,7.535024166107178,4.624139785766602,-1.7024465799331665,1.6370148658752441,-0.31195879836206974,-0.6611930291745961,-2.5791009329517838,-0.5844208598136902,0.3069234788417816,-0.7511659264564514
1728067631829,7i,9.592122109710791,0.9s : 0.3s,6.627025871329875,1.7458115991257686,6.392934675063825,5.945251907104303,0.9012842178344727,8.398920059204102,8.472648620605469,5.46604585647583,-1.645848035812378,1.6611884832382202,-0.34987239956340405,-0.5571841098111824,-2.5038913531272886,-0.49676182866096497,0.34277793765068054,-0.7973273992538452
1728067631839,7i,9.592122109710791,0.9s : 0.3s,7.382131313642625,1.851137221445987,7.146268517152166,6.808557654824456,0.6881061792373657,9.351617813110352,9.401613235473633,6.386699676513672,-1.6271369457244873,1.7084934711456299,-0.38543475847816244,-0.4366592465833656,-2.415649027426757,-0.39188745617866516,0.3759620487689972,-0.8396884799003601
1728067631849,7i,9.592122109710791,0.9s : 0.3s,8.148647859379157,1.9754308178101578,7.905576197862518,7.821436056499415,0.21481958031654358,10.161604881286621,10.259384155273438,7.504579067230225,-1.5451668500900269,1.5711824893951416,-0.416611285849308,-0.29913442485020103,-2.3139731308652203,-0.26948675513267517,0.40466392040252686,-0.8738558292388916
1728067631859,7i,9.592122109710791,0.9s : 0.3s,8.887472950101348,2.121857805710951,8.630463190995409,9.067913948057349,-0.283354252576828,10.866209983825684,10.922451972961426,8.901729583740234,-1.2303082942962646,1.2135136127471924,-0.44037297062976427,-0.1464449237418223,-2.200471782015316,-0.13200001418590546,0.42627689242362976,-0.8949100971221924
1728067631869,7i,9.592122109710791,0.9s : 0.3s,9.533862822616188,2.293272209687584,9.253942019093145,10.415626440623383,-0.9530074596405029,11.221908569335938,11.364575386047363,10.374627113342285,-0.3803279399871826,0.8412711024284363,-0.4535323045904559,0.017577229795100537,-2.077497911313314,0.015799447894096375,0.43814346194267273,-0.8987662196159363
1728067631879,7i,9.592122109710791,0.9s : 0.3s,10.078947319652166,2.489755700293057,9.766590788252664,11.601028717932905,-2.432918071746826,11.082480430603027,11.924798965454102,11.560972213745117,0.868480920791626,0.41656893491744995,-0.45784953623997243,0.18700100816415874,-1.9467616562652237,0.16676494479179382,0.44202014803886414,-0.8813669085502625
1728067631889,7i,9.592122109710791,0.9s : 0.3s,10.662719696949154,2.7091256737467524,10.312818694205463,12.665204127288423,-4.967777729034424,10.734460830688477,13.06679630279541,12.447189331054688,2.3230857849121094,-0.2795456647872925,-0.45914304174198656,0.36047997299970547,-1.8024126990690563,0.31619274616241455,0.44318005442619324,-0.83881676197052
1728067631899,7i,9.592122109710791,0.9s : 0.3s,11.235135024963148,2.9467855070204276,10.841804010623326,13.356841449782284,-8.437235832214355,10.141841888427734,13.302079200744629,12.742026329040527,3.9258317947387695,-0.7961301803588867,-0.46006977660666143,0.538682589846947,-1.6348283541258015,0.4596640467643738,0.4440106153488159,-0.7691316604614258
1728067631909,7i,9.592122109710791,0.9s : 0.3s,11.84771581453528,3.198330732240412,11.407850391252326,13.908760934645098,-13.954068183898926,7.967631816864014,13.07746410369873,12.616226196289062,5.809170246124268,-0.733490526676178,-0.47069962420940903,0.7172248402816226,-1.4432178768644253,0.5858156085014343,0.4535099267959595,-0.6716760396957397
1728067631919,7i,9.592122109710791,0.9s : 0.3s,12.628377888189195,3.465046043376849,12.143697295477367,15.471684332669488,-19.190122604370117,3.0715057849884033,13.223555564880371,12.71242618560791,8.803742408752441,0.5112300515174866,-0.49476176501011415,0.8843791181072247,-1.2041740453808039,0.6807622909545898,0.4748219847679138,-0.5577693581581116
1728067631929,7i,9.592122109710791,0.9s : 0.3s,13.676463817114193,3.7382149741309294,13.155660810009396,16.214457409616596,-19.9335994720459,0.26405805349349976,14.906278610229492,11.198659896850586,11.627527236938477,1.5163297653198242,-0.4935208747771204,1.031250418820717,-0.9276495972032027,0.7555640935897827,0.47372955083847046,-0.4524412453174591
1728067631939,7i,9.592122109710791,0.9s : 0.3s,14.12863648992063,4.002278911186791,13.549912641097958,16.450100629458092,-15.665308952331543,-0.5919919013977051,15.809375762939453,8.011185646057129,14.205937385559082,2.1489667892456055,-0.4388249273857708,1.1470703133687101,-0.668853635102191,0.8251940608024597,0.42487603425979614,-0.3722030520439148
1728067631949,7i,9.592122109710791,0.9s : 0.3s,13.959913916208823,4.2448646823039535,13.298884177888358,15.884422067201047,-12.105894088745117,-0.27909982204437256,15.007261276245117,4.53307580947876,14.914499282836914,3.0534896850585938,-0.34789313345147727,1.2191268804675455,-0.468287024537591,0.8825584053993225,0.3409179151058197,-0.32382968068122864
1728067631959,7i,9.592122109710791,0.9s : 0.3s,14.011969247941561,4.459126887220274,13.283503664655994,12.520376492087564,-13.357708930969238,0.26767536997795105,14.59839153289795,2.2315988540649414,11.516302108764648,4.376594543457031,-0.24678475048731374,1.2699386912944202,-0.29652291016972165,0.9261465072631836,0.2442873865365982,-0.287361204624176
1728067631969,7i,9.592122109710791,0.9s : 0.3s,15.074722885126944,4.641464131048357,14.342387555200197,6.901318206048911,-20.597414016723633,1.4306126832962036,14.764348983764648,1.8577908277511597,5.642117023468018,3.5133063793182373,-0.15053442626124558,1.31987952625054,-0.091615471948016,0.9577303528785706,0.1499665379524231,-0.24548421800136566
1728067631979,7i,9.592122109710791,0.9s : 0.3s,14.35948812726218,4.7972466541312615,13.534449520257924,4.168666484110221,-6.174622058868408,3.5072667598724365,17.627527236938477,3.7615151405334473,1.2453240156173706,-1.2953579425811768,-0.036727733550546884,1.3192280590302834,0.07235582584215865,0.9678699970245361,0.03671947866678238,-0.24875527620315552
1728067631989,7i,9.592122109710791,0.9s : 0.3s,16.189615697993418,4.966888721664035,15.408882921072555,10.215292179030856,-32.525936126708984,2.519002914428711,7.681664943695068,10.112482070922852,-1.1954243183135986,-0.8129338026046753,0.0743126130801099,1.3297330862110974,0.2762154309039252,0.9684045314788818,-0.07424423843622208,-0.2380763441324234
1728067631999,7i,9.592122109710791,0.9s : 0.3s,20.12595391329183,5.087267080934293,19.472383895332104,20.125148963519887,-50.13715744018555,-5.574791431427002,-6.881032943725586,3.059143304824829,-15.122812271118164,12.92144775390625,-0.04907068041202375,1.288322802040994,0.6394166201954944,0.9592129588127136,0.049050990492105484,-0.27839648723602295
1728067632009,7i,9.592122109710791,0.9s : 0.3s,20.181555357520217,5.297664610750852,19.47382669946128,27.49275418851926,-27.020753860473633,-25.257709503173828,-5.030379295349121,9.720989227294922,18.017133712768555,18.35038948059082,-0.2419811903144156,1.1469777057506627,1.0321983054866746,0.8849679827690125,0.23962655663490295,-0.3992626368999481
1728067632019,7i,9.592122109710791,0.9s : 0.3s,17.033793840481597,5.540792956207288,16.107443807645968,26.210823647313955,-9.694101333618164,-10.644777297973633,-1.6771657466888428,5.287325859069824,25.64717674255371,1.1286215782165527,-0.3341665164582226,1.0369662305970788,1.193482089241569,0.8132449388504028,0.3279819190502167,-0.48068758845329285
1728067632029,7i,9.592122109710791,0.9s : 0.3s,13.918962650613578,5.719565124380302,12.689527022594197,10.104571929234055,-3.2975406646728516,-9.682360649108887,-9.371774673461914,-3.353804588317871,9.530500411987305,0.1546950340270996,-0.41689615761158405,0.9326168012175879,1.2101546162885637,0.7343893051147461,0.4049244225025177,-0.5447097420692444
1728067632039,7i,9.592122109710791,0.9s : 0.3s,12.025173275558616,5.859751155051885,10.500862284025883,1.941095934761381,-1.91697359085083,-11.46268367767334,-1.8954813480377197,1.933290958404541,-0.14890527725219727,0.08981490135192871,-0.4735853374880796,0.8206587644676963,1.1949591412750398,0.6510748863220215,0.4560799300670624,-0.6067063808441162
1728067632049,7i,9.592122109710791,0.9s : 0.3s,11.686048172229963,5.991263677277165,10.033368399147847,6.178516080500187,-4.996569633483887,-13.883939743041992,-2.403797149658203,6.053077697753906,-1.227874517440796,-0.1632038950920105,-0.5076202290689027,0.7002680622200472,1.2078379023695218,0.5631633996963501,0.4860989451408386,-0.6682475209236145
1728067632059,7i,9.592122109710791,0.9s : 0.3s,12.269398347567128,6.123470360836079,10.632085710303741,7.4223125769922484,-7.825206279754639,-15.676419258117676,-6.577437877655029,6.158595085144043,-1.130845069885254,3.9854259490966797,-0.5889974060792609,0.5504839971207659,1.2101817296140884,0.43495646119117737,0.5555276274681091,-0.7086620330810547
1728067632069,7i,9.592122109710791,0.9s : 0.3s,12.364867814100842,6.245015829466011,10.671913293777544,5.455223807436597,-5.857258319854736,-13.977176666259766,-6.887811183929443,3.457693099975586,0.4481044411659241,4.195596218109131,-0.68185476763962,0.3788418393629773,1.1726391745666924,0.2871493101119995,0.6302341818809509,-0.7213529944419861
1728067632079,7i,9.592122109710791,0.9s : 0.3s,12.138390290410873,6.354710695839106,10.342058345152045,4.168431712769477,-2.801499366760254,-12.812276840209961,-7.657635688781738,2.5616393089294434,1.5114450454711914,2.9205069541931152,-0.7435143165784526,0.19660545933085,1.0980318226833188,0.1437896490097046,0.6768789291381836,-0.721913754940033
1728067632089,7i,9.592122109710791,0.9s : 0.3s,11.894326444640877,6.457437074738447,9.988819149302715,4.13605667537244,-0.6402727365493774,-12.030047416687012,-8.487833976745605,3.0501937866210938,1.2006912231445312,2.522225856781006,-0.7682285055519695,-0.0024718442142683946,0.9893700734390214,-0.0017776071326807141,0.6948623657226562,-0.7191405892372131
1728067632099,7i,9.592122109710791,0.9s : 0.3s,11.566428877197092,6.5576438910516295,9.527832049811334,4.456778210507632,1.7951159477233887,-10.963592529296875,-8.180116653442383,3.8570055961608887,0.6027557849884033,2.1501314640045166,-0.7539260767197979,-0.19711877554478519,0.8739650329872046,-0.14277219772338867,0.6845061779022217,-0.7148898243904114
1728067632109,7i,9.592122109710791,0.9s : 0.3s,11.355741261038355,6.652052308414991,9.203426518083349,3.860671485317596,2.7991864681243896,-10.918437004089355,-7.288000106811523,3.593506097793579,0.2182595133781433,1.3942241668701172,-0.7067362646002247,-0.37246339774549003,0.7734874060516175,-0.27674898505210876,0.6493552327156067,-0.7083415985107422
1728067632119,7i,9.592122109710791,0.9s : 0.3s,11.324887246746108,6.739586849425816,9.101155984299977,3.4029786950659564,2.8073763847351074,-10.955350875854492,-7.622041702270508,3.190009355545044,0.20761501789093018,1.1666191816329956,-0.6444386892009578,-0.5303230201796746,0.6948600702536077,-0.4043649137020111,0.6007497906684875,-0.6896294355392456
1728067632129,7i,9.592122109710791,0.9s : 0.3s,11.286755017201024,6.8257939346524035,8.988847310972355,3.8758414470071685,2.67622971534729,-10.347315788269043,-7.796639442443848,3.6166467666625977,0.46745383739471436,1.312821388244629,-0.576786337879479,-0.6707337900835548,0.6342555876682147,-0.5210045576095581,0.5453330278396606,-0.6566324830055237
1728067632139,7i,9.592122109710791,0.9s : 0.3s,11.180213579537662,6.912147001811676,8.787456942109259,4.053167943421213,2.9676554203033447,-9.513324737548828,-7.667755126953125,3.6883187294006348,0.4888709783554077,1.6079429388046265,-0.5042773703196188,-0.7930944720594444,0.5895735606420999,-0.6238352060317993,0.4831748902797699,-0.6143059134483337
1728067632149,7i,9.592122109710791,0.9s : 0.3s,11.036632447894476,6.999283899052331,8.533304207069147,4.064192948101728,3.551816701889038,-8.683073043823242,-7.5282673835754395,3.589148759841919,0.8907712697982788,1.6858831644058228,-0.4255956431929823,-0.8973600200970594,0.559974832037863,-0.7119515538215637,0.4128633737564087,-0.5680395364761353
1728067632159,7i,9.592122109710791,0.9s : 0.3s,10.888691966225073,7.08801229926698,8.26581480440824,4.166598247360249,4.699605464935303,-7.9613237380981445,-7.135867118835449,3.707064151763916,1.1473605632781982,1.5171618461608887,-0.3422695287188144,-0.9846901876910411,0.5491167616929366,-0.784777045249939,0.3356258273124695,-0.5210376381874084
1728067632169,7i,9.592122109710791,0.9s : 0.3s,10.733989667460564,7.17684503587203,7.9819439682466555,4.069053202385238,5.199192523956299,-7.365218639373779,-6.596390724182129,3.713472366333008,0.8600536584854126,1.4239468574523926,-0.25754532342273595,-1.0589369020308543,0.5567687148978433,-0.843080461025238,0.25470760464668274,-0.4736446738243103
1728067632179,7i,9.592122109710791,0.9s : 0.3s,10.579280148702182,7.264123283219846,7.691143048397121,3.872197271505931,4.8341593742370605,-6.892477989196777,-6.399381637573242,3.418835163116455,0.6409125328063965,1.701384425163269,-0.17707370978234432,-1.1272116721413536,0.5717506765052893,-0.889095664024353,0.17614980041980743,-0.42246899008750916
1728067632189,7i,9.592122109710791,0.9s : 0.3s,10.485207777644092,7.351482040207428,7.4763155332607365,3.970697808576792,5.267596244812012,-6.089665412902832,-6.844996452331543,3.464808464050293,1.0180696249008179,1.6507809162139893,-0.10086048418474211,-1.1900947611386063,0.5928760340549339,-0.9236859679222107,0.10068956762552261,-0.36968353390693665
1728067632199,7i,9.592122109710791,0.9s : 0.3s,10.416688249399742,7.439746154392351,7.290923895048342,4.058554200806358,6.21835994720459,-5.4003214836120605,-6.47821044921875,3.565070867538452,1.2383419275283813,1.492863416671753,-0.02690486213181289,-1.2474122667762213,0.6269661579411664,-0.9478222131729126,0.026901615783572197,-0.31766200065612793
1728067632209,7i,9.592122109710791,0.9s : 0.3s,10.346333942123696,7.5269078505023925,7.098752302481495,3.8263076572464287,6.4239373207092285,-5.0411763191223145,-5.956177234649658,3.3003273010253906,1.0734145641326904,1.6112886667251587,0.047492472310310806,-1.301816755232752,0.6701720596293169,-0.9629555344581604,-0.04747461900115013,-0.2654481828212738
1728067632219,7i,9.592122109710791,0.9s : 0.3s,10.263979724035051,7.614062380399011,6.882974200358099,3.947148196103299,6.47707462310791,-4.642389297485352,-5.459910869598389,3.2940752506256104,1.184957504272461,1.8234370946884155,0.11829289159671118,-1.3549225418474322,0.7185445036873466,-0.9699633121490479,-0.11801720410585403,-0.21270407736301422
1728067632229,7i,9.592122109710791,0.9s : 0.3s,10.191056664178689,7.699803809268583,6.676125914875625,3.7719050716797335,6.654188632965088,-4.225937843322754,-5.068965911865234,3.1431198120117188,1.0018532276153564,1.8287580013275146,0.18227369524134923,-1.4073632207480582,0.773952879546268,-0.9703294038772583,-0.18126606941223145,-0.1600111424922943
1728067632239,7i,9.592122109710791,0.9s : 0.3s,10.114816773851306,7.781051894871574,6.46256526295087,3.303309978093136,6.501703262329102,-4.043407440185547,-4.6860151290893555,2.687349796295166,0.7023359537124634,1.7879407405853271,0.23973627281235066,-1.4612575396361986,0.8339940729012514,-0.9655786752700806,-0.23744645714759827,-0.10619338601827621
1728067632249,7i,9.592122109710791,0.9s : 0.3s,10.033624230915224,7.859587897752471,6.2370259967962305,3.338829634126478,6.591548919677734,-3.6561527252197266,-4.164013385772705,2.618314027786255,1.001467227935791,1.8136367797851562,0.28929927195562516,-1.516441305522322,0.8972873610046355,-0.9570285081863403,-0.28528067469596863,-0.05207059532403946
1728067632259,7i,9.592122109710791,0.9s : 0.3s,9.979697763490506,7.934973911716753,6.052318272446677,3.14561362028444,6.961377143859863,-3.090449571609497,-3.8202826976776123,2.37973690032959,1.1301017999649048,1.7188971042633057,0.33072379023832493,-1.5713345248634558,0.967714073350606,-0.9458073973655701,-0.3247276842594147,0.0005090317572467029
1728067632269,7i,9.592122109710791,0.9s : 0.3s,9.933644795577006,8.005304153536931,5.881530781527758,2.7659117774883915,6.927280902862549,-2.6320769786834717,-3.709568977355957,2.0114970207214355,0.8826802968978882,1.6807805299758911,0.3659525659237038,-1.6247205027362293,1.043050028798675,-0.9324259757995605,-0.3578389585018158,0.050329096615314484
1728067632279,7i,9.592122109710791,0.9s : 0.3s,9.872655153234717,8.07081666691965,5.686056463284902,2.6120653037046644,6.66869592666626,-2.305418014526367,-3.49432373046875,1.8122763633728027,0.8212850093841553,1.6923446655273438,0.39652046766905935,-1.677489642953632,1.1186549290805867,-0.917165219783783,-0.3862111270427704,0.09822840988636017
1728067632289,7i,9.592122109710791,0.9s : 0.3s,9.81702772050473,8.131048073162992,5.500917241430805,2.3591526049932514,6.561053276062012,-2.1788694858551025,-3.184278726577759,1.5855079889297485,0.639338493347168,1.6257342100143433,0.4206802051133183,-1.7301723960281084,1.1950576246342999,-0.9012427926063538,-0.4083814322948456,0.14486517012119293
1728067632299,7i,9.592122109710791,0.9s : 0.3s,9.757168296139408,8.185309431353906,5.310653695372802,2.0579658338689435,6.229864597320557,-2.2592642307281494,-2.9983069896698,1.2985284328460693,0.48322728276252747,1.5216894149780273,0.43923131051890896,-1.7836709116658465,1.2706137445328811,-0.8846490979194641,-0.4252438545227051,0.19121642410755157
1728067632309,7i,9.592122109710791,0.9s : 0.3s,9.681531662023083,8.234865083810686,5.091075758048696,1.99345666172005,5.836363792419434,-2.0813162326812744,-2.87923264503479,1.180488109588623,0.5497254133224487,1.5093439817428589,0.453424246057856,-1.8368794852401276,1.3433160726044056,-0.867316722869873,-0.43804633617401123,0.2363835573196411
1728067632319,7i,9.592122109710791,0.9s : 0.3s,9.614655999832308,8.279147577987816,4.8884890689260905,1.7351386782364788,5.692322254180908,-1.8934745788574219,-2.72920298576355,0.9170944094657898,0.46120867133140564,1.3989033699035645,0.4637700240235307,-1.8880403385239397,1.4138463330853666,-0.8497419953346252,-0.4473230838775635,0.27899879217147827
1728067632329,7i,9.592122109710791,0.9s : 0.3s,9.563052809519398,8.317802360196897,4.718701403390534,1.427853627728388,5.684540271759033,-1.7867140769958496,-2.485369920730591,0.7015858292579651,0.3676269054412842,1.188020944595337,0.46930587300503135,-1.937793944235594,1.483605242613049,-0.832490861415863,-0.4522673189640045,0.3200204074382782
1728067632339,7i,9.592122109710791,0.9s : 0.3s,9.50734807197003,8.352522411814098,4.541479574074453,1.4508567733833857,5.402468204498291,-1.8201223611831665,-2.32769513130188,0.6691131591796875,0.41138994693756104,1.219848871231079,0.47036788159066667,-1.9867331143712355,1.5513671818979646,-0.8153991103172302,-0.45321425795555115,0.3601681888103485
