timestamp,club,max_speed,tempo,speed,l.speed,t.spped,acc,rotation.x,rotation.y,rotation.z,userAcceleration.x,userAcceleration.y,userAcceleration.z,pitch,roll,yaw,gravity.x,gravity.y,gravity.z
1728067764625,7i,9.400918291173536,0.8s : 0.3s,0.044279085800348714,0.0010684324217618045,0.044266193550776094,0.03536023463118944,-0.025100067257881165,-0.04814835637807846,-0.02266986295580864,0.011834442615509033,-0.03331989049911499,0.000277593731880188,-0.19971439753391262,1.3961653654565203,0.16772847926686335,0.9652161598205566,0.19838941097259521,-0.1702912151813507
1728067764635,7i,9.400918291173536,0.8s : 0.3s,0.04170172859690205,0.00206536068520891,0.04165055165552639,0.03387353138088315,-0.013604533858597279,-0.05168796330690384,-0.01821945421397686,0.0139847993850708,-0.030822545289993286,0.0013461858034133911,-0.2000153990563118,1.3957114195952103,0.16789450514394963,0.9650799036026001,0.198684424161911,-0.1707189530134201
1728067764645,7i,9.400918291173536,0.8s : 0.3s,0.040018629398765895,0.002993152398210193,0.03990653753054577,0.02807767067765216,0.0015975882997736335,-0.0515739805996418,-0.018486035987734795,0.012441277503967285,-0.02517034113407135,0.00015534460544586182,-0.2002423701322987,1.3951821195439806,0.16791060469024716,0.9649449586868286,0.19890686869621277,-0.17122185230255127
1728067764655,7i,9.400918291173536,0.8s : 0.3s,0.03824172491477712,0.0038358406534574232,0.0380488613619221,0.020043472476241955,0.007370788604021072,-0.047150470316410065,-0.010080832988023758,0.0063762664794921875,-0.018948018550872803,-0.0014340877532958984,-0.2003079885245646,1.394676371823046,0.16784186962074898,0.9648455381393433,0.19897116720676422,-0.17170758545398712
1728067764665,7i,9.400918291173536,0.8s : 0.3s,0.036875192655374624,0.004604948902520891,0.03658653138760446,0.015621597856762521,0.01243678666651249,-0.04686644673347473,-0.009085776284337044,0.004140734672546387,-0.01459936797618866,0.003707706928253174,-0.2002302395310622,1.3941893447096936,0.1677347511812306,0.9647769927978516,0.19889497756958008,-0.1721801906824112
1728067764675,7i,9.400918291173536,0.8s : 0.3s,0.035787229120422565,0.0053330104036932975,0.03538763580901838,0.021054909261350563,0.02230752632021904,-0.0412684828042984,-0.008286828175187111,0.003837108612060547,-0.019320055842399597,0.0074378252029418945,-0.2000804111014405,1.3937446481267188,0.16755423941598827,0.9647296071052551,0.1987481415271759,-0.1726144403219223
1728067764685,7i,9.400918291173536,0.8s : 0.3s,0.034669300980615665,0.006013127749685336,0.03414385340219352,0.01539417140951401,0.02746620401740074,-0.0346260666847229,-0.00531124509871006,-0.0034719109535217285,-0.012691035866737366,0.007991492748260498,-0.1999023359068734,1.39336699350242,0.16729225528012606,0.9646992087364197,0.19857361912727356,-0.1729850172996521
1728067764695,7i,9.400918291173536,0.8s : 0.3s,0.03346698289859493,0.006632941086993869,0.03280309492824288,0.012016937831621718,0.01644604280591011,-0.0356987863779068,-0.0036097511183470488,-0.008321523666381836,-0.008011579513549805,0.0033126473426818848,-0.1996738504684441,1.3930056948788287,0.16707581729431706,0.9646812677383423,0.19834966957569122,-0.1733415722846985
1728067764705,7i,9.400918291173536,0.8s : 0.3s,0.03253467502183516,0.007219692091555671,0.03172351060143806,0.018260436039671507,0.013713772408664227,-0.03872036933898926,-0.003186475019901991,-0.005728721618652344,-0.013784199953079224,0.010517656803131104,-0.19947639888471685,1.3926144976772052,0.16691921709832275,0.9646519422531128,0.19815613329410553,-0.17372587323188782
1728067764715,7i,9.400918291173536,0.8s : 0.3s,0.03129293045767959,0.0077848352399386405,0.030309137845147962,0.022196194467420462,0.004125860054045916,-0.031221704557538033,-0.005054416134953499,-0.0033206939697265625,-0.01925218105316162,0.01053553819656372,-0.19931056785062595,1.3922698028262308,0.16681531340654573,0.964624285697937,0.19799359142780304,-0.17406420409679413
1728067764725,7i,9.400918291173536,0.8s : 0.3s,0.02963199306695696,0.00833234163085731,0.028436369249024523,0.024535822673118088,-0.009746145457029343,-0.02810860425233841,-0.0007660278351977468,-0.0056191086769104,-0.02122250199317932,0.010956168174743652,-0.19918800634523762,1.3920122245542188,0.16685560121468568,0.9646033644676208,0.19787345826625824,-0.17431698739528656
1728067764735,7i,9.400918291173536,0.8s : 0.3s,0.02791194459419175,0.008866598895588891,0.026466206283749315,0.023556208631163065,-0.02393227256834507,-0.025173533707857132,-0.0019897501915693283,-0.0060961246490478516,-0.01793423295021057,0.014003410935401917,-0.19911797609914952,1.3917821995820727,0.16702610154477934,0.9645767211914062,0.19780480861663818,-0.17454130947589874
1728067764745,7i,9.400918291173536,0.8s : 0.3s,0.026627077924822256,0.009387033975470223,0.024917561517089196,0.022360821400361025,-0.008926691487431526,-0.01954316534101963,-0.0056524621322751045,-0.00713956356048584,-0.01544441282749176,0.014508724212646484,-0.1991153178451731,1.391638066866173,0.16720107648547378,0.9645521640777588,0.19780220091342926,-0.1746804416179657
1728067764755,7i,9.400918291173536,0.8s : 0.3s,0.025685906867646605,0.009862992924438695,0.02371681222647528,0.011362303399677223,0.0006066260393708944,-0.018057653680443764,-0.008353972807526588,-0.00964498519897461,-0.0038765817880630493,0.004587844014167786,-0.19908246707424893,1.391531263312986,0.1672273593262865,0.9645398259162903,0.19776999950408936,-0.1747846007347107
1728067764765,7i,9.400918291173536,0.8s : 0.3s,0.024718825923665356,0.010293229330698372,0.02247375769625812,0.008554373911114266,-0.003348967060446739,-0.018090588971972466,-0.0051897382363677025,-0.007869124412536621,0.0003559589385986328,0.00333578884601593,-0.199092007581185,1.3914210434504635,0.1672299113292177,0.964518666267395,0.1977793574333191,-0.17489057779312134
1728067764775,7i,9.400918291173536,0.8s : 0.3s,0.09205928325953035,0.010683154145465489,0.09143731104840445,0.022506472439792733,0.00725281098857522,-0.281794935464859,0.3353976905345917,-0.021283507347106934,-0.004316002130508423,0.0059098005294799805,-0.19853452186079723,1.3909875925155062,0.1673263729118884,0.9645512104034424,0.19723285734653473,-0.1753283441066742
1728067764785,7i,9.400918291173536,0.8s : 0.3s,0.31550938958321306,0.01117513428224541,0.3153114195346332,0.055356683675264376,0.01596507616341114,-0.5293917655944824,1.1571685075759888,0.051743149757385254,-0.011394008994102478,0.016037002205848694,-0.19899934832969243,1.390991188360712,0.1673104508316895,0.9644615054130554,0.1976885199546814,-0.1753084510564804
1728067764795,7i,9.400918291173536,0.8s : 0.3s,0.3267361143406787,0.01195777427111752,0.3265172277980536,0.1760687455339497,-0.05478978902101517,-0.2493729144334793,0.46255970001220703,0.17526775598526,0.013461142778396606,0.010010719299316406,-0.19906307888760516,1.3910353188716102,0.1673751459587407,0.9644568562507629,0.1977510005235672,-0.1752636432647705
1728067764805,7i,9.400918291173536,0.8s : 0.3s,0.2261142458567984,0.012716286104867245,0.22575639137594272,0.02378376981961009,-0.03565311059355736,-0.015566711314022541,-0.02646699734032154,0.01942235231399536,-0.006370902061462402,0.012159422039985657,-0.1989185091249124,1.3907429266112599,0.16758734815872753,0.9644336700439453,0.19760927557945251,-0.17555075883865356
1728067764815,7i,9.400918291173536,0.8s : 0.3s,0.15613519330472975,0.013322086331738255,0.15556580795301722,0.01813659223095271,0.004460752476006746,-0.007280019111931324,-0.018431175500154495,-0.015196084976196289,-0.009900152683258057,4.4226646423339844e-05,-0.1988608009065611,1.3905707482327019,0.1676557639307201,0.9644147157669067,0.19755271077156067,-0.17571884393692017
1728067764825,7i,9.400918291173536,0.8s : 0.3s,0.10954780847927467,0.013902776635657818,0.10866202254896073,0.020727019486064945,0.008125129155814648,-0.004075038246810436,-0.0035310881212353706,0.0203743577003479,0.0018836110830307007,-0.003308609127998352,-0.19907470937311167,1.39044786331715,0.16762704864011976,0.9643515944480896,0.1977623999118805,-0.17582979798316956
1728067764835,7i,9.400918291173536,0.8s : 0.3s,0.07494814239545158,0.014375903788437122,0.07355649147964093,0.008373755943657513,0.01093263365328312,-0.0020457091741263866,-0.01594807580113411,-0.0015137791633605957,0.004696518182754517,-0.006765425205230713,-0.1991159852352455,1.3903600324256566,0.167536255899361,0.9643279314041138,0.1978028565645218,-0.175913006067276
1728067764845,7i,9.400918291173536,0.8s : 0.3s,0.05243234355781439,0.014795291850033214,0.05030159033308014,0.009341781711001767,0.0192952249199152,-0.00410841591656208,-0.010891599580645561,-0.002134978771209717,6.905198097229004e-05,-0.009094282984733582,-0.19922902955006563,1.3902866101233302,0.16734695155460697,0.9642930030822754,0.19791367650032043,-0.17597977817058563
1728067764855,7i,9.400918291173536,0.8s : 0.3s,0.03797826560456603,0.015164891806007986,0.034819171656474475,0.015551233291316423,0.016753237694501877,-0.001463897293433547,-0.006132263690233231,-0.0069481730461120605,-0.009341984987258911,-0.010309755802154541,-0.19928761843496498,1.3902157668017803,0.16715256941746437,0.96426922082901,0.19797110557556152,-0.17604602873325348
1728067764865,7i,9.400918291173536,0.8s : 0.3s,0.029566927151748183,0.015489395223460293,0.025184952189913512,0.020538188439526605,0.012456361204385757,-0.002869025804102421,-0.0036889801267534494,-0.011924803256988525,-0.014732331037521362,-0.007910415530204773,-0.19930725155159748,1.390163691950832,0.16700358306062663,0.9642561674118042,0.19799034297466278,-0.17609553039073944
1728067764875,7i,9.400918291173536,0.8s : 0.3s,0.028186347824742684,0.015781456250626894,0.023354139725259116,0.014502599381901243,0.02788085862994194,-0.007519437000155449,-0.0038378506433218718,-0.00737452507019043,-0.01197822391986847,-0.0035304278135299683,-0.19931510882722822,1.3900677214581016,0.16678690319931067,0.9642376899719238,0.197998046875,-0.17618778347969055
1728067764885,7i,9.400918291173536,0.8s : 0.3s,0.027368176190150556,0.016034442366642136,0.022179128160636875,0.01042859386234394,0.031111538410186768,-0.0145497377961874,-0.005121427588164806,-0.003375113010406494,-0.0046973079442977905,-0.00867752730846405,-0.19931261625901153,1.3898830157312585,0.16647365655254454,0.9642056226730347,0.1979956030845642,-0.17636597156524658
1728067764895,7i,9.400918291173536,0.8s : 0.3s,0.0266501772473897,0.016263229121571736,0.021112539540674602,0.007727713644152977,0.022629370912909508,-0.019934384152293205,-0.009032546542584896,0.0009156465530395508,-0.0053438544273376465,-0.005506575107574463,-0.1993495727539744,1.389647215658926,0.1662041254430021,0.9641568064689636,0.19803182780742645,-0.17659200727939606
1728067764905,7i,9.400918291173536,0.8s : 0.3s,0.026531006950019646,0.016472211966593694,0.020798090362088493,0.009179907101538334,0.03334566205739975,-0.020789524540305138,-0.006579708307981491,-0.0005408525466918945,-0.00805489718914032,-0.004369989037513733,-0.19937562903732206,1.389369493998702,0.1659118880037527,0.9641028046607971,0.1980573683977127,-0.17685887217521667
1728067764915,7i,9.400918291173536,0.8s : 0.3s,0.026575999145070982,0.016656555567599107,0.020708522090731075,0.011241821686699578,0.03727622330188751,-0.016497574746608734,-0.005000187549740076,-0.0015784502029418945,-0.0077926963567733765,-0.007947385311126709,-0.1993727359793611,1.3891076528565525,0.1655460665560513,0.9640569686889648,0.19805453717708588,-0.1771114021539688
1728067764925,7i,9.400918291173536,0.8s : 0.3s,0.09872789773859997,0.01680691614328191,0.09728682008183914,0.0270330303022785,0.016791455447673798,-0.3128429651260376,0.2837313413619995,-0.021463751792907715,-0.01637721061706543,-0.0013707876205444336,-0.1989305178481302,1.3885541991280186,0.16532369043533648,0.9640448093414307,0.19762104749679565,-0.1776607781648636
1728067764935,7i,9.400918291173536,0.8s : 0.3s,0.242397658160944,0.017196455465590392,0.24178690328743993,0.04756040309717266,0.01627054065465927,-0.5513694882392883,0.6691551804542542,0.025604426860809326,-0.033893391489982605,0.021392598748207092,-0.19992590014738548,1.3884724456717858,0.1651176225166539,0.9638363122940063,0.19859670102596283,-0.1777038276195526
1728067764945,7i,9.400918291173536,0.8s : 0.3s,0.22841137043709897,0.018190146081763975,0.22768590806301064,0.13896780799568764,-0.010323652997612953,-0.22703425586223602,0.18571020662784576,0.13735467195510864,-0.007206633687019348,0.019844651222229004,-0.19967774737166624,1.3883146312613115,0.16523849093131246,0.9638567566871643,0.19835348427295685,-0.1778648942708969
1728067764955,7i,9.400918291173536,0.8s : 0.3s,0.16658067808108099,0.019200026027608744,0.16547048471099574,0.049111400585262054,-0.009907134808599949,-0.019048038870096207,0.023962587118148804,0.04594683647155762,-0.013320520520210266,0.011107727885246277,-0.19959490584778347,1.3880103174449439,0.1652999145191664,0.9638187885284424,0.19827228784561157,-0.17816118896007538
1728067764965,7i,9.400918291173536,0.8s : 0.3s,0.11491233619674511,0.02003171835184458,0.1131528844973302,0.022412868579525173,-0.010623524896800518,-0.008793182671070099,-0.027766920626163483,-0.012868285179138184,-0.017692849040031433,0.004868984222412109,-0.19940100335874922,1.3878412698277065,0.16535296357090112,0.9638264179229736,0.19808223843574524,-0.17833110690116882
1728067764975,7i,9.400918291173536,0.8s : 0.3s,0.08334299624766614,0.020824385531008502,0.08069944232021939,0.019874165835624333,0.005793798249214888,0.0009715636260807514,0.011664110235869884,0.009349286556243896,-0.013451367616653442,0.011253178119659424,-0.19949484574497586,1.387768192636918,0.16537803038626567,0.9637951254844666,0.19817422330379486,-0.17839814722537994
1728067764985,7i,9.400918291173536,0.8s : 0.3s,0.06384258468794589,0.021518938544893826,0.0601066627216869,0.012503970621212812,0.005311100278049707,-0.005463121924549341,0.019661283120512962,-0.00294572114944458,-0.009050562977790833,0.008109211921691895,-0.19939505781746403,1.3877250893358237,0.16533020177601798,0.9638068079948425,0.19807641208171844,-0.1784432977437973
1728067764995,7i,9.400918291173536,0.8s : 0.3s,0.07130643335483716,0.02217180386503819,0.06777181236441972,0.01576990918013914,0.0007768020732328296,-0.034359753131866455,0.13394765555858612,0.002721071243286133,-0.013861611485481262,0.007010102272033691,-0.19936854480476593,1.3876632474060075,0.16527212188170173,0.9638009667396545,0.19805042445659637,-0.1785038560628891
1728067765005,7i,9.400918291173536,0.8s : 0.3s,0.09533034411078,0.022812715672135414,0.09256054511476278,0.02444545542602732,-0.006566598545759916,-0.06024621054530144,0.22100338339805603,0.020557522773742676,-0.011977553367614746,0.005613088607788086,-0.1993144860226188,1.3876107079681654,0.16528348927836967,0.9638020992279053,0.19799743592739105,-0.1785564422607422
1728067765015,7i,9.400918291173536,0.8s : 0.3s,0.13252374342878626,0.023443424880655612,0.1304336935084023,0.02647881909617281,-0.01556382142007351,-0.08389747887849808,0.3168553411960602,0.025216877460479736,-0.001870676875114441,0.007857322692871094,-0.1992309553108995,1.3876601097997798,0.1653611554392438,0.9638271927833557,0.19791555404663086,-0.178511843085289
1728067765025,7i,9.400918291173536,0.8s : 0.3s,0.17904388471728705,0.024076936565012624,0.1774176253372295,0.03171262109777635,-0.029482565820217133,-0.1151658296585083,0.4115436375141144,0.030243217945098877,-0.00662684440612793,0.006864622235298157,-0.1991951660075008,1.3877573168417028,0.16551855195953236,0.9638514518737793,0.19788047671318054,-0.17841942608356476
1728067765035,7i,9.400918291173536,0.8s : 0.3s,0.23132957501684495,0.02473171247109171,0.23000372752571066,0.04113295641282632,-0.02460152469575405,-0.14362064003944397,0.5050898194313049,0.03948694467544556,-0.006909817457199097,0.009217143058776855,-0.19921925744759342,1.3878011777412524,0.16570840081794003,0.9638546109199524,0.1979040950536728,-0.17837628722190857
1728067765045,7i,9.400918291173536,0.8s : 0.3s,0.289497826973396,0.025403197997503537,0.2883811182338711,0.048398260746888806,-0.012951659969985485,-0.17808562517166138,0.6071216464042664,0.04834491014480591,0.0021598637104034424,0.0007044821977615356,-0.19922871491401165,1.387767340240882,0.1657454064117143,0.9638466835021973,0.19791336357593536,-0.17840854823589325
1728067765055,7i,9.400918291173536,0.8s : 0.3s,0.3516359735336098,0.026103268749932726,0.35066576286187146,0.05697073216162912,-0.0121407276019454,-0.20831170678138733,0.7091137766838074,0.055957138538360596,0.010632142424583435,-0.001191854476928711,-0.19920942871795724,1.387756679201496,0.1656998112960881,0.9638486504554749,0.19789445400238037,-0.1784195452928543
1728067765065,7i,9.400918291173536,0.8s : 0.3s,0.4162277161077512,0.026917996335350282,0.41535639290802406,0.06938593564185574,-0.014176181517541409,-0.23986580967903137,0.8089586496353149,0.06904083490371704,0.006826534867286682,0.0010814815759658813,-0.19921570026901556,1.3877250155395149,0.16564142480204935,0.9638416767120361,0.19790060818195343,-0.1784498244524002
1728067765075,7i,9.400918291173536,0.8s : 0.3s,0.48258661039101236,0.027929882272685495,0.4817777062141011,0.0837567969912901,-0.01403609849512577,-0.27917858958244324,0.9068024158477783,0.08290684223175049,0.00977538526058197,0.00678957998752594,-0.19922726674841348,1.3876756672977937,0.1655673791201273,0.9638306498527527,0.19791194796562195,-0.17849697172641754
1728067765085,7i,9.400918291173536,0.8s : 0.3s,0.5424593814605835,0.029139613402890372,0.5416761610642736,0.09533577181604076,-0.015496976673603058,-0.3130057454109192,0.9660190343856812,0.0942695140838623,0.01354457437992096,0.004325807094573975,-0.19935156207944094,1.3875834191026493,0.16545774489955659,0.9637900590896606,0.19803377985954285,-0.17858140170574188
1728067765095,7i,9.400918291173536,0.8s : 0.3s,0.5788417218082819,0.030454333283880208,0.5780400267197858,0.09320814444342405,-0.015411222353577614,-0.31427422165870667,0.9365288019180298,0.09240615367889404,0.008652463555335999,0.0086020827293396,-0.19939215736069832,1.3874671388394781,0.16534442553824122,0.9637613296508789,0.19807356595993042,-0.1786920130252838
1728067765105,7i,9.400918291173536,0.8s : 0.3s,0.5980963171732475,0.031827522267490665,0.5972488706079856,0.08495712074813015,-0.0224803164601326,-0.30736199021339417,0.9059091210365295,0.08430749177932739,0.0011419355869293213,0.010423779487609863,-0.19941101071407322,1.3873811200572765,0.1652750477284221,0.9637423157691956,0.1980920433998108,-0.17877422273159027
1728067765115,7i,9.400918291173536,0.8s : 0.3s,0.6042568826103056,0.033249857894026735,0.6033413852305772,0.08224677352725056,-0.03218807280063629,-0.3070671558380127,0.872628390789032,0.08176279067993164,-0.005831241607666016,0.006736055016517639,-0.19945760400671636,1.387326835111138,0.16529407162577112,0.9637234807014465,0.19813771545886993,-0.17882485687732697
1728067765125,7i,9.400918291173536,0.8s : 0.3s,0.6041980021907464,0.03472126796568436,0.6031995187350072,0.08309517121181069,-0.04804346710443497,-0.3053544759750366,0.8427011370658875,0.0818333625793457,-0.01143905520439148,0.008789554238319397,-0.199496758362292,1.387316153751657,0.16546972254867084,0.9637138843536377,0.19817610085010529,-0.1788337230682373
1728067765135,7i,9.400918291173536,0.8s : 0.3s,0.5992152220462957,0.03624029411028574,0.5981183189092201,0.08367694622878886,-0.053326379507780075,-0.307152658700943,0.8082275390625,0.0812196135520935,-0.015498027205467224,0.01284588873386383,-0.1995435815079075,1.3873011664328911,0.1657943273809224,0.9637020826339722,0.19822199642658234,-0.17884646356105804
1728067765145,7i,9.400918291173536,0.8s : 0.3s,0.5877630949680398,0.03777562276296356,0.5865479163131341,0.07441400927457226,-0.04863295704126358,-0.30516085028648376,0.775205671787262,0.07326292991638184,-0.012332543730735779,0.004230394959449768,-0.19955205992454944,1.3872632250647061,0.16612241455057267,0.9636936187744141,0.1982302963733673,-0.17888271808624268
1728067765155,7i,9.400918291173536,0.8s : 0.3s,0.5726956181059998,0.039316984678715555,0.5713444195173231,0.07323751731475212,-0.032054778188467026,-0.3007727563381195,0.7395533919334412,0.07314169406890869,-0.003338426351547241,0.0016974806785583496,-0.19951418017406375,1.3872171380488987,0.16635214106185503,0.9636929035186768,0.19819317758083344,-0.17892852425575256
1728067765165,7i,9.400918291173536,0.8s : 0.3s,0.5554849113949675,0.040857469923314405,0.5539802829875268,0.07126886274669676,-0.01616889052093029,-0.28946617245674133,0.7084896564483643,0.07120436429977417,0.0017482787370681763,0.0024764537811279297,-0.1993839656091353,1.3871579040592068,0.16645644860702508,0.9637076258659363,0.19806553423404694,-0.17899031937122345
1728067765175,7i,9.400918291173536,0.8s : 0.3s,0.5353144174840473,0.04239150105466027,0.5336332881339184,0.06916701479637821,-0.0010282885050401092,-0.274061381816864,0.671069860458374,0.06895744800567627,0.004550367593765259,0.002870619297027588,-0.19918721523561522,1.3871362289299962,0.16641751706006183,0.9637420177459717,0.19787268340587616,-0.1790183186531067
1728067765185,7i,9.400918291173536,0.8s : 0.3s,0.5137952585940401,0.0439165062168122,0.5119149423834248,0.0669183683261667,0.0010806687641888857,-0.2689836919307709,0.632948100566864,0.06682944297790527,0.002383485436439514,0.0024925023317337036,-0.19896943304869552,1.3871092925855235,0.16631329469862188,0.9637794494628906,0.1976591944694519,-0.17905212938785553
1728067765195,7i,9.400918291173536,0.8s : 0.3s,0.48965723086691126,0.04543140248934979,0.48754506602785175,0.06452389929371337,0.01226408127695322,-0.255415678024292,0.5892189741134644,0.06440097093582153,-0.0028625279664993286,0.0027666687965393066,-0.19876403157375078,1.387069979075372,0.16615583540486817,0.9638124108314514,0.19745784997940063,-0.17909744381904602
1728067765205,7i,9.400918291173536,0.8s : 0.3s,0.46486661896439685,0.04692514632767417,0.4624921664952998,0.059937473134346185,0.02097781002521515,-0.24611279368400574,0.5497978329658508,0.05992603302001953,-0.0011250972747802734,0.00032466650009155273,-0.1985637975578472,1.3870464271318106,0.1659022193391771,0.9638469815254211,0.19726155698299408,-0.17912736535072327
1728067765215,7i,9.400918291173536,0.8s : 0.3s,0.43906787493520644,0.04839544603206693,0.4363925751012216,0.059622865827729056,0.03465873375535011,-0.2355371117591858,0.5074988007545471,0.05950784683227539,0.003380328416824341,-0.0015085339546203613,-0.1983884174627845,1.3869760624587797,0.16553868017820458,0.9638684988021851,0.19708961248397827,-0.17920152842998505
1728067765225,7i,9.400918291173536,0.8s : 0.3s,0.4125004711519057,0.049837360279526274,0.40947878604503174,0.05706596373866005,0.0326114296913147,-0.22338728606700897,0.465461403131485,0.05673038959503174,0.005667731165885925,-0.0024625062942504883,-0.19821864743324352,1.3868797899008725,0.16515296877539865,0.9638841152191162,0.196923166513443,-0.1793004274368286
1728067765235,7i,9.400918291173536,0.8s : 0.3s,0.38551835847615123,0.05124735351124365,0.38209699485894927,0.0506025799670057,0.030852412804961205,-0.2036476731300354,0.42750123143196106,0.0505329966545105,-0.0015564709901809692,0.0021481961011886597,-0.1980855500248568,1.3868346319017264,0.16479725500661382,0.9639018177986145,0.19679267704486847,-0.17934875190258026
1728067765245,7i,9.400918291173536,0.8s : 0.3s,0.35888270365264024,0.052613972334836466,0.35500502094502534,0.04594588846389201,0.03844388574361801,-0.1909242868423462,0.3893986940383911,0.045857906341552734,-0.0027466118335723877,-0.0007302165031433105,-0.19789873221103216,1.386835906989906,0.16442067003909047,0.9639381170272827,0.1966095119714737,-0.1793542355298996
1728067765255,7i,9.400918291173536,0.8s : 0.3s,0.33292910085159877,0.053931807140477926,0.3285318042022968,0.04406039707042689,0.044723354279994965,-0.17428432404994965,0.35520103573799133,0.04351508617401123,0.0031729042530059814,-0.006139099597930908,-0.1976973517649938,1.3868351729457138,0.1639803015112976,0.9639768600463867,0.19641205668449402,-0.1793621927499771
1728067765265,7i,9.400918291173536,0.8s : 0.3s,0.30696713730496045,0.05514161843078738,0.3019738818209877,0.035018892785806284,0.05072958022356033,-0.1622595340013504,0.31575947999954224,0.03372448682785034,-0.003527715802192688,-0.008748546242713928,-0.19748153637204893,1.386827534822724,0.16351793734696285,0.9640172123908997,0.1962004452943802,-0.17937731742858887
1728067765275,7i,9.400918291173536,0.8s : 0.3s,0.28097475296394825,0.056253701189070617,0.2752859112008504,0.03124870691965045,0.05858137831091881,-0.1468571424484253,0.2769036889076233,0.02989673614501953,-0.0014142543077468872,-0.008981466293334961,-0.19728686999698306,1.3867756558890811,0.162987878020134,0.9640454053878784,0.196009561419487,-0.17943429946899414
1728067765285,7i,9.400918291173536,0.8s : 0.3s,0.2546793630439647,0.057264405981769684,0.24815794520432874,0.026012718206013367,0.05335013195872307,-0.13196375966072083,0.23710954189300537,0.025297880172729492,0.0005202591419219971,-0.006033912301063538,-0.19713473805790346,1.3867311630173997,0.16246128974308244,0.964066743850708,0.1958603709936142,-0.17948265373706818
1728067765295,7i,9.400918291173536,0.8s : 0.3s,0.22675197452544651,0.05818521580239373,0.21915961902964154,0.02154178917960478,0.052781544625759125,-0.12303951382637024,0.1846010684967041,0.021519601345062256,0.0001045912504196167,0.0009718537330627441,-0.19709176223230895,1.38665154834713,0.161941683479811,0.9640607237815857,0.195818230509758,-0.17956094443798065
1728067765305,7i,9.400918291173536,0.8s : 0.3s,0.19814538357762052,0.05896788253132517,0.18916760257214818,0.012293139610475706,0.05073730647563934,-0.06385989487171173,0.16028393805027008,0.01207423210144043,-0.0018656551837921143,0.0013614445924758911,-0.19738931918180974,1.3866320261371121,0.16150081880972322,0.9639997482299805,0.19611001014709473,-0.1795690655708313
1728067765315,7i,9.400918291173536,0.8s : 0.3s,0.18000978889059344,0.05972383090691871,0.16981339204620405,0.023466315411801594,0.008223134092986584,-0.10963749885559082,0.15329207479953766,0.019712448120117188,-0.005557060241699219,0.011454537510871887,-0.19721690684692975,1.3865678401128532,0.1611943584687918,0.9640214443206787,0.19594094157218933,-0.1796371340751648
1728067765325,7i,9.400918291173536,0.8s : 0.3s,0.15799852332186634,0.06050869211923975,0.14595284015705004,0.047329738492742,0.0002745299134403467,-0.09094873070716858,0.10407570004463196,0.041661202907562256,-0.015921607613563538,0.015841424465179443,-0.19726750435822238,1.3864156301226378,0.1610889070539806,0.9639844298362732,0.19599056243896484,-0.17978206276893616
1728067765335,7i,9.400918291173536,0.8s : 0.3s,0.13683255605568845,0.061241675687514194,0.12236259867998246,0.0328368423573996,0.010951142758131027,-0.06826791912317276,0.07484430819749832,0.004256606101989746,-0.03138357400894165,0.00867241621017456,-0.19733465653207533,1.3863470998270149,0.16106503567027092,0.9639592170715332,0.19605641067028046,-0.17984570562839508
1728067765345,7i,9.400918291173536,0.8s : 0.3s,0.11957680974367368,0.06192162122076599,0.10229528949989201,0.02168807140313861,0.020916424691677094,-0.053943928331136703,0.06091850996017456,0.004010021686553955,-0.02033989131450653,0.006370320916175842,-0.19741616945825757,1.3862786890925047,0.16089455965832572,0.9639310836791992,0.19613634049892426,-0.17990870773792267
1728067765355,7i,9.400918291173536,0.8s : 0.3s,0.10378072415567514,0.06256984922016226,0.0827976610469311,0.018868426504666986,0.01993345282971859,-0.04436906427145004,0.03353455662727356,0.013543307781219482,-0.01245085895061493,0.004191949963569641,-0.19746262847884613,1.3861781990876703,0.16068539350200056,0.9639040231704712,0.19618190824985504,-0.18000389635562897
1728067765365,7i,9.400918291173536,0.8s : 0.3s,0.09068491746891197,0.06317728062459466,0.06505678649629563,0.02331731725247606,0.012353429570794106,-0.029203295707702637,0.019803062081336975,0.00561213493347168,-0.02185167372226715,0.005891144275665283,-0.1975418728002076,1.3860745847952127,0.16052427698894484,0.9638701677322388,0.19625960290431976,-0.1801009178161621
1728067765375,7i,9.400918291173536,0.8s : 0.3s,0.08010481529358646,0.0637519153592422,0.04850231665856409,0.024667133621102854,0.010201862081885338,-0.017740782350301743,0.0017894415650516748,0.0067102909088134766,-0.022211953997612,0.008370697498321533,-0.19761360944678913,1.385984768802349,0.16041253464979677,0.9638400673866272,0.19632995128631592,-0.18018490076065063
1728067765385,7i,9.400918291173536,0.8s : 0.3s,0.07299932363438498,0.06430332551353955,0.03455406747370636,0.026376526819654498,-0.0033492334187030792,-0.008466546423733234,-0.0028359699063003063,0.0091666579246521,-0.02280886471271515,0.009562909603118896,-0.19761546085239817,1.3859034628865075,0.1603798219646061,0.9638251662254333,0.19633175432682037,-0.1802632212638855
1728067765395,7i,9.400918291173536,0.8s : 0.3s,0.06996440396443622,0.06482403165104857,0.026322286044389704,0.03089867370504438,-0.01623520441353321,-0.005738137289881706,-0.0012149036629125476,0.0025140047073364258,-0.027609258890151978,0.013643190264701843,-0.1976248305202423,1.3859125396759941,0.16048213497356154,0.9638250470161438,0.19634094834327698,-0.18025414645671844
1728067765405,7i,9.400918291173536,0.8s : 0.3s,0.0695948124024233,0.0653123802006406,0.024036033488399475,0.026526456369857017,-0.01699167676270008,-0.012135627679526806,-0.003822770668193698,0.0023245811462402344,-0.02567461133003235,0.0062500834465026855,-0.19758137756577618,1.3859856366573529,0.16068182716594914,0.9638465642929077,0.19629834592342377,-0.1801852434873581
1728067765415,7i,9.400918291173536,0.8s : 0.3s,0.06933674516338954,0.06576814589949903,0.021957577616737067,0.016656888443959433,-0.0007344086770899594,-0.014071745797991753,-0.00383582036010921,0.0032929182052612305,-0.01606251299381256,0.002933308482170105,-0.1974734686873011,1.3859163173516778,0.16075990556421357,0.9638549089431763,0.19619253277778625,-0.1802559494972229
1728067765425,7i,9.400918291173536,0.8s : 0.3s,0.06922184548899166,0.06618282422373119,0.020285405361306765,0.009359930692148619,0.007797427009791136,-0.01019875518977642,-0.000960438628681004,-0.0004482269287109375,-0.009286314249038696,0.0010824799537658691,-0.19737876745967917,1.3858296057732085,0.16072554434891137,0.9638574719429016,0.1960996687412262,-0.18034294247627258
1728067765435,7i,9.400918291173536,0.8s : 0.3s,0.06917808721010325,0.06655836522869236,0.018857141038149124,0.012649148016747078,0.016636192798614502,-0.007020804565399885,0.0029826376121491194,-0.0010709166526794434,-0.012223929166793823,-0.0030707716941833496,-0.19726233581688948,1.3857735793948263,0.16061202182500767,0.9638698697090149,0.19598549604415894,-0.18040114641189575
1728067765445,7i,9.400918291173536,0.8s : 0.3s,0.06919492990713358,0.06690587495395177,0.017650558673857845,0.012116005483960446,0.018569648265838623,-0.004265941679477692,0.006393747869879007,0.0025628209114074707,-0.011316269636154175,-0.003488779067993164,-0.19706808462000816,1.3857237881481488,0.16044190405121714,0.963898241519928,0.19579501450061798,-0.18045613169670105
1728067765455,7i,9.400918291173536,0.8s : 0.3s,0.06917167421174085,0.0672254423040343,0.016292956155411726,0.021346474479621368,0.0026362210046499968,0.001356789842247963,0.01066306047141552,-0.0012426376342773438,-0.02119666337966919,-0.002197563648223877,-0.19682725862472836,1.3857545917856602,0.16035016483263517,0.9639500379562378,0.1955588310956955,-0.18043510615825653
1728067765465,7i,9.400918291173536,0.8s : 0.3s,0.0691442050163617,0.06751827888049944,0.014906478603605899,0.031788196523537156,-0.010131105780601501,0.00039134942926466465,0.008723180741071701,-0.004507541656494141,-0.03140796720981598,-0.001926422119140625,-0.1966126546648852,1.385861207402502,0.16043080815789768,0.9640105962753296,0.1953483670949936,-0.18034005165100098
1728067765475,7i,9.400918291173536,0.8s : 0.3s,0.06917565249029942,0.06779558260092937,0.013748813667339838,0.019143774720489375,-0.009437086060643196,-0.001407349482178688,0.007569233421236277,0.0027094483375549316,-0.01850181818008423,-0.004101917147636414,-0.19639768863184298,1.3859732657457875,0.16056834706868098,0.9640719890594482,0.19513754546642303,-0.1802397221326828
1728067765485,7i,9.400918291173536,0.8s : 0.3s,0.0692827593847132,0.0680575315763119,0.012972013864445794,0.008667807408323187,0.00795948039740324,-0.002539991866797209,0.008941826410591602,0.005976200103759766,-0.002870917320251465,-0.005583345890045166,-0.19618943176253423,1.3859982197372236,0.16060670002920327,0.9641163945198059,0.19493328034877777,-0.18022313714027405
1728067765495,7i,9.400918291173536,0.8s : 0.3s,0.06949672442384142,0.06828640186122188,0.012913637229342809,0.013881707599069284,0.04127243161201477,0.0014102747663855553,0.011591671966016293,0.0006903409957885742,0.00528755784034729,-0.012816667556762695,-0.19596116385186998,1.3859599265572702,0.16038032501867674,0.9641532301902771,0.1947093904018402,-0.18026822805404663
1728067765505,7i,9.400918291173536,0.8s : 0.3s,0.07128689693955437,0.06847704173867074,0.019817074203600057,0.01907381707898646,0.06612572073936462,0.003105776384472847,0.013755523599684238,-0.001258552074432373,0.009692355990409851,-0.016379401087760925,-0.1956862156016148,1.3858986691357689,0.15985949732383709,0.9641947746276855,0.19443969428539276,-0.1803371161222458
1728067765515,7i,9.400918291173536,0.8s : 0.3s,0.0741512157525061,0.06865082293839722,0.02802618967065528,0.01503515541863751,0.07183074206113815,-0.001537444768473506,0.012394381687045097,0.004613757133483887,0.0015442967414855957,-0.014226183295249939,-0.19535942241069235,1.385734953116039,0.15915896769193655,0.9642276167869568,0.19411912560462952,-0.1805066466331482
1728067765525,7i,9.400918291173536,0.8s : 0.3s,0.07631743925418973,0.0688169458733967,0.032993628096572324,0.018513785085462316,0.07205457985401154,-0.010344385169446468,0.015997672453522682,0.005902528762817383,-0.008664384484291077,-0.015259385108947754,-0.195033335596099,1.3855208801466696,0.15847629168651395,0.9642511010169983,0.1937992423772812,-0.18072472512722015
1728067765535,7i,9.400918291173536,0.8s : 0.3s,0.07759359284456527,0.06898567088112004,0.03552102002490862,0.014653893354112248,0.07134430855512619,-0.01593063212931156,0.013718805275857449,0.007805466651916504,-0.010441213846206665,-0.006692707538604736,-0.1946514489853108,1.3852276239635615,0.15778359838327113,0.964270830154419,0.19342458248138428,-0.18102113902568817
1728067765545,7i,9.400918291173536,0.8s : 0.3s,0.07815639897272018,0.06915029576168964,0.036423334504872874,0.011988859017142552,0.06383632868528366,-0.017377350479364395,0.01067847479134798,0.0063059329986572266,-0.00572890043258667,-0.008434906601905823,-0.19423428248730054,1.384897742544203,0.15711223536792598,0.9642903804779053,0.19301527738571167,-0.18135413527488708
1728067765555,7i,9.400918291173536,0.8s : 0.3s,0.07810335450094079,0.06930689757419589,0.036009553356568434,0.017602635132485105,0.04471643269062042,-0.01466891448944807,0.01193761732429266,0.0014143586158752441,-0.01588059961795807,-0.007460489869117737,-0.19392796065658136,1.3846264834628916,0.1565823398434377,0.9642991423606873,0.19271470606327057,-0.18162663280963898
1728067765565,7i,9.400918291173536,0.8s : 0.3s,0.0767626183206332,0.06945595699000322,0.03268592372936762,0.021792156267900806,0.02134665846824646,-0.010541636496782303,0.01121376920491457,-0.0011643767356872559,-0.021452486515045166,-0.003651455044746399,-0.19372828229420866,1.3844181950297691,0.15626987065674947,0.9642991423606873,0.19251875579357147,-0.1818346083164215
1728067765575,7i,9.400918291173536,0.8s : 0.3s,0.07511944239666377,0.06959586578573987,0.028272709306307518,0.016354516349037795,0.012449037283658981,-0.012847401201725006,0.005237902514636517,-0.0011550188064575195,-0.016035884618759155,-0.002997756004333496,-0.19365077695070151,1.3842020498929746,0.15611433841792505,0.9642743468284607,0.19244270026683807,-0.18204578757286072
1728067765585,7i,9.400918291173536,0.8s : 0.3s,0.0746157772908064,0.06971352856345132,0.02659958939427596,0.014413161270971125,0.015140561386942863,-0.014911307953298092,0.003073917469009757,-0.005654335021972656,-0.011193886399269104,-0.007103845477104187,-0.19364572882097378,1.383934760234684,0.15595559633718292,0.9642265439033508,0.19243775308132172,-0.18230368196964264
1728067765595,7i,9.400918291173536,0.8s : 0.3s,0.07394141446662672,0.06980223712514445,0.02439222141688989,0.013770431084744588,0.011226513423025608,-0.010730943642556667,0.005252116825431585,-0.010413646697998047,-0.00874309241771698,-0.002176940441131592,-0.1935895193860148,1.3837011685436296,0.15580662845456486,0.964194655418396,0.1923825889825821,-0.18253093957901
1728067765605,7i,9.400918291173536,0.8s : 0.3s,0.07361153002650052,0.06987087724935565,0.023167172146117923,0.012840800966540533,0.015168790705502033,-0.00836738757789135,0.0062790317460894585,-0.008862912654876709,-0.008510500192642212,0.003729119896888733,-0.19344574685724295,1.3834998610550941,0.15568015091236262,0.9641849398612976,0.19224150478839874,-0.18273016810417175
1728067765615,7i,9.400918291173536,0.8s : 0.3s,0.07331909555722545,0.0699299252755132,0.02203395843444151,0.008856632000228699,0.015589836053550243,-0.0031734248623251915,0.008828742429614067,-0.004368841648101807,-0.006619155406951904,0.00394207239151001,-0.19329105693235304,1.3833797293689323,0.15551063436346788,0.964192271232605,0.19208969175815582,-0.18285155296325684
1728067765625,7i,9.400918291173536,0.8s : 0.3s,0.07299237336759958,0.06998639293336927,0.020731410323735787,0.012166022049969966,0.0112976199015975,-0.003590209409594536,0.007153081241995096,-0.0028992295265197754,-0.007699832320213318,0.008962094783782959,-0.19314840719159632,1.3832901268880526,0.1553876347467678,0.9642028212547302,0.19194971024990082,-0.18294306099414825
1728067765635,7i,9.400918291173536,0.8s : 0.3s,0.07279665585062618,0.07005342212066062,0.01979573570795095,0.01932708631695035,0.011767934076488018,-0.01004943996667862,0.010654871352016926,0.0004885196685791016,-0.013888120651245117,0.013431966304779053,-0.19293939594356974,1.3831564656675817,0.15528349771362854,0.9642177820205688,0.1917445808649063,-0.18307942152023315
1728067765645,7i,9.400918291173536,0.8s : 0.3s,0.07270499941209238,0.07013600525569405,0.019156140171903344,0.0192607695856627,0.01738653890788555,-0.00984850525856018,0.004031756892800331,0.003467261791229248,-0.013324424624443054,0.013469040393829346,-0.19272259464083946,1.3829994412115842,0.15515264885106647,0.9642297625541687,0.19153179228305817,-0.18323855102062225
1728067765655,7i,9.400918291173536,0.8s : 0.3s,0.07270425107428277,0.07022537301158807,0.018822994173501306,0.013778668429625792,0.020761029794812202,-0.00876113586127758,0.007029410917311907,0.0027894973754882812,-0.004101678729057312,0.01285482943058014,-0.19254500327287974,1.382851810232252,0.15495956157779378,0.9642360806465149,0.19135747849941254,-0.18338726460933685
1728067765665,7i,9.400918291173536,0.8s : 0.3s,0.07248034117014658,0.0703205076052775,0.017562063269358608,0.014005433772183317,0.007105138618499041,-0.007095063105225563,0.0017433024477213621,0.0016036629676818848,-0.010769516229629517,0.00880897045135498,-0.19242043816261162,1.38270054513651,0.15482265245244203,0.9642317891120911,0.19123521447181702,-0.1835375726222992
1728067765675,7i,9.400918291173536,0.8s : 0.3s,0.07219798740708551,0.07042534983544001,0.01590029830504974,0.024024580911515388,-0.0009631741559132934,-0.007805061526596546,-0.0019007008522748947,-3.337860107421875e-05,-0.0201779305934906,0.013039574027061462,-0.192382972071566,1.3826029085256253,0.1547865422968391,0.9642209410667419,0.1911984384059906,-0.18363307416439056
1728067765685,7i,9.400918291173536,0.8s : 0.3s,0.07193709713235862,0.07053239136378674,0.014146650216076556,0.015375642164030721,-0.0041966512799263,-0.004898354411125183,-0.0023749100510030985,-7.277727127075195e-05,-0.012672588229179382,0.008706927299499512,-0.19238493510678145,1.3825702942757883,0.15482316973090451,0.9642145037651062,0.1912003755569458,-0.18366442620754242
1728067765695,7i,9.400918291173536,0.8s : 0.3s,0.07175242265358459,0.07063169586722336,0.012632248239276346,0.007781244887101739,-0.0010240273550152779,-0.001220795325934887,-0.003974937368184328,-0.0011841058731079102,-0.0017197877168655396,0.007495865225791931,-0.1924036373580416,1.382575442040893,0.1548511398562717,0.9642120599746704,0.19121873378753662,-0.18365882337093353
1728067765705,7i,9.400918291173536,0.8s : 0.3s,0.07160226894597468,0.07072467669423492,0.011176091656193356,0.008442359836285999,-0.004168554674834013,-0.0009673954918980598,0.0011936924420297146,-0.0011058449745178223,-0.002097487449645996,0.00810253620147705,-0.1923841743184716,1.3826274961895613,0.15488929852812683,0.964225172996521,0.1911996304988861,-0.18360930681228638
1728067765715,7i,9.400918291173536,0.8s : 0.3s,0.07147215901494648,0.07082027471665904,0.009631106027593163,0.013750608713165038,-0.007280990947037935,0.001990844029933214,0.0024158169981092215,0.00028127431869506836,-0.008459493517875671,0.01083683967590332,-0.1923210994696912,1.3827374440594877,0.15497452032170053,0.9642571210861206,0.19113771617412567,-0.18350553512573242
1728067765725,7i,9.400918291173536,0.8s : 0.3s,0.07146027174609186,0.07092269662136867,0.008748802316808512,0.012828594439529183,-0.0004232182982377708,-0.0034406285267323256,0.0001093531318474561,0.0026946067810058594,-0.009079411625862122,0.008653104305267334,-0.19225312882204995,1.382820885550433,0.15503089807856618,0.9642852544784546,0.19107098877429962,-0.18342751264572144
1728067765735,7i,9.400918291173536,0.8s : 0.3s,0.07145935488536229,0.07102419146341361,0.007874238223505527,0.009539565644396298,-0.0003957877343054861,0.00018819468095898628,0.0013527830597013235,0.0004194974899291992,-0.00788983702659607,0.005345821380615234,-0.19222266247011813,1.3828812837975202,0.15505121448727432,0.9643020033836365,0.19104109704494476,-0.18337035179138184
1728067765745,7i,9.400918291173536,0.8s : 0.3s,0.07148980343363118,0.07111611586322301,0.007300004075879895,0.01361242789723051,0.005059564486145973,0.000624731183052063,-0.002735135843977332,-0.004988133907318115,-0.011271998286247253,0.005775704979896545,-0.19217058286634275,1.3829437753761669,0.15503649853258283,0.9643232226371765,0.19098997116088867,-0.18331193923950195
1728067765755,7i,9.400918291173536,0.8s : 0.3s,0.07152869806910722,0.07119861263228609,0.006863833236550413,0.012939175763209484,0.006985828746110201,0.0006822554860264063,-0.005749834235757589,-0.004849255084991455,-0.011681437492370605,0.002729654312133789,-0.19209025632723062,1.383019944367652,0.15497964331404945,0.9643523097038269,0.19091111421585083,-0.1832413673400879
1728067765765,7i,9.400918291173536,0.8s : 0.3s,0.07157367093367707,0.07127380979342612,0.006544800107933447,0.011001663373999666,0.0071042063646018505,-0.0009772933553904295,-0.007842113263905048,-0.004017829895019531,-0.00855204463005066,0.005635261535644531,-0.19208890537874976,1.3830608342319108,0.15489705953697003,0.9643601179122925,0.19090978801250458,-0.18320198357105255
1728067765775,7i,9.400918291173536,0.8s : 0.3s,0.0715757393242592,0.07134339844922567,0.005762461065319919,0.010285159600453507,-0.0018096599960699677,-0.0009629123378545046,-0.009679694660007954,-0.0032444000244140625,-0.00915081799030304,0.0033942461013793945,-0.1921704126905613,1.3830873611725782,0.15484856833218366,0.964349627494812,0.19098980724811554,-0.18317349255084991
1728067765785,7i,9.400918291173536,0.8s : 0.3s,0.07153936494509001,0.07141372077456276,0.004238068177785239,0.012571463076569766,-0.013426369056105614,0.005872534587979317,-0.009044330567121506,-0.0015301108360290527,-0.01178807020187378,0.00409168004989624,-0.19227662346462088,1.3831671457953723,0.15489974071221935,0.964344322681427,0.1910940557718277,-0.18309277296066284
1728067765795,7i,9.400918291173536,0.8s : 0.3s,0.07154248164050939,0.07149220914595515,0.0026815500580130414,0.018201036963995144,-0.019057622179389,0.009765809401869774,-0.011985791847109795,0.00010311603546142578,-0.01780058443546295,0.0037955641746520996,-0.19237047173686536,1.3833441703211644,0.15507548479874936,0.9643589854240417,0.19118617475032806,-0.1829186975955963
1728067765805,7i,9.400918291173536,0.8s : 0.3s,0.07161761689010906,0.07158323673827867,0.002218843638021108,0.015750589769911397,-0.016201116144657135,0.0089625995606184,-0.0129359420388937,0.003461003303527832,-0.014803290367126465,0.004118874669075012,-0.19247261194294446,1.3835273251768754,0.15524914699682732,0.9643732905387878,0.19128642976284027,-0.18273843824863434
1728067765815,7i,9.400918291173536,0.8s : 0.3s,0.07174155745731697,0.07168971929677306,0.002726758799636642,0.012110131438259624,-0.0040491120889782906,0.008588958531618118,-0.012297848239541054,0.007745981216430664,-0.008739426732063293,0.0032058507204055786,-0.19257516038766634,1.3836475161883461,0.15532511474000207,0.9643760323524475,0.1913870871067047,-0.1826188713312149
1728067765825,7i,9.400918291173536,0.8s : 0.3s,0.0718868582250704,0.07181395077929376,0.003236797636637943,0.01279943546870798,-0.011452966369688511,0.009144051000475883,-0.010269451886415482,0.010106384754180908,-0.0064649879932403564,0.004459872841835022,-0.19265201602245632,1.3837525185672246,0.15536347865472377,0.96438068151474,0.19146251678466797,-0.18251486122608185
1728067765835,7i,9.400918291173536,0.8s : 0.3s,0.07235273910268775,0.0719616022713317,0.0075130988416409325,0.019444764870837045,-0.036547400057315826,0.009857244789600372,-0.008434267714619637,0.009960830211639404,-0.014266595244407654,0.008680149912834167,-0.19273424751190862,1.38388271683304,0.15557570046942687,0.9643891453742981,0.19154322147369385,-0.18238641321659088
1728067765845,7i,9.400918291173536,0.8s : 0.3s,0.07296050114572356,0.07212539269937525,0.011007381859281221,0.018418717655514224,-0.037905480712652206,0.013643150217831135,-0.0030393353663384914,0.007526874542236328,-0.01501348614692688,0.0075624436140060425,-0.192826731590877,1.3841047359699166,0.15596801099659038,0.9644122123718262,0.19163399934768677,-0.18216900527477264
1728067765855,7i,9.400918291173536,0.8s : 0.3s,0.07336908745629186,0.07229706576803707,0.01249629046962047,0.012147189450655035,-0.03592861816287041,0.010854021646082401,-0.0010025498922914267,0.008323431015014648,-0.008844628930091858,0.00021736323833465576,-0.19286896006980184,1.3842988699801733,0.15633550884596284,0.9644396305084229,0.19167543947696686,-0.18198028206825256
1728067765865,7i,9.400918291173536,0.8s : 0.3s,0.07357856590699456,0.07245357046665987,0.012817390044884152,0.008017193636653675,-0.022058339789509773,0.011299656704068184,0.0024917838163673878,0.0030863285064697266,0.001399219036102295,-0.007265821099281311,-0.19286363156716285,1.3844796956306535,0.1566351974545788,0.9644734859466553,0.19167020916938782,-0.1818060725927353
1728067765875,7i,9.400918291173536,0.8s : 0.3s,0.07366097291926388,0.07257456120196328,0.012604443571812876,0.016198689855473212,-0.013338085263967514,0.013686382211744785,0.007218628190457821,-0.004492998123168945,0.004281178116798401,-0.014962688088417053,-0.1927412442722881,1.3846648892500384,0.156808580127376,0.9645302295684814,0.1915500909090042,-0.18163178861141205
1728067765885,7i,9.400918291173536,0.8s : 0.3s,0.07367722235823641,0.07267166305032761,0.012131054526489316,0.017817173640758945,-0.010877057909965515,0.006082968786358833,0.00428109522908926,-0.005624353885650635,-0.009229391813278198,-0.014164626598358154,-0.19262355321038555,1.3848068455959157,0.1569435369438897,0.9645780324935913,0.1914345771074295,-0.18149901926517487
1728067765895,7i,9.400918291173536,0.8s : 0.3s,0.07366486685939046,0.07275122004179395,0.011566010195490969,0.020743199975276395,-0.00994388572871685,0.0018445478053763509,0.001510875066742301,-0.004946708679199219,-0.013228684663772583,-0.015192508697509766,-0.1925628711484438,1.3848780849366225,0.15704253325336548,0.9646023511886597,0.1913750171661377,-0.18143244087696075
1728067765905,7i,9.400918291173536,0.8s : 0.3s,0.07370068232873593,0.07282031437565581,0.011357481672972366,0.017489744361767152,-0.01559697836637497,-0.0005108406767249107,0.0015277861384674907,-0.001423478126525879,-0.00991833209991455,-0.01433497667312622,-0.1925325918051572,1.38493932928876,0.15717918710365658,0.9646191596984863,0.19134530425071716,-0.1813744455575943
1728067765915,7i,9.400918291173536,0.8s : 0.3s,0.07366904758768737,0.07287424055385723,0.01079229522277329,0.01509951864873338,-0.01024242676794529,-0.004670965019613504,-0.004029165953397751,-0.0038213729858398438,-0.007390767335891724,-0.012600362300872803,-0.19249146822827357,1.3849933481423777,0.1573289382256673,0.9646366834640503,0.19130493700504303,-0.18132378160953522
1728067765925,7i,9.400918291173536,0.8s : 0.3s,0.07355258274765336,0.07290918375773206,0.009707386498520218,0.015599012159481025,-0.002102075144648552,-0.008499214425683022,-0.0019345562905073166,-0.0038896799087524414,-0.0020600855350494385,-0.014965146780014038,-0.19243932044194156,1.3849790661613992,0.1573983107283213,0.9646437764167786,0.19125375151634216,-0.18133938312530518
1728067765935,7i,9.400918291173536,0.8s : 0.3s,0.07343982205592006,0.07294324424236019,0.008525877257185253,0.015033929804486668,0.0006686777342110872,-0.010353307239711285,0.003601090284064412,0.0017771124839782715,-0.006858214735984802,-0.013259932398796082,-0.1923841573977801,1.3848901080957023,0.15739599703682464,0.9646381139755249,0.19119961559772491,-0.18142716586589813
1728067765945,7i,9.400918291173536,0.8s : 0.3s,0.07335172199003437,0.07299102128060861,0.007265392715953663,0.017904163929700175,0.004675403703004122,-0.01274331659078598,0.00012386740127112716,0.004518330097198486,-0.015074223279953003,-0.008538827300071716,-0.19235998157596776,1.384726475465269,0.15736861681884617,0.9646129012107849,0.19117587804794312,-0.18158584833145142
1728067765955,7i,9.400918291173536,0.8s : 0.3s,0.07330593358459923,0.07304969119165451,0.0061239297443379795,0.01590652396255721,0.006019767373800278,-0.0090425880625844,0.0009478494175709784,0.0022881031036376953,-0.015388444066047668,-0.00331328809261322,-0.1923692074040973,1.3844973816263701,0.15728939524008284,0.964569628238678,0.19118493795394897,-0.1818065196275711
1728067765965,7i,9.400918291173536,0.8s : 0.3s,0.07333705586438156,0.07311747999758136,0.005670791978084786,0.011938091193129215,-0.0007489228737540543,-0.012646999210119247,-0.0020887532737106085,0.0017387866973876953,-0.011107414960861206,0.0040149688720703125,-0.19232939989063894,1.3842889589593845,0.15724074704934538,0.9645391702651978,0.1911458671092987,-0.18200896680355072
1728067765975,7i,9.400918291173536,0.8s : 0.3s,0.07343498787294041,0.07320392646706829,0.005820875681799417,0.016807948044637762,-0.004448053427040577,-0.020702263340353966,-0.00236092833802104,0.005381643772125244,-0.015661805868148804,0.002872779965400696,-0.1922901338127726,1.3840191612035209,0.1572521725190203,0.9644973278045654,0.19110731780529022,-0.1822705715894699
1728067765985,7i,9.400918291173536,0.8s : 0.3s,0.07358292436613474,0.0733160733351183,0.0062610022354140675,0.020007168243832404,-0.0006330753676593304,-0.026892870664596558,-0.004579008556902409,0.008506178855895996,-0.017365023493766785,0.005136892199516296,-0.19226877860789104,1.3836816782512409,0.15725103865185922,0.9644399881362915,0.19108635187149048,-0.1825968623161316
1728067765995,7i,9.400918291173536,0.8s : 0.3s,0.07370733299831225,0.07343784978326147,0.006297075268345857,0.011635078019428707,0.01030399464070797,-0.022963374853134155,-0.001420499524101615,0.005393803119659424,-0.006740272045135498,0.007800683379173279,-0.19226401721685035,1.383340528977236,0.1571870531935491,0.9643785357475281,0.1910816878080368,-0.1829260289669037
1728067766005,7i,9.400918291173536,0.8s : 0.3s,0.07379964999643271,0.07354712075645428,0.006099948199083332,0.006078354840909917,0.01849214918911457,-0.017031360417604446,0.0005975106032565236,-0.002732396125793457,-0.0030460208654403687,0.00449468195438385,-0.1922312440787705,1.3830199313709934,0.15701877571971512,0.9643257856369019,0.1910495162010193,-0.18323633074760437
1728067766015,7i,9.400918291173536,0.8s : 0.3s,0.07391549702609809,0.07364957563174286,0.006264240566844719,0.01246635707661786,0.00810928363353014,-0.01470695436000824,0.003692636266350746,-0.0037581920623779297,-0.009453356266021729,0.007205560803413391,-0.19213660901717888,1.3827756235155257,0.1568732741380242,0.9642987251281738,0.19095662236213684,-0.1834753006696701
1728067766025,7i,9.400918291173536,0.8s : 0.3s,0.07406636351582775,0.07376439544485919,0.0066813298910604665,0.030578554283753116,-0.003432723693549633,-0.015404746867716312,0.009298889897763729,-0.003843963146209717,-0.026725709438323975,0.014352992177009583,-0.19198054791968935,1.3825849788340339,0.15685908454071262,0.9642930030822754,0.1908034235239029,-0.1836647093296051
1728067766035,7i,9.400918291173536,0.8s : 0.3s,0.07423553311311014,0.07389836839842179,0.007067214772370271,0.0296490136568907,-0.009418711066246033,-0.01352402288466692,0.006400305777788162,0.0006847381591796875,-0.02606038749217987,0.014122724533081055,-0.19183130396840123,1.382449548184404,0.15693248553323272,0.9642962217330933,0.19065693020820618,-0.18380065262317657
1728067766045,7i,9.400918291173536,0.8s : 0.3s,0.07442404635612679,0.07404043685202967,0.00754668051394224,0.01995610107096386,-0.009997015818953514,-0.015173804946243763,0.003512074239552021,0.0006854534149169922,-0.01819312572479248,0.008172288537025452,-0.1917444236860923,1.3823573118996952,0.1570491878700075,0.9642954468727112,0.1905716359615326,-0.18389268219470978
1728067766055,7i,9.400918291173536,0.8s : 0.3s,0.07458698865515286,0.07418269119638497,0.007755462816988453,0.014004940554653149,-0.0036171474494040012,-0.013983373530209064,6.141634366940707e-05,-7.665157318115234e-05,-0.012736320495605469,0.005823969841003418,-0.19165710505064432,1.3822640106652306,0.15713094318424844,0.9642946720123291,0.19048592448234558,-0.18398578464984894
1728067766065,7i,9.400918291173536,0.8s : 0.3s,0.07477315259119033,0.07432958647240466,0.008132461083014849,0.017313316501212865,-0.005179757252335548,-0.01656615175306797,-0.0017730023246258497,0.0006139874458312988,-0.016386762261390686,0.005554094910621643,-0.19158303634672752,1.3821668278674737,0.1571719423488476,0.9642906188964844,0.1904132068157196,-0.18408213555812836
1728067766075,7i,9.400918291173536,0.8s : 0.3s,0.07500516235919494,0.07448662444754081,0.008804382939207609,0.024392775448510953,-0.01873950846493244,-0.016396507620811462,0.003219625912606716,6.097555160522461e-05,-0.023142248392105103,0.0077097415924072266,-0.1915632834987541,1.3820841293184285,0.15728833377795384,0.9642791152000427,0.1903938204050064,-0.18416258692741394
1728067766085,7i,9.400918291173536,0.8s : 0.3s,0.0752877643849656,0.07465482334752332,0.009741910338130794,0.026428986517989642,-0.021543150767683983,-0.019617734476923943,0.0014957947423681617,-0.00025218725204467773,-0.02439737319946289,0.010158538818359375,-0.19156724594460672,1.3819655559168103,0.15750218522173842,0.9642565250396729,0.190397709608078,-0.1842767894268036
1728067766095,7i,9.400918291173536,0.8s : 0.3s,0.07555738720480885,0.07481832637367049,0.010542143987839238,0.014432446971228714,-0.015834931284189224,-0.02141376957297325,0.001547460095025599,-0.0017277002334594727,-0.013305634260177612,0.005317017436027527,-0.19155319395197137,1.3818441406191395,0.15771045519998825,0.964236855506897,0.1903839111328125,-0.18439437448978424
1728067766105,7i,9.400918291173536,0.8s : 0.3s,0.0758030231912131,0.0749710944359425,0.011199701960524647,0.006223303742112797,-0.012246854603290558,-0.02239079400897026,0.0006817331304773688,-0.0005226731300354004,-0.003150627017021179,0.005341336131095886,-0.19145185316711902,1.3817435292114595,0.1578677785842922,0.9642372727394104,0.19028441607952118,-0.1844950169324875
1728067766115,7i,9.400918291173536,0.8s : 0.3s,0.07597416928181124,0.07511485464008003,0.011394428922107423,0.007233758868238313,-0.007427864708006382,-0.018305771052837372,0.00022446834191214293,0.0004506707191467285,-0.0008348673582077026,0.007171273231506348,-0.19133110386615587,1.3816383737835851,0.15797330565226167,0.964240312576294,0.19016587734222412,-0.18460071086883545
1728067766125,7i,9.400918291173536,0.8s : 0.3s,0.07609138418191165,0.07525170420861106,0.01127296591048616,0.011277220276110752,-0.004685074556618929,-0.014752138406038284,-0.0006075698183849454,-0.0020630359649658203,-0.007084712386131287,0.008527979254722595,-0.19124708800721943,1.3815321580580437,0.15802962194180076,0.9642364978790283,0.19008339941501617,-0.18470615148544312
1728067766135,7i,9.400918291173536,0.8s : 0.3s,0.07622280095401299,0.07537887480662912,0.011311083863256379,0.010943390280634473,-0.0029431013390421867,-0.018135951831936836,-0.008643126115202904,-0.0037794113159179688,-0.00915294885635376,0.004658043384552002,-0.19123995439270428,1.3813997814638688,0.15806846663730015,0.9642131924629211,0.19007639586925507,-0.18483401834964752
1728067766145,7i,9.400918291173536,0.8s : 0.3s,0.07642814892893914,0.07550276669293102,0.011857241265021362,0.010639869086821345,-0.01081220991909504,-0.021763887256383896,-0.014517659321427345,-0.0012259483337402344,-0.009287342429161072,0.005044713616371155,-0.19128357136540936,1.381250352917859,0.158138745175291,0.9641774296760559,0.190119206905365,-0.18497653305530548
1728067766155,7i,9.400918291173536,0.8s : 0.3s,0.07660288986000953,0.07562717250779194,0.012187432600077487,0.01598988651880663,-0.004576950799673796,-0.021753501147031784,-0.00957776140421629,-0.0017837882041931152,-0.01019527018070221,0.012188151478767395,-0.19132244467387569,1.381088222977889,0.15822161981773197,0.9641401767730713,0.19015736877918243,-0.18513146042823792
1728067766165,7i,9.400918291173536,0.8s : 0.3s,0.07673873933510632,0.07575484561323512,0.012248978767893508,0.015024756789533994,0.008183052763342857,-0.02347283810377121,-0.002500677714124322,-0.00016391277313232422,-0.010381847620010376,0.01085972785949707,-0.19124828389867218,1.3809178361481602,0.1582055468632594,0.9641225337982178,0.1900845617055893,-0.18529841303825378
1728067766175,7i,9.400918291173536,0.8s : 0.3s,0.076865334494572,0.07589138163200297,0.012197452231844208,0.027123246233243064,0.012282988987863064,-0.022105835378170013,0.003443497698754072,-0.003988027572631836,-0.023303374648094177,0.013293564319610596,-0.19116788747961508,1.3807229365390135,0.15811923080486504,0.9641014337539673,0.19000563025474548,-0.1854892075061798
1728067766185,7i,9.400918291173536,0.8s : 0.3s,0.07745373341022749,0.07605521763393962,0.014652122366287743,0.04236784957298819,0.037776898592710495,-0.03326510637998581,-0.0015808885218575597,-0.007417500019073486,-0.04076923429965973,0.008825242519378662,-0.19108460321208273,1.3804544062463737,0.15791914485886915,0.9640671610832214,0.18992386758327484,-0.1857510805130005
1728067766195,7i,9.400918291173536,0.8s : 0.3s,0.07906330500743637,0.07624091977271562,0.020936292673471423,0.043036346216076306,0.06421250104904175,-0.020542649552226067,0.013111238367855549,-0.005362391471862793,-0.0426705926656723,0.001610085368156433,-0.19090756629739442,1.3802211996128995,0.15738214171352605,0.9640568494796753,0.1897500455379486,-0.18598228693008423
1728067766205,7i,9.400918291173536,0.8s : 0.3s,0.0801683336739741,0.07644659187631618,0.02414291437580802,0.049289290648853595,0.059012409299612045,-0.011939041316509247,0.01063736155629158,-0.006909787654876709,-0.048196613788604736,-0.0076665133237838745,-0.190645700618937,1.3799927728537673,0.1567321592014513,0.9640629291534424,0.18949294090270996,-0.18621188402175903
1728067766215,7i,9.400918291173536,0.8s : 0.3s,0.08503296582882601,0.07672034897815233,0.036668696872357076,0.07264532902700019,0.09740906953811646,-0.018233954906463623,0.022694824263453484,-0.013924479484558105,-0.07128454744815826,-0.001402139663696289,-0.19032083649777992,1.3797272746802653,0.15605234657074238,0.964073896408081,0.18917395174503326,-0.18647952377796173
1728067766225,7i,9.400918291173536,0.8s : 0.3s,0.09678169786089706,0.07701759179349198,0.05860876722103103,0.05591326874544928,0.1631832867860794,-0.011822395026683807,0.030763402581214905,-0.0022254586219787598,-0.05400826036930084,-0.014298558235168457,-0.18977354408784514,1.3793706185320873,0.15478401885784035,0.9641088843345642,0.18863651156425476,-0.18684303760528564
1728067766235,7i,9.400918291173536,0.8s : 0.3s,0.12473291077282274,0.07732810334988732,0.09787064658093407,0.039845708143941116,0.28023213148117065,-0.015456544235348701,0.04077715426683426,0.0014308691024780273,-0.03752131760120392,-0.013333559036254883,-0.18898915662823765,1.3789528400426252,0.1527329194895076,0.9641757011413574,0.18786615133285522,-0.18727394938468933
1728067766245,7i,9.400918291173536,0.8s : 0.3s,0.1730671001833347,0.07764208607170801,0.15467361648420164,0.044995959019356324,0.42471078038215637,-0.019002187997102737,0.053997285664081573,0.0012114644050598145,-0.036094218492507935,-0.02683982253074646,-0.18784702800264125,1.3781904114140922,0.14931997357387447,0.9642425775527954,0.18674422800540924,-0.18804997205734253
1728067766255,7i,9.400918291173536,0.8s : 0.3s,0.24642440315195183,0.07795440361240585,0.23376932524655542,0.037254622171095465,0.6206429600715637,-0.03644562512636185,0.05212854593992233,0.014444172382354736,-0.010602623224258423,-0.032662779092788696,-0.1861447132942496,1.3770922107512238,0.144228165257499,0.9643461108207703,0.18507158756256104,-0.1891697198152542
1728067766265,7i,9.400918291173536,0.8s : 0.3s,0.3296679742669565,0.07824773844357535,0.3202471930958092,0.05373855242951629,0.7754287123680115,-0.021511463448405266,0.06381752341985703,0.0098610520362854,-0.012027174234390259,-0.05143868923187256,-0.18414769921664323,1.375623140503241,0.13740917332767916,0.9644277691841125,0.18310870230197906,-0.19065748155117035
1728067766275,7i,9.400918291173536,0.8s : 0.3s,0.4045819133184362,0.07852176202203773,0.39688897373618365,0.04134210644006486,0.8556495308876038,-0.041297152638435364,0.051895882934331894,0.008722424507141113,-0.006579488515853882,-0.03987228870391846,-0.18177318071047957,1.3738591323259324,0.12936818482409776,0.9645135402679443,0.18077382445335388,-0.19244296848773956
1728067766285,7i,9.400918291173536,0.8s : 0.3s,0.4844176875293706,0.0787836143718676,0.47796823963293605,0.03359090759671512,0.9921658635139465,-0.031159119680523872,0.05831150710582733,0.007569372653961182,-0.00944945216178894,-0.0313330739736557,-0.17929273102002868,1.3718043600152254,0.12020218981493251,0.964552640914917,0.17833368480205536,-0.19451245665550232
1728067766295,7i,9.400918291173536,0.8s : 0.3s,0.5573526764953585,0.07900367532375506,0.5517249543766154,0.04143859916015573,1.0749273300170898,-0.02993805892765522,0.08455295860767365,0.0037164688110351562,0.00750809907913208,-0.04058292508125305,-0.17663649096313475,1.3697212946416693,0.11014873459319044,0.9646060466766357,0.17571939527988434,-0.19661515951156616
1728067766305,7i,9.400918291173536,0.8s : 0.3s,0.6282748410262432,0.0791988305312218,0.6232630432722912,0.046943339971928656,1.1727007627487183,-0.017659511417150497,0.10739093273878098,0.004674077033996582,-0.004329994320869446,-0.04650893807411194,-0.17348810675641377,1.3675634760933428,0.09911660787872562,0.9647167325019836,0.17261913418769836,-0.19880685210227966
1728067766315,7i,9.400918291173536,0.8s : 0.3s,0.6963829938666007,0.07936923034513227,0.691845213484224,0.0632944837644468,1.2642461061477661,-0.0027559297159314156,0.11773305386304855,-0.009480178356170654,-0.03916323184967041,-0.04881146550178528,-0.17000099857904943,1.3653781513730145,0.08723267777155656,0.9648634195327759,0.16918332874774933,-0.20103615522384644
1728067766325,7i,9.400918291173536,0.8s : 0.3s,0.7630299843829268,0.07948702056345379,0.7588784953003705,0.08223928678998327,1.3597406148910522,0.004045828245580196,0.1090269461274147,-0.01596987247467041,-0.04666987061500549,-0.06580415368080139,-0.16625487294601662,1.363196821522377,0.07445056380885391,0.9650360345840454,0.1654900312423706,-0.2032695710659027
1728067766335,7i,9.400918291173536,0.8s : 0.3s,0.8298874413897555,0.0795941705032847,0.826061700721156,0.0864153977219897,1.461227297782898,0.032401300966739655,0.10182016342878342,-0.01657766103744507,-0.050459444522857666,-0.06816631555557251,-0.16240901701691848,1.3610679436860047,0.060667674502211444,0.9652164578437805,0.16169598698616028,-0.2054545283317566
1728067766345,7i,9.400918291173536,0.8s : 0.3s,0.8826063602805138,0.07969744253825836,0.8790007422411411,0.07760409684934494,1.4886351823806763,0.06726439297199249,0.1183132603764534,-0.013516485691070557,-0.030575349926948547,-0.07003462314605713,-0.15829550401269882,1.3592413764159534,0.046212116438644105,0.965481698513031,0.15763525664806366,-0.20735512673854828
1728067766355,7i,9.400918291173536,0.8s : 0.3s,0.912046924603305,0.0798212613384666,0.9085472794063516,0.08312858271467502,1.4519938230514526,0.04432525113224983,0.10824171453714371,-0.0029296278953552246,-0.0330810546875,-0.07620644569396973,-0.15414360416529832,1.3575411037378275,0.03189405475681435,0.9657590985298157,0.1535339206457138,-0.20913313329219818
1728067766365,7i,9.400918291173536,0.8s : 0.3s,0.929310423408782,0.0800086122456499,0.925859862518478,0.07218583475666215,1.4368706941604614,0.03284503147006035,0.08857576549053192,0.008550584316253662,-0.043624892830848694,-0.05687311291694641,-0.1501916893843785,1.355745093149788,0.01783441605903373,0.9659672379493713,0.1496276706457138,-0.210995152592659
1728067766375,7i,9.400918291173536,0.8s : 0.3s,0.9305717322704998,0.0802141193138963,0.9271081080238781,0.06508115992713472,1.3979579210281372,0.025129053741693497,0.050391364842653275,0.013788104057312012,-0.005060598254203796,-0.06340217590332031,-0.14652980262679965,1.353952151532336,0.003998963030502206,0.9661158919334412,0.1460060030221939,-0.2128431797027588
1728067766385,7i,9.400918291173536,0.8s : 0.3s,0.9359384029393095,0.08027259058311101,0.9324896810676575,0.0864628139650694,1.4165785312652588,0.01317052822560072,-0.015314909629523754,-0.009757697582244873,0.05722682178020477,-0.06407570838928223,-0.14338297637968825,1.3520976635005477,-0.00982537710875388,0.9661632180213928,0.14289218187332153,-0.2147330641746521
1728067766395,7i,9.400918291173536,0.8s : 0.3s,0.9647127104653698,0.07951892663932535,0.9614298487355019,0.17622462590181776,1.5360735654830933,0.0040412116795778275,-0.05378800258040428,-0.029872238636016846,0.15338735282421112,-0.08145605027675629,-0.14060876294837377,1.3500546437895535,-0.024071454316820274,0.9661055207252502,0.1401458978652954,-0.21679246425628662
1728067766405,7i,9.400918291173536,0.8s : 0.3s,1.003375801228441,0.07779746003829087,1.0003552137627947,0.26874790391099684,1.6266416311264038,0.009202240034937859,-0.10898666828870773,-0.040640294551849365,0.24591301381587982,-0.10050170123577118,-0.13796230033744059,1.3478982105240198,-0.03952121032391932,0.965994119644165,0.1375250667333603,-0.21895651519298553
1728067766415,7i,9.400918291173536,0.8s : 0.3s,1.0475202042487017,0.07503567936201212,1.0448292803764274,0.32418252650631985,1.7078698873519897,0.005595521070063114,-0.1730322390794754,-0.08262348175048828,0.3009941577911377,-0.08757960796356201,-0.135685818736987,1.3456496035380634,-0.05587666716939647,0.965802013874054,0.1352698653936386,-0.22119742631912231
1728067766425,7i,9.400918291173536,0.8s : 0.3s,1.1049413123494827,0.07124943006944635,1.1026417471016485,0.3761851408752941,1.8320486545562744,-0.03082689270377159,-0.2635915279388428,-0.12937164306640625,0.3401147425174713,-0.09539496898651123,-0.13390253676850047,1.3430693774995561,-0.07331366502157831,0.9654615521430969,0.1335027515888214,-0.2237427979707718
1728067766435,7i,9.400918291173536,0.8s : 0.3s,1.181852071626655,0.06641384350351714,1.1799845425255815,0.45701144547995215,2.004185199737549,-0.022788405418395996,-0.34284719824790955,-0.17691057920455933,0.408279687166214,-0.10425835847854614,-0.1325745896178798,1.3401052248308756,-0.09247435404488973,0.9649658799171448,0.13218657672405243,-0.22664391994476318
1728067766445,7i,9.400918291173536,0.8s : 0.3s,1.2566542528596572,0.06059901592535379,1.2551922842732672,0.5608864197503208,2.095069646835327,-0.01442057453095913,-0.4266554117202759,-0.2282240390777588,0.49367839097976685,-0.13707301020622253,-0.13165575516621789,1.3371056597007487,-0.11304940111403415,0.9643993377685547,0.1312757432460785,-0.22956536710262299
1728067766455,7i,9.400918291173536,0.8s : 0.3s,1.3353494778865496,0.05425566432400337,1.3342468103692966,0.6198680726139058,2.2077643871307373,-0.025643136352300644,-0.5266632437705994,-0.2741060256958008,0.5447022318840027,-0.11136333644390106,-0.13133412476702797,1.333951765757,-0.13469578591433487,0.9637115597724915,0.13095688819885254,-0.23261573910713196
1728067766465,7i,9.400918291173536,0.8s : 0.3s,1.4087361052542298,0.04833716036258929,1.4079065782838496,0.6607280040645536,2.2717342376708984,-0.05632013455033302,-0.6485670208930969,-0.2964669466018677,0.5768677592277527,-0.126065194606781,-0.1317496743742874,1.3304297093934088,-0.15752823143224287,0.9628334045410156,0.13136886060237885,-0.2359955757856369
1728067766475,7i,9.400918291173536,0.8s : 0.3s,1.4587664623460768,0.044120193355283256,1.4580991050693297,0.6956230235356905,2.223031997680664,-0.07564136385917664,-0.7956275939941406,-0.32858675718307495,0.5973340272903442,-0.1382540911436081,-0.133361777003801,1.3266155568725078,-0.1807285204912011,0.9617195129394531,0.1329668164253235,-0.23961474001407623
1728067766485,7i,9.400918291173536,0.8s : 0.3s,1.489647354462408,0.04302025260413337,1.4890260234538306,0.7372230860503676,2.1437838077545166,-0.08274734020233154,-0.9572403430938721,-0.3818128705024719,0.6131744384765625,-0.14742428064346313,-0.13654755992815548,1.3226641681644633,-0.20360675481360158,0.9603497385978699,0.1361236274242401,-0.2433077096939087
1728067766495,7i,9.400918291173536,0.8s : 0.3s,1.516096940786328,0.04623999646348826,1.515391631423613,0.7758493559746364,2.0883774757385254,-0.10451708734035492,-1.1383365392684937,-0.4140995144844055,0.6423702836036682,-0.13350743055343628,-0.14147208495913324,1.3185115416558593,-0.22618585817497558,0.9586703181266785,0.1410006433725357,-0.24712325632572174
1728067766505,7i,9.400918291173536,0.8s : 0.3s,1.553217095429208,0.05426230494944927,1.552268967606812,0.844603397378153,2.0996294021606445,-0.1553686410188675,-1.2941336631774902,-0.4128960371017456,0.7231234312057495,-0.1412949562072754,-0.14800647329279995,1.313792008786676,-0.24894647394232824,0.9565818309783936,0.14746668934822083,-0.25140541791915894
1728067766515,7i,9.400918291173536,0.8s : 0.3s,1.6029332866874504,0.06672773454709566,1.6015437961582082,0.934431978627971,2.1275644302368164,-0.18351905047893524,-1.457334041595459,-0.3877614140510559,0.8337484002113342,-0.16633644700050354,-0.15584959663166603,1.3083795854526699,-0.2724232625239806,0.9540607929229736,0.1552194505929947,-0.25627121329307556
1728067766525,7i,9.400918291173536,0.8s : 0.3s,1.642201579100816,0.08240228319224217,1.6401328879471686,0.9772157914644278,2.019754648208618,-0.20461653172969818,-1.6485943794250488,-0.3867708444595337,0.8839633464813232,-0.1548154354095459,-0.16538875468902717,1.302576811012669,-0.29601612485716655,0.9510865807533264,0.1646357923746109,-0.2613987326622009
1728067766535,7i,9.400918291173536,0.8s : 0.3s,1.7017201894813156,0.1001128092978855,1.698772800789679,0.99376076138351,2.0335540771484375,-0.24481827020645142,-1.8674266338348389,-0.4134066104888916,0.8973046541213989,-0.10723704099655151,-0.17688896382332764,1.296122978905794,-0.3197042174907714,0.947494626045227,0.17596793174743652,-0.2670001983642578
1728067766545,7i,9.400918291173536,0.8s : 0.3s,1.775036103517244,0.11984086290587452,1.7709859785914894,1.0776863301052617,2.0244457721710205,-0.28318461775779724,-2.0942721366882324,-0.397896945476532,0.9888491630554199,-0.15894395112991333,-0.1903686166003528,1.2888165389758108,-0.3441821161973822,0.9431543946266174,0.1892208606004715,-0.2732309103012085
1728067766555,7i,9.400918291173536,0.8s : 0.3s,1.8672019281771488,0.1416598735615364,1.8618204856567113,1.1778879335146948,2.1097874641418457,-0.28881826996803284,-2.2705891132354736,-0.34556150436401367,1.1156357526779175,-0.15285319089889526,-0.20554101050184653,1.2807486930843301,-0.36966321649580014,0.9380601644515991,0.20409680902957916,-0.27997779846191406
1728067766565,7i,9.400918291173536,0.8s : 0.3s,1.9675657331711105,0.16496968839807233,1.9606376300221855,1.1889001462127247,2.1625146865844727,-0.31121358275413513,-2.4489736557006836,-0.3033910393714905,1.1405730247497559,-0.14328506588935852,-0.2218688574626693,1.2717916984508526,-0.3967474589288964,0.9322055578231812,0.2200530469417572,-0.28734859824180603
1728067766575,7i,9.400918291173536,0.8s : 0.3s,2.0653280508333363,0.18868166125448219,2.0566913206082424,1.1018202596662536,2.0939273834228516,-0.37613481283187866,-2.6805198192596436,-0.2977520823478699,1.052621603012085,-0.13167893886566162,-0.23995765017384557,1.2618056720109796,-0.4245118518139039,0.9253459572792053,0.23766149580478668,-0.2953842580318451
1728067766585,7i,9.400918291173536,0.8s : 0.3s,2.1729332727299226,0.21239312499959978,2.1625281889930767,1.0511375150271416,2.110751152038574,-0.43327251076698303,-2.8973255157470703,-0.2689141631126404,1.0134779214859009,-0.07374110817909241,-0.26002642923814984,1.2504319376684823,-0.45285871911944153,0.9172143340110779,0.25710609555244446,-0.3043260872364044
1728067766595,7i,9.400918291173536,0.8s : 0.3s,2.2965114726050837,0.23640292771488686,2.2843114059984466,1.1094800224501444,2.1942434310913086,-0.48131832480430603,-3.1154305934906006,-0.17167425155639648,1.090341567993164,-0.11237943172454834,-0.2816377590378563,1.2374645869513123,-0.4827780212195023,0.9077275991439819,0.27792924642562866,-0.3143022656440735
1728067766605,7i,9.400918291173536,0.8s : 0.3s,2.423470421799519,0.26075122571080195,2.409401934843469,1.1407925213995782,2.2686822414398193,-0.5392692685127258,-3.2915167808532715,-0.07341223955154419,1.132966160774231,-0.11138176918029785,-0.30435869982593455,1.2228016161590427,-0.5147472701756199,0.8968526721000671,0.2996814250946045,-0.3253401815891266
1728067766615,7i,9.400918291173536,0.8s : 0.3s,2.542642106085525,0.28506462531534615,2.526611770540313,1.0999332740257233,2.240734577178955,-0.6264328956604004,-3.4764115810394287,0.02281057834625244,1.0925774574279785,-0.1249295175075531,-0.3282158752510095,1.2061699656135052,-0.5482084452814894,0.8843852877616882,0.32235464453697205,-0.33756449818611145
1728067766625,7i,9.400918291173536,0.8s : 0.3s,2.64186928720339,0.308669314944833,2.623775254224347,1.0332704987839576,2.1506669521331787,-0.7096672058105469,-3.609360694885254,0.10791885852813721,1.0221953392028809,-0.10544255375862122,-0.35320595086446294,1.1876300577076833,-0.5824392485933122,0.8702306151390076,0.34590762853622437,-0.350780189037323
1728067766635,7i,9.400918291173536,0.8s : 0.3s,2.730266727365651,0.33116156268969255,2.7101085627621755,0.9686513521467291,2.0532026290893555,-0.840632438659668,-3.7487826347351074,0.2029607892036438,0.9429162740707397,-0.08944976329803467,-0.379152096890623,1.1670226922929028,-0.6169479592722873,0.8542748093605042,0.3701329231262207,-0.36498767137527466
1728067766645,7i,9.400918291173536,0.8s : 0.3s,2.8191925868003147,0.3525268180718082,2.797064833715875,0.9461079762776058,1.9695252180099487,-0.9538407921791077,-3.9206721782684326,0.2904475927352905,0.8959305286407471,-0.0898275375366211,-0.4062766286323025,1.1438475501330925,-0.6522218146007338,0.8361392021179199,0.3951917886734009,-0.38038745522499084
1728067766655,7i,9.400918291173536,0.8s : 0.3s,2.90878302119516,0.3737880688742547,2.884666556806956,1.0080810247102512,1.9784364700317383,-1.0344178676605225,-4.040529251098633,0.3594766855239868,0.9336329698562622,-0.12382787466049194,-0.434005249594933,1.1183155637633182,-0.6887642442710697,0.8159840106964111,0.42050808668136597,-0.3966648280620575
1728067766665,7i,9.400918291173536,0.8s : 0.3s,2.9983252234505153,0.3947052409089722,2.9722318076453207,1.0571492733268952,2.020655632019043,-1.098854422569275,-4.145602226257324,0.4367330074310303,0.9544662237167358,-0.12578988075256348,-0.46155885006299735,1.0902036744363233,-0.7274597933311975,0.7939339876174927,0.44534438848495483,-0.41392889618873596
1728067766675,7i,9.400918291173536,0.8s : 0.3s,3.078244158623241,0.41511900535597085,3.0501251304643837,1.0494811605390666,1.8924905061721802,-1.2105274200439453,-4.273791790008545,0.5148430466651917,0.9039731621742249,-0.13849139213562012,-0.48926111680805634,1.0594274156214376,-0.7678874588333774,0.7697637677192688,0.4699738323688507,-0.4319585859775543
1728067766685,7i,9.400918291173536,0.8s : 0.3s,3.152741773328333,0.4350594348881993,3.122579699127669,1.0774544928921561,1.8074593544006348,-1.3453668355941772,-4.372915744781494,0.6135826706886292,0.8767172694206238,-0.12566351890563965,-0.5173279323042126,1.0258306737367793,-0.8092941639419607,0.7432440519332886,0.49455949664115906,-0.45055434107780457
1728067766695,7i,9.400918291173536,0.8s : 0.3s,3.216153625812126,0.45484551093520237,3.1838278386254775,1.1608180803124348,1.7342756986618042,-1.469260573387146,-4.421371936798096,0.7380790114402771,0.8870994448661804,-0.125668466091156,-0.5450712147923243,0.9891232662378953,-0.8521786072901381,0.7144660949707031,0.5184789896011353,-0.4698059558868408
1728067766705,7i,9.400918291173536,0.8s : 0.3s,3.279608985355709,0.4747126210004158,3.245070573082937,1.223348797585273,1.6847455501556396,-1.5871751308441162,-4.501195907592773,0.832057535648346,0.8826707005500793,-0.15860319137573242,-0.5721575019707582,0.9492636859567171,-0.8967294727473916,0.6835063695907593,0.5414472222328186,-0.489544540643692
1728067766715,7i,9.400918291173536,0.8s : 0.3s,3.3390256026177685,0.494580690578718,3.302193500605867,1.2258677371762006,1.6386867761611938,-1.6502201557159424,-4.5716423988342285,0.878751814365387,0.8400365710258484,-0.1577514410018921,-0.5985391073624576,0.9061235308599378,-0.9435750601320329,0.650285542011261,0.5634361505508423,-0.5095764994621277
1728067766725,7i,9.400918291173536,0.8s : 0.3s,3.3885320251613598,0.514461836312066,3.349250409348719,1.2320947166367724,1.5221582651138306,-1.7308796644210815,-4.622918128967285,0.9181166291236877,0.8104211091995239,-0.13541370630264282,-0.6240274098211137,0.8602246433653428,-0.9941178826224624,0.6151321530342102,0.5843082666397095,-0.5293354988098145
1728067766735,7i,9.400918291173536,0.8s : 0.3s,3.436568734615217,0.5343017289725134,3.394779275615989,1.2349400206078527,1.5403958559036255,-1.8121082782745361,-4.651094436645508,0.9572054147720337,0.7758080959320068,-0.08340531587600708,-0.648259526130115,0.8111674610900745,-1.0450508557699656,0.5779966115951538,0.6037999391555786,-0.5489495396614075
1728067766745,7i,9.400918291173536,0.8s : 0.3s,3.4809601412471842,0.5540913211820865,3.436577703579872,1.2570935593292256,1.4197293519973755,-1.9211870431900024,-4.704380989074707,1.0174212455749512,0.7259570956230164,-0.1346273422241211,-0.670656767685302,0.7586790805350148,-1.0985049295371723,0.5389599204063416,0.6215006709098816,-0.5685588717460632
1728067766755,7i,9.400918291173536,0.8s : 0.3s,3.519825042396837,0.5739709363055616,3.4727115764716787,1.3031487285030647,1.2544347047805786,-2.0063931941986084,-4.758001327514648,1.0901532173156738,0.7028862833976746,-0.12535327672958374,-0.6924068161801333,0.7032160094093541,-1.1534458579117317,0.4977525770664215,0.6383916139602661,-0.5871102213859558
1728067766765,7i,9.400918291173536,0.8s : 0.3s,3.550388573597988,0.5941003208528867,3.500329103426941,1.3510776204965753,1.1562612056732178,-2.1081018447875977,-4.751712322235107,1.1587605476379395,0.6881774663925171,-0.09537559747695923,-0.712699626731379,0.6447815534311835,-1.2101225446194948,0.45473432540893555,0.6538786888122559,-0.6046977639198303
1728067766775,7i,9.400918291173536,0.8s : 0.3s,3.5751917909284767,0.6144294776525926,3.521998404161185,1.3694662563418676,1.2187458276748657,-2.146657705307007,-4.723147392272949,1.2048286199569702,0.6410600543022156,-0.11343646049499512,-0.730379058867302,0.5834143483190917,-1.268787659129203,0.4103599190711975,0.6671520471572876,-0.6217015385627747
1728067766785,7i,9.400918291173536,0.8s : 0.3s,3.598164833129961,0.6349406445223832,3.5417002335469703,1.3656386812049246,1.225320816040039,-2.179353952407837,-4.729209899902344,1.2165918350219727,0.5966452956199646,-0.16996383666992188,-0.7447443078794295,0.5193958215004032,-1.3297458663376636,0.36495110392570496,0.6777838468551636,-0.6382943391799927
1728067766795,7i,9.400918291173536,0.8s : 0.3s,3.61989289151227,0.6558858667783665,3.559977285851899,1.328356673634393,1.2308112382888794,-2.2292425632476807,-4.728819847106934,1.2008687257766724,0.5382609963417053,-0.1808890700340271,-0.75593145460901,0.45296056831733694,-1.3928198036057118,0.31843361258506775,0.6859667301177979,-0.6542550921440125
1728067766805,7i,9.400918291173536,0.8s : 0.3s,3.636385977966712,0.6771426396779928,3.572783344436497,1.332097345170443,1.225343942642212,-2.2697486877441406,-4.710531711578369,1.2131106853485107,0.5033451914787292,-0.22246217727661133,-0.7640413197816059,0.38468349287951226,-1.457105143096203,0.27095913887023926,0.6918451189994812,-0.6692768335342407
1728067766815,7i,9.400918291173536,0.8s : 0.3s,3.645079002626269,0.6983855782577324,3.577549233688969,1.3669848820227886,1.0885363817214966,-2.3724606037139893,-4.679828643798828,1.2551535367965698,0.4966545104980469,-0.21580445766448975,-0.7691569363270435,0.3152411800205163,-1.52174223326329,0.22276705503463745,0.6955297589302063,-0.6830909252166748
1728067766825,7i,9.400918291173536,0.8s : 0.3s,3.657050463486778,0.719722073333638,3.585529002761683,1.382541873977468,1.1189863681793213,-2.4803073406219482,-4.637225151062012,1.2849045991897583,0.472465455532074,-0.1929212212562561,-0.7714798165990591,0.244623804166912,-1.5863970967326324,0.17362205684185028,0.6971968412399292,-0.6955371499061584
1728067766835,7i,9.400918291173536,0.8s : 0.3s,3.677517498746128,0.7412912361331415,3.6020302964878255,1.3924124245000542,1.1498452425003052,-2.5047988891601562,-4.675860404968262,1.2959603071212769,0.4560365676879883,-0.22656100988388062,-0.7700480462403311,0.17305160348541354,-1.6510438256760025,0.12361067533493042,0.6961697340011597,-0.7071549296379089
1728067766845,7i,9.400918291173536,0.8s : 0.3s,3.710140659498023,0.7637155392537684,3.6306862007563736,1.4176959552115203,1.5005940198898315,-2.551121234893799,-4.656771659851074,1.287626028060913,0.538585901260376,-0.24860864877700806,-0.7636074106605741,0.10146638066795372,-1.7157016784239076,0.07316814363002777,0.6915317177772522,-0.718630850315094
1728067766855,7i,9.400918291173536,0.8s : 0.3s,3.77573213711823,0.7888780240630042,3.69240093088736,1.6450949523395768,2.2119829654693604,-2.500844717025757,-4.699922561645508,1.331998348236084,0.7957290410995483,-0.5467477440834045,-0.7473591918671612,0.03121298664260108,-1.7791417684782809,0.02289058268070221,0.6797041296958923,-0.73312908411026
1728067766865,7i,9.400918291173536,0.8s : 0.3s,3.824295548753111,0.8137315635168675,3.736720137600521,1.3666550877182106,1.8461805582046509,-2.5765888690948486,-4.768802165985107,1.2032171487808228,0.4863685965538025,-0.42832255363464355,-0.7267155755760715,-0.03702503139942403,-1.8411389496205837,-0.027664728462696075,0.6644185781478882,-0.7468484044075012
1728067766875,7i,9.400918291173536,0.8s : 0.3s,3.844598640204442,0.8366821444626894,3.7524527569843116,1.2310412867260678,1.4419591426849365,-2.842494010925293,-4.673264980316162,1.2009987831115723,0.23742175102233887,-0.12921100854873657,-0.7070407737179106,-0.10418284436735106,-1.8998965182603536,-0.07906569540500641,0.6495867371559143,-0.756165087223053
1728067766885,7i,9.400918291173536,0.8s : 0.3s,3.8463363053412647,0.8593458484448523,3.7491102526528732,1.3875151857367272,1.2055857181549072,-2.970036506652832,-4.556095123291016,1.338157057762146,0.25724542140960693,-0.2614552974700928,-0.6878069624922102,-0.17029619188607878,-1.9551638669821796,-0.13094259798526764,0.6348443031311035,-0.7614635229110718
1728067766895,7i,9.400918291173536,0.8s : 0.3s,3.8357999908948552,0.8824268345338633,3.732919025621037,1.3892554242756818,1.2087149620056152,-2.9975485801696777,-4.479775428771973,1.3131933212280273,0.3869708180427551,-0.23623615503311157,-0.666918847258384,-0.23377190291218114,-2.0065342436859885,-0.18201343715190887,0.618567943572998,-0.7643589973449707
1728067766905,7i,9.400918291173536,0.8s : 0.3s,3.8363835020533106,0.9052890972888856,3.728041043920613,1.2613773410332247,1.1074481010437012,-3.055065393447876,-4.481832981109619,1.1830565929412842,0.3549853563308716,-0.2558032274246216,-0.6439984155334011,-0.29490707361663737,-2.05514290003237,-0.2324339896440506,0.6003977656364441,-0.7651776671409607
1728067766915,7i,9.400918291173536,0.8s : 0.3s,3.8410969735887,0.9279403246551574,3.727325142027611,1.2119938370365697,1.117477536201477,-3.1123454570770264,-4.469770431518555,1.1252362728118896,0.3661474585533142,-0.2621229290962219,-0.6192395228429192,-0.35425113428946464,-2.1014025059052113,-0.2824779152870178,0.5804160833358765,-0.7637560367584229
1728067766925,7i,9.400918291173536,0.8s : 0.3s,3.8456488822835957,0.9509803043513606,3.726211452205157,1.2872041908620833,1.1367793083190918,-3.167773723602295,-4.417430400848389,1.185515284538269,0.428078293800354,-0.26114577054977417,-0.5922378540864199,-0.4112761570724005,-2.1444873484437585,-0.3316943645477295,0.5582191348075867,-0.7605065703392029
1728067766935,7i,9.400918291173536,0.8s : 0.3s,3.8527031491636845,0.9747721584571801,3.727350371869071,1.3376265884842533,1.2505003213882446,-3.198578357696533,-4.3935112953186035,1.2232496738433838,0.45322316884994507,-0.29579365253448486,-0.5626448922645333,-0.46587348335778855,-2.184045418226372,-0.3799574077129364,0.5334252119064331,-0.7557048201560974
1728067766945,7i,9.400918291173536,0.8s : 0.3s,3.8562021781836147,0.9988195596760894,3.7246012841962717,1.2772640550256409,1.3382943868637085,-3.183253526687622,-4.321445465087891,1.164489984512329,0.42848485708236694,-0.30293112993240356,-0.5306221368294337,-0.5174577603255265,-2.219760835707766,-0.42665109038352966,0.5060700178146362,-0.7495744824409485
1728067766955,7i,9.400918291173536,0.8s : 0.3s,3.8535300804915855,1.0226164720704751,3.7153666888079324,1.2109465202688459,1.3366140127182007,-3.21994686126709,-4.268453598022461,1.1223201751708984,0.3858845829963684,-0.2405867576599121,-0.4969949295970601,-0.5662840986426249,-2.251983448348079,-0.4715937376022339,0.47678616642951965,-0.7418046593666077
1728067766965,7i,9.400918291173536,0.8s : 0.3s,3.844109927047178,1.0460460710414783,3.6990497088416303,1.1998627540325875,1.2900002002716064,-3.2537410259246826,-4.1937971115112305,1.1285712718963623,0.3377581238746643,-0.2278529405593872,-0.4624893045141849,-0.6132014711095446,-2.2814543967341523,-0.5150303840637207,0.44617727398872375,-0.7318944334983826
1728067766975,7i,9.400918291173536,0.8s : 0.3s,3.827232285377219,1.069502293054089,3.6747614631953702,1.2257360902218675,1.2484413385391235,-3.28159761428833,-4.099914073944092,1.1548470258712769,0.32090598344802856,-0.25646960735321045,-0.42761839710728977,-0.6581948414443181,-2.308054958747789,-0.5566107630729675,0.414704829454422,-0.7198640704154968
1728067766985,7i,9.400918291173536,0.8s : 0.3s,3.8049808253002784,1.092926894310738,3.644638512197756,1.2181900905935719,1.1614078283309937,-3.298593521118164,-4.025036811828613,1.1485182046890259,0.3100253939628601,-0.2622542381286621,-0.392659870531551,-0.7015117356795106,-2.3321849984997507,-0.5962567329406738,0.38264721632003784,-0.7057329416275024
1728067766995,7i,9.400918291173536,0.8s : 0.3s,3.7672322393878765,1.1163368224710608,3.598031523524858,1.2139499864142367,1.015526294708252,-3.3156588077545166,-3.8854541778564453,1.1508601903915405,0.3003438711166382,-0.24287641048431396,-0.35830516012163555,-0.7434703869761734,-2.3546421107490016,-0.633861780166626,0.35068753361701965,-0.6893746852874756
1728067767005,7i,9.400918291173536,0.8s : 0.3s,3.7264747458449365,1.1398425198479802,3.547868805546041,1.2417830344538732,0.837852418422699,-3.3437283039093018,-3.791483163833618,1.1942274570465088,0.2766740322113037,-0.1982356309890747,-0.32509117513072017,-0.7843329760439774,-2.377253316196631,-0.6693555116653442,0.31939518451690674,-0.6707829833030701
1728067767015,7i,9.400918291173536,0.8s : 0.3s,3.6922772016182233,1.163401862607448,3.5041984874820113,1.2296036074044423,0.675406277179718,-3.4000720977783203,-3.7205817699432373,1.1866990327835083,0.2561046779155731,-0.19514310359954834,-0.29281572276342027,-0.824629693154611,-2.3989123920414506,-0.7030410766601562,0.28864923119544983,-0.6499344706535339
1728067767025,7i,9.400918291173536,0.8s : 0.3s,3.657578959957179,1.1871015403531675,3.4595771101700534,1.248645179335349,0.635144054889679,-3.4115772247314453,-3.6157100200653076,1.1950404644012451,0.29251524806022644,-0.21313822269439697,-0.26106883827998406,-0.864274581837338,-2.4192278276042276,-0.7348504662513733,0.2581133246421814,-0.6271939277648926
1728067767035,7i,9.400918291173536,0.8s : 0.3s,3.621448531837022,1.211129420106514,3.412924698333818,1.2743276247274828,0.681462824344635,-3.407404899597168,-3.4976775646209717,1.2152955532073975,0.33783406019210815,-0.18120640516281128,-0.22938830569514992,-0.9027827277643707,-2.4372807131017007,-0.7644896507263184,0.2273818999528885,-0.6032022833824158
1728067767045,7i,9.400918291173536,0.8s : 0.3s,3.5743632535716143,1.2352923039209307,3.354120688400579,1.2576111620219157,0.6799105405807495,-3.356414556503296,-3.361447334289551,1.2123134136199951,0.3167802393436432,-0.10738855600357056,-0.1978907017014294,-0.9399189299956212,-2.4528630285492787,-0.7917504906654358,0.19660164415836334,-0.5783416032791138
1728067767055,7i,9.400918291173536,0.8s : 0.3s,3.521003848973308,1.258839192655737,3.288281008599889,1.203963589855364,0.5884429812431335,-3.3269107341766357,-3.233877658843994,1.1806517839431763,0.23466931283473969,0.02280360460281372,-0.16727848469837744,-0.9758577763336246,-2.46689141807127,-0.816622793674469,0.16649943590164185,-0.5526347756385803
1728067767065,7i,9.400918291173536,0.8s : 0.3s,3.454462345959546,1.2814286062634779,3.2079979468045123,1.1844336805020392,0.5683664679527283,-3.2672512531280518,-3.052034854888916,1.1720564365386963,0.13889233767986298,0.09937691688537598,-0.1377882878932925,-1.0107800423512185,-2.4793374019166277,-0.839216411113739,0.13735270500183105,-0.5261653661727905
1728067767075,7i,9.400918291173536,0.8s : 0.3s,3.3773044403205708,1.3037931508360021,3.1154949369951117,1.1989756044516569,0.49953973293304443,-3.1599245071411133,-2.9109950065612793,1.1896880865097046,0.04260697960853577,0.14272141456604004,-0.10946693839351317,-1.0442963846137738,-2.4902899243370813,-0.8593962788581848,0.10924844443798065,-0.49950259923934937
1728067767085,7i,9.400918291173536,0.8s : 0.3s,3.28578737695863,1.32500493231879,3.0067857615586036,1.1717722371825576,0.5597861409187317,-3.019212245941162,-2.7250022888183594,1.1495094299316406,-0.054075926542282104,0.2208031713962555,-0.08233655931888577,-1.0760858126570523,-2.4995700534801406,-0.877124547958374,0.08224356174468994,-0.47316843271255493
1728067767095,7i,9.400918291173536,0.8s : 0.3s,3.1861653365817713,1.3457560779720827,2.8880079865949866,1.179337969051978,0.5919973850250244,-2.881826400756836,-2.550201654434204,1.141636848449707,-0.17089499533176422,0.24145030975341797,-0.05622423508531757,-1.106047686182506,-2.506656586103923,-0.8925216794013977,0.056194618344306946,-0.4474898874759674
1728067767105,7i,9.400918291173536,0.8s : 0.3s,3.078563126994842,1.3644296811709973,2.7596888542065514,1.2605500836573535,0.5933371782302856,-2.7500357627868652,-2.3562569618225098,1.169071078300476,-0.289031058549881,0.3724518418312073,-0.031559435109756964,-1.1344287407402518,-2.511966030551274,-0.905841588973999,0.031554196029901505,-0.4224397838115692
1728067767115,7i,9.400918291173536,0.8s : 0.3s,2.961817697050627,1.381109709741871,2.620095425784909,1.3895935037345168,0.5891342163085938,-2.6083223819732666,-2.13808536529541,1.198574185371399,-0.43233442306518555,0.5545060634613037,-0.008597897565117453,-1.1613149756452992,-2.5157786882059954,-0.9172934293746948,0.008597791194915771,-0.39811885356903076
1728067767125,7i,9.400918291173536,0.8s : 0.3s,2.8271797563345658,1.3959464213866775,2.458511534088401,1.494627253301694,0.5652372241020203,-2.39554762840271,-1.895463228225708,1.20674729347229,-0.5599135160446167,0.681299090385437,0.012199884974439313,-1.1863755137396554,-2.5182920131726694,-0.926946759223938,-0.012199582532048225,-0.37499433755874634
1728067767135,7i,9.400918291173536,0.8s : 0.3s,2.668445026724353,1.4090610883786567,2.2660859890717053,1.5695397258758772,0.5614457130432129,-2.110072612762451,-1.6114636659622192,1.1794629096984863,-0.6563287377357483,0.8009711503982544,0.030626787295256537,-1.2089420731372713,-2.5194277443080084,-0.934803307056427,-0.030621999874711037,-0.35384294390678406
1728067767145,7i,9.400918291173536,0.8s : 0.3s,2.49002517334561,1.4206070524037167,2.0450185736456423,1.6700155816215276,0.5447521209716797,-1.771228313446045,-1.33711576461792,1.1564786434173584,-0.746955931186676,0.945286214351654,0.0463499159704308,-1.2283754122901496,-2.519339067942441,-0.9409328699111938,-0.04633332043886185,-0.3354078233242035
1728067767155,7i,9.400918291173536,0.8s : 0.3s,2.2926072660991195,1.4308813147055257,1.7912640061691258,1.7612700951037492,0.6037722826004028,-1.3734164237976074,-1.005142092704773,1.129380226135254,-0.7992156744003296,1.0898747444152832,0.059309111517186555,-1.2442213767281158,-2.5177803036358006,-0.9454811811447144,-0.0592743456363678,-0.32023680210113525
1728067767165,7i,9.400918291173536,0.8s : 0.3s,2.079620751741455,1.4405747639834865,1.499855599865406,1.8535483253749583,0.6158749461174011,-0.9222180247306824,-0.616439163684845,1.149348258972168,-0.8114699721336365,1.206713080406189,0.0689863949553478,-1.2559198559045872,-2.5145153868735703,-0.9485728740692139,-0.0689316913485527,-0.308962345123291
1728067767175,7i,9.400918291173536,0.8s : 0.3s,1.8757673888123376,1.4498482529764682,1.1901442518757708,2.0179795796358957,0.6335655450820923,-0.43928223848342896,-0.29725638031959534,1.161663293838501,-0.899591863155365,1.383298397064209,0.07539413430726372,-1.263007730804241,-2.50992888786781,-0.9502984881401062,-0.075322724878788,-0.30209124088287354
1728067767185,7i,9.400918291173536,0.8s : 0.3s,1.6940133278399692,1.4590119391045446,0.8607934226339345,2.1367130122497398,0.6488285660743713,0.10127583891153336,0.10235569626092911,1.1742767095565796,-0.9717395305633545,1.4974441528320312,0.07828247318076187,-1.2651099109661401,-2.504105429481266,-0.9507200121879578,-0.07820254564285278,-0.30002617835998535
1728067767195,7i,9.400918291173536,0.8s : 0.3s,1.572068619455493,1.4688977485472856,0.5601242260333104,2.2573826108990582,0.710945725440979,0.6680625677108765,0.5402235984802246,1.2530521154403687,-1.0000627040863037,1.5891857147216797,0.07731533829086516,-1.2618681418256685,-2.49661393717789,-0.9498140215873718,-0.07723833620548248,-0.3031294643878937
1728067767205,7i,9.400918291173536,0.8s : 0.3s,1.548262393680293,1.4799155706484708,0.45493553767192246,2.3700762441181196,0.7291722893714905,1.2424596548080444,0.9633275866508484,1.324077844619751,-1.0874532461166382,1.6375361680984497,0.0723083439073858,-1.253003216954333,-2.4874309895562408,-0.9474450349807739,-0.07224535197019577,-0.31165438890457153
1728067767215,7i,9.400918291173536,0.8s : 0.3s,1.6442712962936552,1.4922682109074679,0.6904807618827935,2.499922276177946,0.746411144733429,1.800278902053833,1.4295070171356201,1.3780453205108643,-1.1888236999511719,1.713855504989624,0.0633549413447601,-1.238591666105597,-2.4765979067406163,-0.9434291124343872,-0.06331256777048111,-0.3254736363887787
1728067767225,7i,9.400918291173536,0.8s : 0.3s,1.862149150695615,1.5069061370238237,1.0939987905095405,2.5957488031336275,0.8167569637298584,2.407517433166504,1.9275580644607544,1.5247833728790283,-1.231990933418274,1.7015128135681152,0.05019567928386365,-1.218265893522952,-2.4636321316005105,-0.9373198747634888,-0.05017460137605667,-0.34483882784843445
1728067767235,7i,9.400918291173536,0.8s : 0.3s,2.181500892388418,1.524637450589906,1.560264973570251,2.725877878253504,0.9409164190292358,3.0368220806121826,2.421250104904175,1.7019730806350708,-1.295153260231018,1.6900520324707031,0.03305411420204425,-1.1917350375150333,-2.447717516568057,-0.9285049438476562,-0.03304809704422951,-0.3698464334011078
1728067767245,7i,9.400918291173536,0.8s : 0.3s,2.5826752641076554,1.5462614564436497,2.068643765405323,2.8961680172634443,1.0967808961868286,3.7132680416107178,2.9522180557250977,1.9205299615859985,-1.3756288290023804,1.6754101514816284,0.012234751634641395,-1.1584259728493473,-2.427970147313578,-0.916104793548584,-0.012234446592628956,-0.40075206756591797
1728067767255,7i,9.400918291173536,0.8s : 0.3s,3.0485688107712954,1.5725005525386224,2.611707067470094,3.1271143133782355,1.2236921787261963,4.4206695556640625,3.5329461097717285,2.1643075942993164,-1.4787051677703857,1.7052998542785645,-0.012289949298739312,-1.117746981810985,-2.4037868126113224,-0.8990486264228821,0.012289639562368393,-0.43767619132995605
1728067767265,7i,9.400918291173536,0.8s : 0.3s,3.5674693795746593,1.6043927836723144,3.186339839047776,3.445824804037707,1.3332966566085815,5.172231197357178,4.131066799163818,2.496412754058838,-1.6201753616333008,1.7368545532226562,-0.04041329682947646,-1.069098328903574,-2.374823203135655,-0.8760513663291931,0.04040229693055153,-0.4805223047733307
1728067767275,7i,9.400918291173536,0.8s : 0.3s,4.133893701491813,1.6432425945989597,3.7932612499707106,3.8374108958444757,1.383385419845581,5.9643120765686035,4.782404899597168,2.886706829071045,-1.7420521974563599,1.832457423210144,-0.07193284944204925,-1.0114617187731298,-2.340437803797292,-0.8454163670539856,0.0718708336353302,-0.5292500853538513
1728067767285,7i,9.400918291173536,0.8s : 0.3s,4.744698737234116,1.6907698259991186,4.433222699414268,4.302376194510816,1.3516262769699097,6.791956424713135,5.4939284324646,3.361283779144287,-1.8162916898727417,1.9782054424285889,-0.10683893147787851,-0.9441418640384802,-2.300166867176731,-0.8053754568099976,0.10663579404354095,-0.5830943584442139
1728067767295,7i,9.400918291173536,0.8s : 0.3s,5.398253011986548,1.7493306155957218,5.106953884534432,4.89995527264657,1.1963690519332886,7.705475330352783,6.206341743469238,3.970414400100708,-1.8340035676956177,2.209480047225952,-0.14487348494276772,-0.8658196573956058,-2.253545703491521,-0.7536479830741882,0.1443672478199005,-0.6412275433540344
1728067767305,7i,9.400918291173536,0.8s : 0.3s,6.120125683639344,1.8216097344665623,5.8427456181865915,5.620460778607322,0.8250085115432739,8.723478317260742,7.12186861038208,4.7032365798950195,-1.7919737100601196,2.5015945434570312,-0.1866094830553756,-0.7749097003207792,-2.2000020227176895,-0.6875048279762268,0.18552830815315247,-0.7020799517631531
1728067767315,7i,9.400918291173536,0.8s : 0.3s,6.9402736500009015,1.9114190346688338,6.671871972003247,6.550685105789489,0.4577482044696808,9.905128479003906,8.185811996459961,5.716876029968262,-1.6304419040679932,2.7514474391937256,-0.23241255633499466,-0.6686491164500807,-2.136984273603024,-0.6032589077949524,0.2303258776664734,-0.7635630965232849
1728067767325,7i,9.400918291173536,0.8s : 0.3s,7.816409827525647,2.0211126566660775,7.55058714411692,7.4377829325542875,0.14122340083122253,11.04343032836914,9.140825271606445,6.7876811027526855,-1.4997981786727905,2.6454877853393555,-0.2794685056151178,-0.5447134548860895,-2.0616411564354538,-0.49806904792785645,0.2758448123931885,-0.8220929503440857
1728067767335,7i,9.400918291173536,0.8s : 0.3s,8.678702579233477,2.151889650827674,8.407689896128101,8.326645381483862,-0.056214045733213425,12.078341484069824,9.759963035583496,7.90428352355957,-1.3791625499725342,2.2255866527557373,-0.32233739487041946,-0.4025444548814266,-1.9731102674732204,-0.3715840280056,0.31678444147109985,-0.8726814389228821
1728067767345,7i,9.400918291173536,0.8s : 0.3s,9.45172051495351,2.304574629934397,9.166458229210223,9.261308122877178,-0.5474807024002075,12.780829429626465,10.140417098999023,9.003411293029785,-1.0460820198059082,1.901611328125,-0.35656827829898197,-0.2448531863257336,-1.8739514402469921,-0.2271661013364792,0.34906041622161865,-0.9091492295265198
1728067767355,7i,9.400918291173536,0.8s : 0.3s,10.107957830771744,2.4810472195144717,9.798735438983917,10.42234226717677,-1.9172747135162354,12.972877502441406,10.638922691345215,10.285545349121094,-0.40665149688720703,1.6332206726074219,-0.3847474614555806,-0.07660030529269705,-1.7659113217044236,-0.07093089073896408,0.375325083732605,-0.9241752624511719
1728067767365,7i,9.400918291173536,0.8s : 0.3s,10.710064785215849,2.683858310319629,10.368336041701623,11.846855660865545,-4.1898393630981445,13.02013111114502,11.211082458496094,11.757567405700684,0.6465638279914856,1.299828052520752,-0.41348863851845075,0.09942687834083674,-1.647231667975721,0.09089770168066025,0.40180638432502747,-0.911202073097229
1728067767375,7i,9.400918291173536,0.8s : 0.3s,11.30448587850084,2.912982518846104,10.92272556746355,13.168751237899782,-7.1981611251831055,12.526050567626953,11.958944320678711,12.986700057983398,2.0625646114349365,0.7123608589172363,-0.4466956657908462,0.28506411026214434,-1.509895276164504,0.2536256015300751,0.43198779225349426,-0.8654828667640686
1728067767385,7i,9.400918291173536,0.8s : 0.3s,11.919280134991881,3.167147083480536,11.490797112820886,14.54281681577137,-11.071502685546875,11.191557884216309,12.55247974395752,14.04470157623291,3.765399217605591,-0.24828875064849854,-0.48440258937719444,0.47881388239373823,-1.344028476717091,0.4077216684818268,0.46567976474761963,-0.7854332327842712
1728067767395,7i,9.400918291173536,0.8s : 0.3s,12.642805950268794,3.443313428504931,12.164872992729093,15.836726260371641,-15.459290504455566,8.959270477294922,12.959660530090332,14.628891944885254,5.933060646057129,-1.2634122371673584,-0.526613084827693,0.6785606915665168,-1.139780611825123,0.5426324009895325,0.5026081800460815,-0.6730043888092041
1728067767405,7i,9.400918291173536,0.8s : 0.3s,13.348211216622966,3.7360382074788774,12.814708783106903,16.85097541615344,-19.355995178222656,4.253994941711426,13.045424461364746,14.345762252807617,8.676437377929688,-1.6952617168426514,-0.5564948648605501,0.8787743889789925,-0.8875110785268837,0.653779923915863,0.5282132029533386,-0.5418142080307007
1728067767415,7i,9.400918291173536,0.8s : 0.3s,14.294163840446982,4.037947238398918,13.71196929683875,17.21739677730603,-22.123981475830078,-1.1428192853927612,14.091607093811035,13.053680419921875,11.212573051452637,-0.5642560124397278,-0.5663701662426379,1.0487311942575748,-0.5940716863363377,0.7314453721046448,0.5365725159645081,-0.42080578207969666
1728067767425,7i,9.400918291173536,0.8s : 0.3s,14.769228739748902,4.340613263237004,14.116982470274445,17.913575165112903,-16.93284797668457,-1.4773541688919067,16.177751541137695,10.982795715332031,14.135146141052246,0.6870349645614624,-0.5164435794086351,1.183203888691929,-0.3063174253304756,0.8050767183303833,0.4937906861305237,-0.32866719365119934
1728067767435,7i,9.400918291173536,0.8s : 0.3s,14.417358746439884,4.630494603301087,13.653525293943177,18.962550561684605,-12.539055824279785,-1.6876006126403809,14.63598346710205,7.647125720977783,17.349910736083984,-0.2835303544998169,-0.41856781360618245,1.2610568770969484,-0.09651999271102851,0.8701930642127991,0.40645232796669006,-0.27849680185317993
1728067767445,7i,9.400918291173536,0.8s : 0.3s,14.535472587485646,4.88894041079733,13.688616621164446,17.185177856686256,-15.434896469116211,-1.2022624015808105,13.762537956237793,3.0264363288879395,16.8992977142334,0.7646946310997009,-0.32145005311856467,1.3138905026430097,0.08781856182884455,0.9176400899887085,0.3159426748752594,-0.24107424914836884
1728067767455,7i,9.400918291173536,0.8s : 0.3s,15.338524289290703,5.107829161716338,14.46307051175099,10.26150982287391,-19.94956398010254,-1.5041160583496094,14.144613265991211,1.3686187267303467,9.928648948669434,2.2016804218292236,-0.2270282618079725,1.3583093031420561,0.29931971050792056,0.9524260759353638,0.22508303821086884,-0.20548005402088165
1728067767465,7i,9.400918291173536,0.8s : 0.3s,13.508204853148893,5.292509946907534,12.428231443633486,4.920385134527106,1.215169072151184,-3.5106306076049805,16.669231414794922,2.5172276496887207,3.962104558944702,1.4749516248703003,-0.1161286672985885,1.357247795225198,0.4720666978982245,0.9707025289535522,0.11586783081293106,-0.21050170063972473
1728067767475,7i,9.400918291173536,0.8s : 0.3s,14.603787327681006,5.456607835548297,13.54607084143477,8.72567390300351,-27.25603675842285,-3.5499579906463623,6.338006496429443,6.214237213134766,-0.5033711791038513,-6.104691505432129,-0.010176853378843363,1.3525973146573251,0.5499370606074491,0.9762381911277771,0.010176677256822586,-0.2164604514837265
1728067767485,7i,9.400918291173536,0.8s : 0.3s,14.80078114162463,5.6494627654402505,13.680156902030602,16.628777210656434,-20.688823699951172,-10.636957168579102,3.862105131149292,11.46357536315918,-1.5683152675628662,11.943326950073242,-0.0032518953240630684,1.2766082840539765,0.7945717529311829,0.9570327401161194,0.0032518894877284765,-0.2899613082408905
1728067767495,7i,9.400918291173536,0.8s : 0.3s,14.929403685794803,5.849886027609618,13.735571625433039,12.224630205251945,-19.541200637817383,-11.770360946655273,1.0531187057495117,10.632987022399902,-2.245521068572998,5.59810733795166,-0.05663226891583681,1.1740532981292724,1.0032335594352304,0.9208458065986633,0.05660200119018555,-0.3857969343662262
1728067767505,7i,9.400918291173536,0.8s : 0.3s,14.348621074200473,6.048198494889656,13.01161871933713,11.14495859808122,-12.091057777404785,-15.818403244018555,-0.07088752090930939,5.813240051269531,5.810823917388916,7.526663780212402,-0.11734770652956084,1.0468281807256452,1.142871143231232,0.8598858714103699,0.11707857251167297,-0.4968789219856262
1728067767515,7i,9.400918291173536,0.8s : 0.3s,14.176981695517053,6.273752233431142,12.713254615107154,15.165665999726095,-11.911734580993652,-15.147822380065918,0.2532985210418701,8.742110252380371,9.594922065734863,7.8428568840026855,-0.17792666520230802,0.9081324603299141,1.2532498932258094,0.7759101986885071,0.17698934674263,-0.6055064797401428
1728067767525,7i,9.400918291173536,0.8s : 0.3s,13.749452549786776,6.49435741092499,12.11902501185643,12.028031431452035,-6.149991989135742,-17.58681297302246,-1.0457736253738403,5.552477836608887,7.275084018707275,7.8049139976501465,-0.23565128914929775,0.7549560079415185,1.318274522471923,0.6663178205490112,0.23347632586956024,-0.7081732153892517
1728067767535,7i,9.400918291173536,0.8s : 0.3s,13.96478373963324,6.67822034861725,12.264442827541716,8.764664728370752,-8.318926811218262,-17.81917953491211,-1.505460500717163,1.4598631858825684,3.3652002811431885,7.9601240158081055,-0.301837865690261,0.5890789125019997,1.3570065259889739,0.5304779410362244,0.29727548360824585,-0.7938642501831055
1728067767545,7i,9.400918291173536,0.8s : 0.3s,13.84609704412978,6.85053062633013,12.032648648289051,10.439658970221467,-3.848586082458496,-18.050859451293945,-1.6374897956848145,2.263390064239502,6.4590229988098145,7.883182525634766,-0.36153002930328054,0.41183086256900775,1.3728668929638481,0.3744118809700012,0.3537057638168335,-0.8571510910987854
1728067767555,7i,9.400918291173536,0.8s : 0.3s,13.700257032248995,7.000870066183255,11.776453671038125,8.239579180725437,-3.756774425506592,-16.742950439453125,-3.059617280960083,0.7470126152038574,4.825201511383057,6.637022495269775,-0.4047542658627343,0.23471266557567738,1.3627487734490327,0.2137722223997116,0.39379289746284485,-0.8939958810806274
1728067767565,7i,9.400918291173536,0.8s : 0.3s,13.344856271103536,7.126413054746205,11.282704723139494,6.6348370381922654,-0.9219892024993896,-15.73904800415039,-2.594122886657715,-0.09361088275909424,3.4326565265655518,5.677073955535889,-0.4326940056140708,0.059263354637963096,1.3328792334343076,0.053770121186971664,0.4193180501461029,-0.9062455892562866
1728067767575,7i,9.400918291173536,0.8s : 0.3s,12.780350659225851,7.233225159173505,10.536499265385732,5.591180335741761,0.00892540905624628,-13.442097663879395,-2.825065851211548,0.43911275267601013,1.8950177431106567,5.24188756942749,-0.43590156551285475,-0.09925264853658461,1.3022062405901507,-0.08982386440038681,0.4222278296947479,-0.9020284414291382
1728067767585,7i,9.400918291173536,0.8s : 0.3s,12.200850418008159,7.319837455361809,9.761184894760074,5.077828597628524,1.6155285835266113,-12.113834381103516,-2.933804988861084,-0.34163612127304077,1.0811597108840942,4.949618339538574,-0.4226106978330008,-0.23950046441733408,1.2691301728987368,-0.21634729206562042,0.4101428687572479,-0.8859890699386597
1728067767595,7i,9.400918291173536,0.8s : 0.3s,11.746606482318985,7.385996700698546,9.133992368495202,4.1150400637519855,1.4302247762680054,-11.61267375946045,-1.1984764337539673,-0.6936344504356384,0.08965063095092773,4.055168151855469,-0.3988197392446551,-0.36661051393749183,1.2446300748842047,-0.3303218185901642,0.38833096623420715,-0.8602827787399292
1728067767605,7i,9.400918291173536,0.8s : 0.3s,11.400186660578193,7.437510390311676,8.639889761451292,3.587076461917735,1.290367603302002,-11.110995292663574,-1.7137024402618408,-0.4904036521911621,-0.1185319721698761,3.5514183044433594,-0.37925199798609804,-0.4851586520076932,1.2287865549932817,-0.4332107901573181,0.370225727558136,-0.821742832660675
1728067767615,7i,9.400918291173536,0.8s : 0.3s,11.125680513983305,7.480917593160237,8.235085844335412,2.930046096069382,1.732309103012085,-10.613495826721191,-2.484961748123169,-0.22711974382400513,0.597421407699585,2.8594884872436523,-0.3536937560881382,-0.5972760345838605,1.216246697127871,-0.5275799632072449,0.3463652729988098,-0.7756870985031128
1728067767625,7i,9.400918291173536,0.8s : 0.3s,10.887215321420548,7.521106719524937,7.871747656555764,2.193984585879647,1.8071459531784058,-10.032576560974121,-2.943187952041626,0.41073673963546753,0.8824746012687683,1.966240644454956,-0.32335693611745,-0.7039971561626026,1.2055111191193748,-0.613724410533905,0.31775131821632385,-0.7227562069892883
1728067767635,7i,9.400918291173536,0.8s : 0.3s,10.676834900438882,7.5595534944467975,7.539758249163365,1.9139395893663063,2.0996737480163574,-9.405058860778809,-3.4988279342651367,0.8048139810562134,0.5829423666000366,1.6357314586639404,-0.2869779016589018,-0.8043549138028993,1.1944520916229577,-0.6909223198890686,0.28305500745773315,-0.6652113199234009
1728067767645,7i,9.400918291173536,0.8s : 0.3s,10.49028019046008,7.596621340759233,7.234453861866878,1.6698693219481866,2.635921001434326,-8.787514686584473,-3.757577896118164,0.8011755347251892,1.1285309791564941,0.9343442320823669,-0.24395308199569182,-0.8969135046008511,1.1883287254529409,-0.7582677006721497,0.24154053628444672,-0.6055477857589722
1728067767655,7i,9.400918291173536,0.8s : 0.3s,10.362742719117431,7.634726354028834,7.00695298697793,1.8236862899573958,3.0325424671173096,-8.403615951538086,-4.145799160003662,1.297539472579956,1.0395115613937378,0.7494255900382996,-0.1952783281096977,-0.9827851833373953,1.1881956499628727,-0.8162314295768738,0.19403958320617676,-0.5441643595695496
1728067767665,7i,9.400918291173536,0.8s : 0.3s,10.293999041346508,7.674250033437321,6.86092578939097,1.9420052365211626,3.320965051651001,-8.16604232788086,-4.477154731750488,1.7974128723144531,0.6120973825454712,0.40746545791625977,-0.14208823121691774,-1.064644480657457,1.1933627159738736,-0.8658025860786438,0.14161060750484467,-0.4799294173717499
1728067767675,7i,9.400918291173536,0.8s : 0.3s,10.283828904716273,7.713850834369417,6.8010030323898665,1.9884438310117958,3.500471591949463,-7.887266635894775,-5.282888412475586,1.9201135635375977,0.5069140195846558,-0.10055321455001831,-0.0864554808769657,-1.1444137028323411,1.203595125763375,-0.9070672392845154,0.08634781837463379,-0.4120353162288666
1728067767685,7i,9.400918291173536,0.8s : 0.3s,10.249310314550081,7.751607526557975,6.705292139657483,1.650315504073808,3.500572443008423,-7.437374591827393,-5.317210674285889,1.534214735031128,0.597246527671814,-0.11411833763122559,-0.032550564422245416,-1.2224552786126637,1.2200296481825483,-0.9394423365592957,0.0325448177754879,-0.3411581516265869
1728067767695,7i,9.400918291173536,0.8s : 0.3s,10.156403280851762,7.78911786826152,6.517834796742362,1.6848562275731984,3.4051215648651123,-6.985204219818115,-4.76500129699707,1.5167670249938965,0.7069306969642639,0.19597777724266052,0.02176688313926438,-1.2966570567446867,1.2378582013908694,-0.9624303579330444,-0.02176516503095627,-0.2706542909145355
1728067767705,7i,9.400918291173536,0.8s : 0.3s,10.04483188015664,7.82970625802386,6.292403945526162,2.1693996734285785,4.048908233642578,-6.300450325012207,-4.4161272048950195,1.7197237014770508,1.2167847156524658,0.5179578065872192,0.07482560499673611,-1.364792200921223,1.2626403556259767,-0.9761171340942383,-0.07475580275058746,-0.2039778083562851
1728067767715,7i,9.400918291173536,0.8s : 0.3s,9.97155801714945,7.8740372295768974,6.118129370699384,2.425683259437906,4.73032283782959,-5.716529369354248,-4.505497932434082,1.8384513854980469,1.4587491750717163,0.6132590174674988,0.12644407727127174,-1.4282878670776262,1.2984853753532097,-0.9819602370262146,-0.12610740959644318,-0.14089271426200867
1728067767725,7i,9.400918291173536,0.8s : 0.3s,9.929313968324225,7.920318316373834,5.988308078987899,2.276941003875875,5.2333598136901855,-5.4677276611328125,-4.158669948577881,1.9547876119613647,0.957938551902771,0.667547345161438,0.17546643777235638,-1.490726152237315,1.3440577332320507,-0.9814903736114502,-0.17456743121147156,-0.07875648885965347
1728067767735,7i,9.400918291173536,0.8s : 0.3s,9.893310188057223,7.967207724338874,5.865252556740571,2.2160957280761346,5.167056560516357,-5.287713527679443,-3.994889259338379,2.0580339431762695,0.7223933935165405,0.3920769691467285,0.21855965606698238,-1.5543652655578855,1.3948452356271044,-0.9760789275169373,-0.2168237715959549,-0.01603945530951023
1728067767745,7i,9.400918291173536,0.8s : 0.3s,9.840719414714847,8.014359341879226,5.710499359808989,2.161857115164486,5.278258323669434,-4.74275016784668,-3.834617853164673,1.9624903202056885,0.7223653197288513,0.5481297969818115,0.25698374729969203,-1.6174933810782481,1.448726962307504,-0.966106653213501,-0.25416451692581177,0.045147158205509186
1728067767755,7i,9.400918291173536,0.8s : 0.3s,9.788389856263837,8.063712951899973,5.548793509184622,2.441903978737251,5.629154205322266,-4.083991527557373,-3.6317806243896484,2.119159698486328,0.9188008308410645,0.7923775911331177,0.2900693704414582,-1.677462402327364,1.5083268625565758,-0.9527779221534729,-0.2860186994075775,0.10201627761125565
1728067767765,7i,9.400918291173536,0.8s : 0.3s,9.735820086038181,8.113542853629378,5.381135113526156,2.2812472229644833,5.5812859535217285,-3.6709139347076416,-3.5043344497680664,1.9636154174804688,0.8654605150222778,0.7741327285766602,0.3177082506496745,-1.7352216341667293,1.5716852481501695,-0.9371414184570312,-0.3123903274536133,0.1554935872554779
1728067767775,7i,9.400918291173536,0.8s : 0.3s,9.681799660627842,8.160758696048172,5.209535696528776,1.868207135427029,5.564329147338867,-3.307971954345703,-3.279311418533325,1.6259825229644775,0.49875104427337646,0.7730628252029419,0.34069169467119015,-1.7908737657292935,1.6363908835555077,-0.9197905659675598,-0.3341391086578369,0.20575781166553497
1728067767785,7i,9.400918291173536,0.8s : 0.3s,9.623347715368405,8.204960721767295,5.028661929891709,1.7033230979055656,5.455195903778076,-2.910491943359375,-3.1526970863342285,1.424019455909729,0.4346393048763275,0.8273855447769165,0.35810723330901884,-1.844515237258698,1.7012864298827852,-0.9016956686973572,-0.3505021631717682,0.25316551327705383
1728067767795,7i,9.400918291173536,0.8s : 0.3s,9.578081985580765,8.246417507174312,4.871986537324971,1.6356030034506504,5.641449928283691,-2.4700236320495605,-2.9147191047668457,1.1777359247207642,0.5604352951049805,0.9869384765625,0.37104522333516177,-1.8950159006324716,1.7675247754526322,-0.8833939433097839,-0.3625897169113159,0.29689010977745056
1728067767805,7i,9.400918291173536,0.8s : 0.3s,9.536915729689941,8.286086879450743,4.7216020439466995,1.6657017679162158,5.613079071044922,-1.971680998802185,-2.893214702606201,1.1080236434936523,0.7174378633499146,1.0159374475479126,0.3785275048210419,-1.9418944640474338,1.834768878848814,-0.8659580945968628,-0.3695526123046875,0.33696770668029785
1728067767815,7i,9.400918291173536,0.8s : 0.3s,9.492598693083744,8.323076038502133,4.564628703985335,1.5386767433602584,5.5943427085876465,-1.594382405281067,-2.567744731903076,0.9278231263160706,0.47369956970214844,1.1323776245117188,0.3826915235777697,-1.9845283233346205,1.901937875862086,-0.8493928909301758,-0.3734186589717865,0.3729475438594818
1728067767825,7i,9.400918291173536,0.8s : 0.3s,9.437521236964843,8.357310390099123,4.38430953990519,1.4768666105480335,5.414090156555176,-1.2658371925354004,-2.249087333679199,0.8149690628051758,0.3422268033027649,1.1831488609313965,0.38130699291446746,-2.0227428029560754,1.9666961129510863,-0.8349886536598206,-0.37213391065597534,0.4053519368171692
1728067767835,7i,9.400918291173536,0.8s : 0.3s,9.367611867117859,8.389056566883962,4.168438797750112,1.411081887804859,5.040477275848389,-0.8864794969558716,-2.115791082382202,0.7775933742523193,0.24101215600967407,1.1525683403015137,0.3770166095863265,-2.055364065555794,2.0273857531789496,-0.8227289319038391,-0.3681482672691345,0.4331096112728119
1728067767845,7i,9.400918291173536,0.8s : 0.3s,9.28965578046011,8.420383126309325,3.9236274702883267,1.5395874888036585,4.665205478668213,-0.4882122278213501,-1.9368531703948975,0.7510217428207397,0.31250372529029846,1.3071485757827759,0.3712671064855566,-2.0824156536913736,2.083321860362903,-0.812545120716095,-0.36279648542404175,0.4562332034111023
1728067767855,7i,9.400918291173536,0.8s : 0.3s,9.216925522547452,8.451010389247998,3.6786056446714963,1.6466554298845724,4.437263011932373,-0.1738380640745163,-1.5937812328338623,0.7597383260726929,0.36810094118118286,1.413779854774475,0.3636906899790109,-2.1040531038051236,2.1348924388799344,-0.8048279881477356,-0.3557259440422058,0.4750901460647583
1728067767865,7i,9.400918291173536,0.8s : 0.3s,9.16125074029935,8.48014765876095,3.466354109471006,1.4819987665851941,4.310538291931152,0.12346791476011276,-1.3683133125305176,0.673430323600769,0.2847255766391754,1.2890862226486206,0.3537811198042948,-2.121044887766342,2.183118212721223,-0.7996052503585815,-0.346447229385376,0.49051564931869507
1728067767875,7i,9.400918291173536,0.8s : 0.3s,9.110813292529274,8.506351613627135,3.2632654008938853,1.2412561895628293,4.084423542022705,0.35946154594421387,-1.1258878707885742,0.5154820680618286,0.06254947185516357,1.1274230480194092,0.34210204117946913,-2.133851732897569,2.2280720574497757,-0.7966253757476807,-0.335468053817749,0.5028411746025085
1728067767885,7i,9.400918291173536,0.8s : 0.3s,9.058657849707718,8.530010235523388,3.049296217151994,1.2444942059658195,3.7694661617279053,0.5979622602462769,-0.8246169090270996,0.4294605851173401,0.017947643995285034,1.1679072380065918,0.32909249105196475,-2.142282158401202,2.2685664954443667,-0.7959615588188171,-0.3231843411922455,0.5118564367294312
