timestamp,club,max_speed,tempo,w.rotation,l.speed,t.spped,acc,rotation.x,rotation.y,rotation.z,userAcceleration.x,userAcceleration.y,userAcceleration.z,pitch,roll,yaw,gravity.x,gravity.y,gravity.z
1729111534055,9i,4.941243551793852,1.0s : 0.3s,-5.352136314035306,0.0003705750525351189,0.19909069013304684,0.05933023565426812,0.43715810775756836,0.035959478467702866,-0.011311523616313934,-0.022552549839019775,0.038019850850105286,-0.0395720899105072,-0.20322919106396783,1.3716777782746878,0.16650454728692624,0.9600681066513062,0.201833114027977,-0.1937345713376999
1729111534065,9i,4.941243551793852,1.0s : 0.3s,-5.352136314035306,0.0007656940352491945,0.227511035383182,0.06287336648387774,0.43946483731269836,0.04761316254734993,0.011026638559997082,-0.025058627128601074,0.03102979063987732,-0.04860326647758484,-0.2023272352458352,1.3710933572498174,0.16205406399248184,0.9601327776908875,0.20094963908195496,-0.19433166086673737
1729111534075,9i,4.941243551793852,1.0s : 0.3s,-5.352136314035306,0.0011559028092645981,0.23109059122505443,0.04578078725054454,0.36621537804603577,0.03643481060862541,0.030330562964081764,-0.0239715576171875,0.011858612298965454,-0.03715667128562927,-0.20133671844408926,1.3706233065624827,0.15798226037472293,0.9602358937263489,0.19997923076152802,-0.19482243061065674
1729111534085,9i,4.941243551793852,1.0s : 0.3s,-5.352136314035306,0.0015057257008619731,0.2103770374236214,0.019393765872566884,0.24238251149654388,0.012121258303523064,0.05166690796613693,-0.007853388786315918,-0.012372702360153198,-0.012702703475952148,-0.20035604120107545,1.3702409528446178,0.15501522295243625,0.9603529572486877,0.19901825487613678,-0.19522851705551147
1729111534095,9i,4.941243551793852,1.0s : 0.3s,-5.352136314035306,0.001780731879926462,0.20214658383800047,0.046638018017227875,0.1811543107032776,-0.05143188685178757,0.2622227966785431,-0.002326488494873047,-0.0465327650308609,-0.0020961761474609375,-0.19926179642309616,1.3697600075552065,0.15315097202112027,0.9604718089103699,0.19794578850269318,-0.19573374092578888
1729111534105,9i,4.941243551793852,1.0s : 0.3s,-5.352136314035306,0.0018023801964070277,0.21600276710461247,0.06821996159270886,0.3312256932258606,-0.04336290434002876,0.2358621507883072,-0.02586495876312256,-0.06298677623271942,0.004199177026748657,-0.199033448119567,1.3694266527169825,0.15197524825915348,0.9604508280754089,0.1977219581604004,-0.19606296718120575
1729111534115,9i,4.941243551793852,1.0s : 0.3s,-5.352136314035306,0.001787325054172059,0.1961051487291917,0.03963448862858403,0.22735603153705597,-0.022366013377904892,0.015026174485683441,-0.01450037956237793,-0.03281788527965546,0.016840964555740356,-0.19867313292031752,1.3692430717389021,0.15100089415346224,0.9604845643043518,0.19736874103546143,-0.19625353813171387
1729111534125,9i,4.941243551793852,1.0s : 0.3s,-5.352136314035306,0.0018059211093329744,0.1616306491056886,0.017368738837837697,0.13006195425987244,0.021805088967084885,-0.03388317674398422,0.006662249565124512,0.008566498756408691,-0.013561069965362549,-0.19779894024794992,1.3688568790763551,0.14974690052764109,0.9605773091316223,0.1965116709470749,-0.19665896892547607
1729111534135,9i,4.941243551793852,1.0s : 0.3s,-5.352136314035306,0.0018410231916062068,0.14093628866699634,0.029523902328848103,0.12326956540346146,0.008824842050671577,0.08331748098134995,-0.02818995714187622,0.00599902868270874,0.006403028964996338,-0.19727393548134375,1.3684277637342794,0.14838158335357907,0.9605937600135803,0.19599686563014984,-0.19709184765815735
1729111534145,9i,4.941243551793852,1.0s : 0.3s,-5.352136314035306,0.0018609317700649837,0.12133191795095159,0.03513023552197151,0.1068103015422821,-0.015663767233490944,0.03765036165714264,-0.019638419151306152,-0.004218503832817078,0.028821349143981934,-0.196738933362549,1.3678745401277252,0.1473091396068652,0.9605870842933655,0.19547221064567566,-0.19764433801174164
1729111534155,9i,4.941243551793852,1.0s : 0.3s,-5.352136314035306,0.001849513302880562,0.11002648755313671,0.03544167764859212,0.11615613847970963,-0.015731144696474075,0.0462435819208622,-0.005900561809539795,-0.013347089290618896,0.03229784965515137,-0.19618273885392676,1.3673122764504542,0.14627466543124792,0.9605821967124939,0.19492672383785248,-0.19820636510849
1729111534165,9i,4.941243551793852,1.0s : 0.3s,-5.352136314035306,0.0018265011923024618,0.10962004611627622,0.02919644352917101,0.15258991718292236,-0.00531370285898447,0.04055849835276604,0.006159663200378418,0.007030606269836426,0.027659744024276733,-0.19545981733119927,1.3668964769080985,0.14498641102364543,0.9606375098228455,0.19421762228012085,-0.19863425195217133
1729111534175,9i,4.941243551793852,1.0s : 0.3s,-5.352136314035306,0.0017873366237532158,0.1085694380147044,0.02932760455045935,0.14018383622169495,-0.006645550020039082,0.0462518036365509,0.002576589584350586,-0.0011681318283081055,0.02919083833694458,-0.19450033647060694,1.3665808774529005,0.14357867131547952,0.9607567191123962,0.1932763159275055,-0.1989751011133194
1729111534185,9i,4.941243551793852,1.0s : 0.3s,-5.352136314035306,0.001630734702905239,0.09757086452695993,0.0479966550300448,0.10044055432081223,-0.019169019535183907,0.03523194417357445,0.012016594409942627,-0.01993405818939209,0.04197515547275543,-0.19356486186875121,1.3662563789321558,0.14247742343228276,0.9608686566352844,0.19235840439796448,-0.19932349026203156
1729111534195,9i,4.941243551793852,1.0s : 0.3s,-5.352136314035306,0.0014206768617379066,0.08560288113136451,0.046643459682094594,0.08042929321527481,-0.027780883014202118,0.02344985119998455,0.019033491611480713,-0.018113866448402405,0.03853863477706909,-0.19298510917746284,1.3659498636001668,0.14167529043297006,0.9609166383743286,0.1917894333600998,-0.1996406614780426
1729111534205,9i,4.941243551793852,1.0s : 0.3s,-5.352136314035306,0.001222311880743033,0.08316810484966024,0.023142772302909155,0.0983213409781456,-0.017003647983074188,0.025323085486888885,0.01037442684173584,-0.0049978941679000854,0.02007436752319336,-0.19263424552941041,1.3655047947965306,0.1408257863988747,0.960893452167511,0.19144508242607117,-0.20008200407028198
1729111534215,9i,4.941243551793852,1.0s : 0.3s,-5.352136314035306,0.0010541215946724527,0.08129930021658248,0.022354004590543042,0.09897754341363907,-0.010459196753799915,0.02060529589653015,-0.00470423698425293,-0.017561599612236023,0.013006225228309631,-0.19231358091969042,1.3652195415904487,0.1398664691059165,0.960896372795105,0.19113034009933472,-0.20036861300468445
1729111534225,9i,4.941243551793852,1.0s : 0.3s,-5.352136314035306,0.0009173834627983872,0.07129277046541954,0.04061829175841243,0.06634649634361267,-0.017589231953024864,0.021504346281290054,0.00017774105072021484,-0.03554214537143707,0.01966138184070587,-0.19197742594295164,1.3652148670483657,0.139099991800927,0.9609582424163818,0.19080036878585815,-0.20038621127605438
1729111534235,9i,4.941243551793852,1.0s : 0.3s,-5.352136314035306,0.0008224370668051085,0.05606889118408596,0.04975943639574239,0.02030710130929947,-0.03157429397106171,0.01822146773338318,0.011529505252838135,-0.04368491470813751,0.02084946632385254,-0.19162993235197165,1.3651994214186356,0.13878237149216116,0.9610201120376587,0.1904592365026474,-0.20041459798812866
1729111534245,9i,4.941243551793852,1.0s : 0.3s,-5.352136314035306,0.0008295966958695016,0.0985924943226319,0.03650843384175899,0.0404571108520031,-0.10657085478305817,0.34818345308303833,0.008878052234649658,-0.02796398103237152,0.021726980805397034,-0.1909882358783242,1.3650425890574862,0.13877730863496815,0.9611080288887024,0.1898292601108551,-0.20059022307395935
1729111534255,9i,4.941243551793852,1.0s : 0.3s,-5.352136314035306,0.0006658536616625034,0.24114342962435267,0.13444529710553332,0.23361273109912872,-0.2907430827617645,0.7741832733154297,0.13052457571029663,-0.0069871097803115845,0.031465113162994385,-0.1911787644021081,1.3647459423514918,0.13898387871414786,0.9610130786895752,0.19001631438732147,-0.2008679360151291
1729111534265,9i,4.941243551793852,1.0s : 0.3s,-5.352136314035306,0.0008746681147659466,0.2856499384646344,0.05628145450272943,0.11094418913125992,-0.35898664593696594,0.46563389897346497,0.05535930395126343,-0.0009286403656005859,-0.010103821754455566,-0.19186192159638055,1.365230537781275,0.1392864557026099,0.9609830379486084,0.19068698585033417,-0.20037566125392914
1729111534275,9i,4.941243551793852,1.0s : 0.3s,-5.352136314035306,0.001241650428439813,0.2060785046685359,0.04788206002586913,0.008086521178483963,-0.08484935760498047,-0.015523145906627178,-0.04435175657272339,0.007630437612533569,0.016352057456970215,-0.19150554057837466,1.3650257000815724,0.1394978222913753,0.9610084295272827,0.19033712148666382,-0.20058637857437134
1729111534285,9i,4.941243551793852,1.0s : 0.3s,-5.352136314035306,0.0015940781718030291,0.15078909180941916,0.039470108941684706,0.011619736440479755,-0.010241970419883728,0.029548391699790955,-0.034992337226867676,0.013748198747634888,0.01201719045639038,-0.1911957216254098,1.3647855941212808,0.1393029058811863,0.961017906665802,0.190032958984375,-0.2008291631937027
1729111534295,9i,4.941243551793852,1.0s : 0.3s,-5.352136314035306,0.0019355576092406634,0.10974365764621194,0.033594888571102745,0.03280997648835182,-0.008836355060338974,0.008099026046693325,0.021425843238830566,0.022040218114852905,0.013556495308876038,-0.19103367385088618,1.3646035545121915,0.1390875387599403,0.9610114693641663,0.1898738592863083,-0.20101040601730347
1729111534305,9i,4.941243551793852,1.0s : 0.3s,-5.352136314035306,0.00224125497852861,0.07959305804255556,0.014672156154320031,0.027844779193401337,-0.006076698191463947,0.0011111574713140726,-0.013261258602142334,0.005215078592300415,0.0034948736429214478,-0.19076407168601256,1.3645254699200116,0.13880719380600728,0.9610458016395569,0.18960915505886078,-0.20109590888023376
1729111534315,9i,4.941243551793852,1.0s : 0.3s,-5.352136314035306,0.002511381157319538,0.045900700494822685,0.007466408989401439,0.022652680054306984,0.023332588374614716,-0.06602074205875397,-0.007106900215148926,0.0007403045892715454,0.0021659135818481445,-0.19053500110600916,1.364440951316842,0.1386175456823492,0.9610713124275208,0.18938423693180084,-0.20118604600429535
1729111534325,9i,4.941243551793852,1.0s : 0.3s,-5.352136314035306,0.0027456098640229873,0.024226432354053418,0.016169939558769022,0.02505924552679062,0.05594135448336601,-0.12887424230575562,-0.016088485717773438,-0.001070663332939148,0.0012170672416687012,-0.1903280740479156,1.3643728667258115,0.13853424089655333,0.9610959887504578,0.18918105959892273,-0.20125950872898102
1729111534335,9i,4.941243551793852,1.0s : 0.3s,-5.352136314035306,0.002935777668931684,0.04794795012727784,0.029023204244062607,0.01820719800889492,0.0877208560705185,-0.18763716518878937,-0.02649909257888794,-0.009266525506973267,-0.007367223501205444,-0.190112496674233,1.3644225208889795,0.13852943764229017,0.9611459970474243,0.18896935880184174,-0.20122016966342926
1729111534345,9i,4.941243551793852,1.0s : 0.3s,-5.352136314035306,0.0030866404045385896,0.08735677663248467,0.038964198529784104,0.004413355607539415,0.11025892198085785,-0.25327548384666443,-0.031922340393066406,-0.022340863943099976,0.00024238228797912598,-0.19000123745380665,1.3643523423094048,0.13866569287821554,0.9611523747444153,0.18886010348796844,-0.20129191875457764
1729111534355,9i,4.941243551793852,1.0s : 0.3s,-5.352136314035306,0.0032091955624489773,0.1283322825975967,0.029637945253766788,0.019658353179693222,0.13062864542007446,-0.3075520396232605,-0.026402711868286133,-0.01345585286617279,-0.0004945993423461914,-0.1900277916452599,1.3642448821380637,0.13887830943257257,0.9611258506774902,0.18888618052005768,-0.20139417052268982
1729111534365,9i,4.941243551793852,1.0s : 0.3s,-5.352136314035306,0.0032949293212040233,0.16984165710346297,0.029966972874886127,0.052976496517658234,0.16307130455970764,-0.35871604084968567,-0.026073753833770752,-0.0062837153673172,-0.013367637991905212,-0.1900583407292844,1.3640793080096876,0.13888813948666429,0.9610866904258728,0.1889161914587021,-0.20155209302902222
1729111534375,9i,4.941243551793852,1.0s : 0.3s,-5.352136314035306,0.0032932359749778886,0.2074217804208455,0.04283981355301847,0.07559872418642044,0.1835765838623047,-0.3928591012954712,-0.03918743133544922,-0.011962220072746277,-0.01251000165939331,-0.19001403120574545,1.3639189982983217,0.13873619619822689,0.9610626101493835,0.18887268006801605,-0.2017078846693039
1729111534385,9i,4.941243551793852,1.0s : 0.3s,-5.352136314035306,0.003258099014491417,0.2425059010170567,0.036320520209822425,0.10334300249814987,0.19532440602779388,-0.43071675300598145,-0.03541618585586548,-0.0017179399728775024,-0.007869094610214233,-0.1898994965681883,1.3636514172804641,0.13841900475579647,0.9610296487808228,0.1887602061033249,-0.2019694745540619
1729111534395,9i,4.941243551793852,1.0s : 0.3s,-5.352136314035306,0.003188778966447575,0.2750210023906926,0.03684345148782898,0.142686665058136,0.21215905249118805,-0.4580860733985901,-0.03144264221191406,0.009837701916694641,-0.016493022441864014,-0.1897393109133029,1.3632478469145726,0.1378763729843532,0.9609777331352234,0.18860289454460144,-0.2023635357618332
1729111534405,9i,4.941243551793852,1.0s : 0.3s,-5.352136314035306,0.0029929128353608572,0.30295341295546707,0.05587817975085997,0.17891299724578857,0.2345649003982544,-0.4656980633735657,-0.04893219470977783,0.007169768214225769,-0.026011645793914795,-0.1894572388874092,1.3627799463838848,0.13704910074324053,0.9609349370002747,0.18832586705684662,-0.20282414555549622
1729111534415,9i,4.941243551793852,1.0s : 0.3s,-5.352136314035306,0.002698672562422742,0.31515683724333593,0.07968096814070613,0.19954583048820496,0.21739310026168823,-0.42295220494270325,-0.07400935888290405,0.0008512288331985474,-0.02951180934906006,-0.18911686665696048,1.3623552543519364,0.1359858594203532,0.9609113931655884,0.18799157440662384,-0.20324547588825226
1729111534425,9i,4.941243551793852,1.0s : 0.3s,-5.352136314035306,0.002387932712071327,0.31437891929197026,0.08326069228831988,0.2145298421382904,0.18416891992092133,-0.3687494993209839,-0.07395690679550171,-0.0027035176753997803,-0.03814983367919922,-0.18872792006411138,1.3618962269232353,0.13477057886066943,0.960889458656311,0.18760955333709717,-0.2037016898393631
1729111534435,9i,4.941243551793852,1.0s : 0.3s,-5.352136314035306,0.00220431028444329,0.3007977098419793,0.07888191269312493,0.20705674588680267,0.15731839835643768,-0.31407400965690613,-0.06597685813903809,-0.015120849013328552,-0.04050642251968384,-0.1882895963585254,1.3614287118958137,0.13358428813841128,0.9608744978904724,0.18717899918556213,-0.20416797697544098
1729111534445,9i,4.941243551793852,1.0s : 0.3s,-5.352136314035306,0.0022207560015203133,0.28031439009507236,0.08000930608259316,0.20271912217140198,0.11892995238304138,-0.26439014077186584,-0.062062084674835205,-0.028302952647209167,-0.041817814111709595,-0.18780655162781162,1.3609550611004115,0.13253889514880687,0.96086585521698,0.18670447170734406,-0.20464184880256653
1729111534455,9i,4.941243551793852,1.0s : 0.3s,-5.352136314035306,0.002449800084668577,0.257033302208836,0.07383953057657942,0.21046359837055206,0.08132319152355194,-0.21748362481594086,-0.05113351345062256,-0.037491574883461,-0.03784206509590149,-0.18729690126184328,1.3604110730713008,0.1315492771894333,0.9608473777770996,0.1862037479877472,-0.20518437027931213
1729111534465,9i,4.941243551793852,1.0s : 0.3s,-5.352136314035306,0.0028281518333314474,0.2369249679737306,0.06718227557736137,0.24504700303077698,0.05008799582719803,-0.17428626120090485,-0.039697229862213135,-0.02952490746974945,-0.045451819896698,-0.18673624038803233,1.3597304780422685,0.1303626794258763,0.9608095288276672,0.18565286695957184,-0.20586012303829193
1729111534475,9i,4.941243551793852,1.0s : 0.3s,-5.352136314035306,0.0032981622912812546,0.22892073442040115,0.0692634566938074,0.2948063015937805,0.031579554080963135,-0.1327715814113617,-0.041201889514923096,-0.018001914024353027,-0.05268549919128418,-0.1860659097906876,1.3589645521870717,0.12878238825498092,0.9607730507850647,0.1849941462278366,-0.20662210881710052
1729111534485,9i,4.941243551793852,1.0s : 0.3s,-5.352136314035306,0.0038254781263065397,0.22497232837060632,0.07001479971269726,0.3216487169265747,0.007313497364521027,-0.0945352092385292,-0.04087817668914795,-0.012247562408447266,-0.055507153272628784,-0.1853033139654918,1.358136523055481,0.12679933376096247,0.9607391357421875,0.18424466252326965,-0.20744727551937103
1729111534495,9i,4.941243551793852,1.0s : 0.3s,-5.352136314035306,0.00439018517849535,0.2203035214706399,0.06123279657771185,0.3327831029891968,-0.01740356534719467,-0.050481997430324554,-0.035348713397979736,-0.018983900547027588,-0.04625511169433594,-0.1844723905666259,1.3572435233669249,0.12468362747852461,0.9607028961181641,0.18342790007591248,-0.20833753049373627
1729111534505,9i,4.941243551793852,1.0s : 0.3s,-5.352136314035306,0.004970646243312391,0.21365366405970254,0.050424741371538614,0.3547499477863312,-0.045718029141426086,-0.014940580353140831,-0.02451866865158081,-0.027029484510421753,-0.03479793667793274,-0.18352993096959772,1.3562355982089969,0.12242495601452595,0.9606609344482422,0.18250134587287903,-0.20934246480464935
1729111534515,9i,4.941243551793852,1.0s : 0.3s,-5.352136314035306,0.005553187153206352,0.22023898351445706,0.048978941767461266,0.4093404710292816,-0.06082240864634514,0.01833535172045231,-0.018626630306243896,-0.03042200207710266,-0.03356318175792694,-0.18246431891348044,1.355104545851862,0.1198145023915985,0.9606128931045532,0.18145352602005005,-0.21047036349773407
1729111534525,9i,4.941243551793852,1.0s : 0.3s,-5.352136314035306,0.006126875985221154,0.24690468549662564,0.041465774178941366,0.48911693692207336,-0.07681979984045029,0.04445813223719597,-0.0195581316947937,-0.01837986707687378,-0.03160807490348816,-0.18122017606753443,1.353850206383811,0.11650856666054757,0.9605679512023926,0.18022990226745605,-0.21172359585762024
1729111534535,9i,4.941243551793852,1.0s : 0.3s,-5.352136314035306,0.006689305501794897,0.2939889389977128,0.05390600495952743,0.610307514667511,-0.07831169664859772,0.07109001278877258,-0.021097123622894287,-0.0007577836513519287,-0.04960034787654877,-0.17979501240667004,1.35244850567959,0.11225226140506384,0.9605198502540588,0.1788278967142105,-0.21312519907951355
1729111534545,9i,4.941243551793852,1.0s : 0.3s,-5.352136314035306,0.0072417063243879936,0.3554431902128518,0.05812804987908608,0.7416921854019165,-0.06795324385166168,0.09274963289499283,-0.025880098342895508,0.011331424117088318,-0.05080048739910126,-0.17800747386718485,1.3509581324001545,0.10660130711113319,0.9605115652084351,0.17706888914108276,-0.21462586522102356
1729111534555,9i,4.941243551793852,1.0s : 0.3s,-5.352136314035306,0.007781913405875326,0.41775816829121176,0.04810409034887695,0.8329259157180786,-0.056425753980875015,0.11434546858072281,-0.026743948459625244,0.011717364192008972,-0.03822915256023407,-0.17598778219247782,1.3495319442324571,0.09986311370930447,0.9605515003204346,0.17508074641227722,-0.21607355773448944
1729111534565,9i,4.941243551793852,1.0s : 0.3s,-5.352136314035306,0.008314648490426967,0.47153370897534547,0.04046197933627456,0.8802742958068848,-0.04232316464185715,0.13750572502613068,-0.03053116798400879,0.0006519854068756104,-0.026544198393821716,-0.17371282926418527,1.348117015426865,0.09235524352559846,0.9606308341026306,0.17284047603607178,-0.2175198644399643
1729111534575,9i,4.941243551793852,1.0s : 0.3s,-5.352136314035306,0.008833836143468955,0.5033775682317008,0.035943153246650025,0.8465480208396912,-0.05016537755727768,0.159507155418396,-0.021285593509674072,-0.028481245040893555,-0.0052585601806640625,-0.17134733871756946,1.3467973983737322,0.08482721937994726,0.9607388973236084,0.17051011323928833,-0.21887755393981934
1729111534585,9i,4.941243551793852,1.0s : 0.3s,-5.352136314035306,0.009322937177549704,0.5170170310938518,0.03694472763783149,0.7989441752433777,-0.05780735984444618,0.17487375438213348,-0.011996626853942871,-0.03262867033481598,0.012504547834396362,-0.16897550096547362,1.3455862894709716,0.07772772362079805,0.9608644843101501,0.16817252337932587,-0.22013062238693237
1729111534595,9i,4.941243551793852,1.0s : 0.3s,-5.352136314035306,0.009765210402766197,0.5198936547191898,0.027014194519674434,0.7743586897850037,-0.06635184586048126,0.17826156318187714,-0.0027196407318115234,-0.018655776977539062,0.019347667694091797,-0.1667047129112056,1.3443968670642414,0.07099030990290751,0.9609717726707458,0.16593365371227264,-0.2213585078716278
1729111534605,9i,4.941243551793852,1.0s : 0.3s,-5.352136314035306,0.010134793078160988,0.5309737754514411,0.03416805487501885,0.8091298341751099,-0.06646712124347687,0.17404241859912872,0.008074820041656494,0.01644749939441681,0.028839781880378723,-0.16442237969057638,1.3431976926830247,0.06406341693158488,0.9610720276832581,0.16368253529071808,-0.22259558737277985
1729111534615,9i,4.941243551793852,1.0s : 0.3s,-5.352136314035306,0.010440177528270807,0.5524123511523108,0.048063678855547395,0.8839428424835205,-0.049878016114234924,0.14935411512851715,0.0027422308921813965,0.04695190489292145,0.00990535318851471,-0.16217791719560543,1.3419799242847703,0.05653592730489245,0.9611555933952332,0.16146792471408844,-0.22384855151176453
1729111534625,9i,4.941243551793852,1.0s : 0.3s,-5.352136314035306,0.010622051926985029,0.5838750829484095,0.0771367349965465,0.9709424376487732,-0.018996892496943474,0.13625696301460266,-0.015426695346832275,0.07480788230895996,-0.010764464735984802,-0.15989668795079515,1.340917410936684,0.04800990496738091,0.9612733721733093,0.15921621024608612,-0.22495301067829132
1729111534635,9i,4.941243551793852,1.0s : 0.3s,-5.352136314035306,0.010753826377952294,0.6028413884999662,0.06436090153250716,0.958030104637146,-0.03192627429962158,0.11225734651088715,-0.016189634799957275,0.06224110722541809,-0.0025031864643096924,-0.1576648771726098,1.3398677558457546,0.03903898517344025,0.9613803625106812,0.157012477517128,-0.22604268789291382
1729111534645,9i,4.941243551793852,1.0s : 0.3s,-5.352136314035306,0.01086535060133418,0.6044767461670816,0.03711870737394867,0.9095628261566162,-0.0411541722714901,0.129892036318779,0.0005682706832885742,0.03421543538570404,0.014379829168319702,-0.15545105067195397,1.3387050998910797,0.030297487324879323,0.9614526629447937,0.15482573211193085,-0.22723965346813202
1729111534655,9i,4.941243551793852,1.0s : 0.3s,-5.352136314035306,0.010939994072085055,0.5832832223272728,0.03428365763525489,0.7827612161636353,-0.050876837223768234,0.13358637690544128,0.028117239475250244,0.015952542424201965,0.011415183544158936,-0.15321002996182784,1.3375386050746443,0.022445755500349683,0.9615222215652466,0.15261134505271912,-0.22844067215919495
1729111534665,9i,4.941243551793852,1.0s : 0.3s,-5.352136314035306,0.010979684617670998,0.535956608933031,0.048559350545844024,0.6188115477561951,-0.06632748246192932,0.12815016508102417,0.023311614990234375,-0.02081848680973053,0.03716409206390381,-0.15118508813130366,1.3364306511101216,0.015958334094500835,0.9615671038627625,0.1506098061800003,-0.22957715392112732
1729111534675,9i,4.941243551793852,1.0s : 0.3s,-5.352136314035306,0.010880918381021515,0.48491045009546896,0.06946091715176606,0.5286574363708496,-0.07675029337406158,0.11738327145576477,0.020962417125701904,-0.031117945909500122,0.058455705642700195,-0.149425527543803,1.3353143077689977,0.010788350856928053,0.9615664482116699,0.1488700807094574,-0.2307119220495224
1729111534685,9i,4.941243551793852,1.0s : 0.3s,-5.352136314035306,0.010687792923876293,0.4477981336817385,0.05128538045743056,0.5273916125297546,-0.06275671720504761,0.08905229717493057,0.026327013969421387,0.009741678833961487,0.04292060434818268,-0.14777805097966298,1.3341852078575842,0.005929796675787286,0.9615423679351807,0.1472407728433609,-0.2318546324968338
1729111534695,9i,4.941243551793852,1.0s : 0.3s,-5.352136314035306,0.010488561983552063,0.4185537232406989,0.03474090542247617,0.5152915120124817,-0.0460704080760479,0.07165146619081497,0.013126671314239502,0.025829076766967773,0.01916976273059845,-0.14616917757226802,1.3331403927659615,0.0010116568615925277,0.9615286588668823,0.1456492394208908,-0.23291462659835815
1729111534705,9i,4.941243551793852,1.0s : 0.3s,-5.352136314035306,0.010289933543350524,0.3908358612830581,0.0321934352270958,0.4840955138206482,-0.032022327184677124,0.04404314607381821,0.005822718143463135,0.015301883220672607,0.0277194082736969,-0.14457941801895605,1.3321604456548175,-0.003745865656528189,0.9615237712860107,0.14407624304294586,-0.2339112013578415
1729111534715,9i,4.941243551793852,1.0s : 0.3s,-5.352136314035306,0.010095007655909536,0.35232498099473764,0.03538053943885152,0.3876004219055176,-0.024362806230783463,0.04758941009640694,0.005191802978515625,-0.005358144640922546,0.03458493947982788,-0.14308346800075472,1.3312938196247466,-0.007987349033903985,0.961529016494751,0.14259575307369232,-0.23479527235031128
1729111534725,9i,4.941243551793852,1.0s : 0.3s,-5.352136314035306,0.009906039328716882,0.29441779641744203,0.0605518974490886,0.22879479825496674,-0.04539778083562851,0.054076071828603745,0.007134556770324707,-0.038720011711120605,0.04600425064563751,-0.1418564823797022,1.3305533030678272,-0.010893859296276454,0.9615240097045898,0.1413811892271042,-0.23554866015911102
1729111534735,9i,4.941243551793852,1.0s : 0.3s,-5.352136314035306,0.009688409346155329,0.22561641166738122,0.08695320283568518,0.08044993877410889,-0.06821703165769577,0.05710804834961891,0.021243631839752197,-0.05997663736343384,0.05926525592803955,-0.14094827916273833,1.3297903643636908,-0.012257110799236743,0.9614683389663696,0.14048205316066742,-0.23631274700164795
1729111534745,9i,4.941243551793852,1.0s : 0.3s,-5.352136314035306,0.009437465305438108,0.1615108186966098,0.08271387674024921,-0.011500762775540352,-0.08409231156110764,0.052998390048742294,0.02839946746826172,-0.04383137822151184,0.06413942575454712,-0.14034579559711483,1.328995066627074,-0.012392348781478626,0.9613621234893799,0.13988551497459412,-0.23709754645824432
1729111534755,9i,4.941243551793852,1.0s : 0.3s,-5.352136314035306,0.009217801224995692,0.11903295048543666,0.052700071256998465,-0.00599627522751689,-0.07613265514373779,0.04056302458047867,0.008386492729187012,-0.0004151761531829834,0.052026838064193726,-0.13992472968601094,1.3282130791842413,-0.012145186415441454,0.9612335562705994,0.13946858048439026,-0.23786339163780212
1729111534765,9i,4.941243551793852,1.0s : 0.3s,-5.352136314035306,0.00904255644829475,0.09508442604732029,0.05415075150012446,0.02543262019753456,-0.06216761842370033,0.034084122627973557,-0.014633715152740479,0.04758165776729584,0.021310657262802124,-0.1395468962134355,1.327527969465446,-0.012141785333326249,0.9611214399337769,0.13909442722797394,-0.23853455483913422
1729111534775,9i,4.941243551793852,1.0s : 0.3s,-5.352136314035306,0.008902610346783692,0.0806742190325305,0.06696238774714956,0.048260971903800964,-0.049675796180963516,0.021483639255166054,-0.01974552869796753,0.05869302153587341,0.025479495525360107,-0.13917409862550825,1.3269343328232202,-0.012451185431662997,0.9610298871994019,0.13872525095939636,-0.2391175627708435
1729111534785,9i,4.941243551793852,1.0s : 0.3s,-5.352136314035306,0.00878217671564413,0.07297087016327514,0.07349945639987654,0.06129714474081993,-0.048710402101278305,0.021543428301811218,-0.015414714813232422,0.062071144580841064,0.03621780872344971,-0.13884454232088242,1.326378263605559,-0.012926188650456659,0.9609410166740417,0.13839887082576752,-0.23966297507286072
1729111534795,9i,4.941243551793852,1.0s : 0.3s,-5.352136314035306,0.00868217598229391,0.07077111798111191,0.06191666603032848,0.06232139468193054,-0.057181648910045624,0.013588299974799156,-0.01087498664855957,0.052744701504707336,0.030551671981811523,-0.13850895459049192,1.3257759897468169,-0.013509123162537282,0.9608415961265564,0.13806650042533875,-0.24025294184684753
1729111534805,9i,4.941243551793852,1.0s : 0.3s,-5.352136314035306,0.008607331302498604,0.06976642573548038,0.05029125301158179,0.07597915083169937,-0.05255849286913872,0.007554176263511181,-0.010159611701965332,0.040959104895591736,0.027355879545211792,-0.13823754365727667,1.3251253561137346,-0.014140624045807796,0.9607214331626892,0.13779768347740173,-0.24088716506958008
1729111534815,9i,4.941243551793852,1.0s : 0.3s,-5.352136314035306,0.008545034083699277,0.06960148517023115,0.05511238303218434,0.09712278842926025,-0.04341479390859604,0.002356751123443246,-0.001258254051208496,0.04971735179424286,0.023748189210891724,-0.13796054299157465,1.3245065610759834,-0.015006939391671456,0.9606091380119324,0.1375233232975006,-0.24149090051651
1729111534825,9i,4.941243551793852,1.0s : 0.3s,-5.352136314035306,0.008506489474683642,0.06880878483634634,0.0368031759146174,0.08593471348285675,-0.039672475308179855,0.004783390089869499,-0.0032601356506347656,0.02688777446746826,0.02491772174835205,-0.13770109663868008,1.3239970482459966,-0.015897844381002692,0.9605204463005066,0.1372663378715515,-0.24198900163173676
1729111534835,9i,4.941243551793852,1.0s : 0.3s,-5.352136314035306,0.008500618258625315,0.06626182320734,0.031668721702184266,0.06419319659471512,-0.0450640432536602,-0.004115296062082052,-0.0043318867683410645,0.0015355199575424194,0.03133344650268555,-0.13752370100501363,1.3236623162208985,-0.016601558417127023,0.9604630470275879,0.13709062337875366,-0.24231646955013275
1729111534845,9i,4.941243551793852,1.0s : 0.3s,-5.352136314035306,0.00851774001567834,0.06471673985652977,0.023327669996064476,0.05811519920825958,-0.054248444736003876,-0.005330396816134453,0.0010519623756408691,0.000342443585395813,0.023301422595977783,-0.13758824824618812,1.3231419311622217,-0.017174533810117812,0.960328221321106,0.13715454936027527,-0.2428140640258789
1729111534855,9i,4.941243551793852,1.0s : 0.3s,-5.352136314035306,0.00855770218397247,0.06478796452240441,0.00846422957870832,0.09297305345535278,-0.04049055278301239,-0.0053948452696204185,-0.0058019161224365234,0.004477217793464661,0.004235029220581055,-0.13768102954866038,1.3226386666615284,-0.017890282228964337,0.9601936340332031,0.13724645972251892,-0.24329422414302826
1729111534865,9i,4.941243551793852,1.0s : 0.3s,-5.352136314035306,0.00861417358012767,0.06669146446158294,0.022770059877551378,0.12003302574157715,-0.024297159165143967,-0.0014445448759943247,-0.003354370594024658,0.00502854585647583,0.021953076124191284,-0.13784843132412944,1.3223917218037222,-0.018933689588501494,0.9601110816001892,0.13741227984428406,-0.2435256391763687
1729111534875,9i,4.941243551793852,1.0s : 0.3s,-5.352136314035306,0.008685449332734208,0.06791639551059178,0.023206996521733494,0.11776534467935562,-0.026140067726373672,-0.001067174831405282,-0.003295719623565674,0.005318745970726013,0.022347569465637207,-0.13755547049308472,1.3219911281986967,-0.020114617962608612,0.960052490234375,0.13712209463119507,-0.24392016232013702
1729111534885,9i,4.941243551793852,1.0s : 0.3s,-5.352136314035306,0.008766706494523744,0.0705348985293138,0.01298143256600108,0.12437824159860611,-0.02920474484562874,0.0030165824573487043,-0.0018088817596435547,-0.002957955002784729,0.012509837746620178,-0.13742332503766724,1.321641684974332,-0.021264391903264637,0.9599846601486206,0.13699118793010712,-0.24426007270812988
1729111534895,9i,4.941243551793852,1.0s : 0.3s,-5.352136314035306,0.008856174343780221,0.08004551132654701,0.014042348949441312,0.15317580103874207,-0.025144221261143684,0.007847024127840996,-0.0021610260009765625,-0.0007204562425613403,0.013856351375579834,-0.137290310481109,1.3213245653626082,-0.022589019711723075,0.9599248766899109,0.13685943186283112,-0.24456900358200073
1729111534905,9i,4.941243551793852,1.0s : 0.3s,-5.352136314035306,0.008946328060066162,0.09147795451101878,0.018360788724646606,0.17387402057647705,-0.03187815845012665,0.010265408083796501,0.005198657512664795,-0.0012626498937606812,0.017564117908477783,-0.13699045244464525,1.321017353396053,-0.02414431007068531,0.9598894119262695,0.13656239211559296,-0.2448740303516388
1729111534915,9i,4.941243551793852,1.0s : 0.3s,-5.352136314035306,0.009030403460859237,0.10594645462086168,0.008120444662788098,0.20418664813041687,-0.04236222431063652,0.0039353398606181145,0.0060356855392456055,-0.003915846347808838,0.003765404224395752,-0.13648030950487028,1.3206269321789494,-0.02593188787555228,0.9598610997200012,0.13605700433254242,-0.24526597559452057
1729111534925,9i,4.941243551793852,1.0s : 0.3s,-5.352136314035306,0.009106814480337516,0.12380832278802853,0.013030342887514885,0.24409012496471405,-0.038437165319919586,0.005950553808361292,0.003552675247192383,-0.010877013206481934,-0.006233692169189453,-0.13589827048963707,1.3201116328415439,-0.028078299151491026,0.9598111510276794,0.1354803591966629,-0.24578016996383667
1729111534935,9i,4.941243551793852,1.0s : 0.3s,-5.352136314035306,0.00917970685876543,0.1434770715341457,0.02255440060513952,0.2788688838481903,-0.04267319291830063,0.013720858842134476,5.4836273193359375e-06,-0.02158331871032715,-0.0065468549728393555,-0.13519985729193076,1.3193971626791765,-0.030623426141827486,0.9597267508506775,0.13478834927082062,-0.24648936092853546
1729111534945,9i,4.941243551793852,1.0s : 0.3s,-5.352136314035306,0.009245310048003321,0.1621283850752356,0.03093219377251348,0.30148178339004517,-0.052068114280700684,0.01819070801138878,-3.30805778503418e-05,-0.027588143944740295,-0.013989061117172241,-0.13440732825575719,1.3186413967418662,-0.03338138558616717,0.9596433639526367,0.13400301337242126,-0.24724119901657104
1729111534955,9i,4.941243551793852,1.0s : 0.3s,-5.352136314035306,0.009300809552855999,0.17997136944657555,0.030998901941824503,0.3244997262954712,-0.05739443749189377,0.021705815568566322,0.006291508674621582,-0.029480770230293274,-0.0072272419929504395,-0.1335302517769508,1.3179064228665098,-0.03638941675212636,0.9595747590065002,0.13313378393650055,-0.24797573685646057
1729111534965,9i,4.941243551793852,1.0s : 0.3s,-5.352136314035306,0.00934413459245,0.20792869748366166,0.0269516068988477,0.40058770775794983,-0.06554215401411057,0.03155175596475601,0.007699012756347656,-0.024355649948120117,-0.0085974782705307,-0.13237746258198635,1.3169890367719428,-0.03977963318855483,0.9594947695732117,0.1319911777973175,-0.24889428913593292
1729111534975,9i,4.941243551793852,1.0s : 0.3s,-5.352136314035306,0.009379110101764001,0.24422436704164352,0.025178586153996797,0.48501551151275635,-0.06876830756664276,0.021257570013403893,0.0020450353622436523,-0.021353811025619507,-0.01318308711051941,-0.13107333499238713,1.315928975316455,-0.04401068938324365,0.9593961238861084,0.13069835305213928,-0.2499544471502304
1729111534985,9i,4.941243551793852,1.0s : 0.3s,-5.352136314035306,0.009406643672937528,0.28713920229726064,0.006989563313625464,0.5716781616210938,-0.07817082107067108,0.01816108077764511,0.0012015700340270996,0.001879855990409851,-0.0066239237785339355,-0.1295861061163962,1.3147732775201066,-0.04907783511167358,0.9592936038970947,0.12922373414039612,-0.2511120140552521
1729111534995,9i,4.941243551793852,1.0s : 0.3s,-5.352136314035306,0.009367189996125503,0.3445943399873261,0.04332539053182164,0.7112948894500732,-0.06534557044506073,0.004065235611051321,0.02234339714050293,0.03657601773738861,0.006329059600830078,-0.12788058533986982,1.3133536404491934,-0.05527676888284752,0.9591478705406189,0.12753231823444366,-0.2525293529033661
1729111535005,9i,4.941243551793852,1.0s : 0.3s,-5.352136314035306,0.009213714782350052,0.39623781396600527,0.06836154302059944,0.7681175470352173,-0.06111260876059532,0.008179320022463799,0.03186541795730591,0.060394152998924255,-0.0032314062118530273,-0.1259278002151993,1.3118054759289735,-0.062497684859301066,0.9589945673942566,0.12559524178504944,-0.2540772557258606
1729111535015,9i,4.941243551793852,1.0s : 0.3s,-5.352136314035306,0.00895094636729306,0.44882527381775766,0.09224027844463235,0.850924015045166,-0.051867708563804626,-0.014952898025512695,0.03630155324935913,0.08346283435821533,-0.014980703592300415,-0.12386973589142106,1.310251100457694,-0.07037646223329286,0.9588462710380554,0.12355320900678635,-0.2556336224079132
1729111535025,9i,4.941243551793852,1.0s : 0.3s,-5.352136314035306,0.00861254399097829,0.49427726903588415,0.11594890774721872,0.8943200707435608,-0.037079401314258575,-0.040572673082351685,0.04496300220489502,0.105905681848526,-0.01436886191368103,-0.12187388719750256,1.3087557983404583,-0.07895435324369145,0.9586992263793945,0.12157240509986877,-0.2571304738521576
1729111535035,9i,4.941243551793852,1.0s : 0.3s,-5.352136314035306,0.008279527167009075,0.5272808107934661,0.15251691009585075,0.899075984954834,-0.03179781883955002,-0.06337466090917587,0.06086021661758423,0.13964205980300903,0.007585316896438599,-0.1200609076772903,1.307354034748752,-0.08783363717470659,0.9585490822792053,0.11977268010377884,-0.2585310637950897
1729111535045,9i,4.941243551793852,1.0s : 0.3s,-5.352136314035306,0.008018807692541548,0.5541855635344689,0.176194212690209,0.9170472621917725,-0.02348352037370205,-0.07590723037719727,0.07789361476898193,0.15804076194763184,0.00032082200050354004,-0.11835847635094496,1.3059936516450914,-0.09682571072489221,0.9583919048309326,0.11808232963085175,-0.25988781452178955
1729111535055,9i,4.941243551793852,1.0s : 0.3s,-5.352136314035306,0.008006451052955079,0.5728665777214975,0.15913793645138707,0.9156176447868347,-0.006726909428834915,-0.08698491752147675,0.05742686986923218,0.14840739965438843,-0.0015103518962860107,-0.11671955911925538,1.3047725939998942,-0.10599760199591471,0.9582592844963074,0.11645472049713135,-0.2611083984375
1729111535065,9i,4.941243551793852,1.0s : 0.3s,-5.352136314035306,0.008304127360591567,0.5739592207092356,0.14609799381252664,0.866122841835022,-0.006185666657984257,-0.09056659787893295,0.012806117534637451,0.14518097043037415,0.01015445590019226,-0.11522096341310054,1.303682234627005,-0.1148886557660605,0.9581412672996521,0.11496619135141373,-0.26219886541366577
1729111535075,9i,4.941243551793852,1.0s : 0.3s,-5.352136314035306,0.008922278714725928,0.5702131739530933,0.15246063248918237,0.8188090920448303,0.00652107410132885,-0.11613800376653671,-0.010487794876098633,0.14946913719177246,0.028164297342300415,-0.11397639968920695,1.3027294018159759,-0.12335384781215364,0.9580281972885132,0.11372978985309601,-0.2631493806838989
1729111535085,9i,4.941243551793852,1.0s : 0.3s,-5.352136314035306,0.010030136337560495,0.561133041893778,0.1780163471054807,0.794592022895813,0.025015084072947502,-0.14712931215763092,-0.03621143102645874,0.16375190019607544,0.059698134660720825,-0.11310046084114563,1.3019509059661531,-0.1315327285127494,0.9579187035560608,0.11285948753356934,-0.26392146944999695
1729111535095,9i,4.941243551793852,1.0s : 0.3s,-5.352136314035306,0.011626220101031025,0.5613362770156826,0.23256258929348275,0.8258660435676575,0.06753244996070862,-0.1661890298128128,-0.053305745124816895,0.21498800814151764,0.07088026404380798,-0.11247376199557026,1.3014793239867017,-0.139775955998985,0.9578621983528137,0.11223677545785904,-0.2643919587135315
1729111535105,9i,4.941243551793852,1.0s : 0.3s,-5.352136314035306,0.01365487904583381,0.5649989255823546,0.26512793711097316,0.8402086496353149,0.10437839478254318,-0.1969236582517624,-0.05312836170196533,0.24266360700130463,0.09265297651290894,-0.11197092761311642,1.3013532635256344,-0.14843082000670302,0.9578831791877747,0.11173710227012634,-0.26452770829200745
1729111535115,9i,4.941243551793852,1.0s : 0.3s,-5.352136314035306,0.01599754116832609,0.5626069520492675,0.2707228764801706,0.7850461006164551,0.10632436722517014,-0.21262966096401215,-0.05758357048034668,0.23279434442520142,0.1256256401538849,-0.1118141763390668,1.3015190777217835,-0.15680981715855427,0.9579437971115112,0.11158133298158646,-0.2643735110759735
1729111535125,9i,4.941243551793852,1.0s : 0.3s,-5.352136314035306,0.01859867843824216,0.5614516057774855,0.28676897747470814,0.780057966709137,0.1104617640376091,-0.2862803637981415,-0.05831873416900635,0.23928695917129517,0.1468915343284607,-0.11212893788905402,1.3016577169678918,-0.16498160669233086,0.9579466581344604,0.11189412325620651,-0.2642313539981842
1729111535135,9i,4.941243551793852,1.0s : 0.3s,-5.352136314035306,0.02144180098576359,0.5712784581273566,0.3033416427782308,0.8220136761665344,0.14560696482658386,-0.34807315468788147,-0.08586245775222778,0.26500821113586426,0.12006014585494995,-0.11305541620579893,1.3019859910321256,-0.17364644252216194,0.9579329490661621,0.11281473189592361,-0.26388922333717346
1729111535145,9i,4.941243551793852,1.0s : 0.3s,-5.352136314035306,0.02458340157534517,0.5977991792259183,0.34628970821552657,0.889461100101471,0.17950013279914856,-0.4145858883857727,-0.12945342063903809,0.3047063946723938,0.10154992341995239,-0.11444287970181227,1.3025490376212276,-0.18295804637242463,0.9579295516014099,0.11419323086738586,-0.2633081078529358
1729111535155,9i,4.941243551793852,1.0s : 0.3s,-5.352136314035306,0.02804528966517985,0.6217134306272599,0.3836946386828002,0.8799049258232117,0.19598136842250824,-0.4860962927341461,-0.16206717491149902,0.33404380083084106,0.09680157899856567,-0.11644507695972559,1.3033006768856583,-0.1927528164163258,0.9579047560691833,0.11618209630250931,-0.2625270485877991
1729111535165,9i,4.941243551793852,1.0s : 0.3s,-5.352136314035306,0.03174765327530364,0.6598123137751535,0.39784977828714063,0.9473603963851929,0.22864192724227905,-0.5655653476715088,-0.1923065185546875,0.3426777720451355,0.062246233224868774,-0.11912113752675928,1.3042115659527007,-0.20451781403578673,0.9578400254249573,0.11883962154388428,-0.2615715265274048
1729111535175,9i,4.941243551793852,1.0s : 0.3s,-5.352136314035306,0.03569699193570392,0.7134893825889593,0.43019340479872015,1.0380793809890747,0.27979329228401184,-0.6533977389335632,-0.21025460958480835,0.37452298402786255,0.02432897686958313,-0.12236425585199867,1.3053779620447858,-0.21748253946849022,0.9577676057815552,0.12205912172794342,-0.26035165786743164
1729111535185,9i,4.941243551793852,1.0s : 0.3s,-5.352136314035306,0.0399272168610796,0.7697244859204135,0.4560617272459168,1.0861839056015015,0.314683735370636,-0.7365766763687134,-0.23331236839294434,0.3897859454154968,0.040305763483047485,-0.12628128197225044,1.3068376741309973,-0.2314020135872042,0.9576777219772339,0.12594591081142426,-0.2588266134262085
1729111535195,9i,4.941243551793852,1.0s : 0.3s,-5.352136314035306,0.04434638039137357,0.8111162339429652,0.4450507021625284,1.0444806814193726,0.30360791087150574,-0.8199946284294128,-0.22810322046279907,0.3776942491531372,0.058190226554870605,-0.13104234783745938,1.3083914012115319,-0.24547626920087617,0.9574887752532959,0.13066762685775757,-0.2571798861026764
1729111535205,9i,4.941243551793852,1.0s : 0.3s,-5.352136314035306,0.0489675822793642,0.8579429182407643,0.4563780322897965,1.0803483724594116,0.31317755579948425,-0.9143643379211426,-0.206800639629364,0.3969380259513855,0.0891886055469513,-0.13667502415831645,1.3097900145390218,-0.25971863790238875,0.9571211934089661,0.13624989986419678,-0.2556464672088623
1729111535215,9i,4.941243551793852,1.0s : 0.3s,-5.352136314035306,0.053850513450957385,0.9180075962741857,0.49526463525264375,1.1603020429611206,0.33125826716423035,-1.0242700576782227,-0.2072266936302185,0.4445776641368866,0.06851902604103088,-0.14316068876229399,1.3111190475651537,-0.2748137091298157,0.9565859436988831,0.14267218112945557,-0.2541419267654419
1729111535225,9i,4.941243551793852,1.0s : 0.3s,-5.352136314035306,0.059078215311207216,0.9946610813833849,0.5437549371836079,1.279025673866272,0.37144631147384644,-1.137937307357788,-0.2270260453224182,0.48875725269317627,0.07242205739021301,-0.15049745472664786,1.312478486686454,-0.29116470910470493,0.9558929204940796,0.1499299854040146,-0.2525671124458313
1729111535235,9i,4.941243551793852,1.0s : 0.3s,-5.352136314035306,0.06460464780599681,1.0779068311516593,0.5600641406988823,1.3724193572998047,0.39919349551200867,-1.2484545707702637,-0.2306041121482849,0.5048041343688965,0.07527530193328857,-0.15864128751426215,1.3138691125370483,-0.3088771381229067,0.9550305604934692,0.15797670185565948,-0.250918984413147
1729111535245,9i,4.941243551793852,1.0s : 0.3s,-5.352136314035306,0.07034233056589966,1.1566949672052582,0.5589211295538422,1.4002116918563843,0.4266284704208374,-1.3641608953475952,-0.21927863359451294,0.507148265838623,0.08432286977767944,-0.16775560855572708,1.3152513515621544,-0.3275407584778911,0.9539437294006348,0.1669698804616928,-0.24922434985637665
1729111535255,9i,4.941243551793852,1.0s : 0.3s,-5.352136314035306,0.07627104072308724,1.2336234371298014,0.5695548441618027,1.4358024597167969,0.45544812083244324,-1.4767249822616577,-0.21921217441558838,0.5132912397384644,0.11344975233078003,-0.1779387577111279,1.3166472001902743,-0.3467693915639594,0.9525955319404602,0.1770012527704239,-0.24745219945907593
1729111535265,9i,4.941243551793852,1.0s : 0.3s,-5.352136314035306,0.08237616013057145,1.314915136123822,0.5829774724521491,1.5054861307144165,0.48777198791503906,-1.5921276807785034,-0.2183060646057129,0.5290164947509766,0.11111590266227722,-0.18910384344607784,1.3180013417922094,-0.3669331392846597,0.9509568810462952,0.18797878921031952,-0.24565239250659943
1729111535275,9i,4.941243551793852,1.0s : 0.3s,-5.352136314035306,0.08860353550405177,1.3784412423265484,0.5856406294376456,1.4308682680130005,0.5028042197227478,-1.7054997682571411,-0.2052939534187317,0.5374395847320557,0.10948987305164337,-0.20139162311625386,1.3193439945541583,-0.38747360733236896,0.9489769339561462,0.2000330239534378,-0.24378222227096558
1729111535285,9i,4.941243551793852,1.0s : 0.3s,-5.352136314035306,0.09490538106971909,1.426266386835427,0.5889216642212836,1.3282475471496582,0.505884051322937,-1.8143467903137207,-0.19971907138824463,0.5338100790977478,0.14828290045261383,-0.2150357810836228,1.3206446413259558,-0.40735251948058726,0.9465606212615967,0.21338237822055817,-0.24184955656528473
1729111535295,9i,4.941243551793852,1.0s : 0.3s,-5.352136314035306,0.1013403658774613,1.4776803351999996,0.6048399620407854,1.2970302104949951,0.5209258198738098,-1.9441381692886353,-0.19629132747650146,0.5453090071678162,0.17302942276000977,-0.22999848252631452,1.3218517939616437,-0.4268497834026908,0.9436516761779785,0.22797603905200958,-0.23989318311214447
1729111535305,9i,4.941243551793852,1.0s : 0.3s,-5.352136314035306,0.10811803383249087,1.54898253745089,0.6819116269403686,1.3681663274765015,0.5600760579109192,-2.095186471939087,-0.1902533769607544,0.62629234790802,0.19121980667114258,-0.24630788663151496,1.3229190323568314,-0.4469282726804191,0.9401772618293762,0.24382494390010834,-0.23794198036193848
1729111535315,9i,4.941243551793852,1.0s : 0.3s,-5.352136314035306,0.11536759657375478,1.6366780201387439,0.7576659591366238,1.454412817955017,0.6033042073249817,-2.252466917037964,-0.1626948118209839,0.7204623818397522,0.1688847541809082,-0.26392980425321866,1.3237870842051067,-0.4683576053293198,0.9360714554786682,0.26087626814842224,-0.2360384613275528
1729111535325,9i,4.941243551793852,1.0s : 0.3s,-5.352136314035306,0.12297474244875282,1.7273194344063465,0.7730913486461769,1.501204490661621,0.6219176650047302,-2.39289927482605,-0.12200701236724854,0.7435779571533203,0.17284774780273438,-0.2828533684822465,1.3243182163467226,-0.49089715487671237,0.9312418103218079,0.2790967524051666,-0.23429462313652039
1729111535335,9i,4.941243551793852,1.0s : 0.3s,-5.352136314035306,0.13071940891335324,1.8111721443968753,0.7436150321182754,1.4880447387695312,0.6378145813941956,-2.519397020339966,-0.08513367176055908,0.7142599821090698,0.188542440533638,-0.3030210423011874,1.3244222481336136,-0.5141068001842604,0.9256184101104736,0.2984049618244171,-0.2327774316072464
1729111535345,9i,4.941243551793852,1.0s : 0.3s,-5.352136314035306,0.13846874309007665,1.8885863551975937,0.7171074832570283,1.4446569681167603,0.6530097723007202,-2.651899814605713,-0.05002635717391968,0.6871151924133301,0.19903069734573364,-0.32451708278602204,1.324216364842937,-0.5374756521021841,0.919136643409729,0.318851113319397,-0.23134858906269073
1729111535355,9i,4.941243551793852,1.0s : 0.3s,-5.352136314035306,0.14620313089794648,1.96917130735937,0.709383809188,1.4556097984313965,0.6587486267089844,-2.7956326007843018,-0.012108922004699707,0.6782057285308838,0.2076433300971985,-0.3473854915752366,1.3235631334617466,-0.5612002402373021,0.911675751209259,0.34044063091278076,-0.23010402917861938
1729111535365,9i,4.941243551793852,1.0s : 0.3s,-5.352136314035306,0.15390474938668053,2.050981047019973,0.7079931594611871,1.4480682611465454,0.6605200171470642,-2.9436354637145996,0.04168820381164551,0.6793550252914429,0.19491833448410034,-0.37166942043073936,1.3222441184061184,-0.5855849932432429,0.9030903577804565,0.36317136883735657,-0.22920460999011993
1729111535375,9i,4.941243551793852,1.0s : 0.3s,-5.352136314035306,0.16154028826060068,2.1357408657409778,0.7324274930156016,1.4815173149108887,0.6647544503211975,-3.079209804534912,0.09583830833435059,0.7018717527389526,0.18612118065357208,-0.397238677369951,1.3201254230167885,-0.6107697580575061,0.8933127522468567,0.3868735134601593,-0.2287387102842331
1729111535385,9i,4.941243551793852,1.0s : 0.3s,-5.352136314035306,0.16906523212470487,2.221012488553823,0.7463317419715564,1.5336992740631104,0.666109025478363,-3.1974236965179443,0.1560695767402649,0.7076395750045776,0.17860455811023712,-0.42389966709387555,1.3169898896590033,-0.6371731910688342,0.8822910785675049,0.4113180935382843,-0.22886675596237183
1729111535395,9i,4.941243551793852,1.0s : 0.3s,-5.352136314035306,0.17644283745655456,2.298941604870394,0.7476988169404745,1.525577425956726,0.6625140309333801,-3.3040788173675537,0.21866708993911743,0.6897542476654053,0.18835419416427612,-0.4514812439925296,1.3128475978739322,-0.6645618600434083,0.8700323700904846,0.43629884719848633,-0.22953742742538452
1729111535405,9i,4.941243551793852,1.0s : 0.3s,-5.352136314035306,0.18377247610902175,2.36818703243512,0.7253571479578217,1.4571058750152588,0.6216400265693665,-3.4262609481811523,0.26340746879577637,0.6482604742050171,0.1910964548587799,-0.4801454713459725,1.3076850647589209,-0.6923336143814091,0.856404721736908,0.4619081914424896,-0.2306775450706482
1729111535415,9i,4.941243551793852,1.0s : 0.3s,-5.352136314035306,0.1910320154798348,2.4382906262064337,0.7193265585114494,1.4773426055908203,0.5765132904052734,-3.542701005935669,0.30187857151031494,0.628455400466919,0.1770419031381607,-0.5099540726550176,1.30110126729208,-0.7206693328279906,0.8412184119224548,0.4881371557712555,-0.2325378954410553
1729111535425,9i,4.941243551793852,1.0s : 0.3s,-5.352136314035306,0.19799454697988675,2.514494480182198,0.7493149669074046,1.5379563570022583,0.5664222836494446,-3.664511203765869,0.35996079444885254,0.6466914415359497,0.11700993776321411,-0.540569815830796,1.2926941741949445,-0.7506506499250867,0.8244723081588745,0.5146246552467346,-0.2353873997926712
1729111535435,9i,4.941243551793852,1.0s : 0.3s,-5.352136314035306,0.20478610211815973,2.590792846214819,0.7853235936435673,1.5579482316970825,0.5414612889289856,-3.784430742263794,0.40539902448654175,0.6699393391609192,0.059716492891311646,-0.5720410473199659,1.282521695087796,-0.7823071409949506,0.8061030507087708,0.5413492918014526,-0.23903755843639374
1729111535445,9i,4.941243551793852,1.0s : 0.3s,-5.352136314035306,0.21146032598329637,2.6653255823407553,0.8062928665605613,1.5704916715621948,0.5073232650756836,-3.8983137607574463,0.45179879665374756,0.6662419438362122,0.045909762382507324,-0.604328446726347,1.270296325167754,-0.815685881532791,0.7860094904899597,0.5682095885276794,-0.2435719072818756
1729111535455,9i,4.941243551793852,1.0s : 0.3s,-5.352136314035306,0.21807966134178094,2.7319535912628967,0.847218159312392,1.5272259712219238,0.4394209086894989,-4.002936363220215,0.5221527814865112,0.6643151044845581,0.061810389161109924,-0.6373897186010332,1.2558895108176191,-0.8505362396142596,0.7641326189041138,0.595099687576294,-0.24891342222690582
1729111535465,9i,4.941243551793852,1.0s : 0.3s,-5.352136314035306,0.22476467856559249,2.7972271360015704,0.9068535995541088,1.5334402322769165,0.3802391290664673,-4.105987071990967,0.5957213044166565,0.6763194799423218,0.10045665502548218,-0.6710283645521332,1.2389739366976313,-0.8869190672980356,0.7404603958129883,0.6217917203903198,-0.2551347613334656
1729111535475,9i,4.941243551793852,1.0s : 0.3s,-5.352136314035306,0.23162077166725553,2.862011886094983,0.959286765065342,1.5708611011505127,0.3509952425956726,-4.194642543792725,0.6502299308776855,0.6996949315071106,0.08865177631378174,-0.7049451710344468,1.2191319539168817,-0.9258078289870536,0.7150350213050842,0.6479920744895935,-0.2623576521873474
1729111535485,9i,4.941243551793852,1.0s : 0.3s,-5.352136314035306,0.2385954785494282,2.9182681732926863,0.9549390899120307,1.5383853912353516,0.30035120248794556,-4.268872261047363,0.6689561009407043,0.676784873008728,0.07980373501777649,-0.7390108293923999,1.19633379826245,-0.9671840626259668,0.6879164576530457,0.6735571026802063,-0.2703552544116974
1729111535495,9i,4.941243551793852,1.0s : 0.3s,-5.352136314035306,0.24551120248270564,2.962722569011837,0.9318098917940799,1.4514331817626953,0.2303832769393921,-4.332296371459961,0.6975786685943604,0.6148414611816406,0.06019678711891174,-0.7731897149161044,1.1705634229896429,-1.0104486343303383,0.6591260433197021,0.6984215974807739,-0.27885499596595764
1729111535505,9i,4.941243551793852,1.0s : 0.3s,-5.352136314035306,0.2522658611637611,2.9934753034044683,0.9317405101704731,1.3360508680343628,0.15511232614517212,-4.373442649841309,0.7493802309036255,0.5474914908409119,0.08259972929954529,-0.8074303605576268,1.1418808755861023,-1.055316387138531,0.6287326216697693,0.7225130200386047,-0.28752508759498596
1729111535515,9i,4.941243551793852,1.0s : 0.3s,-5.352136314035306,0.2589222360230844,3.0171804053059432,0.959028938524711,1.2821063995361328,0.10856612771749496,-4.401064872741699,0.7964143753051758,0.5204960107803345,0.12060078978538513,-0.8414609514578828,1.1100347896623495,-1.1022285215729344,0.5968809127807617,0.7456174492835999,-0.29629024863243103
1729111535525,9i,4.941243551793852,1.0s : 0.3s,-5.352136314035306,0.26557556034870033,3.0357857424214814,0.9798367868296091,1.266440749168396,0.06911463290452957,-4.414556503295898,0.8261469602584839,0.5118305683135986,0.12486311793327332,-0.8747132664303917,1.0743394366032002,-1.152382073461008,0.5638065934181213,0.7673596739768982,-0.3054201304912567
1729111535535,9i,4.941243551793852,1.0s : 0.3s,-5.352136314035306,0.2723067245480965,3.053076820190909,0.95455805702178,1.1628526449203491,-0.02434687130153179,-4.468554973602295,0.8330193758010864,0.45385533571243286,0.1061844527721405,-0.9073004245249132,1.0343932701319047,-1.2040882249661315,0.5293768048286438,0.7878440022468567,-0.3147413730621338
1729111535545,9i,4.941243551793852,1.0s : 0.3s,-5.352136314035306,0.27911636043540855,3.07562373442605,0.9314823871334945,1.0955318212509155,-0.09829215705394745,-4.538579940795898,0.8309935331344604,0.41011691093444824,0.09441030025482178,-0.9395723256959561,0.9895149286614288,-1.2595122260230909,0.49320992827415466,0.8073058128356934,-0.32403960824012756
1729111535555,9i,4.941243551793852,1.0s : 0.3s,-5.352136314035306,0.2859145737664066,3.10197785788091,0.9781181387242625,1.1557868719100952,-0.1252438873052597,-4.5721516609191895,0.8572180271148682,0.4688812494277954,0.045196473598480225,-0.9706400311663771,0.9386868489863548,-1.3220311843394708,0.45564812421798706,0.8252473473548889,-0.333694189786911
1729111535565,9i,4.941243551793852,1.0s : 0.3s,-5.352136314035306,0.2928795832824293,3.1374674230037374,1.0205261669805392,1.2622820138931274,-0.16989491879940033,-4.628729820251465,0.8829267024993896,0.5110293626785278,-0.027624011039733887,-0.9994792541015327,0.8801365190069773,-1.3920185381550247,0.41681692004203796,0.8411895036697388,-0.3444766700267792
1729111535575,9i,4.941243551793852,1.0s : 0.3s,-5.352136314035306,0.2999484834989046,3.171358755019365,1.0338927358564407,1.2266005277633667,-0.240042582154274,-4.682347774505615,0.9110760688781738,0.4848770499229431,-0.061390817165374756,-1.026105205819879,0.8136180389567544,-1.4679951797504682,0.3765825927257538,0.8552873730659485,-0.35590633749961853
1729111535585,9i,4.941243551793852,1.0s : 0.3s,-5.352136314035306,0.30710073006297134,3.193993171743195,1.0609732351144863,1.123671054840088,-0.3345585763454437,-4.6991190910339355,0.9615734815597534,0.4468157887458801,-0.037367045879364014,-1.0506457785887473,0.7399720646180075,-1.5501519916628257,0.3351183533668518,0.8677443861961365,-0.36703646183013916
1729111535595,9i,4.941243551793852,1.0s : 0.3s,-5.352136314035306,0.3143758399791894,3.211269085480741,1.0848867376679412,1.0871566534042358,-0.41914644837379456,-4.708714962005615,0.9970045685768127,0.4273001551628113,-0.019383013248443604,-1.0725885570702998,0.6590149742278779,-1.638500774932099,0.2926071882247925,0.8784403800964355,-0.37778785824775696
1729111535605,9i,4.941243551793852,1.0s : 0.3s,-5.352136314035306,0.3218761902511405,3.2263440197283435,1.0944552560382494,1.137821078300476,-0.4512672424316406,-4.706506729125977,0.9975695610046387,0.4482261538505554,-0.042197078466415405,-1.0906629099953589,0.5702791520746123,-1.7340733472904717,0.24936330318450928,0.8869333267211914,-0.3888024687767029
1729111535615,9i,4.941243551793852,1.0s : 0.3s,-5.352136314035306,0.3296655574817759,3.23943284181564,1.0897122510645187,1.168676495552063,-0.4799231290817261,-4.708120346069336,0.9812438488006592,0.4713253974914551,-0.049856483936309814,-1.104190733246811,0.47473341490168053,-1.8362012023862562,0.20563043653964996,0.8931004405021667,-0.40010976791381836
1729111535625,9i,4.941243551793852,1.0s : 0.3s,-5.352136314035306,0.3376775186760016,3.2478246946096316,1.0653290246491434,1.1730815172195435,-0.5203167796134949,-4.6985392570495605,0.9661700129508972,0.4479566812515259,-0.02786123752593994,-1.1127947824005338,0.3739072196112172,-1.943264719591846,0.16150018572807312,0.896937906742096,-0.4116069972515106
1729111535635,9i,4.941243551793852,1.0s : 0.3s,-5.352136314035306,0.34584136179318653,3.248404931511435,1.0400538838852165,1.047903060913086,-0.6166225671768188,-4.69887113571167,0.96121746301651,0.3964990973472595,-0.02369675040245056,-1.1172084202373458,0.2701372443905733,-2.052450147572156,0.11693796515464783,0.8988807201385498,-0.4223021864891052
1729111535645,9i,4.941243551793852,1.0s : 0.3s,-5.352136314035306,0.354184676589393,3.257174617248886,1.0547819423501843,1.1025111675262451,-0.6496685147285461,-4.717226982116699,0.9660648703575134,0.4231364130973816,-0.015465706586837769,-1.1169403079390086,0.16469878447027153,-2.162617300575785,0.07188363373279572,0.8987631797790527,-0.4325016140937805
1729111535655,9i,4.941243551793852,1.0s : 0.3s,-5.352136314035306,0.3627359355239013,3.27607017903001,1.0630293005373925,1.278416395187378,-0.6534542441368103,-4.737383842468262,0.9525649547576904,0.47050660848617554,-0.03570479154586792,-1.110390672457176,0.05998761788074279,-2.272048446701222,0.02663722261786461,0.8958723545074463,-0.44351258873939514
1729111535665,9i,4.941243551793852,1.0s : 0.3s,-5.352136314035306,0.3713958698280555,3.3072039508820446,1.0229345541165347,1.372632622718811,-0.6955169439315796,-4.798889636993408,0.9170840978622437,0.4496695399284363,-0.05611741542816162,-1.0974934249146993,-0.04165583372429693,-2.3783246902340163,-0.018982434645295143,0.8900675773620605,-0.45543330907821655
1729111535675,9i,4.941243551793852,1.0s : 0.3s,-5.352136314035306,0.38000886588740523,3.337256019070029,0.9918368995841912,1.3768092393875122,-0.7613947987556458,-4.830158233642578,0.906325101852417,0.40149563550949097,-0.03341406583786011,-1.0793725620583117,-0.13825400567860974,-2.479143602385726,-0.06503192335367203,0.8816618919372559,-0.46737921237945557
1729111535685,9i,4.941243551793852,1.0s : 0.3s,-5.352136314035306,0.38860566299492766,3.352554160677393,0.999126896631645,1.2690327167510986,-0.8686106204986572,-4.812592029571533,0.9296773076057434,0.36487215757369995,-0.02868741750717163,-1.0576035591416961,-0.2282772112290835,-2.5726430926527057,-0.11110443621873856,0.8711814284324646,-0.47822466492652893
1729111535695,9i,4.941243551793852,1.0s : 0.3s,-5.352136314035306,0.3973251399564283,3.354744223662678,1.0288962433634121,1.246598243713379,-0.9536632299423218,-4.769916534423828,0.9557511806488037,0.38094788789749146,0.006772518157958984,-1.0327408756753953,-0.3113980259516279,-2.6581256057190283,-0.15701475739479065,0.8587068319320679,-0.48782092332839966
1729111535705,9i,4.941243551793852,1.0s : 0.3s,-5.352136314035306,0.4061618421809189,3.354217073486225,1.026483979816905,1.2753509283065796,-1.0277286767959595,-4.7225117683410645,0.9530397057533264,0.38098466396331787,0.015341639518737793,-1.004681298432424,-0.386604184140868,-2.734889351138622,-0.20223113894462585,0.8439911007881165,-0.49677154421806335
1729111535715,9i,4.941243551793852,1.0s : 0.3s,-5.352136314035306,0.41481601448784383,3.3542058195815874,0.967186032460764,1.1743377447128296,-1.097900629043579,-4.7433013916015625,0.9133571982383728,0.31787997484207153,-0.013407886028289795,-0.974025947909999,-0.45513888354103327,-2.804348937403066,-0.24703654646873474,0.8271548748016357,-0.5047651529312134
1729111535725,9i,4.941243551793852,1.0s : 0.3s,-5.352136314035306,0.42320411863756563,3.3545802692873368,0.9189839777123122,1.0978951454162598,-1.1770765781402588,-4.753219127655029,0.8753435611724854,0.2796404957771301,-0.010314762592315674,-0.9417966946524847,-0.5187815762010398,-2.8681742938275265,-0.2917102873325348,0.8086164593696594,-0.51092529296875
1729111535735,9i,4.941243551793852,1.0s : 0.3s,-5.352136314035306,0.4317220633668275,3.3523519358812877,0.9818744238812069,1.143152117729187,-1.1705291271209717,-4.701619625091553,0.9077674746513367,0.37343257665634155,-0.024160027503967285,-0.9076371069899611,-0.5764676190039042,-2.925590382131906,-0.3355478048324585,0.7880513072013855,-0.5161229968070984
1729111535745,9i,4.941243551793852,1.0s : 0.3s,-5.352136314035306,0.44065787673050144,3.3387477069589533,1.0381199808117734,1.1872122287750244,-1.1532636880874634,-4.648001670837402,0.9311975836753845,0.4572048783302307,-0.039087772369384766,-0.8715055381584953,-0.6274369626351651,-2.9762471298002047,-0.37788355350494385,0.7652989029884338,-0.5210774540901184
1729111535755,9i,4.941243551793852,1.0s : 0.3s,-5.352136314035306,0.449705450177365,3.3123839924173377,0.9961824095621307,1.0762897729873657,-1.1960409879684448,-4.575416564941406,0.9123543500900269,0.3999861478805542,0.00012040138244628906,-0.8344977977362026,-0.673310255586626,-3.021624974723754,-0.41876325011253357,0.7409593462944031,-0.524992048740387
1729111535765,9i,4.941243551793852,1.0s : 0.3s,-5.352136314035306,0.4588094392833438,3.2736931435337393,0.9831666238948062,0.9834044575691223,-1.2282207012176514,-4.481338977813721,0.9228153824806213,0.33853352069854736,0.020577549934387207,-0.7976205727709832,-0.7155296630964472,-3.0628536293780955,-0.45817020535469055,0.7156962752342224,-0.5271233916282654
1729111535775,9i,4.941243551793852,1.0s : 0.3s,-5.352136314035306,0.46798143744729337,3.2241604133736748,1.0082099218405398,0.9290386438369751,-1.2169114351272583,-4.375995635986328,0.951897382736206,0.3246065378189087,0.07077580690383911,-0.7608305591214325,-0.7539329272673982,-3.100078108320672,-0.49576660990715027,0.6895232200622559,-0.5279899835586548
1729111535785,9i,4.941243551793852,1.0s : 0.3s,-5.352136314035306,0.47717861200825606,3.163136651865835,0.9911270065550918,0.8514570593833923,-1.2534284591674805,-4.243587493896484,0.9445788860321045,0.27744072675704956,0.1145867109298706,-0.7243561039652378,-0.7889479033853961,-3.1335763370647163,-0.5314473509788513,0.6626533269882202,-0.5276877284049988
1729111535795,9i,4.941243551793852,1.0s : 0.3s,-5.352136314035306,0.486365900615788,3.0966139029012836,0.9810530979520983,0.8338271975517273,-1.2281094789505005,-4.1266398429870605,0.9497424364089966,0.24134445190429688,0.04698234796524048,-0.6884015202064149,-0.8210231065338226,3.119380499004474,-0.5651752948760986,0.6353035569190979,-0.5262759327888489
1729111535805,9i,4.941243551793852,1.0s : 0.3s,-5.352136314035306,0.495505413444332,3.019218936586363,0.9706099607646405,0.8402427434921265,-1.1580315828323364,-3.9811768531799316,0.9468367099761963,0.2118067741394043,0.026866912841796875,-0.6526581622475367,-0.8495731191628375,3.092666793239717,-0.5966477394104004,0.6073004007339478,-0.52459317445755
1729111535815,9i,4.941243551793852,1.0s : 0.3s,-5.352136314035306,0.5041143926047764,2.942688444455809,0.9149275498259186,0.7923287153244019,-1.145592212677002,-3.87687087059021,0.9060943126678467,0.12330633401870728,0.02968275547027588,-0.6175326891244156,-0.8753304615989057,3.0686194943433507,-0.6259583830833435,0.5790253281593323,-0.5224041938781738
1729111535825,9i,4.941243551793852,1.0s : 0.3s,-5.352136314035306,0.5121548658141546,2.86250809867992,0.9062113889481918,0.7700455188751221,-1.128039836883545,-3.7459962368011475,0.9045615792274475,0.04627883434295654,-0.02908092737197876,-0.5830636353413211,-0.8990891603329072,3.0467588764753337,-0.6534326076507568,0.5505839586257935,-0.5195028781890869
1729111535835,9i,4.941243551793852,1.0s : 0.3s,-5.352136314035306,0.5201415171563428,2.786843031903781,0.9455164706823912,0.7953310012817383,-1.088661789894104,-3.648735523223877,0.9444934725761414,0.024892985820770264,-0.03624659776687622,-0.5490835366541217,-0.9206582305005475,3.027201237441531,-0.6789907217025757,0.5219057202339172,-0.516319751739502
1729111535845,9i,4.941243551793852,1.0s : 0.3s,-5.352136314035306,0.5280398176374971,2.708255436268097,0.9593192767944546,0.776462197303772,-1.084485411643982,-3.5184757709503174,0.9586946964263916,-0.03458201885223389,0.0014275312423706055,-0.5155717690179573,-0.9404001837624054,3.0096921978996085,-0.7027897834777832,0.4930323660373688,-0.5128408670425415
1729111535855,9i,4.941243551793852,1.0s : 0.3s,-5.352136314035306,0.5355716866357048,2.615166206833884,1.0261278076026104,0.7853395342826843,-1.0828568935394287,-3.3149852752685547,1.0214097499847412,-0.0969652533531189,-0.01606673002243042,-0.48329812853326926,-0.9587228517502054,2.9941959468185986,-0.7247181534767151,0.4647020697593689,-0.5087591409683228
1729111535865,9i,4.941243551793852,1.0s : 0.3s,-5.352136314035306,0.542925708359704,2.51708312274579,1.086191243196898,0.8984071016311646,-1.014572024345398,-3.133836269378662,1.0775312185287476,-0.13586872816085815,-0.016660690307617188,-0.45200721589832893,-0.974983524569607,2.981427883647593,-0.7445694208145142,0.43677204847335815,-0.5048235654830933
1729111535875,9i,4.941243551793852,1.0s : 0.3s,-5.352136314035306,0.5498050042921706,2.41564071658715,1.068221595788315,0.9469869136810303,-0.9748749136924744,-2.955812454223633,1.0344858169555664,-0.2662183940410614,0.008014917373657227,-0.4214693768982213,-0.9891772377420052,2.971273405354556,-0.762452244758606,0.4091016948223114,-0.5013009309768677
1729111535885,9i,4.941243551793852,1.0s : 0.3s,-5.352136314035306,0.5561403056801839,2.301865433098508,1.143140261282173,0.9138069152832031,-0.9789313077926636,-2.7295475006103516,1.060786247253418,-0.4163645803928375,0.0902370810508728,-0.39253932084912846,-1.002280544759387,2.9629601310364047,-0.7786057591438293,0.38253581523895264,-0.4974329471588135
1729111535895,9i,4.941243551793852,1.0s : 0.3s,-5.352136314035306,0.5620645290878402,2.1716596846247804,1.236689957236073,0.902667760848999,-0.9487547874450684,-2.464585542678833,1.1131224632263184,-0.5207840204238892,0.13836342096328735,-0.36575273356306803,-1.0144258131217945,2.9562791136368762,-0.79300856590271,0.35765233635902405,-0.4931758940219879
1729111535905,9i,4.941243551793852,1.0s : 0.3s,-5.352136314035306,0.5675668434671588,2.031138887672281,1.300773385718651,0.8724614977836609,-0.9069246053695679,-2.2133688926696777,1.1186000108718872,-0.6338530778884888,0.19742262363433838,-0.34117823919166457,-1.0253321603464582,2.9515132344978023,-0.8056119680404663,0.334597647190094,-0.48891109228134155
1729111535915,9i,4.941243551793852,1.0s : 0.3s,-5.352136314035306,0.572584214923019,1.8723713725693145,1.3784803461987991,0.8640962839126587,-0.8197827935218811,-1.907923698425293,1.1054487228393555,-0.7669063806533813,0.30007630586624146,-0.31899613228463425,-1.0350209544413869,2.948270681448873,-0.8164932131767273,0.31361350417137146,-0.48475325107574463
1729111535925,9i,4.941243551793852,1.0s : 0.3s,-5.352136314035306,0.5771364249819158,1.6973342397466005,1.4540494662174217,0.8949252963066101,-0.7488566637039185,-1.5555330514907837,1.10683274269104,-0.8852080702781677,0.32494276762008667,-0.29956532509014094,-1.043288142216738,2.947102879258604,-0.8255829811096191,0.2951049208641052,-0.48096370697021484
1729111535935,9i,4.941243551793852,1.0s : 0.3s,-5.352136314035306,0.5813521995426406,1.5023040944812618,1.5593846144125214,0.8980954885482788,-0.5904361605644226,-1.1852444410324097,1.1348109245300293,-0.9986792802810669,0.3827848434448242,-0.2831642433603726,-1.0497258113867738,2.948070150894865,-0.8327482342720032,0.27939528226852417,-0.4779842793941498
1729111535945,9i,4.941243551793852,1.0s : 0.3s,-5.352136314035306,0.5851605536605792,1.2854113948051487,1.6875152136544533,0.9027830362319946,-0.442556232213974,-0.7400469183921814,1.1239678859710693,-1.1639472246170044,0.4791979193687439,-0.27034729622821796,-1.0540788099851857,2.9511613305048114,-0.8378657698631287,0.2670661211013794,-0.4760849177837372
1729111535955,9i,4.941243551793852,1.0s : 0.3s,-5.352136314035306,0.5886957834228397,1.067802004288616,1.8210661545231313,0.993388831615448,-0.2131858915090561,-0.30594369769096375,1.1494967937469482,-1.3016953468322754,0.5482046008110046,-0.2611507916965213,-1.0558541206879128,2.957006327155371,-0.8408116698265076,0.2581925094127655,-0.47578614950180054
1729111535965,9i,4.941243551793852,1.0s : 0.3s,-5.352136314035306,0.5921602562964109,0.8677065244488008,1.9495423727054184,1.0755141973495483,0.06872554868459702,0.15453113615512848,1.1705384254455566,-1.411731243133545,0.6614908576011658,-0.25544249809631264,-1.0542176365929787,2.9659677167756846,-0.8412997722625732,0.25267356634140015,-0.47788166999816895
1729111535975,9i,4.941243551793852,1.0s : 0.3s,-5.352136314035306,0.595807648434196,0.7411650345597134,2.1360201008676696,1.1168841123580933,0.33748963475227356,0.6352713704109192,1.2162749767303467,-1.5405681133270264,0.8425597548484802,-0.25338435124901826,-1.0491934507989082,2.977865369466898,-0.8393374085426331,0.25068166851997375,-0.4823606014251709
1729111535985,9i,4.941243551793852,1.0s : 0.3s,-5.352136314035306,0.5998850452886649,0.7019134300150275,2.308773896776667,1.1301995515823364,0.6000645160675049,1.141623616218567,1.2730178833007812,-1.668766736984253,0.9618107676506042,-0.2554438143405289,-1.0408396462675882,2.9925244020712403,-0.8348313570022583,0.2526748478412628,-0.4890933036804199
1729111535995,9i,4.941243551793852,1.0s : 0.3s,-5.352136314035306,0.6047707825607643,0.8221976506954491,2.445705895309516,1.095422387123108,0.9048417210578918,1.6606040000915527,1.3504807949066162,-1.741967797279358,1.0598241090774536,-0.261793607873105,-1.0289119156328403,3.009816213726646,-0.8275470733642578,0.2588134706020355,-0.4981783926486969
1729111536005,9i,4.941243551793852,1.0s : 0.3s,-5.352136314035306,0.6107828117508628,1.0692826440894014,2.595910614760496,1.068903923034668,1.1941286325454712,2.2218995094299316,1.4338748455047607,-1.824552297592163,1.1635135412216187,-0.27268220704433616,-1.0131057561025154,3.0298644797012444,-0.8171300888061523,0.2693155109882355,-0.5096742510795593
1729111536015,9i,4.941243551793852,1.0s : 0.3s,-5.352136314035306,0.6184352867841982,1.397072478329785,2.719835287425804,1.1051924228668213,1.5078500509262085,2.7896978855133057,1.5952093601226807,-1.8584372997283936,1.1828025579452515,-0.28801616159857374,-0.9931306805025933,3.053389150556779,-0.8032326698303223,0.28405067324638367,-0.5235769152641296
1729111536025,9i,4.941243551793852,1.0s : 0.3s,-5.352136314035306,0.6283796921381122,1.7851635847046077,2.836039231193941,1.189729928970337,1.9245578050613403,3.391529083251953,1.822034239768982,-1.8223367929458618,1.1842290163040161,-0.3072987897323829,-0.9678117605740149,3.0813231640155396,-0.7850623726844788,0.30248507857322693,-0.5405368804931641
1729111536035,9i,4.941243551793852,1.0s : 0.3s,-5.352136314035306,0.6410477000878928,2.2194547099887156,2.989443118066841,1.3203721046447754,2.3607065677642822,4.026153564453125,2.049036741256714,-1.8087036609649658,1.2111191749572754,-0.33023736852854685,-0.9359169230376966,3.114694728376779,-0.7616376876831055,0.32426756620407104,-0.5610336065292358
1729111536045,9i,4.941243551793852,1.0s : 0.3s,-5.352136314035306,0.6569220386068141,2.7067528270267665,3.2488541045243853,1.511217474937439,2.8587839603424072,4.747140407562256,2.3541948795318604,-1.854079246520996,1.2550735473632812,-0.3563878139864338,-0.896346979844123,-3.128251690606027,-0.7319722175598145,0.34889131784439087,-0.5852278470993042
1729111536055,9i,4.941243551793852,1.0s : 0.3s,-5.352136314035306,0.676508247377901,3.250107896950402,3.5644137684381008,1.700178861618042,3.4089479446411133,5.562436103820801,2.7243072986602783,-1.920482873916626,1.2629096508026123,-0.3854466248981508,-0.8473272433922164,-3.0795254028702486,-0.6945224404335022,0.37597301602363586,-0.6134191155433655
1729111536065,9i,4.941243551793852,1.0s : 0.3s,-5.352136314035306,0.7003843163541369,3.829034744516035,3.9828952548161256,1.8458173274993896,3.9588301181793213,6.372381210327148,3.1408560276031494,-2.0264198780059814,1.3755364418029785,-0.4169015959802224,-0.7876993236822866,-3.0211284716965365,-0.648027777671814,0.40492936968803406,-0.6450521945953369
1729111536075,9i,4.941243551793852,1.0s : 0.3s,-5.352136314035306,0.7292490046894765,4.467808644934082,4.471435848206621,1.9651614427566528,4.7145676612854,7.273033142089844,3.6030659675598145,-2.1122663021087646,1.596867322921753,-0.44936609366956354,-0.7153278816871252,-2.951914764520789,-0.5907524824142456,0.4343946576118469,-0.6799359917640686
1729111536085,9i,4.941243551793852,1.0s : 0.3s,-5.352136314035306,0.7638325476700702,5.171970623548145,4.976725799964108,2.1553843021392822,5.668200492858887,8.160736083984375,4.1229753494262695,-2.115656852722168,1.814626693725586,-0.48126525663355296,-0.6266136749033818,-2.8699901557215193,-0.5197953581809998,0.4629010856151581,-0.7180079817771912
1729111536095,9i,4.941243551793852,1.0s : 0.3s,-5.352136314035306,0.8051825070516,5.924702237284448,5.647452729028102,2.0944113731384277,6.813443183898926,8.990039825439453,4.803394794464111,-2.1096060276031494,2.0906178951263428,-0.5095623502714987,-0.5188863974419898,-2.7746111264461324,-0.43291163444519043,0.48779523372650146,-0.7580523490905762
1729111536105,9i,4.941243551793852,1.0s : 0.3s,-5.352136314035306,0.8541355554121864,6.674025805937019,6.383224830582292,1.698021650314331,7.96731424331665,9.618834495544434,5.543187141418457,-2.1391777992248535,2.33292818069458,-0.5335677568172084,-0.3919294752218537,-2.6683827539531886,-0.32887738943099976,0.5086084008216858,-0.7957117557525635
1729111536115,9i,4.941243551793852,1.0s : 0.3s,-5.352136314035306,0.9113767289038008,7.431797340440792,7.152021065440804,1.1720324754714966,8.995813369750977,10.369266510009766,6.3875298500061035,-2.15704083442688,2.387057304382324,-0.5513429686421801,-0.2470401368732777,-2.55253182030462,-0.20830027759075165,0.5238316655158997,-0.8259608745574951
1729111536125,9i,4.941243551793852,1.0s : 0.3s,-5.352136314035306,0.9787115225326142,8.173784948635145,8.227368510056879,0.48651009798049927,9.843438148498535,11.093502044677734,7.724157333374023,-1.741499900817871,2.234762668609619,-0.5607587965461841,-0.08595172307613971,-2.426050551814632,-0.07269877940416336,0.5318289399147034,-0.8437256217002869
1729111536135,9i,4.941243551793852,1.0s : 0.3s,-5.352136314035306,1.057587573161943,8.857999811091878,9.434381482919845,-1.0033314228057861,10.604077339172363,11.587078094482422,9.065226554870605,-1.0358407497406006,2.3992197513580322,-0.5623799969322338,0.0877756815448883,-2.291956443113351,0.07416190207004547,0.5332011580467224,-0.8427316546440125
1729111536145,9i,4.941243551793852,1.0s : 0.3s,-5.352136314035306,1.148718081539569,9.543788828036996,10.666681614117023,-3.177764654159546,11.010602951049805,12.43189525604248,10.337174415588379,-0.25848662853240967,2.618034839630127,-0.5614301475480983,0.2733260543196281,-2.147663857535992,0.22849895060062408,0.5323973298072815,-0.8150714039802551
1729111536155,9i,4.941243551793852,1.0s : 0.3s,-5.352136314035306,1.2533662402818138,10.184264950841035,12.313530509625597,-5.529245853424072,10.967845916748047,12.951773643493652,12.073447227478027,1.0224123001098633,2.193075180053711,-0.5555106662840932,0.4679907219444614,-1.9887184234319604,0.38326355814933777,0.5273772478103638,-0.7582759261131287
1729111536165,9i,4.941243551793852,1.0s : 0.3s,-5.352136314035306,1.3701071700408627,10.890524329727256,13.577943454853147,-8.541618347167969,11.162354469299316,13.27955150604248,13.136748313903809,3.085020065307617,1.5063344240188599,-0.5440203840513982,0.669758084445217,-1.8152436529357112,0.5311749577522278,0.5175801515579224,-0.6707935929298401
1729111536175,9i,4.941243551793852,1.0s : 0.3s,-5.352136314035306,1.496171623699739,11.508510792185184,14.47558521955482,-11.737247467041016,10.676234245300293,12.510313987731934,13.472990036010742,5.205394268035889,0.961757481098175,-0.5248554266341108,0.8756927111102133,-1.6247566437954633,0.6646135449409485,0.5010879039764404,-0.5542561411857605
1729111536185,9i,4.941243551793852,1.0s : 0.3s,-5.352136314035306,1.6286301329314328,11.991851416740479,15.169542775621961,-15.985467910766602,7.939349174499512,11.383723258972168,13.12709903717041,7.530539035797119,1.0417680740356445,-0.5040901947171432,1.0738950012559567,-1.4162725356225652,0.7697210311889648,0.48301100730895996,-0.4174087941646576
1729111536195,9i,4.941243551793852,1.0s : 0.3s,-5.352136314035306,1.7668379341162168,12.488232948680608,16.293346421534395,-20.240816116333008,1.4581634998321533,11.37877082824707,12.739163398742676,9.943999290466309,2.0745437145233154,-0.4737985954045345,1.2419167338705526,-1.1770360322873112,0.8421503901481628,0.4562697112560272,-0.28740358352661133
1729111536205,9i,4.941243551793852,1.0s : 0.3s,-5.352136314035306,1.9100210334174512,13.676834915723946,17.549273922096493,-25.53847885131836,-7.45264196395874,11.711050987243652,11.911406517028809,12.400300025939941,3.5111207962036133,-0.4322495201957081,1.3345229113273158,-0.8994455218683134,0.8827981352806091,0.4189144968986511,-0.2125517725944519
1729111536215,9i,4.941243551793852,1.0s : 0.3s,-5.352136314035306,2.053144333910321,15.418645954821004,18.136635621464542,-25.098159790039062,-10.792631149291992,15.323066711425781,9.310272216796875,14.590096473693848,5.420836448669434,-0.36141536227538557,1.3536044615594103,-0.5947953583809706,0.9134216904640198,0.3535985052585602,-0.20156723260879517
1729111536225,9i,4.941243551793852,1.0s : 0.3s,-5.352136314035306,2.192867366066184,16.400278002527013,18.257402934860174,-20.605743408203125,-7.6469011306762695,18.031129837036133,6.763136386871338,15.45509147644043,6.980895042419434,-0.24454319129691604,1.3422061014483468,-0.32327373894667905,0.9450089931488037,0.2421131283044815,-0.21986275911331177
1729111536235,9i,4.941243551793852,1.0s : 0.3s,-5.352136314035306,2.3216656963376003,16.878957065541638,16.996277907055344,-21.784526824951172,-6.905556678771973,14.359265327453613,3.1688222885131836,15.356040954589844,6.559270858764648,-0.1357541957481924,1.3190371918009507,-0.07297681013578437,0.9595654606819153,0.13533760607242584,-0.24681615829467773
1729111536245,9i,4.941243551793852,1.0s : 0.3s,-5.352136314035306,2.4284697732891316,14.971438162819963,12.634658019459334,-8.889616966247559,-9.786603927612305,11.202641487121582,-0.9463319182395935,11.265728950500488,5.641133785247803,-0.07031262524063842,1.2579456082208136,0.1430227923550376,0.9491092562675476,0.07025470584630966,-0.30701178312301636
1729111536255,9i,4.941243551793852,1.0s : 0.3s,-5.352136314035306,2.506254574844186,14.40291153547557,7.015280774991609,-14.147324562072754,1.3281384706497192,14.673033714294434,-0.8387771248817444,5.639896869659424,-4.086830139160156,0.018865438807566,1.2251090691950173,0.28503068584457897,0.9406755566596985,-0.01886432059109211,-0.3387831151485443
1729111536265,9i,4.941243551793852,1.0s : 0.3s,-5.352136314035306,2.5727331543802303,13.717684630928686,2.9480280657137006,-18.477487564086914,-5.001379013061523,4.371825695037842,2.6007728576660156,1.1099307537078857,0.833608865737915,0.08952733558925056,1.2380755055222616,0.4762400676927422,0.9413720965385437,-0.0894077867269516,-0.32530784606933594
1729111536275,9i,4.941243551793852,1.0s : 0.3s,-5.352136314035306,2.607053500497272,14.963751919689432,12.015769402070005,-33.03790283203125,-2.9869771003723145,-12.754844665527344,0.2216728925704956,-11.989455223083496,0.7632423639297485,-0.08423549258570212,1.2183930752335042,0.7343497754654901,0.9352182745933533,0.08413591235876083,-0.34393060207366943
1729111536285,9i,4.941243551793852,1.0s : 0.3s,-5.352136314035306,2.6671239430309255,16.342498213269945,16.581869319590982,-21.450206756591797,-28.66629981994629,-6.07200813293457,5.845911502838135,2.861130952835083,15.251152038574219,-0.2743630312998367,1.06576757296898,0.9527738313963741,0.8424278497695923,0.2709338366985321,-0.4657362997531891
1729111536295,9i,4.941243551793852,1.0s : 0.3s,-5.352136314035306,2.768394471946653,14.600866215223498,21.528105185215928,-12.468331336975098,-9.793291091918945,1.6810283660888672,10.213351249694824,17.769393920898438,6.58751916885376,-0.36882402731581465,0.9297193292348781,1.098617166843468,0.7475560903549194,0.36051878333091736,-0.5578407049179077
1729111536305,9i,4.941243551793852,1.0s : 0.3s,-5.352136314035306,2.8618030417077063,13.224199143725135,11.631347389434934,-10.843742370605469,-10.436738967895508,-8.705965995788574,1.7925701141357422,11.35817813873291,1.751206398010254,-0.464224841563578,0.8634165528848934,1.1716618940828347,0.6796284914016724,0.44772982597351074,-0.5810707211494446
1729111536315,9i,4.941243551793852,1.0s : 0.3s,-5.352136314035306,2.920668889303086,11.775047526544201,3.2014861353500144,-5.9063944816589355,-11.801289558410645,-6.124863147735596,-3.068246841430664,0.9111095070838928,0.0724862813949585,-0.5863107787375045,0.7502131782714466,1.176154234887373,0.5679265856742859,0.5532917380332947,-0.609366774559021
1729111536325,9i,4.941243551793852,1.0s : 0.3s,-5.352136314035306,2.966509687722057,10.886187335423239,3.166674003471741,-5.974084854125977,-11.886787414550781,-4.611884117126465,2.3351054191589355,-0.13007158041000366,-2.134991407394409,-0.6586128610311711,0.6311701230876453,1.177720553884827,0.46666786074638367,0.6120204329490662,-0.6384764909744263
1729111536335,9i,4.941243551793852,1.0s : 0.3s,-5.352136314035306,3.014317126334879,10.509576527705818,5.302179116746628,-6.594210147857666,-11.281384468078613,-7.655725955963135,5.292299270629883,0.15152084827423096,0.2858552932739258,-0.7467735441125017,0.4994909626614622,1.1526527145983732,0.3515150249004364,0.6792744398117065,-0.644223153591156
1729111536345,9i,4.941243551793852,1.0s : 0.3s,-5.352136314035306,3.0569181580177562,10.198495888846999,3.3789567684545476,-5.5947370529174805,-10.545435905456543,-8.907085418701172,2.6078293323516846,-0.4492189288139343,2.101137161254883,-0.8366704340751213,0.33846702801574385,1.079523453418229,0.22244739532470703,0.7424166202545166,-0.6319294571876526
1729111536355,9i,4.941243551793852,1.0s : 0.3s,-5.352136314035306,3.0966059693596195,9.950898305029213,3.272412564348916,-3.733959197998047,-10.672658920288086,-9.525434494018555,2.618604898452759,0.1818442940711975,1.9541046619415283,-0.9043701932359147,0.14044355707602227,0.9582458700287605,0.08653438091278076,0.78603595495224,-0.6120942234992981
1729111536365,9i,4.941243551793852,1.0s : 0.3s,-5.352136314035306,3.136072634063281,9.791307463133371,3.6111648324684174,-2.3535542488098145,-10.839740753173828,-9.687941551208496,3.311420440673828,0.4598833918571472,1.3651056289672852,-0.9366948756661596,-0.09831790708242379,0.7904685678004673,-0.05815504863858223,0.8056043982505798,-0.5895929336547852
1729111536375,9i,4.941243551793852,1.0s : 0.3s,-5.352136314035306,3.1760444809023882,9.669727190141533,3.8319820255980797,-0.8850313425064087,-9.787973403930664,-11.084331512451172,3.5652987957000732,0.564228355884552,1.2862259149551392,-0.9286172240190452,-0.3477201539893904,0.6040184005058252,-0.20409269630908966,0.8007925152778625,-0.5630966424942017
1729111536385,9i,4.941243551793852,1.0s : 0.3s,-5.352136314035306,3.2153814975558586,9.529084058464553,3.4845295097913813,1.112955927848816,-8.784886360168457,-11.715042114257812,3.3038723468780518,0.8907985091209412,0.6579144597053528,-0.8752595306601428,-0.5710060539121867,0.43676900285103964,-0.34633752703666687,0.7677098512649536,-0.5391400456428528
1729111536395,9i,4.941243551793852,1.0s : 0.3s,-5.352136314035306,3.2552661047406493,9.413303773966337,3.879027545372579,2.401128053665161,-7.984091758728027,-11.81795883178711,3.644749402999878,1.3190724849700928,0.150679349899292,-0.7890804847948609,-0.7447151142272229,0.31551683657859314,-0.4774824380874634,0.7097057700157166,-0.5180042386054993
1729111536405,9i,4.941243551793852,1.0s : 0.3s,-5.352136314035306,3.2967501871228553,9.361940231802606,4.151001273251679,3.1992604732513428,-7.36961030960083,-11.515589714050293,3.918912887573242,1.1619302034378052,0.7230847477912903,-0.6850175694134107,-0.8765017291557969,0.2341082223266376,-0.5951366424560547,0.6326866149902344,-0.49549996852874756
1729111536415,9i,4.941243551793852,1.0s : 0.3s,-5.352136314035306,3.3398976773497164,9.14332568416297,4.276562120249517,3.7554214000701904,-6.659403324127197,-11.179017066955566,3.979475736618042,1.127744197845459,1.0867149829864502,-0.5732991636378214,-0.9762448950847572,0.1837351463853123,-0.6959521174430847,0.5424066781997681,-0.4705803394317627
1729111536425,9i,4.941243551793852,1.0s : 0.3s,-5.352136314035306,3.384540604152211,8.91035831767637,4.33278056941762,4.657643795013428,-6.169475555419922,-10.472294807434082,3.878596782684326,1.2813794612884521,1.4448325634002686,-0.45940307621157495,-1.052790588845142,0.15950219099537974,-0.7787281274795532,0.4434131383895874,-0.44381025433540344
1729111536445,9i,4.941243551793852,1.0s : 0.3s,-5.352136314035306,3.4305078332047167,8.516460257352884,4.472858317869527,5.058393478393555,-5.661200523376465,-8.948920249938965,3.966761589050293,1.0047022104263306,1.8060557842254639,-0.24018471734839875,-1.1709097457906867,0.1622069020914401,-0.8946641087532043,0.23788204789161682,-0.37813830375671387
1729111536455,9i,4.941243551793852,1.0s : 0.3s,-5.352136314035306,3.4771131863582188,8.098832754413456,4.451045107028393,5.452168941497803,-5.132564544677734,-8.022355079650879,3.893261671066284,0.7696393132209778,2.0154333114624023,-0.14243236051260896,-1.2218979968110646,0.18034968084895991,-0.9302337169647217,0.14195126295089722,-0.3384009301662445
1729111536465,9i,4.941243551793852,1.0s : 0.3s,-5.352136314035306,3.522517153021086,7.652291869022098,4.01796823411827,5.6462578773498535,-4.755162715911865,-6.974030017852783,3.6264519691467285,0.3761327266693115,1.6886204481124878,-0.053565114566314076,-1.268684353499547,0.20890564926459118,-0.953341007232666,0.05353950336575508,-0.2971104681491852
1729111536475,9i,4.941243551793852,1.0s : 0.3s,-5.352136314035306,3.5653358634346906,7.184286053045859,3.6118405297854705,5.689075946807861,-4.369231224060059,-5.985958099365234,3.3100852966308594,-0.058131277561187744,1.4440734386444092,0.024283840455122725,-1.3138476060148314,0.24543328881223733,-0.966884970664978,-0.02428145334124565,-0.25405576825141907
1729111536485,9i,4.941243551793852,1.0s : 0.3s,-5.352136314035306,3.604918647937882,6.758553939386629,3.2212801806740226,6.159763813018799,-3.9209647178649902,-5.114960670471191,3.0071823596954346,-0.2317640483379364,1.1312761306762695,0.09160622986054452,-1.3586186387704613,0.289882132061921,-0.9734758734703064,-0.09147816151380539,-0.20970630645751953
1729111536495,9i,4.941243551793852,1.0s : 0.3s,-5.352136314035306,3.6411054354600343,6.4031465237648275,2.8081050915484744,6.498100280761719,-3.3132052421569824,-4.610710144042969,2.664740562438965,-0.1420804262161255,0.8743140697479248,0.1515286159038687,-1.4014609897497075,0.3433960600424828,-0.9744025468826294,-0.1509494036436081,-0.1665961891412735
1729111536505,9i,4.941243551793852,1.0s : 0.3s,-5.352136314035306,3.676229469032454,6.115849206515749,3.079254479794966,6.699951648712158,-2.6577537059783936,-4.322179317474365,2.7400386333465576,0.2462250292301178,1.3832460641860962,0.20588266951077946,-1.4413445001962584,0.40308774005768155,-0.9706906676292419,-0.20443126559257507,-0.1263643354177475
1729111536515,9i,4.941243551793852,1.0s : 0.3s,-5.352136314035306,3.711030034317053,5.9276682276610275,3.145085956066297,6.801620006561279,-2.3029263019561768,-4.3162617683410645,2.550267219543457,0.710537314414978,1.697892665863037,0.25627153005883485,-1.480128237318345,0.46711651059680337,-0.9633687138557434,-0.2534756064414978,-0.08758693933486938
1729111536525,9i,4.941243551793852,1.0s : 0.3s,-5.352136314035306,3.7449410902592253,5.7396493577286565,2.9634498713517154,6.359079837799072,-2.274146318435669,-4.241030216217041,2.3166391849517822,0.7117266654968262,1.7054803371429443,0.3032681838602314,-1.521158176990885,0.5325699191018688,-0.953190267086029,-0.2986408472061157,-0.04735349863767624
1729111536535,9i,4.941243551793852,1.0s : 0.3s,-5.352136314035306,3.7772048712253077,5.553084006851186,2.634120215818248,6.041133880615234,-2.352609634399414,-4.066625118255615,2.0844528675079346,0.63273024559021,1.4809787273406982,0.34672830741981664,-1.5645107525737212,0.5964437335177158,-0.9404710531234741,-0.3398226499557495,-0.00591147830709815
1729111536545,9i,4.941243551793852,1.0s : 0.3s,-5.352136314035306,3.8073571483213624,5.407083953614753,2.3263106018189044,6.079044818878174,-2.2594265937805176,-3.9104127883911133,1.8400704860687256,0.6049925088882446,1.288349986076355,0.3854634450715267,-1.611130193720575,0.6619886272309158,-0.9258707165718079,-0.37598860263824463,0.037364210933446884
1729111536555,9i,4.941243551793852,1.0s : 0.3s,-5.352136314035306,3.8357146819015,5.2172456600706125,2.232445085374649,5.7797746658325195,-2.020688533782959,-3.656843423843384,1.700624942779541,0.6825329065322876,1.2750822305679321,0.41928977823215097,-1.6588702247646294,0.7291781860969427,-0.9098381996154785,-0.40711185336112976,0.08034083992242813
1729111536565,9i,4.941243551793852,1.0s : 0.3s,-5.352136314035306,3.8622709808606026,5.008644047698999,2.1816363725296926,5.5588765144348145,-1.8393118381500244,-3.367279052734375,1.4614524841308594,0.5772298574447632,1.513439655303955,0.4478056876223117,-1.7059060308800489,0.7955951453136344,-0.8931847214698792,-0.43298861384391785,0.12141763418912888
1729111536575,9i,4.941243551793852,1.0s : 0.3s,-5.352136314035306,3.886472356951441,4.799758606228622,1.9240594957132235,5.491601943969727,-1.6718684434890747,-2.94917893409729,1.2525172233581543,0.2524658143520355,1.4385640621185303,0.4703637822392217,-1.7527198667332635,0.8617000785993715,-0.8766933083534241,-0.45321059226989746,0.1612742841243744
1729111536585,9i,4.941243551793852,1.0s : 0.3s,-5.352136314035306,3.9083542501087494,4.588689399809193,1.706675302609695,5.437102794647217,-1.3975626230239868,-2.515164852142334,1.1018728017807007,0.19640818238258362,1.2884256839752197,0.48595568564352476,-1.7986292969460742,0.9284394872348285,-0.8613793253898621,-0.46705362200737,0.19971828162670135
1729111536595,9i,4.941243551793852,1.0s : 0.3s,-5.352136314035306,3.928277448751801,4.349613741735838,1.6591946333600918,5.119760036468506,-1.2445886135101318,-2.1531732082366943,1.0085365772247314,0.11528399586677551,1.312436819076538,0.49535705782271905,-1.8422327903875222,0.9930027302904253,-0.847586989402771,-0.47534582018852234,0.23588789999485016
1729111536605,9i,4.941243551793852,1.0s : 0.3s,-5.352136314035306,3.9460466043466487,4.069048472930677,1.5279938923056682,4.708303451538086,-0.9881622791290283,-1.7805410623550415,0.8165514469146729,-0.05441346764564514,1.2903674840927124,0.5001102173013039,-1.8821042475270842,1.0532647462021079,-0.8353503942489624,-0.4795222580432892,0.2687909007072449
1729111536615,9i,4.941243551793852,1.0s : 0.3s,-5.352136314035306,3.96202195568339,3.744594988181572,1.4435376600025454,4.1901679039001465,-0.8636158108711243,-1.366133213043213,0.6960754990577698,0.009462147951126099,1.2645909786224365,0.500495509638509,-1.917113273047894,1.1069534579480529,-0.8252566456794739,-0.4798603355884552,0.2978023290634155
1729111536625,9i,4.941243551793852,1.0s : 0.3s,-5.352136314035306,3.9763420948743264,3.4144084548245712,1.414524803127674,3.7400667667388916,-0.660926878452301,-1.1553794145584106,0.5997393131256104,-0.10790395736694336,1.2765382528305054,0.4982757696298557,-1.947280071039636,1.15409262134629,-0.8168872594833374,-0.47791168093681335,0.32294920086860657
1729111536635,9i,4.941243551793852,1.0s : 0.3s,-5.352136314035306,3.988890432367986,3.1116028227207893,1.2821942700990516,3.44268536567688,-0.5172975659370422,-0.9627735018730164,0.3885381817817688,-0.06794288754463196,1.2200180292129517,0.4943348224199118,-1.9734179737527093,1.1964993496830119,-0.8098945021629333,-0.47444620728492737,0.3449234664440155
1729111536645,9i,4.941243551793852,1.0s : 0.3s,-5.352136314035306,3.9999457000272733,2.8351111995291816,1.1034320596412162,3.1514651775360107,-0.30599522590637207,-0.8887672424316406,0.26629889011383057,0.15994921326637268,1.058802843093872,0.4894381974101254,-1.9957561825852976,1.2348454394295836,-0.8040951490402222,-0.4701301157474518,0.36388102173805237
1729111536655,9i,4.941243551793852,1.0s : 0.3s,-5.352136314035306,4.009549465874503,2.6094342190300654,0.9882644719766195,3.012219190597534,-0.12480440735816956,-0.848178505897522,0.1309024691581726,0.25087445974349976,0.9468860626220703,0.4844117825889055,-2.0145937570288948,1.2705238741514193,-0.7992222309112549,-0.46568790078163147,0.37997257709503174
1729111536665,9i,4.941243551793852,1.0s : 0.3s,-5.352136314035306,4.017867353683746,2.4273406066978036,0.9358024273096712,2.906747579574585,0.019696928560733795,-0.795316755771637,0.040854692459106445,0.2975698709487915,0.8862895965576172,0.47890607658203604,-2.030943992953449,1.3046578481268114,-0.7951882481575012,-0.4608086049556732,0.39412131905555725
1729111536675,9i,4.941243551793852,1.0s : 0.3s,-5.352136314035306,4.025054426001359,2.259846283315184,0.8950899165907809,2.7273716926574707,0.17179405689239502,-0.6919687986373901,0.0050560832023620605,0.20551279187202454,0.8711629509925842,0.4728111566138654,-2.044650524191699,1.336789333917853,-0.7921959757804871,-0.4553908407688141,0.4062572121620178
1729111536685,9i,4.941243551793852,1.0s : 0.3s,-5.352136314035306,4.030851842302639,2.0950720195231365,0.8602318122024304,2.476824998855591,0.3012327253818512,-0.6649194359779358,-0.08831459283828735,-0.04870525002479553,0.8542991876602173,0.4667459590655899,-2.0555895872797474,1.3662033645020804,-0.7901339530944824,-0.4499827027320862,0.41617822647094727
1729111536695,9i,4.941243551793852,1.0s : 0.3s,-5.352136314035306,4.035259275208917,1.9262817165538426,0.8628488667477727,2.198683023452759,0.4003441333770752,-0.6102889776229858,-0.14881503582000732,-0.21775230765342712,0.8215510845184326,0.46144482369542916,-2.063845616465855,1.3926118857948402,-0.7887613773345947,-0.4452422857284546,0.4238104522228241
1729111536705,9i,4.941243551793852,1.0s : 0.3s,-5.352136314035306,4.0389652996287015,1.7615573731212497,0.8316724436171207,1.964907169342041,0.4781784117221832,-0.5120898485183716,-0.10867971181869507,-0.09394493699073792,0.8191716074943542,0.4564211344598322,-2.0698163235165357,1.4160449127705657,-0.7881708741188049,-0.44073840975761414,0.4295773208141327
1729111536715,9i,4.941243551793852,1.0s : 0.3s,-5.352136314035306,4.042239029022479,1.5904291113139395,0.8149466727075257,1.6806306838989258,0.5302777886390686,-0.41365522146224976,-0.1054840087890625,-0.04600539803504944,0.8067804574966431,0.4516799284521064,-2.0736030094840148,1.436273551899367,-0.7883605360984802,-0.4364776015281677,0.4335607886314392
1729111536725,9i,4.941243551793852,1.0s : 0.3s,-5.352136314035306,4.044891760278092,1.4174924147987675,0.8001595870375146,1.3996375799179077,0.5369861721992493,-0.3647606670856476,-0.14501076936721802,-0.1758970320224762,0.7669990062713623,0.44768854859784274,-2.0756388201561076,1.4532678598474194,-0.7889949679374695,-0.43288302421569824,0.436004102230072
1729111536735,9i,4.941243551793852,1.0s : 0.3s,-5.352136314035306,4.046930042886614,1.2585893393715917,0.7496954682129688,1.215730905532837,0.5230011343955994,-0.2676208019256592,-0.15375113487243652,-0.23212701082229614,0.6960753798484802,0.4441524497113876,-2.0765214381135806,1.4676295672603707,-0.7899441719055176,-0.42969271540641785,0.4374392032623291
1729111536745,9i,4.941243551793852,1.0s : 0.3s,-5.352136314035306,4.048454485250979,1.1139088612439056,0.6485579637946707,1.0515774488449097,0.5166832804679871,-0.17402078211307526,-0.14451825618743896,-0.2178311049938202,0.5935415029525757,0.4405374802550709,-2.076473917202096,1.479736081839423,-0.7913185954093933,-0.4264256954193115,0.43815118074417114
1729111536755,9i,4.941243551793852,1.0s : 0.3s,-5.352136314035306,4.049481402225903,0.9900281411171292,0.6107907923126815,0.9315857887268066,0.506989061832428,-0.1309175193309784,-0.15766918659210205,-0.2431151568889618,0.537680983543396,0.4370649268614058,-2.0757240328809092,1.4900758489574044,-0.7929381728172302,-0.42328211665153503,0.43827134370803833
1729111536765,9i,4.941243551793852,1.0s : 0.3s,-5.352136314035306,4.050115636541005,0.8801117704010238,0.5464738561009174,0.819850504398346,0.48504501581192017,-0.0496489591896534,-0.16259384155273438,-0.20755761861801147,0.4786614179611206,0.43360332022557274,-2.0744876486434087,1.4989997155098893,-0.7947579622268677,-0.42014339566230774,0.43799522519111633
1729111536775,9i,4.941243551793852,1.0s : 0.3s,-5.352136314035306,4.050611215054642,0.7767817148692847,0.4954092941413941,0.6664737462997437,0.49052125215530396,-0.01800687611103058,-0.1392134428024292,-0.12960505485534668,0.4574412703514099,0.43018747355634396,-2.0725996815718206,1.50634953918645,-0.7968369722366333,-0.41704121232032776,0.437181681394577
1729111536785,9i,4.941243551793852,1.0s : 0.3s,-5.352136314035306,4.051080775807361,0.6849016570907612,0.49770474737571047,0.5513985753059387,0.48309406638145447,0.018728699535131454,-0.12738120555877686,-0.11156609654426575,0.4680139422416687,0.42703688598633327,-2.069902259432971,1.5120679212681865,-0.7991629838943481,-0.4141755998134613,0.43565741181373596
1729111536795,9i,4.941243551793852,1.0s : 0.3s,-5.352136314035306,4.051600326018649,0.6055630475369849,0.4323853841708042,0.4583703279495239,0.47260919213294983,0.058256667107343674,-0.08131074905395508,-0.10354337096214294,0.41185489296913147,0.4240511649340069,-2.0666974561624833,1.5165951649920584,-0.8016390800476074,-0.4114561676979065,0.4336804747581482
1729111536805,9i,4.941243551793852,1.0s : 0.3s,-5.352136314035306,4.052253570180605,0.5300949495846778,0.3738208690864292,0.32230597734451294,0.4692395031452179,0.09587082266807556,-0.03873485326766968,-0.0715729296207428,0.36485472321510315,0.4214111486494075,-2.0632486330436137,1.519929662834574,-0.8040843605995178,-0.40904855728149414,0.4314252436161041
1729111536815,9i,4.941243551793852,1.0s : 0.3s,-5.352136314035306,4.053078845897712,0.4656850577759029,0.3773358482088187,0.21006251871585846,0.4777597486972809,0.10042402893304825,-0.020810246467590332,-0.057491570711135864,0.3723492920398712,0.41920224004959766,-2.05928886372382,1.5219238694121404,-0.8065823316574097,-0.4070318937301636,0.42866089940071106
1729111536825,9i,4.941243551793852,1.0s : 0.3s,-5.352136314035306,4.0540305584230305,0.40336548445513887,0.3610627411247328,0.09725074470043182,0.4197849631309509,0.17102642357349396,-0.01956266164779663,-0.04074782133102417,0.3582223057746887,0.4173540234546056,-2.054884830226627,1.5227668687059979,-0.8091269135475159,-0.40534302592277527,0.42545396089553833
1729111536835,9i,4.941243551793852,1.0s : 0.3s,-5.352136314035306,4.0552187343064965,0.3968377928074456,0.32049393629718614,0.07672363519668579,0.5541396141052246,0.20555058121681213,0.018612444400787354,0.0352654755115509,0.3180035948753357,0.4150286825209185,-2.0495439014853054,1.5218985902426525,-0.8122223019599915,-0.4032161831855774,0.421559602022171
1729111536845,9i,4.941243551793852,1.0s : 0.3s,-5.352136314035306,4.056304055862732,0.38706099351057427,0.26644551824901436,-0.03820747509598732,0.5472837686538696,0.16779202222824097,-0.017316758632659912,-0.04121151566505432,0.2626689076423645,0.4135951940925889,-2.04369499881939,1.521166305629333,-0.8151876926422119,-0.40190398693084717,0.4170646369457245
1729111536855,9i,4.941243551793852,1.0s : 0.3s,-5.352136314035306,4.057289363967606,0.3795326070157794,0.24595504467912957,-0.020660439506173134,0.5744727849960327,0.24958887696266174,0.00125044584274292,-0.07596179842948914,0.23392760753631592,0.4117895655353122,-2.03753205177111,1.519823906666102,-0.8183892369270325,-0.4002499282360077,0.4123586118221283
1729111536865,9i,4.941243551793852,1.0s : 0.3s,-5.352136314035306,4.058411950309356,0.38542190947497246,0.20314000582106898,-0.05845961347222328,0.5952417850494385,0.24725158512592316,0.051568567752838135,0.019509613513946533,0.1955145001411438,0.409706019698547,-2.0309840527133636,1.518227150969548,-0.8218169212341309,-0.3983396887779236,0.40736034512519836
1729111536875,9i,4.941243551793852,1.0s : 0.3s,-5.352136314035306,4.05945265640723,0.39416707726256817,0.17420900080921875,-0.15422315895557404,0.5970807075500488,0.25528207421302795,0.030660808086395264,-0.04498043656349182,0.16548550128936768,0.4078699266185199,-2.024089449757349,1.5160029668476254,-0.8252623677253723,-0.3966549038887024,0.4020043611526489
1729111536885,9i,4.941243551793852,1.0s : 0.3s,-5.352136314035306,4.060586861209637,0.4055468992506145,0.16781434859283084,-0.18545284867286682,0.5859699249267578,0.27868613600730896,0.07287037372589111,-0.0031867027282714844,0.15113374590873718,0.406174927987969,-2.01699375906927,1.5130345865304748,-0.8286992907524109,-0.39509835839271545,0.3964279890060425
1729111536895,9i,4.941243551793852,1.0s : 0.3s,-5.352136314035306,4.0617695804965335,0.4206726970182496,0.14253382489565586,-0.23490002751350403,0.5914086103439331,0.29801827669143677,0.0644569993019104,0.03416559100151062,0.12244957685470581,0.40443016166523166,-2.0097092251307824,1.5095883849599716,-0.8321877121925354,-0.39349496364593506,0.39067313075065613
1729111536905,9i,4.941243551793852,1.0s : 0.3s,-5.352136314035306,4.062987547553324,0.43312742233920604,0.13198343684549177,-0.24056950211524963,0.5986618399620056,0.27004265785217285,0.06869155168533325,0.048287928104400635,0.1018301248550415,0.40304507781850507,-2.0023033427621533,1.5059460566754879,-0.8355525732040405,-0.39222124218940735,0.3847270905971527
1729111536915,9i,4.941243551793852,1.0s : 0.3s,-5.352136314035306,4.064203807965707,0.4492812423086092,0.1136260617953652,-0.32296663522720337,0.5825739502906799,0.3282095491886139,0.0727875828742981,0.06266805529594421,0.060708850622177124,0.40132740643178116,-1.9947340182921316,1.5017745963645346,-0.8390535116195679,-0.39064061641693115,0.37866806983947754
1729111536925,9i,4.941243551793852,1.0s : 0.3s,-5.352136314035306,4.065384225398219,0.46348418436987376,0.10148694959782319,-0.39457371830940247,0.5571267008781433,0.33170896768569946,0.08302944898605347,0.015394359827041626,0.056291431188583374,0.39978420748158744,-1.9870466770453366,1.496754780525563,-0.8424898982048035,-0.38921958208084106,0.3724501132965088
1729111536935,9i,4.941243551793852,1.0s : 0.3s,-5.352136314035306,4.066485566451368,0.4764922993567863,0.08469853631877768,-0.42046603560447693,0.5473105907440186,0.33619531989097595,0.0737144947052002,0.010219544172286987,0.04044225811958313,0.3983082476767197,-1.9793578908497735,1.4911927427639566,-0.845855176448822,-0.387859582901001,0.3661894202232361
1729111536945,9i,4.941243551793852,1.0s : 0.3s,-5.352136314035306,4.0674995136060055,0.48821157883717264,0.07283395477255444,-0.43968766927719116,0.537609338760376,0.3471508324146271,0.061488568782806396,0.03290620446205139,0.021002918481826782,0.39686499678140413,-1.9716621375668415,1.4854341883936248,-0.849162757396698,-0.3865289092063904,0.3598872125148773
1729111536955,9i,4.941243551793852,1.0s : 0.3s,-5.352136314035306,4.068484983557984,0.4967315371747959,0.07426655393400515,-0.4441433846950531,0.5197768211364746,0.36554181575775146,0.07037603855133057,0.021228522062301636,0.010586977005004883,0.39522246793294513,-1.9640858466930156,1.479529776600841,-0.8524500727653503,-0.38501352071762085,0.35368621349334717
1729111536965,9i,4.941243551793852,1.0s : 0.3s,-5.352136314035306,4.069453799707487,0.5052896052881162,0.08751785940661097,-0.45388591289520264,0.5122820138931274,0.3878059983253479,0.08608031272888184,0.012660115957260132,-0.009448647499084473,0.39344512421914796,-1.9565655977002532,1.4734320490722905,-0.8557184338569641,-0.38337257504463196,0.3475225865840912
1729111536975,9i,4.941243551793852,1.0s : 0.3s,-5.352136314035306,4.07040136270545,0.5058153255779214,0.08019316090675721,-0.4418148696422577,0.512843132019043,0.3503638207912445,0.07453739643096924,0.026985764503479004,-0.01211974024772644,0.3915930038318644,-1.9491036978982932,1.467383001515391,-0.8589461445808411,-0.3816613256931305,0.34138935804367065
1729111536985,9i,4.941243551793852,1.0s : 0.3s,-5.352136314035306,4.0713009296625815,0.5053641371417187,0.0736822537446426,-0.396401971578598,0.5030620694160461,0.3872459828853607,0.05565100908279419,0.028987228870391846,-0.03862357139587402,0.38966499886645245,-1.9418219518311801,1.461751485271103,-0.8620933890342712,-0.37987855076789856,0.3353918790817261
1729111536995,9i,4.941243551793852,1.0s : 0.3s,-5.352136314035306,4.072144480688842,0.5044870522224748,0.09600184600455113,-0.38542839884757996,0.4927891492843628,0.39937588572502136,0.06229275465011597,0.01768544316291809,-0.07087448239326477,0.38737853727752214,-1.934741035264159,1.456289362918112,-0.8652560710906982,-0.37776249647140503,0.3295874297618866
1729111537005,9i,4.941243551793852,1.0s : 0.3s,-5.352136314035306,4.072923949533249,0.503248016950712,0.07845208088259893,-0.3763565123081207,0.4935760796070099,0.39344552159309387,0.04969429969787598,0.0018950998783111572,-0.06067630648612976,0.38500938197457335,-1.9277530153964633,1.450882929666366,-0.8683742880821228,-0.37556782364845276,0.323844850063324
1729111537015,9i,4.941243551793852,1.0s : 0.3s,-5.352136314035306,4.073660893498703,0.5019766166416507,0.07393215855515775,-0.3619072437286377,0.4952869117259979,0.40125471353530884,0.047914087772369385,0.029386669397354126,-0.048027366399765015,0.3824864892826994,-1.9208002966413087,1.4456464065068892,-0.8714922070503235,-0.37322843074798584,0.31812340021133423
1729111537025,9i,4.941243551793852,1.0s : 0.3s,-5.352136314035306,4.0743565805388995,0.5011777382299873,0.06163529044720141,-0.37678393721580505,0.49362286925315857,0.39744317531585693,0.04207807779312134,0.02433067560195923,-0.03789937496185303,0.3799326983593502,-1.9138808717861044,1.440482568022334,-0.8745672106742859,-0.37085795402526855,0.31240519881248474
1729111537035,9i,4.941243551793852,1.0s : 0.3s,-5.352136314035306,4.075005855619697,0.5042253192760559,0.04674287926101259,-0.42683669924736023,0.4850938320159912,0.4275672733783722,0.03641420602798462,0.004629731178283691,-0.028939038515090942,0.3773196033595646,-1.906873997235703,1.434875082752281,-0.8776464462280273,-0.368429958820343,0.3065881133079529
1729111537045,9i,4.941243551793852,1.0s : 0.3s,-5.352136314035306,4.075617734189684,0.5111780911402084,0.0614892605381537,-0.43470993638038635,0.48811212182044983,0.4434523284435272,0.044960081577301025,0.0089150071144104,-0.04098832607269287,0.37454464318012337,-1.8997906946426415,1.4289177468724306,-0.8807603120803833,-0.3658487796783447,0.3006930351257324
1729111537055,9i,4.941243551793852,1.0s : 0.3s,-5.352136314035306,4.076181613985719,0.511585293988579,0.07193322970399374,-0.3991391658782959,0.5000092387199402,0.4253992736339569,0.03136223554611206,0.025557726621627808,-0.05947774648666382,0.3716558439910503,-1.8926943325922663,1.423150458514955,-0.8838710784912109,-0.3631587326526642,0.2947685122489929
1729111537065,9i,4.941243551793852,1.0s : 0.3s,-5.352136314035306,4.076598348322025,0.5102353675638273,0.09152193568584444,-0.3493013083934784,0.5071048140525818,0.4180038273334503,0.018912851810455322,0.03063252568244934,-0.08414402604103088,0.3688499492468872,-1.8856920618037007,1.417898578928818,-0.8868786096572876,-0.36054298281669617,0.2888866364955902
1729111537075,9i,4.941243551793852,1.0s : 0.3s,-5.352136314035306,4.076893672020297,0.5091902481074617,0.11557383799944887,-0.32934942841529846,0.5025106072425842,0.44725972414016724,0.024728119373321533,0.05478361248970032,-0.098714679479599,0.3656254344384279,-1.878815906688826,1.4130083544274632,-0.8899474740028381,-0.35753345489501953,0.28313255310058594
1729111537085,9i,4.941243551793852,1.0s : 0.3s,-5.352136314035306,4.0771163327501005,0.5033251176195626,0.10509803530351668,-0.31500765681266785,0.4965627193450928,0.42392438650131226,0.026665866374969482,0.04318594932556152,-0.09202989935874939,0.36232604671225227,-1.8720346316072936,1.408275987882413,-0.8929685950279236,-0.3544502258300781,0.27743959426879883
1729111537095,9i,4.941243551793852,1.0s : 0.3s,-5.352136314035306,4.077234924244828,0.4876537386249015,0.11034714916533445,-0.24068894982337952,0.48015978932380676,0.4150102734565735,0.009632349014282227,0.036183685064315796,-0.10380005836486816,0.35898450370556895,-1.8655464073883739,1.4040577876719604,-0.8958781957626343,-0.351323664188385,0.2719825804233551
1729111537105,9i,4.941243551793852,1.0s : 0.3s,-5.352136314035306,4.077197005983,0.469064679829564,0.1558745839371393,-0.1940537989139557,0.4606505334377289,0.4018079936504364,0.004271864891052246,0.05256885290145874,-0.14668044447898865,0.35549612549686205,-1.8594791576131886,1.4005605178513474,-0.8986812233924866,-0.34805551171302795,0.266889363527298
1729111537115,9i,4.941243551793852,1.0s : 0.3s,-5.352136314035306,4.077013501364911,0.4418684457170427,0.14422676629773482,-0.20611898601055145,0.4495033323764801,0.2800658345222473,-0.0061866044998168945,0.038430362939834595,-0.13887473940849304,0.35239592409220305,-1.8537075079854117,1.3973866489816122,-0.9012385606765747,-0.3451474905014038,0.2619980275630951
1729111537125,9i,4.941243551793852,1.0s : 0.3s,-5.352136314035306,4.076790866698614,0.41811219579979547,0.12998666257211897,-0.1009446233510971,0.44304198026657104,0.313202828168869,-0.029646992683410645,0.05297088623046875,-0.1149420440196991,0.3500383762288801,-1.8482767302730458,1.3950728287861107,-0.9034282565116882,-0.34293386340141296,0.2573219835758209
1729111537135,9i,4.941243551793852,1.0s : 0.3s,-5.352136314035306,4.076537092574511,0.3983168466207831,0.14530525393765878,-0.17319458723068237,0.41336503624916077,0.2743408977985382,-0.008027076721191406,0.06705155968666077,-0.12865951657295227,0.3473073195789056,-1.8430708249623005,1.392704935092243,-0.9056539535522461,-0.3403671383857727,0.2528661787509918
1729111537145,9i,4.941243551793852,1.0s : 0.3s,-5.352136314035306,4.0762331668800735,0.3818096739645784,0.09943099040233229,-0.19401238858699799,0.38037118315696716,0.28221437335014343,-0.01943182945251465,-0.02174869179725647,-0.09505745768547058,0.3449778438527791,-1.8380395803527263,1.3899336721054547,-0.907677173614502,-0.33817583322525024,0.24851520359516144
1729111537155,9i,4.941243551793852,1.0s : 0.3s,-5.352136314035306,4.075907829993443,0.3568447442988962,0.10774622538776692,-0.1220652237534523,0.36778613924980164,0.2234240174293518,-0.008276283740997314,0.008482635021209717,-0.1070924699306488,0.34271268838199626,-1.8333479623130127,1.3875042707764595,-0.9095706343650818,-0.33604326844215393,0.24445220828056335
1729111537165,9i,4.941243551793852,1.0s : 0.3s,-5.352136314035306,4.075523464948425,0.3315161813625597,0.13644544288452923,-0.054604291915893555,0.3381689190864563,0.22999481856822968,-0.035317957401275635,0.017649322748184204,-0.1306082010269165,0.34057088417750475,-1.829174978347766,1.3860148172969253,-0.9112764000892639,-0.33402523398399353,0.24083778262138367
1729111537175,9i,4.941243551793852,1.0s : 0.3s,-5.352136314035306,4.075102165859037,0.3068225067431278,0.12966503610143845,-0.049779973924160004,0.3052559792995453,0.21160142123699188,-0.022704482078552246,0.006184667348861694,-0.1275118738412857,0.3383967702586423,-1.825428281566964,1.3848296921127972,-0.9128729701042175,-0.33197522163391113,0.23760417103767395
1729111537185,9i,4.941243551793852,1.0s : 0.3s,-5.352136314035306,4.074650278599699,0.2849974747554233,0.09519163554413736,-0.03927433490753174,0.27722930908203125,0.21268032491207123,-0.028155267238616943,-0.00037553906440734863,-0.09093177318572998,0.33629582509383305,-1.8220258096666937,1.3837895383588137,-0.9143497347831726,-0.3299926817417145,0.23466967046260834
1729111537195,9i,4.941243551793852,1.0s : 0.3s,-5.352136314035306,4.074176648152883,0.2658690643257181,0.08460778015966088,-0.020804516971111298,0.25655093789100647,0.21161852777004242,-0.024898767471313477,0.006909102201461792,-0.0805654525756836,0.3341856558255145,-1.8189307207641927,1.3828875521650423,-0.9157446622848511,-0.3279999792575836,0.23200905323028564
1729111537205,9i,4.941243551793852,1.0s : 0.3s,-5.352136314035306,4.073695790309249,0.2447358907767894,0.07661106843680339,0.007246159948408604,0.2275715321302414,0.18935759365558624,-0.024305224418640137,0.009924203157424927,-0.07197237014770508,0.33211239169719825,-1.816166582442433,1.3822111459961626,-0.9170401096343994,-0.32604071497917175,0.2296416163444519
1729111537215,9i,4.941243551793852,1.0s : 0.3s,-5.352136314035306,4.073215908510589,0.22642994080484313,0.08214173321396019,0.04950253665447235,0.20188534259796143,0.19495289027690887,-0.01882833242416382,0.01340600848197937,-0.07882282137870789,0.33005010233196647,-1.813810736671196,1.3819995281969186,-0.9182294011116028,-0.3240904211997986,0.22764192521572113
1729111537225,9i,4.941243551793852,1.0s : 0.3s,-5.352136314035306,4.072737105385127,0.21113132689767775,0.08394411029748446,0.06350424140691757,0.17436765134334564,0.19992750883102417,-0.017186284065246582,0.012654155492782593,-0.08118569850921631,0.3278528936788806,-1.811829603809653,1.3820420449714412,-0.919367790222168,-0.3220110237598419,0.22599175572395325
1729111537235,9i,4.941243551793852,1.0s : 0.3s,-5.352136314035306,4.072258233519669,0.1964565660140435,0.06743972208381213,0.06192312389612198,0.15396170318126678,0.18537279963493347,-0.02114701271057129,0.0009005963802337646,-0.06403209269046783,0.3256894118909389,-1.8101210245632258,1.3821543461388688,-0.920427143573761,-0.3199620246887207,0.22458520531654358
1729111537245,9i,4.941243551793852,1.0s : 0.3s,-5.352136314035306,4.071817680937628,0.1828357572055591,0.051372555310728284,0.060023486614227295,0.13863201439380646,0.17276999354362488,-0.023194193840026855,0.01492321491241455,-0.04334127902984619,0.3236606432233197,-1.8085797825455632,1.382285727706651,-0.9214012622833252,-0.31803926825523376,0.22331881523132324
1729111537255,9i,4.941243551793852,1.0s : 0.3s,-5.352136314035306,4.071413213987635,0.17315619496024384,0.04846765283772306,0.05084410309791565,0.1253521591424942,0.18318241834640503,-0.019191443920135498,0.02215936779975891,-0.0385974645614624,0.321685327541025,-1.8071807009187577,1.3824030997907668,-0.9223217368125916,-0.31616589426994324,0.22217616438865662
1729111537265,9i,4.941243551793852,1.0s : 0.3s,-5.352136314035306,4.071044347453832,0.16656272579573425,0.0408128034127056,0.04556358978152275,0.12135742604732513,0.18027079105377197,-0.015288472175598145,0.015019834041595459,-0.03473258018493652,0.3196772150255594,-1.8058415757595743,1.3823849687986445,-0.9232339859008789,-0.3142601549625397,0.22108827531337738
1729111537275,9i,4.941243551793852,1.0s : 0.3s,-5.352136314035306,4.070708581958575,0.16380430238584662,0.03621746138760233,0.04680195823311806,0.11588436365127563,0.18474861979484558,-0.01740366220474243,0.01956278085708618,-0.02502228319644928,0.31769644008834846,-1.8045395524324308,1.3823779133948615,-0.9241247177124023,-0.3123791217803955,0.22002974152565002
1729111537285,9i,4.941243551793852,1.0s : 0.3s,-5.352136314035306,4.0704143342493735,0.1599715425221127,0.0319530470416648,0.05453990772366524,0.11507640033960342,0.17349720001220703,-0.011996090412139893,0.02374967932701111,-0.017693042755126953,0.3157116492219659,-1.803290420711999,1.3824139118086036,-0.9250004887580872,-0.31049302220344543,0.21901766955852509
1729111537295,9i,4.941243551793852,1.0s : 0.3s,-5.352136314035306,4.0701533711917435,0.15846197241566842,0.025927489868872777,0.07005654275417328,0.10531431436538696,0.17930981516838074,-0.007932007312774658,0.01419857144355774,-0.020192041993141174,0.3137387575550638,-1.802145670973134,1.3826079776062403,-0.9258449077606201,-0.3086170256137848,0.21809862554073334
1729111537305,9i,4.941243551793852,1.0s : 0.3s,-5.352136314035306,4.069925323639891,0.15295715320454426,0.02665069107844311,0.05781412869691849,0.09843097627162933,0.1675831526517868,0.0030184388160705566,0.01779073476791382,-0.01961219310760498,0.31177294222523044,-1.8010902453030984,1.3828052536339315,-0.9266635775566101,-0.30674660205841064,0.21725943684577942
1729111537315,9i,4.941243551793852,1.0s : 0.3s,-5.352136314035306,4.069731967393153,0.1501428561979642,0.01974833263967639,0.059000566601753235,0.09988639503717422,0.1656864434480667,-0.00027865171432495117,0.0138416588306427,-0.014082878828048706,0.3099169751194601,-1.800055866363531,1.3829992543863898,-0.9274407029151917,-0.3049795627593994,0.21642982959747314
1729111537325,9i,4.941243551793852,1.0s : 0.3s,-5.352136314035306,4.069558887560039,0.14899655907760215,0.03099173283807036,0.06890592724084854,0.09736562520265579,0.17110753059387207,-0.0002918839454650879,0.02407863736152649,-0.01950952410697937,0.30802516416040177,-1.7990378182289566,1.383201290442115,-0.9282209277153015,-0.3031773269176483,0.21561570465564728
1729111537335,9i,4.941243551793852,1.0s : 0.3s,-5.352136314035306,4.069406037426172,0.14658989590119242,0.026295073425721058,0.06294817477464676,0.09566999226808548,0.16128845512866974,0.0019203424453735352,0.020455151796340942,-0.016411274671554565,0.3061607986638291,-1.7978320014045095,1.3833960681892765,-0.9290293455123901,-0.30140018463134766,0.21462313830852509
1729111537345,9i,4.941243551793852,1.0s : 0.3s,-5.352136314035306,4.069273413536451,0.14402439168439515,0.013004452700836819,0.0690595880150795,0.098068967461586,0.15206797420978546,-0.0028772950172424316,0.010181695222854614,-0.007561087608337402,0.30446039987303747,-1.7966247830529933,1.3835821564910755,-0.9297857880592346,-0.29977843165397644,0.21361586451530457
1729111537355,9i,4.941243551793852,1.0s : 0.3s,-5.352136314035306,4.069153155578286,0.1427503775326794,0.013862898443609134,0.07550843805074692,0.0990506112575531,0.15277931094169617,0.0007074475288391113,0.007723301649093628,-0.011490434408187866,0.30271571001915754,-1.7955073541808022,1.3838848464942808,-0.9305325150489807,-0.29811352491378784,0.2126930058002472
