timestamp,club,max_speed,tempo,w.rotation,l.speed,t.spped,acc,rotation.x,rotation.y,rotation.z,userAcceleration.x,userAcceleration.y,userAcceleration.z,pitch,roll,yaw,gravity.x,gravity.y,gravity.z
1729110282833,7i,5.233754747691657,0.9s : 0.3s,-11.42436702393961,0.00015288085809136032,0.05801807735646693,0.022311779062887206,0.10091352462768555,-0.026138262823224068,0.013669926673173904,-0.0012832880020141602,-0.013301461935043335,0.017867282032966614,-0.21477798375926355,1.3427927915018354,0.1708894172944217,0.9517378807067871,0.21313051879405975,-0.2208397537469864
1729110282843,7i,5.233754747691657,0.9s : 0.3s,-11.42436702393961,0.00030046038193970556,0.05593155941841957,0.017975227406052133,0.09063705801963806,-0.02838246338069439,0.011293887160718441,-0.0018721818923950195,-0.004816621541976929,0.017216384410858154,-0.2144491084026348,1.3423870755007083,0.1699754312388286,0.9517164826393127,0.21280919015407562,-0.22124174237251282
1729110282853,7i,5.233754747691657,0.9s : 0.3s,-11.42436702393961,0.0004445403376359041,0.0547564086708433,0.01109667060573103,0.09215132892131805,-0.028043976053595543,0.007214723154902458,0.0016960501670837402,0.006445005536079407,0.008872509002685547,-0.21412050306335584,1.3419520092446406,0.16910138382827572,0.951688289642334,0.2124880999326706,-0.2216716706752777
1729110282863,7i,5.233754747691657,0.9s : 0.3s,-11.42436702393961,0.0005812699081339716,0.06274930696752351,0.008231267349688227,0.09556829929351807,-0.00909909326583147,-0.08099579066038132,-4.583597183227539e-05,0.006343185901641846,0.00524553656578064,-0.2140998096329088,1.3415312404619004,0.16815646308969054,0.9515991806983948,0.21246787905693054,-0.22207307815551758
1729110282873,7i,5.233754747691657,0.9s : 0.3s,-11.42436702393961,0.0007104478659662891,0.15607269365699858,0.010826104828957628,0.045306991785764694,0.13676224648952484,-0.6033844351768494,-0.004015505313873291,0.008059367537498474,0.006010562181472778,-0.21392064561063495,1.3411693333448191,0.16727528027941885,0.9515558481216431,0.21229280531406403,-0.22242611646652222
1729110282883,7i,5.233754747691657,0.9s : 0.3s,-11.42436702393961,0.0008546494257672902,0.21965801042744376,0.030526743859821966,-0.01293674111366272,0.2915457487106323,-0.4965108036994934,0.023961663246154785,0.017768219113349915,0.006481602787971497,-0.21313557788057327,1.3409547022187756,0.16624152478795698,0.9516699314117432,0.211525559425354,-0.22266821563243866
1729110282893,7i,5.233754747691657,0.9s : 0.3s,-11.42436702393961,0.0008740525878930432,0.15688047689326615,0.060242391170200825,0.03970436751842499,0.0981411263346672,0.037005309015512466,-0.05936473608016968,0.009999409317970276,-0.002232849597930908,-0.21304408163227703,1.340656485670071,0.16516437299697764,0.9516223669052124,0.21143613755702972,-0.22295643389225006
1729110282903,7i,5.233754747691657,0.9s : 0.3s,-11.42436702393961,0.0009294851603695547,0.1023522277026258,0.0155196746401841,0.06864893436431885,-0.01404675655066967,0.05725086107850075,-0.008534610271453857,0.012604162096977234,0.0030258595943450928,-0.2128457320983075,1.3405280370044084,0.16438334294430496,0.9516346454620361,0.21124225854873657,-0.22308826446533203
1729110282913,7i,5.233754747691657,0.9s : 0.3s,-11.42436702393961,0.0010042413477641728,0.07540839692808249,0.017855839024983784,0.035649437457323074,-0.021493222564458847,-0.018844706937670708,0.017852723598480225,-1.7642974853515625e-05,-0.0003330707550048828,-0.2123490581565795,1.3404590630160664,0.1639454697161354,0.95172119140625,0.21075677871704102,-0.22317780554294586
1729110282923,7i,5.233754747691657,0.9s : 0.3s,-11.42436702393961,0.0010783130987349916,0.049826336324404294,0.01680436754811974,0.014758137986063957,-0.0097786420956254,0.021836044266819954,-0.012694180011749268,-0.010731399059295654,0.0024660974740982056,-0.21221069513610255,1.3403947917299694,0.1637257971497784,0.9517351984977722,0.21062152087688446,-0.22324562072753906
1729110282933,7i,5.233754747691657,0.9s : 0.3s,-11.42436702393961,0.001160977077956085,0.03274509589511428,0.01771649688568989,-0.005316504277288914,-0.008247324265539646,0.0061476281844079494,-0.014193415641784668,-0.004943251609802246,0.009380057454109192,-0.21217427539800043,1.3403787688278186,0.16370746081546686,0.9517390727996826,0.21058590710163116,-0.22326260805130005
1729110282943,7i,5.233754747691657,0.9s : 0.3s,-11.42436702393961,0.001252898388534087,0.02802776840190911,0.01618037006567849,-0.030852757394313812,-0.004577578045427799,0.006691445596516132,-0.013586103916168213,-0.0015783905982971191,0.008644700050354004,-0.21221303062613692,1.3404280058191278,0.1639216113881362,0.9517421722412109,0.21062380075454712,-0.22321391105651855
1729110282953,7i,5.233754747691657,0.9s : 0.3s,-11.42436702393961,0.001350414037432755,0.02402917746129048,0.015154078483402549,-0.03281976655125618,-0.004085158929228783,0.0034248121082782745,-0.008291542530059814,-0.006241068243980408,0.011042892932891846,-0.2123624678044104,1.3404979606529073,0.16427491644096753,0.9517270922660828,0.2107698768377304,-0.22314013540744781
1729110282963,7i,5.233754747691657,0.9s : 0.3s,-11.42436702393961,0.0014532022289668262,0.020743489456693277,0.012304367637203162,-0.03276597335934639,0.0027728353161364794,0.00409100204706192,-0.01101529598236084,0.0017015784978866577,0.00521203875541687,-0.21251031409089186,1.3406689122554976,0.1646203586535176,0.9517349600791931,0.21091440320014954,-0.22297033667564392
1729110282973,7i,5.233754747691657,0.9s : 0.3s,-11.42436702393961,0.0015613872331989638,0.018207552458438088,0.013746506606540611,-0.03451034426689148,0.0035795068833976984,0.000784687465056777,-0.012398362159729004,0.004772275686264038,0.00353163480758667,-0.21280312176747232,1.3406401062779694,0.1649345432516696,0.9516683220863342,0.21120060980319977,-0.22298364341259003
1729110282983,7i,5.233754747691657,0.9s : 0.3s,-11.42436702393961,0.0016703095432111107,0.016074720367587756,0.011748657636351335,-0.03891094774007797,0.0036350784357637167,0.003408233867958188,-0.011533379554748535,0.0016631335020065308,0.0014986991882324219,-0.21298669615246707,1.3407627455077755,0.16529548723348608,0.951657772064209,0.21138004958629608,-0.22285807132720947
1729110282993,7i,5.233754747691657,0.9s : 0.3s,-11.42436702393961,0.0017781309446846857,0.01517128721031695,0.009370994922995278,-0.043808769434690475,0.007440202869474888,-0.0038342326879501343,-0.008278727531433105,-0.0018489211797714233,0.003982424736022949,-0.21305173877867256,1.3409394888572863,0.16572309222532522,0.9516838192939758,0.21144361793994904,-0.2226867377758026
1729110283003,7i,5.233754747691657,0.9s : 0.3s,-11.42436702393961,0.0018817670720932692,0.015460182143407995,0.01378698322382113,-0.05013057962059975,0.008917015045881271,-0.0009289237204939127,-0.009347259998321533,-0.009086787700653076,0.004487752914428711,-0.21308831898877287,1.3411120929864508,0.16618100136945382,0.9517147541046143,0.21147936582565308,-0.22252072393894196
1729110283013,7i,5.233754747691657,0.9s : 0.3s,-11.42436702393961,0.001979252119855384,0.03524026940808066,0.00974568640109747,-0.058489710092544556,0.030337616801261902,-0.10339191555976868,-0.005506634712219238,-0.007516846060752869,0.002855241298675537,-0.2134491084226031,1.3413982865137586,0.16667998097629613,0.9517040848731995,0.2118319869041443,-0.2222309708595276
1729110283023,7i,5.233754747691657,0.9s : 0.3s,-11.42436702393961,0.0020841240551109376,0.2193056466113394,0.03630875907561871,-0.13027869164943695,0.27485769987106323,-0.9269728064537048,-0.03374075889587402,-0.013109147548675537,-0.0028350353240966797,-0.21383163557406662,1.3417784368481795,0.16747119541840041,0.9517094492912292,0.21220581233501434,-0.22185073792934418
1729110283033,7i,5.233754747691657,0.9s : 0.3s,-11.42436702393961,0.0023574916602347607,0.38367638223294437,0.09948878931299715,-0.16852967441082,0.5480149388313293,-1.0001575946807861,-0.09392541646957397,-0.03058415651321411,0.01185937225818634,-0.2127737156093876,1.342120172795566,0.16862205547471604,0.9520033001899719,0.21117188036441803,-0.2215762585401535
1729110283043,7i,5.233754747691657,0.9s : 0.3s,-11.42436702393961,0.0026106039319455316,0.3212157109188093,0.06089316106250829,-0.10407224297523499,0.184810072183609,-0.18470750749111176,0.05253875255584717,-0.0016025900840759277,0.030742287635803223,-0.2132524552707046,1.3423123098201244,0.16950894862481986,0.9519472718238831,0.21163979172706604,-0.2213704138994217
1729110283063,7i,5.233754747691657,0.9s : 0.3s,-11.42436702393961,0.0028581615381457377,0.23019503727273288,0.008812579759585104,-0.02295142412185669,-0.0008217217400670052,-0.025479940697550774,-0.005034804344177246,0.00685100257396698,0.002318635582923889,-0.21381429980120323,1.3427772207918134,0.17039081796510563,0.9519340395927429,0.21218888461589813,-0.22090090811252594
1729110283073,7i,5.233754747691657,0.9s : 0.3s,-11.42436702393961,0.003082006515183406,0.16009961371853398,0.004988442050869578,0.017458848655223846,0.00832756794989109,0.006119531579315662,0.0022423863410949707,0.004423007369041443,-0.0005415380001068115,-0.21383187568093587,1.3427995135712736,0.17041340258937573,0.9519354701042175,0.21220605075359344,-0.22087886929512024
1729110283083,7i,5.233754747691657,0.9s : 0.3s,-11.42436702393961,0.003292842578023096,0.10547200620075672,0.014716251857387116,0.025884823873639107,-0.0035310443490743637,0.030659427866339684,-0.003699004650115967,0.014128446578979492,-0.0018089860677719116,-0.21375287884237407,1.3428205389057197,0.17015041524255184,0.9519563317298889,0.21212884783744812,-0.22086261212825775
1729110283093,7i,5.233754747691657,0.9s : 0.3s,-11.42436702393961,0.00348975240666773,0.06062249856775513,0.0074948208717728875,0.0044418503530323505,-0.017799993976950645,0.06577879935503006,-0.0014406442642211914,0.0064194053411483765,0.003590002655982971,-0.21361576917232164,1.342830218300043,0.1699091592785104,0.9519867300987244,0.21199485659599304,-0.22085995972156525
1729110283103,7i,5.233754747691657,0.9s : 0.3s,-11.42436702393961,0.0036585028690865246,0.04821200355790941,0.01848411590542686,-0.0034568191040307283,-0.023421751335263252,0.10062026977539062,0.016050994396209717,-0.0025910288095474243,0.008792877197265625,-0.21348318733424354,1.3428212503405403,0.1697083380699395,0.952012300491333,0.21186529099941254,-0.2208748757839203
1729110283113,7i,5.233754747691657,0.9s : 0.3s,-11.42436702393961,0.003792525407853197,0.015104082685958782,0.02620368468036834,-0.005826499313116074,-0.03069883957505226,0.12415488809347153,0.024456501007080078,0.007522150874137878,0.005650654435157776,-0.21329932930707146,1.3427972573863067,0.1694158270440119,0.9520448446273804,0.21168561279773712,-0.22090649604797363
1729110283123,7i,5.233754747691657,0.9s : 0.3s,-11.42436702393961,0.0038870546420209707,0.03040756427792664,0.03282558543425008,-0.026387033984065056,-0.030788274481892586,0.14795400202274323,0.03123164176940918,0.008274048566818237,0.005800321698188782,-0.21307642481972447,1.342795501325481,0.16912162131966865,0.9520903825759888,0.21146774291992188,-0.22091883420944214
1729110283133,7i,5.233754747691657,0.9s : 0.3s,-11.42436702393961,0.0038881013503493283,0.051664003678878474,0.04102431531965884,-0.022606145590543747,-0.04168912395834923,0.14898943901062012,0.040332257747650146,0.0021037161350250244,0.007202625274658203,-0.2128637864654787,1.3427757045504518,0.16882716270719814,0.9521298408508301,0.21125991642475128,-0.22094784677028656
1729110283143,7i,5.233754747691657,0.9s : 0.3s,-11.42436702393961,0.003760958461743307,0.06782480487552334,0.04747500268581488,-0.0059535326436161995,-0.03554614633321762,0.1551988273859024,0.04697674512863159,0.006489351391792297,-0.0022247731685638428,-0.2126543198944168,1.3426874145147212,0.16828623355438344,0.9521533250808716,0.21105517446994781,-0.22104190289974213
1729110283153,7i,5.233754747691657,0.9s : 0.3s,-11.42436702393961,0.0035392934618284962,0.08044273773412647,0.05974007132813004,-0.03151082247495651,-0.031161516904830933,0.15777170658111572,0.056449830532073975,0.01953260600566864,0.0008775293827056885,-0.21237640660938817,1.342648226413362,0.1676568824179627,0.9522017240524292,0.21078351140022278,-0.22109246253967285
1729110283163,7i,5.233754747691657,0.9s : 0.3s,-11.42436702393961,0.003285849074071493,0.0891894318809322,0.06364285722205525,-0.0694374293088913,-0.02997206337749958,0.14886896312236786,0.06261616945266724,0.0010352283716201782,0.011338293552398682,-0.21211491257942958,1.3426043179637814,0.16723234718353344,0.952245831489563,0.21052788197994232,-0.22114676237106323
1729110283173,7i,5.233754747691657,0.9s : 0.3s,-11.42436702393961,0.0030106299206197644,0.09026739270469446,0.07548120516346125,-0.06998310983181,-0.026081450283527374,0.1324809342622757,0.07431507110595703,-0.005456089973449707,0.012038007378578186,-0.21185600677369285,1.3425234525844634,0.16688212557340176,0.9522808790206909,0.21027477085590363,-0.22123606503009796
1729110283183,7i,5.233754747691657,0.9s : 0.3s,-11.42436702393961,0.002743169335062971,0.08802315116338989,0.08648621860167459,-0.06507185101509094,-0.006443965248763561,0.09160849452018738,0.0857815146446228,0.010953441262245178,-0.0011915862560272217,-0.2115998736751572,1.3423922584083599,0.16638000053188,0.9523044228553772,0.21002435684204102,-0.22137323021888733
1729110283193,7i,5.233754747691657,0.9s : 0.3s,-11.42436702393961,0.0026115917566326345,0.07708580210507643,0.08291454268895272,-0.06678719073534012,0.015408070757985115,0.058631375432014465,0.08149701356887817,0.015102207660675049,0.0022319257259368896,-0.21135182863228752,1.3422866630094341,0.16585355024005266,0.9523317813873291,0.20978184044361115,-0.22148558497428894
1729110283203,7i,5.233754747691657,0.9s : 0.3s,-11.42436702393961,0.002664267844018295,0.06801570588921009,0.07414328063712784,-0.0763934776186943,0.029952745884656906,0.017339661717414856,0.07304149866104126,0.011924251914024353,0.004469648003578186,-0.21109070874668026,1.342193142155501,0.16541482795357745,0.9523642659187317,0.20952652394771576,-0.22158701717853546
1729110283213,7i,5.233754747691657,0.9s : 0.3s,-11.42436702393961,0.0028939223941131047,0.06307906966451607,0.0723611464879397,-0.06837443262338638,0.04426058009266853,-0.013584963977336884,0.07174122333526611,0.00943206250667572,-0.0006071180105209351,-0.21084617530013033,1.3421205755899004,0.1650107481170163,0.9523980617523193,0.20928740501403809,-0.22166773676872253
1729110283223,7i,5.233754747691657,0.9s : 0.3s,-11.42436702393961,0.003266056390909074,0.05607290086862894,0.06989433931316727,-0.04254017397761345,0.056351687759160995,-0.05195365846157074,0.0688667893409729,0.01138751208782196,-0.003592848777770996,-0.21059411201928788,1.3419837077570056,0.16448601030919885,0.952419102191925,0.20904092490673065,-0.22181005775928497
1729110283233,7i,5.233754747691657,0.9s : 0.3s,-11.42436702393961,0.0037403135863188102,0.04839410597109834,0.06709974137360526,-0.017592744901776314,0.06990131735801697,-0.07375402748584747,0.06546854972839355,0.014268368482589722,-0.0035578012466430664,-0.21028518902354923,1.341818055398245,0.16376039656544783,0.9524451494216919,0.20873881876468658,-0.2219824641942978
1729110283243,7i,5.233754747691657,0.9s : 0.3s,-11.42436702393961,0.0042850332813385615,0.03163588699424785,0.06353711877763214,0.009164167568087578,0.07919161766767502,-0.10303299129009247,0.061805784702301025,0.014600679278373718,0.0019571930170059204,-0.20988299882642503,1.3415908307842053,0.16282656522058195,0.9524763226509094,0.2083454728126526,-0.22221791744232178
1729110283253,7i,5.233754747691657,0.9s : 0.3s,-11.42436702393961,0.0048712381912149,0.04337038413807517,0.06110371897425738,0.024973224848508835,0.0912216454744339,-0.1303924322128296,0.059266090393066406,0.014731332659721375,-0.0020451992750167847,-0.2094685973959029,1.3413118555452195,0.16171469008480985,0.9524983167648315,0.20794014632701874,-0.22250325977802277
1729110283263,7i,5.233754747691657,0.9s : 0.3s,-11.42436702393961,0.0054817347032722315,0.06452232267745313,0.059674394454166564,0.016499046236276627,0.10003351420164108,-0.1477557122707367,0.05686628818511963,0.017580121755599976,-0.004265904426574707,-0.20905213688870114,1.3410207506599598,0.1605998875558464,0.9525178074836731,0.20753276348114014,-0.22280023992061615
1729110283273,7i,5.233754747691657,0.9s : 0.3s,-11.42436702393961,0.006096803078998378,0.08406436083205758,0.04827368904872179,-0.003632853738963604,0.10346606373786926,-0.16556960344314575,0.04826986789703369,-0.0006056725978851318,4.547834396362305e-05,-0.20865949015403507,1.3407591171590425,0.15970335452263873,0.952538788318634,0.20714865624904633,-0.2230680137872696
1729110283283,7i,5.233754747691657,0.9s : 0.3s,-11.42436702393961,0.006704755935377912,0.1015046658587543,0.043436978971337394,-0.00398385850712657,0.10767518728971481,-0.1837398111820221,0.04215705394744873,-0.009699627757072449,0.003933340311050415,-0.20831606029750013,1.3404910262989582,0.15894043142259048,0.9525482058525085,0.20681266486644745,-0.22333961725234985
1729110283293,7i,5.233754747691657,0.9s : 0.3s,-11.42436702393961,0.0073008223741548115,0.1173483652804686,0.04110365892546184,-0.005829961970448494,0.11423375457525253,-0.20010893046855927,0.04044294357299805,0.004609152674674988,-0.005712687969207764,-0.20800822581065234,1.3402366138802932,0.15822739788111834,0.9525532126426697,0.2065114676952362,-0.2235964685678482
1729110283303,7i,5.233754747691657,0.9s : 0.3s,-11.42436702393961,0.007868910332734888,0.13057546388649846,0.035004542428583786,-0.01534437108784914,0.11770385503768921,-0.20965822041034698,0.03369271755218506,0.005856990814208984,-0.007470905780792236,-0.2077309228785848,1.3400136502466857,0.157594129049319,0.9525589942932129,0.20624013245105743,-0.22382193803787231
1729110283313,7i,5.233754747691657,0.9s : 0.3s,-11.42436702393961,0.008407452832391629,0.14128505146952516,0.032431367637810286,-0.04403314366936684,0.11430313438177109,-0.21745367348194122,0.031094491481781006,-0.00861126184463501,-0.0032821297645568848,-0.2075156176548917,1.3398398227816377,0.15722209926427588,0.9525632858276367,0.20602945983409882,-0.22399766743183136
1729110283323,7i,5.233754747691657,0.9s : 0.3s,-11.42436702393961,0.008925912414028866,0.1489248080440188,0.03331417506758756,-0.029965657740831375,0.10892972350120544,-0.2228567898273468,0.03064364194869995,-0.013017326593399048,0.0011621862649917603,-0.20734030981263513,1.339652099088061,0.15698897268594902,0.952556312084198,0.20585790276527405,-0.22418473660945892
1729110283333,7i,5.233754747691657,0.9s : 0.3s,-11.42436702393961,0.009427606712033852,0.15334531807385926,0.03175629871938901,-0.023601502180099487,0.10853876173496246,-0.22753223776817322,0.03144669532775879,-2.7939677238464355e-05,-0.004423469305038452,-0.20714892830617912,1.3394383045645708,0.15665219236182243,0.9525466561317444,0.20567062497138977,-0.22439740598201752
1729110283343,7i,5.233754747691657,0.9s : 0.3s,-11.42436702393961,0.009874909043469137,0.1575125047523216,0.01968426454041719,-0.027190644294023514,0.10310938209295273,-0.2362092137336731,0.019113898277282715,-0.00031110644340515137,-0.004693865776062012,-0.20703288645941745,1.3392153335705272,0.15638537638107103,0.952519953250885,0.20555706322193146,-0.22461529076099396
1729110283353,7i,5.233754747691657,0.9s : 0.3s,-11.42436702393961,0.010260061303649447,0.16002739068043859,0.014410271589887738,0.11280401051044464,0.07967676222324371,-0.2369956374168396,0.011245787143707275,-0.008699238300323486,-0.0023476481437683105,-0.2068571036845334,1.3387632735702586,0.15558720995091266,0.9524534344673157,0.2053850293159485,-0.22505417466163635
1729110283363,7i,5.233754747691657,0.9s : 0.3s,-11.42436702393961,0.010622784790097168,0.15985678693915367,0.03634570073500786,0.09542156010866165,0.12515689432621002,-0.19379764795303345,0.01597672700881958,0.021349772810935974,-0.024696990847587585,-0.2063068604314536,1.3382728790930543,0.15390238578460363,0.9524527192115784,0.20484648644924164,-0.22554722428321838
1729110283373,7i,5.233754747691657,0.9s : 0.3s,-11.42436702393961,0.010920201246374424,0.15656222131430683,0.008531287995809878,-0.15462717413902283,0.07887780666351318,-0.2011069655418396,-0.0017867088317871094,-0.00045368075370788574,-0.00832974910736084,-0.20597810282173387,1.338262788182093,0.1538500141000428,0.9525160193443298,0.2045246809720993,-0.2255723476409912
1729110283383,7i,5.233754747691657,0.9s : 0.3s,-11.42436702393961,0.011063619175880609,0.153970482774961,0.12317871569328086,-0.13348113000392914,0.057871948927640915,-0.1794988065958023,-0.013547003269195557,-0.1132621169090271,0.046488359570503235,-0.20610302477260195,1.3381515135631838,0.15515443570720927,0.9524658918380737,0.20464695990085602,-0.2256724238395691
1729110283393,7i,5.233754747691657,0.9s : 0.3s,-11.42436702393961,0.01124704398083005,0.14917437818993834,0.03991020100443856,-0.055177271366119385,0.06554505228996277,-0.17919068038463593,0.039525508880615234,0.004530429840087891,-0.003167569637298584,-0.20596815000206345,1.337953969625396,0.15580635792014208,0.952448308467865,0.20451493561267853,-0.22586697340011597
1729110283403,7i,5.233754747691657,0.9s : 0.3s,-11.42436702393961,0.011411603881394776,0.1397919058886828,0.05686733098490638,0.0049288091249763966,0.06406606733798981,-0.16517356038093567,-0.0028224587440490723,0.04957418143749237,-0.027718722820281982,-0.20579693069566934,1.3376898435132512,0.1557435042843268,0.9524226188659668,0.20434734225273132,-0.22612661123275757
1729110283413,7i,5.233754747691657,0.9s : 0.3s,-11.42436702393961,0.011528251358666574,0.13025188478984973,0.032342973626008534,-0.047808170318603516,0.04976489022374153,-0.14880390465259552,-0.03068166971206665,-0.007075607776641846,-0.007391810417175293,-0.20560365122542165,1.3375048984635542,0.1557794010706259,0.9524192810058594,0.20415812730789185,-0.22631189227104187
1729110283423,7i,5.233754747691657,0.9s : 0.3s,-11.42436702393961,0.011640248327826236,0.11961268118495241,0.02148784154481531,-0.014183100312948227,0.03145068511366844,-0.13838376104831696,9.322166442871094e-05,-0.015372052788734436,0.01501394808292389,-0.2055836095490489,1.3372273570359434,0.1560517731009789,0.9523602724075317,0.20413851737976074,-0.22657713294029236
1729110283433,7i,5.233754747691657,0.9s : 0.3s,-11.42436702393961,0.011747949631889576,0.10777877765487714,0.01310031267126854,0.06100033223628998,0.037309907376766205,-0.11705049872398376,0.0022594332695007324,0.012690246105194092,0.002338975667953491,-0.2053951217171819,1.33686283790534,0.15567398902766683,0.9523149728775024,0.20395399630069733,-0.22693316638469696
1729110283443,7i,5.233754747691657,0.9s : 0.3s,-11.42436702393961,0.01183506326556406,0.09999876199414472,0.04042734548640589,0.08027362823486328,0.025669407099485397,-0.0978611633181572,-0.007084786891937256,0.03935733437538147,-0.005930960178375244,-0.20524467584401782,1.3364213152143858,0.1548632937216353,0.9522445797920227,0.20380671322345734,-0.2273607701063156
1729110283453,7i,5.233754747691657,0.9s : 0.3s,-11.42436702393961,0.011897150886489767,0.08738165838535027,0.019304464652130888,0.08740637451410294,0.01738431304693222,-0.06449015438556671,-0.01678776741027832,0.00900980830192566,0.003107503056526184,-0.2049774514826535,1.3359803782467903,0.15393445224482213,0.9521971940994263,0.20354507863521576,-0.22779329121112823
1729110283463,7i,5.233754747691657,0.9s : 0.3s,-11.42436702393961,0.011948419379556527,0.07050800748133651,0.010823996986522488,0.044321224093437195,0.008307727985084057,-0.032168302685022354,-0.006015956401824951,0.007839754223823547,0.0044164955615997314,-0.20425565584471173,1.335827396951071,0.15329817005538512,0.9523050785064697,0.20283834636211395,-0.2279731184244156
1729110283473,7i,5.233754747691657,0.9s : 0.3s,-11.42436702393961,0.011984183699076181,0.05222916399320943,0.02282365367675526,0.036798059940338135,-0.006906911730766296,0.0004982976242899895,-0.013777554035186768,-0.011036604642868042,0.014466911554336548,-0.20402316733883535,1.3356039543800688,0.15299065975668955,0.952299952507019,0.20261068642139435,-0.2281968891620636
1729110283483,7i,5.233754747691657,0.9s : 0.3s,-11.42436702393961,0.012012090105084134,0.04778005051870781,0.01412350070025384,0.05983027443289757,-0.012324003502726555,0.022650770843029022,-0.007636666297912598,-0.0023099035024642944,0.011654138565063477,-0.20393103220305847,1.3352935016408642,0.1525170680822549,0.9522472023963928,0.2025204598903656,-0.22849687933921814
1729110283493,7i,5.233754747691657,0.9s : 0.3s,-11.42436702393961,0.01202926001810798,0.044304425653725665,0.017686287018181417,0.06407695263624191,-0.011802822351455688,0.024008717387914658,-0.0067400336265563965,0.01590786874294281,-0.003783702850341797,-0.20357394359429504,1.3350024888713574,0.15194145951884094,0.9522507786750793,0.20217075943946838,-0.22879083454608917
1729110283503,7i,5.233754747691657,0.9s : 0.3s,-11.42436702393961,0.012032354676901868,0.04072853698874649,0.01305042131250662,0.046902623027563095,-0.00825127586722374,0.026362983509898186,-0.010941803455352783,-0.0065069496631622314,-0.002872288227081299,-0.20313735467646804,1.3348521683972396,0.1514586465421309,0.9523022174835205,0.20174317061901093,-0.22895459830760956
1729110283513,7i,5.233754747691657,0.9s : 0.3s,-11.42436702393961,0.012039088234767138,0.031759518997127416,0.015294987741839662,0.014481568709015846,-0.005069064442068338,0.026615185663104057,0.002669692039489746,-0.014897525310516357,0.002207517623901367,-0.20287069113172546,1.3347546124119507,0.15122201926497184,0.952332079410553,0.20148198306560516,-0.22906005382537842
1729110283523,7i,5.233754747691657,0.9s : 0.3s,-11.42436702393961,0.012049666623755107,0.026708963419712684,0.021846884951810693,-0.012281603179872036,-0.007220632396638393,0.030302798375487328,0.0017109513282775879,-0.02080562710762024,0.006440877914428711,-0.20274907043806298,1.334705588512707,0.15127124474207954,0.9523447751998901,0.20136284828186035,-0.22911250591278076
1729110283533,7i,5.233754747691657,0.9s : 0.3s,-11.42436702393961,0.012063607698085656,0.021146919508802226,0.02562641370986846,-0.029590817168354988,-0.013195434585213661,0.03128976747393608,0.0012715458869934082,-0.02484801411628723,0.00613778829574585,-0.20256094634308008,1.3346646414000212,0.15157258460867937,0.9523721933364868,0.20117858052253723,-0.2291603535413742
1729110283543,7i,5.233754747691657,0.9s : 0.3s,-11.42436702393961,0.012085700852456562,0.01227013064555392,0.01689453332102682,-0.03425934165716171,-0.02928500808775425,0.03664238378405571,0.007324337959289551,-0.015162676572799683,0.0013684183359146118,-0.2024404007987688,1.3345835439781029,0.15199518505281018,0.9523770809173584,0.201060488820076,-0.2292432337999344
1729110283553,7i,5.233754747691657,0.9s : 0.3s,-11.42436702393961,0.012114470220757822,0.011902492604203962,0.014666276096649016,-0.02299363538622856,-0.036190055310726166,0.057920243591070175,0.007197976112365723,-0.012765645980834961,-0.000571906566619873,-0.2019872571277135,1.3344162065934668,0.1524031579982898,0.9524272084236145,0.20061658322811127,-0.22942392528057098
1729110283563,7i,5.233754747691657,0.9s : 0.3s,-11.42436702393961,0.012144844042533772,0.02401535001553627,0.021175974200773214,-0.046124253422021866,-0.04014236479997635,0.06304476410150528,0.005865812301635742,-0.01720947027206421,-0.010855793952941895,-0.20149248017163185,1.3342157705764552,0.1528977705543511,0.9524776339530945,0.2001318335533142,-0.22963806986808777
1729110283573,7i,5.233754747691657,0.9s : 0.3s,-11.42436702393961,0.012156056184329385,0.03944642603022724,0.0344484844116415,-0.07074251770973206,-0.04273441806435585,0.08137930184602737,-0.011023402214050293,-0.032227352261543274,-0.005155622959136963,-0.20115316013512602,1.333919010989824,0.15365333374779486,0.9524753093719482,0.19979937374591827,-0.2299366146326065
1729110283583,7i,5.233754747691657,0.9s : 0.3s,-11.42436702393961,0.0121571379371937,0.06007885182601694,0.03982981994111481,-0.12869037687778473,-0.03655832260847092,0.10048691183328629,-0.008797407150268555,-0.038834333419799805,0.000956416130065918,-0.20043679070755405,1.3337209742193554,0.1548247804964931,0.9525686502456665,0.1990973949432373,-0.23015880584716797
1729110283593,7i,5.233754747691657,0.9s : 0.3s,-11.42436702393961,0.012163655108704567,0.08985814013203015,0.051028935085543924,-0.2079383283853531,-0.03184053301811218,0.12307557463645935,-0.005064606666564941,-0.050565749406814575,0.004626765847206116,-0.19967121832782367,1.3337658600267555,0.1567601112985743,0.9527268409729004,0.1983470916748047,-0.23015175759792328
1729110283603,7i,5.233754747691657,0.9s : 0.3s,-11.42436702393961,0.012193463862869383,0.12667123684700843,0.07130458710805995,-0.29511889815330505,-0.020205140113830566,0.13062866032123566,-0.006091296672821045,-0.07019318640232086,0.010961607098579407,-0.1988664809976581,1.3341067528742054,0.15955544665532564,0.9529600143432617,0.19755828380584717,-0.22986429929733276
1729110283613,7i,5.233754747691657,0.9s : 0.3s,-11.42436702393961,0.012233324799470506,0.16887755132723756,0.0715071328787573,-0.37760499119758606,-0.010879814624786377,0.1406615972518921,-0.011616826057434082,-0.07042385637760162,0.004335880279541016,-0.19819905178844868,1.3346870516794183,0.16323497300428938,0.953221321105957,0.19690395891666412,-0.22934207320213318
1729110283623,7i,5.233754747691657,0.9s : 0.3s,-11.42436702393961,0.012282348398245501,0.21095247915697343,0.0580694318534628,-0.44199398159980774,-8.658738806843758e-06,0.1416173130273819,-0.019062697887420654,-0.054759591817855835,0.003171682357788086,-0.19775438014845353,1.335513484657576,0.16774314620758723,0.9534956216812134,0.19646798074245453,-0.22857461869716644
1729110283633,7i,5.233754747691657,0.9s : 0.3s,-11.42436702393961,0.012342696576607375,0.2367699453279669,0.04649071859495261,-0.4197288751602173,0.02516886591911316,0.14439791440963745,-0.01733875274658203,-0.04255487024784088,0.007059574127197266,-0.19728985379327818,1.3365309969408663,0.17239504781158735,0.9538163542747498,0.196012482047081,-0.22762545943260193
1729110283643,7i,5.233754747691657,0.9s : 0.3s,-11.42436702393961,0.012381017630503057,0.2502374412353326,0.0150386167968578,-0.3928593099117279,0.06364279985427856,0.1443367600440979,-0.01014244556427002,-0.007157936692237854,-0.008488506078720093,-0.19671770863157806,1.337757110556181,0.17670342288028756,0.9542037844657898,0.19545140862464905,-0.22648169100284576
1729110283653,7i,5.233754747691657,0.9s : 0.3s,-11.42436702393961,0.012407933436283573,0.2623238735698116,0.01640475358167915,-0.4050363302230835,0.07677537947893143,0.14061766862869263,-0.014726996421813965,-0.0035681426525115967,-0.006284892559051514,-0.19601353041621122,1.3392224683796004,0.18099616245087957,0.9546683430671692,0.1947607547044754,-0.22511471807956696
1729110283663,7i,5.233754747691657,0.9s : 0.3s,-11.42436702393961,0.012449811805606012,0.2717790217876469,0.02510780597004352,-0.413171648979187,0.08169197291135788,0.12640812993049622,-0.0053803324699401855,-0.02029523253440857,0.013767987489700317,-0.19534812907499752,1.3408004651907381,0.18534860674443632,0.9551482200622559,0.1941080540418625,-0.2236374467611313
1729110283673,7i,5.233754747691657,0.9s : 0.3s,-11.42436702393961,0.012502192313403035,0.27750054140655794,0.015765019464810716,-0.41810622811317444,0.08031298965215683,0.11197219043970108,0.009117603302001953,0.012161746621131897,0.004182949662208557,-0.19475555680581563,1.3424115804091223,0.18975834687285437,0.955619215965271,0.1935267150402069,-0.22212430834770203
1729110283683,7i,5.233754747691657,0.9s : 0.3s,-11.42436702393961,0.012541615920495552,0.2839724331175463,0.03055446680356178,-0.4358653426170349,0.07659117877483368,0.08682246506214142,0.0005900263786315918,0.0300595760345459,-0.005445107817649841,-0.19435193394852102,1.3440580375096565,0.19425517096020453,0.9560596346855164,0.1931307166814804,-0.22056816518306732
1729110283693,7i,5.233754747691657,0.9s : 0.3s,-11.42436702393961,0.012552070906565974,0.2826191134679503,0.042986259789622644,-0.3978857398033142,0.07820984721183777,0.046618323773145676,-0.007613539695739746,0.04161036014556885,-0.007643982768058777,-0.19464751987502216,1.3456740271284968,0.1985760688638064,0.9563590884208679,0.19342072308063507,-0.2190101444721222
1729110283703,7i,5.233754747691657,0.9s : 0.3s,-11.42436702393961,0.012446652488634441,0.2691935018858836,0.06688432169297269,-0.3501531183719635,0.06832525879144669,0.033458512276411057,-0.0044741034507751465,0.06583729386329651,-0.010906219482421875,-0.19510268715858012,1.3471338944429543,0.20237428161434753,0.9565919637680054,0.1938672810792923,-0.2175942212343216
1729110283713,7i,5.233754747691657,0.9s : 0.3s,-11.42436702393961,0.012256068279288367,0.25342229188516463,0.07787856587166885,-0.3200892508029938,0.056453950703144073,0.02042446844279766,-0.0027685165405273438,0.07747425138950348,-0.007426083087921143,-0.19559051655361975,1.3484186994599539,0.20577314942164418,0.9567784070968628,0.19434583187103271,-0.21634413301944733
1729110283723,7i,5.233754747691657,0.9s : 0.3s,-11.42436702393961,0.012029302099960535,0.2335612467832158,0.06550207953904985,-0.2767223119735718,0.047482915222644806,0.011181235313415527,-0.009786903858184814,0.06474441289901733,0.001702919602394104,-0.19610791891173132,1.3495073516801797,0.2087824141787562,0.9569150805473328,0.19485333561897278,-0.21528027951717377
1729110283733,7i,5.233754747691657,0.9s : 0.3s,-11.42436702393961,0.011802371711259654,0.2153951549281769,0.06380494854710562,-0.2538108825683594,0.05516640096902847,0.0027299600187689066,-0.004729151725769043,0.06351062655448914,-0.0038867592811584473,-0.19663466088924017,1.3505094668475583,0.21140522141608017,0.9570300579071045,0.19536995887756348,-0.2142987996339798
1729110283743,7i,5.233754747691657,0.9s : 0.3s,-11.42436702393961,0.011582115506476932,0.20026413907146723,0.05362867242018195,-0.24702273309230804,0.024275418370962143,-0.007660229690372944,-0.01160120964050293,0.052336230874061584,-0.0015379786491394043,-0.1972310080505823,1.3515681765619272,0.21411940441601085,0.9571425318717957,0.19595476984977722,-0.21326006948947906
1729110283753,7i,5.233754747691657,0.9s : 0.3s,-11.42436702393961,0.011376127217583435,0.18845499255163162,0.034743173802913065,-0.2354355901479721,0.04114814102649689,0.019269920885562897,-0.025257229804992676,0.0128459632396698,0.020103275775909424,-0.19765171269363166,1.3525173741624503,0.21649348473978872,0.9572639465332031,0.1963673084974289,-0.2123335897922516
1729110283763,7i,5.233754747691657,0.9s : 0.3s,-11.42436702393961,0.011198084760095052,0.17695007558290124,0.05113180175994404,-0.22031761705875397,0.04321591183543205,-0.004755054134875536,0.001086413860321045,0.04914677143096924,0.014066830277442932,-0.19807169910469416,1.3533690537002128,0.21874941945697807,0.9573637247085571,0.19677910208702087,-0.2115004062652588
1729110283773,7i,5.233754747691657,0.9s : 0.3s,-11.42436702393961,0.011051222559679478,0.16836723289460684,0.04619914942349335,-0.21876925230026245,0.03415583819150925,-0.0035747410729527473,0.0006320476531982422,0.04266098141670227,0.017720118165016174,-0.19857055150643302,1.354168981162916,0.2209283960916199,0.9574366211891174,0.19726817309856415,-0.21071338653564453
1729110283783,7i,5.233754747691657,0.9s : 0.3s,-11.42436702393961,0.010942560306406932,0.15815557797984184,0.035338542607792046,-0.19821125268936157,0.030154703184962273,-0.012624628841876984,-0.00018090009689331055,0.019899651408195496,0.02920246124267578,-0.19911047989793948,1.3549019906988469,0.22299104220882296,0.9574867486953735,0.19779746234416962,-0.20998869836330414
1729110283793,7i,5.233754747691657,0.9s : 0.3s,-11.42436702393961,0.01087654562464242,0.14339922016764448,0.04382499342694882,-0.1598106026649475,0.026750383898615837,-0.02801050990819931,0.006591737270355225,0.02782084047794342,0.03321415185928345,-0.19968455278263553,1.3555154592189314,0.22474220855057925,0.9575042724609375,0.1983601599931717,-0.2093769609928131
1729110283803,7i,5.233754747691657,0.9s : 0.3s,-11.42436702393961,0.010847800908853162,0.12649693922307526,0.04044290736580867,-0.12407178431749344,0.035577431321144104,-0.028823506087064743,0.0076094865798950195,0.03118845820426941,0.024596840143203735,-0.20028084237525917,1.356090569286678,0.22607949524191936,0.9575087428092957,0.1989445686340332,-0.2088010162115097
1729110283813,7i,5.233754747691657,0.9s : 0.3s,-11.42436702393961,0.010846202880985848,0.11178001604860208,0.0376404786500702,-0.10766138136386871,0.04022651165723801,-0.025358466431498528,-0.0015388131141662598,0.025357723236083984,0.027774512767791748,-0.20079662508034585,1.3566852077896925,0.22716653771077394,0.9575324058532715,0.19945001602172852,-0.2082097977399826
1729110283823,7i,5.233754747691657,0.9s : 0.3s,-11.42436702393961,0.010869097254873433,0.10153955526920856,0.031681625862545644,-0.10812224447727203,0.03492828831076622,-0.027264457195997238,-0.0036246776580810547,0.00267598032951355,0.03135962784290314,-0.20128667672198416,1.3572698292423222,0.2281841880698614,0.957558274269104,0.19993019104003906,-0.2076292186975479
1729110283833,7i,5.233754747691657,0.9s : 0.3s,-11.42436702393961,0.010919091770801827,0.09946899466531897,0.026602729984597753,-0.11932190507650375,0.04050787538290024,-0.0238361693918705,0.005215108394622803,-0.0025439858436584473,0.02596220374107361,-0.20178654624692968,1.3578647460988271,0.22925880358869244,0.9575837850570679,0.20041994750499725,-0.20703835785388947
1729110283843,7i,5.233754747691657,0.9s : 0.3s,-11.42436702393961,0.010990594447630262,0.09980967032400517,0.027967495827384153,-0.14586442708969116,0.045835837721824646,-0.014782986603677273,0.003813505172729492,-0.00550512969493866,0.027153849601745605,-0.20261304649248169,1.3586393657619678,0.2305523125637366,0.9575816988945007,0.20122960209846497,-0.20626159012317657
1729110283853,7i,5.233754747691657,0.9s : 0.3s,-11.42436702393961,0.011077473791365871,0.100709199393432,0.03796994660737741,-0.15672320127487183,0.04117557406425476,-0.011353102512657642,-0.0002009272575378418,-0.018608465790748596,0.03309684991836548,-0.20331005362456722,1.3594613252913461,0.23207242634560488,0.9576135277748108,0.2019123136997223,-0.20544496178627014
1729110283863,7i,5.233754747691657,0.9s : 0.3s,-11.42436702393961,0.011183180374573998,0.10051305924798276,0.02884048372592782,-0.1418871283531189,0.03562532365322113,-0.016129381954669952,0.007482349872589111,-0.004455789923667908,0.02749425172805786,-0.20387853929845767,1.3602674776862032,0.23357690859436026,0.9576665163040161,0.20246905088424683,-0.2046489119529724
1729110283873,7i,5.233754747691657,0.9s : 0.3s,-11.42436702393961,0.0113041339744408,0.09979988046349961,0.024954729150054956,-0.13327659666538239,0.03657367452979088,-0.016310743987560272,0.00795966386795044,0.012084707617759705,0.020330816507339478,-0.20451752059428943,1.3610910708850976,0.23495189484030357,0.9577080607414246,0.20309476554393768,-0.20383316278457642
1729110283883,7i,5.233754747691657,0.9s : 0.3s,-11.42436702393961,0.01142991122483926,0.09483887988660768,0.024627801275622693,-0.11008672416210175,0.033389024436473846,-0.01564345322549343,-0.0011452436447143555,0.014995157718658447,0.019502878189086914,-0.20519171534085162,1.3618780018551748,0.23618960715913961,0.9577339291572571,0.20375485718250275,-0.20305098593235016
1729110283893,7i,5.233754747691657,0.9s : 0.3s,-11.42436702393961,0.01155330614014146,0.08141327577553925,0.021511972726738507,-0.06583217531442642,0.03351951763033867,-0.019700780510902405,-0.00377810001373291,0.018609464168548584,0.010108351707458496,-0.20578605136675224,1.3625796012779239,0.23706457432824216,0.9577575325965881,0.20433668792247772,-0.20235392451286316
1729110283903,7i,5.233754747691657,0.9s : 0.3s,-11.42436702393961,0.011669951382722001,0.06501128274286316,0.03195985949271461,-0.026129772886633873,0.0345236174762249,-0.02339305356144905,-0.0030058622360229492,0.03153514862060547,-0.004234597086906433,-0.20609626476414175,1.3632187581695767,0.23752241002709357,0.9578244090080261,0.20464034378528595,-0.20172861218452454
1729110283913,7i,5.233754747691657,0.9s : 0.3s,-11.42436702393961,0.011771549518002052,0.05262283144389863,0.028882878941341547,-0.014041951857507229,0.03932822868227959,-0.026927068829536438,-0.009853899478912354,0.026095658540725708,-0.007492527365684509,-0.20632204296140935,1.3638063562120273,0.23769177790946633,0.9578975439071655,0.2048613429069519,-0.20115625858306885
1729110283923,7i,5.233754747691657,0.9s : 0.3s,-11.42436702393961,0.011860206766084517,0.04774395888738299,0.022805279923083673,-0.008353440091013908,0.042432140558958054,-0.027384333312511444,-0.009707987308502197,0.02003265917301178,-0.004952609539031982,-0.20653011950249586,1.3644271282097085,0.23778924233086995,0.9579806327819824,0.20506499707698822,-0.20055288076400757
1729110283933,7i,5.233754747691657,0.9s : 0.3s,-11.42436702393961,0.011937457853343393,0.04433728612998006,0.020345607193567077,-0.0003423852613195777,0.04133385419845581,-0.025031697005033493,-0.005423367023468018,0.016724571585655212,-0.01023814082145691,-0.206604939774707,1.3650512382245443,0.23782117401523073,0.958090603351593,0.20513823628425598,-0.19995182752609253
1729110283943,7i,5.233754747691657,0.9s : 0.3s,-11.42436702393961,0.012004977261740357,0.04065185129811826,0.018745126543745008,-0.001479288679547608,0.03462100401520729,-0.021808207035064697,-0.00300675630569458,0.014250949025154114,-0.011800408363342285,-0.20676257271320578,1.3656397558686089,0.2378456367917543,0.9581763744354248,0.2052925080060959,-0.19938132166862488
1729110283953,7i,5.233754747691657,0.9s : 0.3s,-11.42436702393961,0.012060411944387527,0.03695542587407562,0.013401843075641946,0.03313940763473511,0.032651595771312714,-0.015433130785822868,-0.005183279514312744,0.006915047764778137,-0.01024329662322998,-0.2070084007452671,1.3660900647334717,0.23767736188693978,0.958216667175293,0.20553310215473175,-0.19893957674503326
1729110283963,7i,5.233754747691657,0.9s : 0.3s,-11.42436702393961,0.01209852643951241,0.03355924927827223,0.03431739366538288,0.04357686638832092,0.03286384791135788,-0.015237722545862198,-0.003287196159362793,0.017961695790290833,-0.029056072235107422,-0.20722741077853518,1.36644544033644,0.23726763414996027,0.9582431316375732,0.20574742555618286,-0.19858989119529724
1729110283973,7i,5.233754747691657,0.9s : 0.3s,-11.42436702393961,0.012114110628265477,0.03068797178509319,0.03706749895071088,0.04267032817006111,0.029090680181980133,-0.012404650449752808,-0.005626201629638672,0.012122154235839844,-0.034574538469314575,-0.20745660641141836,1.3667006925670968,0.23681226244112907,0.9582476615905762,0.20597171783447266,-0.19833573698997498
1729110283983,7i,5.233754747691657,0.9s : 0.3s,-11.42436702393961,0.01210292002621777,0.028215785118791487,0.033765988102659864,0.04436423256993294,0.028330838307738304,-0.004997301381081343,-0.009938716888427734,-0.0005936175584793091,-0.03226470947265625,-0.2077582054772361,1.3668248784265065,0.23633812057892087,0.958211362361908,0.2062668353319168,-0.1982041299343109
1729110283993,7i,5.233754747691657,0.9s : 0.3s,-11.42436702393961,0.012066551050717342,0.026164250177952535,0.033969265834282024,0.03668900206685066,0.025431454181671143,0.0017863023094832897,-0.008410751819610596,-0.007698148488998413,-0.03199857473373413,-0.20793914672742184,1.3669214445000009,0.23591220766668045,0.9581940174102783,0.2064438760280609,-0.19810405373573303
1729110284003,7i,5.233754747691657,0.9s : 0.3s,-11.42436702393961,0.01199942343802749,0.02429492115700332,0.03801948213811059,0.03461919352412224,0.02093932218849659,0.0050490740686655045,-0.005356729030609131,-0.019010990858078003,-0.0324864387512207,-0.2080389107912845,1.3670121823769001,0.23555086219252205,0.9581917524337769,0.2065414935350418,-0.19801293313503265
1729110284013,7i,5.233754747691657,0.9s : 0.3s,-11.42436702393961,0.011902083722123575,0.022603093266743094,0.040527155578467915,0.021308448165655136,0.017065221443772316,0.008036607876420021,0.000731348991394043,-0.020518288016319275,-0.034941598773002625,-0.2080666695286622,1.367041246029371,0.23525232990828485,0.9581918120384216,0.2065686583518982,-0.19798390567302704
1729110284023,7i,5.233754747691657,0.9s : 0.3s,-11.42436702393961,0.011791859344294053,0.020886892866354687,0.038371248022022034,0.008444315753877163,0.010267503559589386,0.002822937909513712,0.004887759685516357,-0.025022685527801514,-0.02867625653743744,-0.2081010282213327,1.3670460200156827,0.23510510139923252,0.9581858515739441,0.2066022753715515,-0.19797790050506592
1729110284033,7i,5.233754747691657,0.9s : 0.3s,-11.42436702393961,0.011674146294679385,0.018897245585167782,0.03756830575550653,-0.00327039766125381,0.007035224698483944,0.006235512439161539,0.005729258060455322,-0.023701190948486328,-0.02857983112335205,-0.2081072038208509,1.3670406912706767,0.23505995569754126,0.9581835865974426,0.20660831034183502,-0.1979827582836151
1729110284043,7i,5.233754747691657,0.9s : 0.3s,-11.42436702393961,0.01154998834217567,0.017195848970854383,0.03707998361544937,-0.007104284595698118,0.0047058467753231525,0.006305287126451731,0.00361555814743042,-0.026524141430854797,-0.02565780282020569,-0.20821642905319998,1.3668846198797637,0.2351113069162172,0.9581306576728821,0.2067151814699173,-0.19812774658203125
1729110284053,7i,5.233754747691657,0.9s : 0.3s,-11.42436702393961,0.011423604278289657,0.015308870411881483,0.030678129343474633,-0.0021755723282694817,0.0008075113873928785,0.012730696238577366,0.0026244521141052246,-0.018807053565979004,-0.024094700813293457,-0.20822035895321303,1.3666545278012883,0.23512350849444663,0.9580841064453125,0.2067190259695053,-0.1983480006456375
1729110284063,7i,5.233754747691657,0.9s : 0.3s,-11.42436702393961,0.011303327567381082,0.013550172442294135,0.02527632822204776,-0.0026265783235430717,0.0009625516831874847,0.024992123246192932,0.006021320819854736,-0.009669989347457886,-0.022563859820365906,-0.20802062286196837,1.3664032450588808,0.23511486655393915,0.9580745697021484,0.206523597240448,-0.19859711825847626
1729110284073,7i,5.233754747691657,0.9s : 0.3s,-11.42436702393961,0.01118425284018595,0.011728151927277051,0.025644440390698686,-0.012251509353518486,-0.007510295603424311,0.034450605511665344,0.001698911190032959,-0.017853260040283203,-0.018330633640289307,-0.20766665563217462,1.3661411630120173,0.23520894903334844,0.9580941200256348,0.2061772495508194,-0.19886307418346405
1729110284083,7i,5.233754747691657,0.9s : 0.3s,-11.42436702393961,0.01106384229072243,0.009801423960620875,0.02683572804484754,0.0006749422755092382,-0.013874894939363003,0.0391906313598156,-0.0014691352844238281,-0.022393912076950073,-0.014714300632476807,-0.20712988592638887,1.3657983017339503,0.23530684152935782,0.958134114742279,0.20565198361873627,-0.19921405613422394
1729110284093,7i,5.233754747691657,0.9s : 0.3s,-11.42436702393961,0.010943531115956888,0.013628731452464389,0.02640167119422173,-0.015588183887302876,-0.01289618294686079,0.0489383339881897,-0.0005283951759338379,-0.011094674468040466,-0.023951560258865356,-0.20649836331070154,1.3654177921034252,0.23538919845790496,0.9581852555274963,0.20503391325473785,-0.1996050775051117
1729110284103,7i,5.233754747691657,0.9s : 0.3s,-11.42436702393961,0.010819220789793757,0.02692024912469195,0.02860877109246468,-0.07752292603254318,-0.009000688791275024,0.05410519987344742,-0.004054009914398193,-0.020263731479644775,-0.01978403329849243,-0.20584208110875424,1.3652215240410823,0.2359074241446263,0.9582775831222534,0.20439153909683228,-0.19982056319713593
1729110284113,7i,5.233754747691657,0.9s : 0.3s,-11.42436702393961,0.010689375420390678,0.04360368515318537,0.038687118587722856,-0.1142716184258461,-0.01572144217789173,0.054077502340078354,-0.007149696350097656,-0.03778459131717682,-0.004230797290802002,-0.20528482021984054,1.365113621082394,0.23698382688168326,0.9583672881126404,0.2038460075855255,-0.19994717836380005
1729110284123,7i,5.233754747691657,0.9s : 0.3s,-11.42436702393961,0.010563087315332788,0.06288846164259669,0.025054643227112747,-0.15313126146793365,-0.020912164822220802,0.05381128937005997,-0.0031093358993530273,-0.024320095777511597,-0.005157530307769775,-0.20474851529785285,1.3650530808145447,0.23833900250109502,0.9584620594978333,0.2033209353685379,-0.2000274956226349
1729110284133,7i,5.233754747691657,0.9s : 0.3s,-11.42436702393961,0.01044251983459295,0.07623152828270617,0.01458641521220258,-0.14602142572402954,-0.022423775866627693,0.06211262568831444,-0.0036032795906066895,-0.010429292917251587,-0.009539902210235596,-0.20435350029602983,1.3649938204240792,0.23996016997005087,0.9585287570953369,0.2029341608285904,-0.20010069012641907
1729110284143,7i,5.233754747691657,0.9s : 0.3s,-11.42436702393961,0.01033009663727346,0.07668799205286433,0.02445372337695796,-0.10755925625562668,-0.019039252772927284,0.05088147893548012,0.001634061336517334,-0.0002823173999786377,-0.024397432804107666,-0.20396407874823178,1.3648945075328736,0.24128148644194983,0.9585861563682556,0.20255282521247864,-0.2002120316028595
1729110284153,7i,5.233754747691657,0.9s : 0.3s,-11.42436702393961,0.010228716493821158,0.08557383524745074,0.02750933387862214,-0.14739294350147247,-0.010792775079607964,0.057961490005254745,-0.001132965087890625,0.01706559956073761,-0.021546348929405212,-0.20351353383612936,1.364932232824525,0.24257760525453434,0.9586828947067261,0.2021116018295288,-0.20019449293613434
1729110284163,7i,5.233754747691657,0.9s : 0.3s,-11.42436702393961,0.010134500665569453,0.09061001683862199,0.01168423334458311,-0.15200728178024292,-0.02343972586095333,0.04670087993144989,-0.00443875789642334,-0.010133564472198486,0.003758937120437622,-0.20317895292117857,1.3649561210837189,0.24423280557195665,0.958753764629364,0.2017839103937149,-0.2001853883266449
1729110284173,7i,5.233754747691657,0.9s : 0.3s,-11.42436702393961,0.010061446047541018,0.09133689546425447,0.012803697278845866,-0.13392440974712372,-0.02223091758787632,0.053600065410137177,0.006738185882568359,0.010581329464912415,-0.002562612295150757,-0.20287407181523806,1.3648465024942071,0.24569048321027026,0.958791971206665,0.2014852911233902,-0.20030304789543152
1729110284183,7i,5.233754747691657,0.9s : 0.3s,-11.42436702393961,0.010011506614396207,0.09204351867922038,0.0244568519806392,-0.135659322142601,-0.030460307374596596,0.048558201640844345,0.009388148784637451,0.021601751446723938,-0.006585180759429932,-0.20248099574158204,1.3647141567497678,0.24710856783794502,0.9588429927825928,0.20110026001930237,-0.20044614374637604
1729110284193,7i,5.233754747691657,0.9s : 0.3s,-11.42436702393961,0.00997260118252607,0.09324447832951559,0.005435680145009801,-0.1440322995185852,-0.035705938935279846,0.0481422133743763,0.002124965190887451,0.0031869113445281982,0.0038567781448364258,-0.20201113859639766,1.3646336595336754,0.24862714491181914,0.9589192867279053,0.2006399780511856,-0.20054267346858978
1729110284203,7i,5.233754747691657,0.9s : 0.3s,-11.42436702393961,0.00994495198994797,0.09294264992656173,0.007302581216281727,-0.11896171420812607,-0.043089769780635834,0.05138171836733818,0.0035251379013061523,0.0021661370992660522,0.0060173869132995605,-0.20158904171481998,1.364467165175959,0.2500618265683148,0.9589686393737793,0.20022644102573395,-0.20071963965892792
1729110284213,7i,5.233754747691657,0.9s : 0.3s,-11.42436702393961,0.009927879756439113,0.08732861790755186,0.019114819523637108,-0.089006207883358,-0.04338777810335159,0.03605176508426666,0.0031176209449768066,0.01822972297668457,-0.004830524325370789,-0.20131266955873162,1.3641755280623908,0.2511741676094529,0.9589641690254211,0.19995565712451935,-0.20101064443588257
1729110284223,7i,5.233754747691657,0.9s : 0.3s,-11.42436702393961,0.009902886495746941,0.06984598929287378,0.03696777933465105,-0.018920864909887314,-0.038690321147441864,0.04227157682180405,-0.010837316513061523,0.03220629692077637,-0.014557600021362305,-0.20103285537146487,1.3637176623189922,0.2517733790659002,0.958926796913147,0.19968149065971375,-0.20146121084690094
1729110284233,7i,5.233754747691657,0.9s : 0.3s,-11.42436702393961,0.009877619769823147,0.05072602165729599,0.043462871583819965,0.028118550777435303,-0.03546123579144478,0.03645150735974312,-0.008035063743591309,0.037298232316970825,-0.020815879106521606,-0.2007883320645563,1.3632052907550167,0.25175188510348157,0.9588713049888611,0.19944187998771667,-0.20196257531642914
1729110284243,7i,5.233754747691657,0.9s : 0.3s,-11.42436702393961,0.009857095683335773,0.046592581537137565,0.034776512942937696,0.03620590642094612,-0.03930404409766197,0.0356939360499382,-0.00755155086517334,0.031803444027900696,-0.011871010065078735,-0.2002917535107116,1.3628254210193562,0.25150866264975463,0.9588912725448608,0.1989552527666092,-0.20234723389148712
1729110284253,7i,5.233754747691657,0.9s : 0.3s,-11.42436702393961,0.009847294199025748,0.04256404074671924,0.014305510915731687,0.05653088539838791,-0.04778887331485748,0.03009224310517311,0.0004138350486755371,0.014267951250076294,-0.0009497106075286865,-0.199999109108142,1.3623169464337541,0.25114751577940425,0.9588451981544495,0.1986684650182724,-0.20284682512283325
1729110284263,7i,5.233754747691657,0.9s : 0.3s,-11.42436702393961,0.00984919252490738,0.03564552011373691,0.022479565852168686,0.07979759573936462,-0.04521546512842178,0.024064110592007637,0.0032845735549926758,0.01823042333126068,-0.012735545635223389,-0.19977049455141713,1.3617124700293917,0.2505129905764465,0.958766758441925,0.1984443962574005,-0.20343579351902008
1729110284273,7i,5.233754747691657,0.9s : 0.3s,-11.42436702393961,0.009854880965000057,0.03554364924297655,0.024921080879793313,0.07081661373376846,-0.0478900745511055,0.023525619879364967,-0.0017331838607788086,0.01553642749786377,-0.01940813660621643,-0.19943663659495486,1.3611585019112993,0.249798929170946,0.9587187170982361,0.19811716675758362,-0.20398066937923431
1729110284283,7i,5.233754747691657,0.9s : 0.3s,-11.42436702393961,0.009852598732512517,0.035870806401415184,0.013418980303431341,0.032360564917325974,-0.05054116249084473,0.02046358399093151,-0.007852792739868164,-0.004154369235038757,-0.010057032108306885,-0.1991479114506722,1.36066425816839,0.24934920041020087,0.9586735963821411,0.19783414900302887,-0.20446640253067017
1729110284293,7i,5.233754747691657,0.9s : 0.3s,-11.42436702393961,0.009841534613751864,0.036750282689687656,0.016671196999673336,0.037236813455820084,-0.06204282492399216,0.01473911851644516,-0.005736172199249268,-0.015135183930397034,-0.003993913531303406,-0.1990956109768202,1.3600401505744844,0.24909101237797618,0.9585558772087097,0.19778288900852203,-0.20506682991981506
1729110284303,7i,5.233754747691657,0.9s : 0.3s,-11.42436702393961,0.009834440360331079,0.04379931743488129,0.005602059693068492,0.0745619535446167,-0.06800009310245514,0.012351961806416512,-0.0002409815788269043,0.003078863024711609,-0.0046739280223846436,-0.19916293441867552,1.3592024780477583,0.24854797364860173,0.9583708643913269,0.19784888625144958,-0.2058669477701187
1729110284313,7i,5.233754747691657,0.9s : 0.3s,-11.42436702393961,0.0098385823705024,0.05092491280563642,0.015948676983980066,0.07946589589118958,-0.06987256556749344,0.007291422225534916,0.0026895999908447266,0.014962494373321533,-0.004821836948394775,-0.19924379575899473,1.3582386408713207,0.2477599377476684,0.9581562280654907,0.19792814552783966,-0.20678716897964478
1729110284323,7i,5.233754747691657,0.9s : 0.3s,-11.42436702393961,0.009843967241272882,0.05651727453721561,0.0037662599484028876,0.08783794194459915,-0.06804300844669342,0.0085567906498909,-0.001385807991027832,0.0013071000576019287,0.00324895977973938,-0.19928917013759878,1.3573299958512628,0.24694605760822436,0.9579590559005737,0.1979726254940033,-0.20765577256679535
1729110284333,7i,5.233754747691657,0.9s : 0.3s,-11.42436702393961,0.009853772131508058,0.06144175842276594,0.006250831750458908,0.09577948600053787,-0.0686107948422432,0.0028895833529531956,0.0005421638488769531,0.006226062774658203,-0.00012287497520446777,-0.19915891779905057,1.356522954733799,0.24607069566235454,0.9578164219856262,0.19784493744373322,-0.2084343135356903
1729110284343,7i,5.233754747691657,0.9s : 0.3s,-11.42436702393961,0.009867969199873162,0.07145998985684586,0.009517758610622661,0.13125012814998627,-0.06373002380132675,0.0008533969521522522,0.000475466251373291,0.00852803885936737,-0.004199311137199402,-0.1990677098415363,1.3555893676853268,0.24493410890982342,0.9576390385627747,0.19775554537773132,-0.20933228731155396
1729110284353,7i,5.233754747691657,0.9s : 0.3s,-11.42436702393961,0.009889460251365697,0.08339077009654647,0.01241104237791796,0.15625055134296417,-0.06355345994234085,0.005826584063470364,0.001607060432434082,0.012085825204849243,0.0023203790187835693,-0.19884725753624527,1.3545749176854385,0.24348247668029935,0.9574689269065857,0.19753943383693695,-0.21031303703784943
1729110284363,7i,5.233754747691657,0.9s : 0.3s,-11.42436702393961,0.009922487380133991,0.09223911758932365,0.01768898114349263,0.16079963743686676,-0.05507177859544754,0.011034294962882996,0.00471264123916626,0.015141084790229797,0.007838279008865356,-0.19840782273553087,1.353628218244006,0.2418880672415684,0.9573538303375244,0.19710864126682281,-0.21123801171779633
1729110284373,7i,5.233754747691657,0.9s : 0.3s,-11.42436702393961,0.009958784798473397,0.09432133452836196,0.011855206455423277,0.14881594479084015,-0.05944255739450455,0.014603730291128159,0.0005556344985961914,0.009084716439247131,0.0075963884592056274,-0.197830628262317,1.352774856944673,0.2403885061476335,0.9572842121124268,0.19654273986816406,-0.2120794951915741
1729110284383,7i,5.233754747691657,0.9s : 0.3s,-11.42436702393961,0.009993253319049185,0.1004035628102879,0.010495133800944063,0.1647546887397766,-0.061269570142030716,0.0131099633872509,0.0013336539268493652,-0.0025757700204849243,0.010086357593536377,-0.1973976910179607,1.3518825439424622,0.23887211593606197,0.9571776390075684,0.19611822068691254,-0.21295207738876343
1729110284393,7i,5.233754747691657,0.9s : 0.3s,-11.42436702393961,0.010027377669546103,0.10672101931705334,0.007579758425255727,0.17696022987365723,-0.05424415320158005,0.01955481246113777,0.0005776286125183105,0.002771511673927307,0.00703120231628418,-0.19700187059850008,1.3509950452552577,0.2371964598331298,0.9570639133453369,0.1957300752401352,-0.21381838619709015
1729110284403,7i,5.233754747691657,0.9s : 0.3s,-11.42436702393961,0.010053316857175906,0.10732944186225045,0.0091131853872469,0.1594247817993164,-0.05126243829727173,0.01879185065627098,-0.00663381814956665,0.0018151253461837769,0.0059789568185806274,-0.19648340481871213,1.3502203384361957,0.23556100255556262,0.9569967985153198,0.19522161781787872,-0.2145819365978241
1729110284413,7i,5.233754747691657,0.9s : 0.3s,-11.42436702393961,0.010061897902088742,0.1064047201585487,0.017405432007710244,0.1350640505552292,-0.05205952003598213,0.02228352054953575,-0.007699191570281982,-0.015397429466247559,0.0025672316551208496,-0.19604841598404088,1.3494678732885128,0.23413363230617873,0.9569178819656372,0.19479496777057648,-0.21532060205936432
1729110284423,7i,5.233754747691657,0.9s : 0.3s,-11.42436702393961,0.010059170519889063,0.09772607151253217,0.02380509792535876,0.10199370235204697,-0.0500764399766922,0.02579769492149353,-0.00017571449279785156,-0.021959319710731506,0.009189128875732422,-0.19566014054911823,1.3487680477286002,0.23302600518011185,0.9568406939506531,0.19441412389278412,-0.21600687503814697
1729110284433,7i,5.233754747691657,0.9s : 0.3s,-11.42436702393961,0.010030569789818387,0.0923764737248336,0.02975053018252148,0.09899312257766724,-0.04669103026390076,0.02454094961285591,-0.004502058029174805,-0.024026885628700256,0.016956835985183716,-0.19532575324551016,1.3481600371051317,0.2321157334940915,0.9567726254463196,0.19408610463142395,-0.21660296618938446
1729110284443,7i,5.233754747691657,0.9s : 0.3s,-11.42436702393961,0.009997303612801064,0.09144197238313895,0.009396206009583767,0.11219733953475952,-0.04674145206809044,0.02397855743765831,-0.007142364978790283,-0.0019570142030715942,0.005783200263977051,-0.19500884560656637,1.3476044699524954,0.23114509878722894,0.956712007522583,0.1937752068042755,-0.2171480804681778
1729110284453,7i,5.233754747691657,0.9s : 0.3s,-11.42436702393961,0.00996358985529994,0.09079369546692208,0.009230516458636361,0.11661659181118011,-0.04646501690149307,0.01670200191438198,-0.0038123130798339844,-0.0015773922204971313,0.008257150650024414,-0.19466856690836074,1.3470115811464656,0.2300633515162838,0.9566473364830017,0.19344137609004974,-0.21772988140583038
1729110284463,7i,5.233754747691657,0.9s : 0.3s,-11.42436702393961,0.009926297883270893,0.08829565526977841,0.01337167133212414,0.10243778675794601,-0.0371057391166687,0.017923161387443542,-0.0058980584144592285,-0.004440218210220337,0.01114894449710846,-0.1942583200624364,1.3464953677675768,0.22902125821472064,0.9566120505332947,0.19303885102272034,-0.21824130415916443
1729110284473,7i,5.233754747691657,0.9s : 0.3s,-11.42436702393961,0.009885360720420119,0.08623811645673268,0.016996326584901425,0.10155974328517914,-0.034224461764097214,0.016538582742214203,-0.006732463836669922,-0.004654109477996826,0.014895915985107422,-0.19391643444280154,1.3460391524996234,0.22809182270447662,0.9565767049789429,0.19270339608192444,-0.21869240701198578
1729110284483,7i,5.233754747691657,0.9s : 0.3s,-11.42436702393961,0.009836598999377895,0.08528416320452001,0.01805379753699044,0.1137508973479271,-0.018436890095472336,0.0197112075984478,-0.011411786079406738,-0.004622474312782288,0.013203918933868408,-0.19355769172828846,1.345638696710271,0.2270553372912724,0.9565563797950745,0.1923513561487198,-0.21909087896347046
1729110284493,7i,5.233754747691657,0.9s : 0.3s,-11.42436702393961,0.009782740231119552,0.08410372178308449,0.016705909909283796,0.10936173796653748,-0.007943236269056797,0.03430745750665665,-0.013378918170928955,0.0035343021154403687,0.00935952365398407,-0.19295807214566332,1.3453297604179846,0.22599435430661427,0.9566007256507874,0.19176290929317474,-0.21941208839416504
1729110284503,7i,5.233754747691657,0.9s : 0.3s,-11.42436702393961,0.00971556561634567,0.08241274801013643,0.022501930282937486,0.10073430091142654,0.002832223894074559,0.0400448776781559,-0.014423191547393799,-0.012754201889038086,0.01164640486240387,-0.19220385172230542,1.345206018612336,0.2250910549128919,0.9567143321037292,0.1910226196050644,-0.21956276893615723
1729110284513,7i,5.233754747691657,0.9s : 0.3s,-11.42436702393961,0.0096317837062873,0.08826439082846789,0.030693526462827372,0.15728598833084106,0.02678442746400833,0.034528136253356934,-0.01437222957611084,-0.02162986993789673,0.016360938549041748,-0.19139054326786278,1.345258647930771,0.22396828976353153,0.9568769931793213,0.19022423028945923,-0.2195470929145813
1729110284523,7i,5.233754747691657,0.9s : 0.3s,-11.42436702393961,0.009537224183253902,0.12204158450008305,0.022068025795514364,0.3036000728607178,0.055942222476005554,0.012555326335132122,-0.018815159797668457,-0.005850806832313538,0.009937584400177002,-0.19068965261642112,1.345305116330178,0.2217632377594353,0.9570170044898987,0.18953609466552734,-0.21953240036964417
1729110284533,7i,5.233754747691657,0.9s : 0.3s,-11.42436702393961,0.009452521353642917,0.1856304998323778,0.03954199516044378,0.4930972754955292,0.09829740971326828,0.00011410331353545189,-0.021412789821624756,0.03293897211551666,0.0044817328453063965,-0.18975533299700736,1.3453711831051622,0.21787200608589835,0.9572036862373352,0.18861863017082214,-0.21950866281986237
1729110284543,7i,5.233754747691657,0.9s : 0.3s,-11.42436702393961,0.009443904323582046,0.2847086408588589,0.07670028384519352,0.7554687261581421,0.15371805429458618,-0.03445685654878616,-0.017091810703277588,0.07132911682128906,-0.0224267840385437,-0.18856007264540262,1.3455427834919886,0.21171074083806363,0.9574604034423828,0.18744468688964844,-0.21939459443092346
1729110284553,7i,5.233754747691657,0.9s : 0.3s,-11.42436702393961,0.009469358824561791,0.42718502829475036,0.08017043522009144,1.1158218383789062,0.1803201138973236,-0.08489233255386353,-0.024403810501098633,0.0666755735874176,-0.03723064064979553,-0.18708411201298084,1.345514432414821,0.20231771612168375,0.9577227234840393,0.1859946846961975,-0.21948328614234924
1729110284563,7i,5.233754747691657,0.9s : 0.3s,-11.42436702393961,0.009532957068326766,0.5978330581118148,0.09475642925562557,1.464962363243103,0.2075076550245285,-0.12881048023700714,-0.031536996364593506,0.07403519749641418,-0.050029873847961426,-0.18524695038083394,1.3450810218748357,0.1892580391540696,0.9579590559005737,0.18418926000595093,-0.21997447311878204
1729110284573,7i,5.233754747691657,0.9s : 0.3s,-11.42436702393961,0.009711872044939427,0.7679068784585743,0.11509070183307646,1.7148903608322144,0.21217457950115204,-0.17329806089401245,-0.031883418560028076,0.09932336211204529,-0.04862290620803833,-0.18314718236768113,1.3442598935258898,0.1731308074923902,0.9581528902053833,0.1821250170469284,-0.22084739804267883
1729110284583,7i,5.233754747691657,0.9s : 0.3s,-11.42436702393961,0.010007800000815107,0.9291574554575398,0.11008769714339839,1.925702691078186,0.1999218612909317,-0.19837960600852966,-0.0182076096534729,0.0831727534532547,-0.069785937666893,-0.18085784062202234,1.3429709277498032,0.15464162366995773,0.9582709670066833,0.1798734813928604,-0.22217579185962677
1729110284593,7i,5.233754747691657,0.9s : 0.3s,-11.42436702393961,0.010386133234999463,1.0658427320907111,0.09576162370664557,2.0456812381744385,0.18157534301280975,-0.2093113511800766,0.014332056045532227,0.041874438524246216,-0.08492003381252289,-0.17833818761556705,1.3412435528438478,0.13440901155815452,0.9583240747451782,0.17739436030387878,-0.2239331752061844
1729110284603,7i,5.233754747691657,0.9s : 0.3s,-11.42436702393961,0.010812856064683832,1.157445960203344,0.08567158199002167,2.0290629863739014,0.13069790601730347,-0.21589885652065277,0.02476269006729126,0.006511598825454712,-0.08175590634346008,-0.17572683933938327,1.3392137692387258,0.11374351823579275,0.9583151340484619,0.1748238354921341,-0.22598345577716827
1729110284613,7i,5.233754747691657,0.9s : 0.3s,-11.42436702393961,0.011239928266868782,1.2393451149813295,0.10751287469817031,2.1157419681549072,0.1173781082034111,-0.2415890395641327,0.02520751953125,-0.011630624532699585,-0.10386687517166138,-0.17320081570947865,1.3367885325156297,0.09280720211956461,0.9581908583641052,0.172336146235466,-0.22840861976146698
1729110284623,7i,5.233754747691657,0.9s : 0.3s,-11.42436702393961,0.01198415832872508,1.3307701007391495,0.17809493068447566,2.284210443496704,0.1153925433754921,-0.2580048441886902,0.05163085460662842,0.08244611322879791,-0.1491800844669342,-0.17049977165600635,1.334124216844615,0.07050935842299695,0.9580280184745789,0.16967488825321198,-0.23106905817985535
1729110284633,7i,5.233754747691657,0.9s : 0.3s,-11.42436702393961,0.013176365277625893,1.4142550287993056,0.21712182835089475,2.379828453063965,0.1206139400601387,-0.2690178155899048,0.059949398040771484,0.14613917469978333,-0.148967444896698,-0.16757122659165521,1.331331555101026,0.04681085789535451,0.9578575491905212,0.16678808629512787,-0.23386043310165405
1729110284643,7i,5.233754747691657,0.9s : 0.3s,-11.42436702393961,0.014556692627262913,1.4599264084313128,0.1725593394927922,2.314690351486206,0.11037133634090424,-0.283613920211792,0.030316472053527832,0.13835196197032928,-0.09857165813446045,-0.16462140115350044,1.3285416915348802,0.022950463835024595,0.9576747417449951,0.16387885808944702,-0.2366487979888916
1729110284653,7i,5.233754747691657,0.9s : 0.3s,-11.42436702393961,0.015982962136674418,1.470859305156302,0.14495407464727322,2.206113338470459,0.09087326377630234,-0.3175974488258362,0.007842600345611572,0.12623044848442078,-0.07082408666610718,-0.1620758181874329,1.325818074472081,-1.300454275595038e-05,0.9574283361434937,0.16136716306209564,-0.23935666680335999
1729110284663,7i,5.233754747691657,0.9s : 0.3s,-11.42436702393961,0.017484955313320956,1.463747954142339,0.179840107708799,2.1213793754577637,0.0910615473985672,-0.3660326898097992,-0.02395397424697876,0.16520842909812927,-0.0668942928314209,-0.16012089783969205,1.3232113434939092,-0.022062627960400802,0.9571051001548767,0.15943755209445953,-0.24192844331264496
1729110284673,7i,5.233754747691657,0.9s : 0.3s,-11.42436702393961,0.019106009981947454,1.4497897070987906,0.24159346632113157,2.0686306953430176,0.09237582236528397,-0.43404528498649597,-0.0838085412979126,0.2200750857591629,-0.053948938846588135,-0.15882665470973692,1.3206747870469904,-0.04362354157763264,0.9566875100135803,0.15815973281860352,-0.24440628290176392
1729110284683,7i,5.233754747691657,0.9s : 0.3s,-11.42436702393961,0.02099670308023433,1.450000702747484,0.3314462710267267,2.1059823036193848,0.07312915474176407,-0.5226570963859558,-0.1426374316215515,0.29420220851898193,-0.05437144637107849,-0.1583013316965921,1.3180749632462088,-0.06518159247511143,0.9561290740966797,0.15764100849628448,-0.2469133883714676
1729110284693,7i,5.233754747691657,0.9s : 0.3s,-11.42436702393961,0.023535194009936266,1.471277208043715,0.46273321068109663,2.189732551574707,0.09789096564054489,-0.6103547215461731,-0.18039274215698242,0.41811099648475647,-0.08224157989025116,-0.15838653789491633,1.3153812990623377,-0.08775425614395857,0.9554475545883179,0.15772514045238495,-0.2494845986366272
1729110284703,7i,5.233754747691657,0.9s : 0.3s,-11.42436702393961,0.02690251710939951,1.4897457630659297,0.5597709191400172,2.1800754070281982,0.09836047142744064,-0.7100079655647278,-0.21724307537078857,0.5095390677452087,-0.08073949813842773,-0.1592081791047643,1.3127195397348346,-0.11084430495707821,0.9546545147895813,0.15853644907474518,-0.25199374556541443
1729110284713,7i,5.233754747691657,0.9s : 0.3s,-11.42436702393961,0.03090672032808362,1.5139980139982667,0.5808631117140436,2.2006916999816895,0.12389139831066132,-0.8227555751800537,-0.26340681314468384,0.5172454118728638,-0.021817177534103394,-0.16101595522791573,1.3101068399217108,-0.13428082744392866,0.9537144303321838,0.16032110154628754,-0.25441282987594604
1729110284723,7i,5.233754747691657,0.9s : 0.3s,-11.42436702393961,0.03570423090111464,1.5465624836677487,0.6687849490304193,2.2372894287109375,0.13954679667949677,-0.9402475953102112,-0.3057946562767029,0.5945080518722534,-0.017975330352783203,-0.1637606974364691,1.307540562725519,-0.1583161401946627,0.9526298642158508,0.1630297303199768,-0.25674399733543396
1729110284733,7i,5.233754747691657,0.9s : 0.3s,-11.42436702393961,0.04137404585563453,1.6020252267840214,0.7540185094310804,2.3507072925567627,0.13057327270507812,-1.0859895944595337,-0.35112929344177246,0.6672714352607727,0.0009815990924835205,-0.167572352572984,1.3047493824679715,-0.18335331597889393,0.9513031244277954,0.1667892038822174,-0.2592366933822632
1729110284743,7i,5.233754747691657,0.9s : 0.3s,-11.42436702393961,0.048048771587199265,1.6838564580634423,0.8393111045618421,2.517987012863159,0.15522056818008423,-1.221807837486267,-0.35536855459213257,0.7602472901344299,-0.013430505990982056,-0.172259231310731,1.301583255707857,-0.2103055034452911,0.9497134685516357,0.17140857875347137,-0.2620365023612976
1729110284753,7i,5.233754747691657,0.9s : 0.3s,-11.42436702393961,0.05566811411943084,1.7520459720494137,0.8948443286415334,2.505953073501587,0.18296830356121063,-1.3672630786895752,-0.3682684302330017,0.8146939277648926,-0.03739705681800842,-0.17795833808561912,1.298403328344129,-0.23849732319852293,0.9479191899299622,0.17702051997184753,-0.26478809118270874
1729110284763,7i,5.233754747691657,0.9s : 0.3s,-11.42436702393961,0.0638025216543431,1.8152164179726136,0.871814032445302,2.496713161468506,0.17265641689300537,-1.5461344718933105,-0.4235726594924927,0.7619678974151611,0.007129698991775513,-0.18524138083348915,1.2950442910467688,-0.2669141409898256,0.9457587599754333,0.18418379127979279,-0.2676125466823578
1729110284773,7i,5.233754747691657,0.9s : 0.3s,-11.42436702393961,0.07238987366348404,1.874924758353736,0.8858026093358905,2.4908854961395264,0.1596474051475525,-1.6993494033813477,-0.41244953870773315,0.7838692665100098,0.008978515863418579,-0.19399933065992844,1.2912505164106305,-0.2959400740155107,0.9431500434875488,0.19278472661972046,-0.27074313163757324
1729110284783,7i,5.233754747691657,0.9s : 0.3s,-11.42436702393961,0.08145910439707753,1.9397492942669832,0.9194205713906732,2.4855027198791504,0.12174724787473679,-1.9136173725128174,-0.3645792603492737,0.8439511656761169,0.012750685214996338,-0.2044520475842631,1.2868277602256215,-0.32532590628894575,0.9399575591087341,0.20303064584732056,-0.2743322253227234
1729110284793,7i,5.233754747691657,0.9s : 0.3s,-11.42436702393961,0.09103402875947897,2.035914520088756,0.9686161726911563,2.6144216060638428,0.09848347306251526,-2.15321946144104,-0.37407368421554565,0.8934022188186646,0.010892391204833984,-0.21676603895116217,1.281477183551287,-0.35613248238177125,0.9360090494155884,0.21507246792316437,-0.27862316370010376
1729110284803,7i,5.233754747691657,0.9s : 0.3s,-11.42436702393961,0.10127704644991149,2.138707723212948,1.0532003445768299,2.7068512439727783,0.13339750468730927,-2.3042266368865967,-0.3822047710418701,0.9797112941741943,-0.05758696794509888,-0.23046864830976344,1.2753727629315907,-0.38899489791204467,0.9313837289810181,0.22843380272388458,-0.2834470272064209
1729110284813,7i,5.233754747691657,0.9s : 0.3s,-11.42436702393961,0.11187360435959082,2.2163002306208908,1.0222781980091835,2.6038737297058105,0.09808426350355148,-2.4709982872009277,-0.37099212408065796,0.951927125453949,-0.03538793325424194,-0.2453827211756807,1.2687743252202173,-0.42231169278384706,0.9261373281478882,0.24292759597301483,-0.28854095935821533
1729110284823,7i,5.233754747691657,0.9s : 0.3s,-11.42436702393961,0.12249777605426367,2.3220634626713235,0.9689163363012904,2.755976438522339,0.043282799422740936,-2.673856735229492,-0.3353732228279114,0.9084322452545166,0.03277993202209473,-0.26198927987999715,1.2608269722586711,-0.4565053723808617,0.9198458194732666,0.2590024769306183,-0.2946208417415619
1729110284833,7i,5.233754747691657,0.9s : 0.3s,-11.42436702393961,0.13346977100272872,2.4377948403439955,1.0552211287821989,2.8950655460357666,0.003956965636461973,-2.820314645767212,-0.25597840547561646,1.0222892761230469,-0.053771018981933594,-0.27928572535042623,1.2511570318679874,-0.49340574818488014,0.9125640392303467,0.275669127702713,-0.30204877257347107
1729110284843,7i,5.233754747691657,0.9s : 0.3s,-11.42436702393961,0.14489696067731342,2.5308862391612856,1.1266391541779233,2.8156914710998535,-0.10366607457399368,-2.9895541667938232,-0.19490283727645874,1.1032092571258545,-0.11940687894821167,-0.2977465297728172,1.2398770792275087,-0.5313658260119305,0.904131293296814,0.2933666408061981,-0.3106163740158081
1729110284853,7i,5.233754747691657,0.9s : 0.3s,-11.42436702393961,0.15605250826921047,2.6016377197848217,0.9466508037510878,2.8002588748931885,-0.17680394649505615,-3.033956527709961,-0.19451290369033813,0.9253722429275513,-0.04470667243003845,-0.31672842231768195,1.2267942869613002,-0.5694706082747072,0.8945860266685486,0.31145939230918884,-0.32048195600509644
1729110284863,7i,5.233754747691657,0.9s : 0.3s,-11.42436702393961,0.16681464561195256,2.675116906524623,0.8987431059314194,2.6711606979370117,-0.2849055826663971,-3.3125691413879395,-0.08837354183197021,0.8898206353187561,-0.09026917815208435,-0.33722233753557507,1.2120955382391099,-0.6076281319797319,0.8836157321929932,0.33086714148521423,-0.3312854766845703
1729110284873,7i,5.233754747691657,0.9s : 0.3s,-11.42436702393961,0.1774575215405783,2.74886610073898,0.9336142530807596,2.625515937805176,-0.38459596037864685,-3.4790470600128174,-0.08947443962097168,0.9201157093048096,-0.13044914603233337,-0.359586740788989,1.1954091888993919,-0.6467277488472234,0.8708616495132446,0.35188743472099304,-0.3431837260723114
1729110284883,7i,5.233754747691657,0.9s : 0.3s,-11.42436702393961,0.18816809292710593,2.842845317501975,1.0134846167121285,2.7457685470581055,-0.4715788662433624,-3.6301774978637695,-0.0020322799682617188,1.0020239353179932,-0.1519702970981598,-0.38244467460813486,1.1762128920190535,-0.6878259006451293,0.8564633131027222,0.37318962812423706,-0.3566509783267975
1729110284893,7i,5.233754747691657,0.9s : 0.3s,-11.42436702393961,0.19896460893304452,2.933787164627007,1.0509175553086783,2.729811668395996,-0.600479006767273,-3.781398296356201,0.08935070037841797,1.0339736938476562,-0.1653558611869812,-0.405732072709113,1.1543257440357497,-0.730982731234636,0.840275764465332,0.39469149708747864,-0.3716925382614136
1729110284903,7i,5.233754747691657,0.9s : 0.3s,-11.42436702393961,0.20967863735490275,3.016547973145827,1.026858965512054,2.6599156856536865,-0.7500911355018616,-3.9257538318634033,0.165605366230011,1.0008628368377686,-0.1590213179588318,-0.4295871747876587,1.1296017771843372,-0.7753580064457593,0.8220807313919067,0.41649553179740906,-0.388219952583313
1729110284913,7i,5.233754747691657,0.9s : 0.3s,-11.42436702393961,0.22033765992930493,3.1029223398103714,1.0148519289881697,2.6459577083587646,-0.9176804423332214,-4.073174953460693,0.26205670833587646,0.9656335115432739,-0.16971340775489807,-0.4540427559416167,1.1015867443326668,-0.8211661952375616,0.8015570640563965,0.4386022686958313,-0.4063669443130493
1729110284923,7i,5.233754747691657,0.9s : 0.3s,-11.42436702393961,0.23100224700248,3.1928648269214728,1.1308711479313764,2.707977533340454,-1.058618426322937,-4.171377182006836,0.36754822731018066,1.0395731925964355,-0.25112831592559814,-0.47809776596023207,1.0700429923192805,-0.8692470008259193,0.7788597941398621,0.4600910544395447,-0.4262551963329315
1729110284933,7i,5.233754747691657,0.9s : 0.3s,-11.42436702393961,0.2416905634052043,3.270164925742922,1.1874025982108563,2.618396282196045,-1.2059357166290283,-4.278024196624756,0.47110283374786377,1.0415382385253906,-0.3212244510650635,-0.5015501270108638,1.0351794279874929,-0.9193026068263184,0.754040539264679,0.4807853400707245,-0.4475134015083313
1729110284943,7i,5.233754747691657,0.9s : 0.3s,-11.42436702393961,0.2521223009047793,3.3479161568972704,1.1476207821042563,2.5252017974853516,-1.3973088264465332,-4.422736644744873,0.5563026070594788,0.9504440426826477,-0.3228265643119812,-0.5250916483225513,0.9969709422518434,-0.9705159093465264,0.7266868352890015,0.5012922883033752,-0.4697149991989136
1729110284953,7i,5.233754747691657,0.9s : 0.3s,-11.42436702393961,0.26255997487233573,3.4441524091701687,1.2511700634800478,2.6926982402801514,-1.4906238317489624,-4.530084609985352,0.6750444769859314,0.9991403222084045,-0.33385640382766724,-0.5476123609545045,0.9547013480128684,-1.0248500926269821,0.6967968940734863,0.5206502079963684,-0.4933531582355499
1729110284963,7i,5.233754747691657,0.9s : 0.3s,-11.42436702393961,0.2734237988931741,3.542079850781968,1.4037769640367155,2.855247735977173,-1.5977195501327515,-4.575384140014648,0.7868503332138062,1.1082191467285156,-0.3511504530906677,-0.5675808271597752,0.9084338610102934,-1.0831328984498516,0.6649013161659241,0.5375937819480896,-0.5185547471046448
1729110284973,7i,5.233754747691657,0.9s : 0.3s,-11.42436702393961,0.28445424834083577,3.6213350108561357,1.3687196214680915,2.8098485469818115,-1.7260594367980957,-4.623474597930908,0.8400133848190308,1.0504546165466309,-0.25360602140426636,-0.5850816879773811,0.8584864420052498,-1.1442823335329237,0.6309643387794495,0.5522674918174744,-0.5448712110519409
1729110284983,7i,5.233754747691657,0.9s : 0.3s,-11.42436702393961,0.2952141845501643,3.680908763625766,1.288324487442845,2.700141668319702,-1.8961974382400513,-4.652249813079834,0.8911612033843994,0.9165218472480774,-0.1599981188774109,-0.6009507252120775,0.8056430771636981,-1.206336847426062,0.5949074625968933,0.5654268860816956,-0.5712946057319641
1729110284993,7i,5.233754747691657,0.9s : 0.3s,-11.42436702393961,0.3058264342271397,3.736881479204363,1.3192758962531863,2.8238308429718018,-2.0010266304016113,-4.618300437927246,0.9524409770965576,0.9026330709457397,-0.1363767385482788,-0.6138511638871257,0.7497050244300817,-1.2701219199926332,0.5570194125175476,0.576019823551178,-0.5982729196548462
1729110285003,7i,5.233754747691657,0.9s : 0.3s,-11.42436702393961,0.3166166805364318,3.772306339180648,1.4068303922273382,2.7025508880615234,-2.1662847995758057,-4.597621917724609,1.021822214126587,0.9426873326301575,-0.21538734436035156,-0.6232531513345595,0.6912933286707981,-1.3350531890718833,0.5176674723625183,0.583679735660553,-0.6255704164505005
1729110285013,7i,5.233754747691657,0.9s : 0.3s,-11.42436702393961,0.327196356488124,3.7896399004617782,1.3579718698663352,2.549818515777588,-2.294517755508423,-4.579655170440674,1.0747485160827637,0.8088915348052979,-0.1862732172012329,-0.6307043084241063,0.6309172965100075,-1.3998750360328744,0.47639894485473633,0.5897136926651001,-0.6521362066268921
1729110285023,7i,5.233754747691657,0.9s : 0.3s,-11.42436702393961,0.33753453412314977,3.775457533639529,1.3765255944184769,2.264012575149536,-2.4367787837982178,-4.506138324737549,1.142198085784912,0.7344608902931213,-0.22532963752746582,-0.6364769375347149,0.569736206880124,-1.4632795693017104,0.4337906241416931,0.5943658947944641,-0.677166759967804
1729110285033,7i,5.233754747691657,0.9s : 0.3s,-11.42436702393961,0.3479589671137669,3.7608808050461606,1.345104000384932,2.080561876296997,-2.6096391677856445,-4.475855827331543,1.1734720468521118,0.6324175596237183,-0.1797669529914856,-0.6410482213863681,0.5076626416712176,-1.5250928075620773,0.38962310552597046,0.5980358719825745,-0.7003905773162842
1729110285043,7i,5.233754747691657,0.9s : 0.3s,-11.42436702393961,0.358212503455092,3.748676239473392,1.4316733215344568,2.0299551486968994,-2.6989784240722656,-4.422621250152588,1.2549138069152832,0.6700450778007507,-0.16099512577056885,-0.6432020915886304,0.4444404964048946,-1.5862817011099641,0.34403935074806213,0.5997607707977295,-0.7224430441856384
1729110285053,7i,5.233754747691657,0.9s : 0.3s,-11.42436702393961,0.3686817715038205,3.744611306889667,1.509776296771712,1.8996442556381226,-2.8110315799713135,-4.409581184387207,1.3135056495666504,0.7129319906234741,-0.21413862705230713,-0.6428277007282915,0.3807260417431929,-1.6466116314431507,0.297425776720047,0.5994611382484436,-0.7430909872055054
1729110285063,7i,5.233754747691657,0.9s : 0.3s,-11.42436702393961,0.37911124847363104,3.743341043838377,1.4412910471752298,1.899231195449829,-2.863570213317871,-4.403826713562012,1.2875546216964722,0.6226044297218323,-0.17856848239898682,-0.640174845358394,0.316522785704144,-1.7063899996214247,0.24963098764419556,0.597335696220398,-0.7621511816978455
1729110285073,7i,5.233754747691657,0.9s : 0.3s,-11.42436702393961,0.38976459278397874,3.7430804600869654,1.4409894254631361,1.9589773416519165,-2.8738651275634766,-4.379310607910156,1.2662814855575562,0.6506423354148865,-0.2228144407272339,-0.63392037856432,0.2525863513930423,-1.7655986487933486,0.20135463774204254,0.592307984828949,-0.7801458239555359
1729110285083,7i,5.233754747691657,0.9s : 0.3s,-11.42436702393961,0.4007157566115199,3.7462480454481266,1.4345292582743965,1.847113847732544,-2.9766135215759277,-4.389002799987793,1.2530659437179565,0.6414729356765747,-0.2760659456253052,-0.6248775075250146,0.18917327263022196,-1.8236778491136316,0.15251263976097107,0.5849979519844055,-0.7965659499168396
1729110285093,7i,5.233754747691657,0.9s : 0.3s,-11.42436702393961,0.41182761383309435,3.7467088241212063,1.3945384846516684,1.7351170778274536,-3.0502116680145264,-4.375152587890625,1.2616270780563354,0.5580832362174988,-0.2039063572883606,-0.6141202878097974,0.12613415582516643,-1.8803326303060226,0.10281387716531754,0.5762397646903992,-0.8107878565788269
1729110285103,7i,5.233754747691657,0.9s : 0.3s,-11.42436702393961,0.4231282014417645,3.7446892020227898,1.4712371451324713,1.722196340560913,-3.072460174560547,-4.317901611328125,1.3200839757919312,0.6182069778442383,-0.19934183359146118,-0.6011239607739042,0.0642835596198036,-1.935031327515973,0.05297817289829254,0.5655697584152222,-0.8229970335960388
1729110285113,7i,5.233754747691657,0.9s : 0.3s,-11.42436702393961,0.434681795811101,3.7392910911601844,1.4573727643043537,1.7005025148391724,-3.094564437866211,-4.284614086151123,1.301784873008728,0.6247255206108093,-0.1975083351135254,-0.5854584439452537,0.004105118130801339,-1.9875715476828482,0.0034214372280985117,0.5525815486907959,-0.8334518074989319
1729110285123,7i,5.233754747691657,0.9s : 0.3s,-11.42436702393961,0.4461386654371241,3.737492590249104,1.3541923489719,1.7167284488677979,-3.1253926753997803,-4.264554500579834,1.2256232500076294,0.5623117089271545,-0.12445926666259766,-0.5673743444528482,-0.054497374012703145,-2.0380559878258375,-0.04593570530414581,0.5374196767807007,-0.8420629501342773
1729110285133,7i,5.233754747691657,0.9s : 0.3s,-11.42436702393961,0.45767554044867115,3.725110812043436,1.3545452943932264,1.7345637083053589,-3.1272966861724854,-4.201235294342041,1.2098256349563599,0.6024874448776245,-0.09013193845748901,-0.5465947124321615,-0.11111291365649117,-2.0860512657910806,-0.0947284996509552,0.5197811126708984,-0.8490312695503235
1729110285143,7i,5.233754747691657,0.9s : 0.3s,-11.42436702393961,0.46938794365072795,3.7082392279133067,1.3612875106289326,1.6156501770019531,-3.172978162765503,-4.160834312438965,1.2106486558914185,0.6118797659873962,-0.11417824029922485,-0.524124642842313,-0.16572586172709894,-2.1314794960234704,-0.14282332360744476,0.5004553198814392,-0.8539003729820251
1729110285153,7i,5.233754747691657,0.9s : 0.3s,-11.42436702393961,0.4807397295243312,3.686625724139547,1.2772165972791094,1.4369901418685913,-3.2455668449401855,-4.111227512359619,1.1887667179107666,0.46359676122665405,-0.05651521682739258,-0.5013581899112199,-0.2191307104616136,-2.174768999949552,-0.19062823057174683,0.4806170165538788,-0.8559603691101074
1729110285163,7i,5.233754747691657,0.9s : 0.3s,-11.42436702393961,0.491915730110184,3.6686215807855427,1.2714651041409617,1.4459729194641113,-3.2579827308654785,-4.071211338043213,1.1767617464065552,0.4633577764034271,-0.1309766173362732,-0.47747662898742754,-0.2709772058928258,-2.215816027274633,-0.2377358376979828,0.4595395028591156,-0.8557482957839966
1729110285173,7i,5.233754747691657,0.9s : 0.3s,-11.42436702393961,0.5031667465853689,3.6482674020467836,1.281644438896754,1.43716561794281,-3.270935535430908,-4.009339809417725,1.1597023010253906,0.5115777254104614,-0.18971365690231323,-0.45178579503823146,-0.3207894790417437,-2.25422387111617,-0.28367987275123596,0.4365728497505188,-0.8537738919258118
1729110285183,7i,5.233754747691657,0.9s : 0.3s,-11.42436702393961,0.5142708634406576,3.630960582431036,1.224608625783835,1.3151953220367432,-3.352410316467285,-3.966998815536499,1.1294329166412354,0.46216124296188354,-0.10224753618240356,-0.4254010353200021,-0.36940502290346966,-2.2906013337321993,-0.32888051867485046,0.4126861095428467,-0.8494279384613037
1729110285193,7i,5.233754747691657,0.9s : 0.3s,-11.42436702393961,0.5251980203234236,3.6064491321355976,1.221718616215631,1.1575154066085815,-3.3978121280670166,-3.8982927799224854,1.1441468000411987,0.41621753573417664,-0.10142701864242554,-0.3988711455225514,-0.4170199760586904,-2.3250958322117588,-0.37324216961860657,0.3883783519268036,-0.842527449131012
1729110285203,7i,5.233754747691657,0.9s : 0.3s,-11.42436702393961,0.5361451323713174,3.5750559915634077,1.2422630332337774,0.9444451332092285,-3.4485228061676025,-3.8229565620422363,1.1782675981521606,0.3839878737926483,-0.08634942770004272,-0.3729335000000049,-0.46357346886664536,-2.3579658953460827,-0.41641148924827576,0.3643488585948944,-0.8329774141311646
1729110285213,7i,5.233754747691657,0.9s : 0.3s,-11.42436702393961,0.5469161784545647,3.5378494635310753,1.2151757252316533,0.7676323056221008,-3.479642629623413,-3.734138011932373,1.1541168689727783,0.36527812480926514,-0.1060103178024292,-0.3477102430710735,-0.5093610097250085,-2.3893761048462676,-0.45843806862831116,0.3407459855079651,-0.8208085298538208
1729110285223,7i,5.233754747691657,0.9s : 0.3s,-11.42436702393961,0.5577070904945253,3.503197492056402,1.2157764136915608,0.5920383334159851,-3.500298500061035,-3.6894402503967285,1.1448156833648682,0.38428401947021484,-0.14083725214004517,-0.3229934077237664,-0.5541980888159097,-2.419560198228708,-0.4990483522415161,0.3174065947532654,-0.8063521385192871
1729110285233,7i,5.233754747691657,0.9s : 0.3s,-11.42436702393961,0.5682320119220602,3.476811760482121,1.1699550912027272,0.39548537135124207,-3.546297788619995,-3.6615004539489746,1.1226813793182373,0.3057233989238739,-0.12212550640106201,-0.2987687070099159,-0.5984328265945196,-2.449071089683755,-0.5383917689323425,0.2943436801433563,-0.789617657661438
1729110285243,7i,5.233754747691657,0.9s : 0.3s,-11.42436702393961,0.5784642231113304,3.4591132073041844,1.175080124729512,0.23712342977523804,-3.5913240909576416,-3.6357975006103516,1.1454179286956787,0.24449846148490906,-0.09513974189758301,-0.2750704765373995,-0.6423870340421545,-2.4781320950844883,-0.5765855312347412,0.27161476016044617,-0.7705676555633545
1729110285253,7i,5.233754747691657,0.9s : 0.3s,-11.42436702393961,0.5889001603121451,3.430684475854639,1.2841615927301655,0.1750672459602356,-3.545053482055664,-3.5615506172180176,1.233384132385254,0.29968079924583435,-0.19500255584716797,-0.25129551178551507,-0.685396732332622,-2.506192269024706,-0.6130989789962769,0.24865898489952087,-0.7498522400856018
1729110285263,7i,5.233754747691657,0.9s : 0.3s,-11.42436702393961,0.5995633459265999,3.4039061629293967,1.3055994354210347,0.07970544695854187,-3.502072334289551,-3.5548815727233887,1.2591001987457275,0.3015589714050293,-0.16828179359436035,-0.22721600279759416,-0.7270136976104088,-2.533205152859866,-0.6475582718849182,0.2252659648656845,-0.7279585003852844
1729110285273,7i,5.233754747691657,0.9s : 0.3s,-11.42436702393961,0.6102999852828782,3.3635173387420347,1.2543774202816824,0.03999212384223938,-3.454594850540161,-3.4457337856292725,1.2258151769638062,0.24424655735492706,-0.10575199127197266,-0.20297557962885743,-0.7673487721702696,-2.5591444662958516,-0.6799777150154114,0.20158471167087555,-0.7049779891967773
1729110285284,7i,5.233754747691657,0.9s : 0.3s,-11.42436702393961,0.62105454340752,3.314932832784028,1.3084473459901471,0.016935406252741814,-3.4084229469299316,-3.345310926437378,1.284404993057251,0.21556861698627472,-0.1259700059890747,-0.17875335771705697,-0.8063011576898196,-2.5833714856702907,-0.7102318406105042,0.1778029352426529,-0.6811437010765076
1729110285294,7i,5.233754747691657,0.9s : 0.3s,-11.42436702393961,0.631686740488496,3.2544676872372613,1.300912087653579,-0.027001425623893738,-3.3129870891571045,-3.252941846847534,1.2927398681640625,0.1275120973587036,-0.07026064395904541,-0.1547360735365402,-0.843619574958925,-2.606178514140399,-0.7381285429000854,0.1541193276643753,-0.6568207144737244
1729110285304,7i,5.233754747691657,0.9s : 0.3s,-11.42436702393961,0.642258818136518,3.1732655794186835,1.2630052825478155,0.027370069175958633,-3.202836275100708,-3.0857701301574707,1.2626266479492188,0.028226271271705627,0.01263207197189331,-0.13073033984921148,-0.8792843474621626,-2.6272656772434053,-0.7637098431587219,0.1303582787513733,-0.6322610378265381
1729110285314,7i,5.233754747691657,0.9s : 0.3s,-11.42436702393961,0.6527724618006714,3.0852405243270935,1.2656882226884272,0.07663401961326599,-3.1002471446990967,-2.9669547080993652,1.2653447389602661,0.007426247000694275,0.028534531593322754,-0.10677489379380654,-0.913015796230715,-2.645873589297424,-0.7868442535400391,0.10657212138175964,-0.6078802347183228
1729110285324,7i,5.233754747691657,0.9s : 0.3s,-11.42436702393961,0.6631412343143334,2.982365399923711,1.2560618212867005,0.09186570346355438,-2.9638774394989014,-2.812398672103882,1.2493667602539062,-0.09260214865207672,0.09054744243621826,-0.08306932136007042,-0.9449197648298481,-2.662503738768209,-0.8076552748680115,0.08297381550073624,-0.5837878584861755
1729110285334,7i,5.233754747691657,0.9s : 0.3s,-11.42436702393961,0.67326392409155,2.865724033251448,1.2731233936042705,0.0832783430814743,-2.8305041790008545,-2.6312103271484375,1.2338613271713257,-0.2078164964914322,0.23503553867340088,-0.06023937204239656,-0.9749577342511259,-2.6774152509626905,-0.8261768817901611,0.0602029450237751,-0.5601850748062134
1729110285344,7i,5.233754747691657,0.9s : 0.3s,-11.42436702393961,0.6821122505779219,2.735855224772562,1.3012505643290808,0.05890122801065445,-2.702852964401245,-2.417843818664551,1.2192074060440063,-0.3399966359138489,0.3019745349884033,-0.03875202476586757,-1.003307660866567,-2.6906949749248876,-0.8426204323768616,0.03874232620000839,-0.5371125340461731
1729110285354,7i,5.233754747691657,0.9s : 0.3s,-11.42436702393961,0.6898009131825611,2.590336991496889,1.364701267331322,0.03266775980591774,-2.5271317958831787,-2.207829236984253,1.2301123142242432,-0.48644423484802246,0.33556705713272095,-0.0188397361389377,-1.0298122146887736,-2.7025811647367064,-0.8570501804351807,0.01883862167596817,-0.5148884057998657
1729110285364,7i,5.233754747691657,0.9s : 0.3s,-11.42436702393961,0.6964767607675281,2.4304199379579203,1.415582205692653,0.16502566635608673,-2.328446626663208,-1.9922209978103638,1.215423822402954,-0.5757378935813904,0.44175082445144653,-0.0002831602874229062,-1.054203172461696,-2.712399199764527,-0.8695068955421448,0.00028316027601249516,-0.4939207136631012
1729110285374,7i,5.233754747691657,0.9s : 0.3s,-11.42436702393961,0.7023397853989793,2.2531754431180326,1.4386109408101317,0.31973695755004883,-2.1030445098876953,-1.7454197406768799,1.1908706426620483,-0.628341555595398,0.5065722465515137,0.017289227166709,-1.0763390199942757,-2.7192699873831567,-0.8800948262214661,-0.017288366332650185,-0.47448310256004333
1729110285384,7i,5.233754747691657,0.9s : 0.3s,-11.42436702393961,0.707541738359052,2.0523479923550556,1.5215967018998189,0.3596450984477997,-1.8144183158874512,-1.483699083328247,1.2040112018585205,-0.7121937274932861,0.598659873008728,0.03317371382613181,-1.0958111644562984,-2.7237312214278737,-0.8888101577758789,-0.033167630434036255,-0.4570735991001129
1729110285394,7i,5.233754747691657,0.9s : 0.3s,-11.42436702393961,0.7119348880138698,1.8260204338794004,1.63503193924493,0.4046991169452667,-1.5160813331604004,-1.1598789691925049,1.1661087274551392,-0.8489189147949219,0.7699717879295349,0.046712736531503034,-1.1123976136990614,-2.7263569528659497,-0.8957839012145996,-0.04669575020670891,-0.4420299530029297
1729110285404,7i,5.233754747691657,0.9s : 0.3s,-11.42436702393961,0.7157835821948909,1.577111527901323,1.7097285536691815,0.470281183719635,-1.1865342855453491,-0.8216434121131897,1.1749835014343262,-0.9018933176994324,0.8539168238639832,0.057534797485751556,-1.125906561365125,-2.7267081271549327,-0.9011644721031189,-0.05750305950641632,-0.42964625358581543
1729110285414,7i,5.233754747691657,0.9s : 0.3s,-11.42436702393961,0.7192250994801028,1.3082817587183193,1.782836638791672,0.5348157286643982,-0.8296046257019043,-0.4605686068534851,1.1565613746643066,-0.9494504928588867,0.9692347645759583,0.06548888780790324,-1.1360926550817025,-2.7248501408869386,-0.9050506353378296,-0.06544208526611328,-0.4202388823032379
1729110285424,7i,5.233754747691657,0.9s : 0.3s,-11.42436702393961,0.7223807525781121,1.0257449851534843,1.871581664370661,0.5891823768615723,-0.44980472326278687,-0.08352190256118774,1.1513805389404297,-1.0118870735168457,1.073883295059204,0.07024777128884188,-1.1427752378008584,-2.7208704557680883,-0.9075449705123901,-0.07019001245498657,-0.4140474796295166
1729110285434,7i,5.233754747691657,0.9s : 0.3s,-11.42436702393961,0.7254553947923427,0.7359763863462733,1.9730373488068769,0.6099651455879211,-0.02239212766289711,0.31590646505355835,1.1740977764129639,-1.064684271812439,1.1750822067260742,0.07162273488341424,-1.1457186909483166,-2.7149524139441787,-0.9086710214614868,-0.07156151533126831,-0.41133421659469604
1729110285444,7i,5.233754747691657,0.9s : 0.3s,-11.42436702393961,0.7284949658120972,0.6467289730334188,2.0923604904206217,0.743547260761261,0.41919541358947754,0.6835236549377441,1.178839087486267,-1.1562001705169678,1.285111665725708,0.07000756628677383,-1.144344875404537,-2.706884569870897,-0.9082092046737671,-0.0699503943324089,-0.41262945532798767
1729110285454,7i,5.233754747691657,0.9s : 0.3s,-11.42436702393961,0.7318179895373937,0.45372263590346895,2.1150853451770253,0.8704045414924622,0.8569261431694031,1.0671542882919312,1.1898362636566162,-1.1331491470336914,1.3318591117858887,0.06539907700667308,-1.1386911028458875,-2.6958628405511447,-0.906144917011261,-0.06535246968269348,-0.41788819432258606
1729110285464,7i,5.233754747691657,0.9s : 0.3s,-11.42436702393961,0.7359687888463958,0.6053962144815492,2.198533812917358,0.9763908386230469,1.3175204992294312,1.4553868770599365,1.305268406867981,-1.0929601192474365,1.3911374807357788,0.057874872486939656,-1.1286673289250486,-2.682098961607643,-0.9023295640945435,-0.057842567563056946,-0.42714837193489075
1729110285474,7i,5.233754747691657,0.9s : 0.3s,-11.42436702393961,0.741131546546498,0.9319801320020622,2.2878276436231038,1.0136356353759766,1.7785627841949463,1.8408232927322388,1.3837292194366455,-1.1119847297668457,1.4432389736175537,0.04735004545873078,-1.1140134997998934,-2.6659515356554957,-0.8964701890945435,-0.04733235388994217,-0.4405687153339386
1729110285484,7i,5.233754747691657,0.9s : 0.3s,-11.42436702393961,0.747496440917662,1.3151261634731106,2.400725466821922,1.096176266670227,2.2579946517944336,2.2560765743255615,1.483330488204956,-1.1418362855911255,1.5031378269195557,0.033798860009641635,-1.0946004566108367,-2.647355956723049,-0.8882375359535217,-0.03379242494702339,-0.4581397771835327
1729110285494,7i,5.233754747691657,0.9s : 0.3s,-11.42436702393961,0.7554652721550807,1.7282809492224214,2.4866416552700734,1.228858232498169,2.7699434757232666,2.6826953887939453,1.647918462753296,-1.1310864686965942,1.4793224334716797,0.017443433572941286,-1.0700479576688493,-2.6254766994582606,-0.8770900368690491,-0.017442548647522926,-0.4800091087818146
1729110285504,7i,5.233754747691657,0.9s : 0.3s,-11.42436702393961,0.7653329111782311,2.1585700003424044,2.5904774862995072,1.3537958860397339,3.2992751598358154,3.108907699584961,1.8142975568771362,-1.1163612604141235,1.473986268043518,-0.001355682829026599,-1.039919469921555,-2.599992635738194,-0.8623626828193665,0.0013556823832914233,-0.5062892436981201
1729110285514,7i,5.233754747691657,0.9s : 0.3s,-11.42436702393961,0.7772891388472031,2.6039253138903353,2.7577982775114793,1.4893900156021118,3.8533568382263184,3.5386195182800293,1.9989538192749023,-1.1543775796890259,1.508988857269287,-0.022299376672871088,-1.0038106426911788,-2.570545455551155,-0.8433140516281128,0.022297529503703117,-0.5369583368301392
1729110285524,7i,5.233754747691657,0.9s : 0.3s,-11.42436702393961,0.7916599161963629,3.0625883557582156,2.9412727370916714,1.5839017629623413,4.423256874084473,3.994364023208618,2.2277774810791016,-1.1618969440460205,1.529080867767334,-0.04509090182616637,-0.9612702205798229,-2.5368066712486925,-0.8190860152244568,0.04507562518119812,-0.5718970894813538
1729110285534,7i,5.233754747691657,0.9s : 0.3s,-11.42436702393961,0.8088558551616002,3.5308065375613693,3.1783636901465835,1.6551752090454102,5.013764381408691,4.437294960021973,2.5115814208984375,-1.1673988103866577,1.5592095851898193,-0.06937087259218756,-0.9118842738486536,-2.4987859329489077,-0.7887570858001709,0.06931524723768234,-0.6107844114303589
1729110285544,7i,5.233754747691657,0.9s : 0.3s,-11.42436702393961,0.8293161139462686,4.011408075464395,3.4508391195372585,1.707621455192566,5.62583065032959,4.903558731079102,2.8308568000793457,-1.1519019603729248,1.6023926734924316,-0.09477755422157338,-0.8551729973524638,-2.4560079633952148,-0.7512973546981812,0.0946357250213623,-0.6531434059143066
1729110285554,7i,5.233754747691657,0.9s : 0.3s,-11.42436702393961,0.8534181710763801,4.50710287532695,3.742588805699044,1.7406978607177734,6.26267671585083,5.394306659698486,3.168025016784668,-1.1255435943603516,1.6443053483963013,-0.12083246943322083,-0.7905770515674808,-2.4080838937589726,-0.7055768966674805,0.12053865194320679,-0.6983062624931335
1729110285564,7i,5.233754747691657,0.9s : 0.3s,-11.42436702393961,0.8814632019944798,5.023996870085954,4.077544167145613,1.7994416952133179,6.926401615142822,5.9232916831970215,3.5307350158691406,-1.1360394954681396,1.6940162181854248,-0.14666605615522188,-0.7174538901481596,-2.354271968715445,-0.6504096388816833,0.14614079892635345,-0.7453926205635071
1729110285574,7i,5.233754747691657,0.9s : 0.3s,-11.42436702393961,0.9140947121402124,5.5742605854784335,4.5084827826104625,1.691673994064331,7.737679481506348,6.476041316986084,4.036504745483398,-1.118431806564331,1.6679798364639282,-0.17171888833156582,-0.63464659356642,-2.294101379974626,-0.5841729640960693,0.17087620496749878,-0.7934376001358032
1729110285584,7i,5.233754747691657,0.9s : 0.3s,-11.42436702393961,0.9523551169922244,6.191478333076643,5.151651472069816,1.3935104608535767,8.700124740600586,7.226276397705078,4.710394382476807,-1.1084258556365967,1.7672265768051147,-0.1966661439876158,-0.5403716401862826,-2.227481324119754,-0.50453782081604,0.19540083408355713,-0.8409875631332397
1729110285594,7i,5.233754747691657,0.9s : 0.3s,-11.42436702393961,0.9977761076397255,6.90349339724877,6.034336163217436,0.8595045804977417,9.897716522216797,8.083980560302734,5.597495079040527,-1.0630251169204712,1.9877724647521973,-0.22233840443741984,-0.43190901810346627,-2.1527498875478566,-0.40830108523368835,0.2205110639333725,-0.8858132362365723
1729110285604,7i,5.233754747691657,0.9s : 0.3s,-11.42436702393961,1.0519742021889196,7.693600359875624,7.096318059832345,0.15826457738876343,11.183465003967285,8.879916191101074,6.652487277984619,-1.0498441457748413,2.2360613346099854,-0.24835803341092838,-0.3071828739786316,-2.0694588685938804,-0.2930969297885895,0.24581269919872284,-0.9239428043365479
1729110285614,7i,5.233754747691657,0.9s : 0.3s,-11.42436702393961,1.1159981847405942,8.547861359283822,8.111003594434582,-0.5784869194030762,12.428057670593262,9.717767715454102,7.741332530975342,-1.0206433534622192,2.195093870162964,-0.2727934062816048,-0.16478435392660706,-1.9768256508747115,-0.1579737663269043,0.26942259073257446,-0.9499766826629639
1729110285624,7i,5.233754747691657,0.9s : 0.3s,-11.42436702393961,1.1911616152081537,9.408289233685254,9.245532351981272,-1.19175386428833,13.49606704711914,10.401694297790527,9.034858703613281,-0.6803916096687317,1.8407237529754639,-0.2903021888436636,-0.0060119556194556,-1.8729832755283264,-0.005760365165770054,0.2862417697906494,-0.9581400752067566
1729110285634,7i,5.233754747691657,0.9s : 0.3s,-11.42436702393961,1.2793639815680653,10.228668566510448,10.698856136353282,-2.3997559547424316,14.453397750854492,10.801889419555664,10.618348121643066,0.1815343201160431,1.2974016666412354,-0.29878236477369735,0.16657712574099776,-1.7607523435159396,0.1584618240594864,0.29435673356056213,-0.9424669742584229
1729110285644,7i,5.233754747691657,0.9s : 0.3s,-11.42436702393961,1.3805109954875703,10.938242084097707,11.820346937652328,-5.165041446685791,14.813045501708984,10.879873275756836,11.715158462524414,1.2522914409637451,0.9525912404060364,-0.3070612380126692,0.34893267652841103,-1.6411820719903976,0.32590317726135254,0.3022586405277252,-0.8957827687263489
1729110285654,7i,5.233754747691657,0.9s : 0.3s,-11.42436702393961,1.4946550864373152,11.587664225590952,13.031628194254534,-8.836067199707031,14.131823539733887,11.467137336730957,12.816710472106934,2.1824355125427246,0.8900793790817261,-0.3221946235913773,0.5369919340225366,-1.5033132946093468,0.4852305054664612,0.31664901971817017,-0.8150366544723511
1729110285664,7i,5.233754747691657,0.9s : 0.3s,-11.42436702393961,1.6232279567209087,12.02900730095479,14.829260769088272,-12.544503211975098,11.815315246582031,11.435382843017578,14.316827774047852,3.842926025390625,0.4090684652328491,-0.3408675186932766,0.7211252455355283,-1.3385131431079829,0.6222438216209412,0.3343048095703125,-0.7078508138656616
1729110285674,7i,5.233754747691657,0.9s : 0.3s,-11.42436702393961,1.7641683615440555,12.416175537050224,16.03018754878416,-16.506240844726562,8.169374465942383,11.679037094116211,14.754546165466309,6.257911682128906,-0.32988131046295166,-0.35857975656632407,0.8897408631699856,-1.1431932168898782,0.7274942398071289,0.3509446680545807,-0.5895675420761108
1729110285684,7i,5.233754747691657,0.9s : 0.3s,-11.42436702393961,1.9135077815091315,13.25014221820778,16.752263848671024,-21.643815994262695,3.809525966644287,12.740455627441406,14.223895072937012,8.803168296813965,-0.9074034094810486,-0.37350009840748594,1.0374129920858755,-0.9067723981305632,0.8017245531082153,0.3648764491081238,-0.4733950197696686
1729110285694,7i,5.233754747691657,0.9s : 0.3s,-11.42436702393961,2.066134828586013,14.716520066774141,16.892223828121107,-26.623882293701172,-0.8447397947311401,13.509499549865723,12.622055053710938,11.21516227722168,-0.5010859966278076,-0.37670694162185364,1.1608802799074944,-0.6144132359504711,0.8528442978858948,0.3678603172302246,-0.37058761715888977
1729110285704,7i,5.233754747691657,0.9s : 0.3s,-11.42436702393961,2.2163279647342606,16.11493435693738,16.741276157284297,-26.114158630371094,-4.387102127075195,15.483242988586426,10.0267915725708,13.370250701904297,0.9849742650985718,-0.33761933452479437,1.2468127303619616,-0.2928794312312821,0.8944576978683472,0.33124175667762756,-0.30037352442741394
1729110285714,7i,5.233754747691657,0.9s : 0.3s,-11.42436702393961,2.3594190217466884,16.134713420092506,16.25604175471185,-18.517831802368164,-4.606457710266113,16.311283111572266,7.376133918762207,14.345425605773926,2.0150201320648193,-0.247690407848942,1.2805643352587566,-0.02722455779350228,0.9289350509643555,0.24516551196575165,-0.27744078636169434
1729110285724,7i,5.233754747691657,0.9s : 0.3s,-11.42436702393961,2.4907335530695205,16.058709405433433,16.905928560794948,-18.845382690429688,-3.3143208026885986,14.334041595458984,4.059162616729736,16.358707427978516,1.3138914108276367,-0.15421700047336673,1.2831574042550653,0.1972521847271737,0.9475359320640564,0.15360644459724426,-0.2803221046924591
1729110285734,7i,5.233754747691657,0.9s : 0.3s,-11.42436702393961,2.6043066286859626,17.9191764944388,12.867058939775207,-29.574113845825195,-4.284193992614746,15.245282173156738,1.1708030700683594,12.159482955932617,4.04195499420166,-0.08354958038501463,1.2796654278154944,0.46266622684746056,0.9545783400535583,0.08345241099596024,-0.2860344350337982
1729110285744,7i,5.233754747691657,0.9s : 0.3s,-11.42436702393961,2.693109338527508,17.99598872916789,2.782209556975374,-29.48392677307129,-11.191679000854492,-0.7534806728363037,1.2171156406402588,2.5018229484558105,0.01419404149055481,0.002708032015664139,1.2564836330910176,0.6213069200438638,0.9510054588317871,-0.002708028769120574,-0.3091617226600647
1729110285754,7i,5.233754747691657,0.9s : 0.3s,-11.42436702393961,2.748449877995345,19.95062089667498,15.376632540424238,-34.017616271972656,-16.8259334564209,4.357470512390137,2.0784199237823486,-13.991941452026367,6.028811931610107,-0.16404802105869826,1.1461499639679766,0.9739974778703002,0.8989511728286743,0.16331321001052856,-0.4064671993255615
1729110285764,7i,5.233754747691657,0.9s : 0.3s,-11.42436702393961,2.8615542086203747,16.461548608756452,28.676076250082673,-11.553702354431152,-0.41961249709129333,5.641772270202637,13.369824409484863,18.705398559570312,17.13689613342285,-0.1824375823690241,1.100763939026023,1.1711567122700528,0.8767577409744263,0.1814272403717041,-0.44539874792099
1729110285774,7i,5.233754747691657,0.9s : 0.3s,-11.42436702393961,2.9659012395690114,16.5272253419438,10.951614718604644,-25.74212646484375,-7.996975898742676,-7.230376243591309,6.075308322906494,7.069921970367432,-5.7484517097473145,-0.2877624314151951,1.0747673364819932,1.3495695658489548,0.8433163166046143,0.2838073670864105,-0.4563669264316559
1729110285784,7i,5.233754747691657,0.9s : 0.3s,-11.42436702393961,3.0149862428187233,14.08104566180431,13.885826601585899,-10.383756637573242,-9.688161849975586,-5.31953763961792,-7.99951171875,-5.192256927490234,10.092792510986328,-0.4276798240431032,1.028552730088181,1.4908764222324333,0.7794036865234375,0.4147607088088989,-0.4695778489112854
1729110285794,7i,5.233754747691657,0.9s : 0.3s,-11.42436702393961,3.0792763477416325,12.982871940042168,10.007415002077842,-13.110897064208984,-8.577048301696777,-5.701054096221924,5.577701568603516,6.713360786437988,4.895751953125,-0.5295498765910873,0.9795548673516469,1.5711023613012858,0.7165338397026062,0.5051448941230774,-0.48104870319366455
1729110285804,7i,5.233754747691657,0.9s : 0.3s,-11.42436702393961,3.151828776179086,11.984917929743741,9.675632983195696,-9.361109733581543,-10.69749641418457,-9.275337219238281,4.531160354614258,7.466078281402588,4.164628982543945,-0.6592635367002113,0.9132339350257725,1.628926847501178,0.6256237626075745,0.6125348806381226,-0.4831106662750244
1729110285814,7i,5.233754747691657,0.9s : 0.3s,-11.42436702393961,3.2001404647941647,11.460401338926399,4.0978363441327215,-8.254472732543945,-11.07513427734375,-10.205131530761719,-2.2182700634002686,0.5320611596107483,3.404181480407715,-0.7915431798119861,0.8061743898264113,1.6314132504006764,0.5071341395378113,0.7114385962486267,-0.4864874482154846
1729110285824,7i,5.233754747691657,0.9s : 0.3s,-11.42436702393961,3.236944898164319,11.099298143617311,3.259530643565603,-6.518123149871826,-11.560564994812012,-10.140201568603516,-0.5723637938499451,3.172869920730591,-0.479412317276001,-0.9152354368819456,0.6624355021181647,1.5912729835198531,0.3749302923679352,0.7927061319351196,-0.4806707203388214
1729110285834,7i,5.233754747691657,0.9s : 0.3s,-11.42436702393961,3.2671020655451177,11.17153332577266,1.7691826507845458,-6.831338882446289,-11.819894790649414,-11.26402473449707,0.5678681135177612,1.6755309104919434,-0.011367738246917725,-1.0283264019759153,0.4632693038810047,1.4917977961404034,0.2307005673646927,0.8564361929893494,-0.4618378281593323
1729110285844,7i,5.233754747691657,0.9s : 0.3s,-11.42436702393961,3.292091104183551,11.335206058273434,1.2634175149387168,-6.541142463684082,-11.66145133972168,-11.984307289123535,1.2589032649993896,0.08978062868118286,-0.05766996741294861,-1.1304140955853228,0.17516190074679577,1.299021171203667,0.07428766787052155,0.9045888185501099,-0.4197622537612915
1729110285854,7i,5.233754747691657,0.9s : 0.3s,-11.42436702393961,3.3178379773714672,11.392792454227985,2.515525597407555,-4.788390636444092,-11.048616409301758,-13.078137397766113,1.8950001001358032,1.6109800338745117,0.37628045678138733,-1.1832909432510628,-0.24303934440263494,0.9660917764376392,-0.09093817323446274,0.9258546233177185,-0.36677423119544983
1729110285864,7i,5.233754747691657,0.9s : 0.3s,-11.42436702393961,3.3476091011558538,11.2916205651548,3.7839583506125773,-1.750048279762268,-9.819175720214844,-14.40505599975586,2.3987417221069336,2.870441436767578,0.5700393915176392,-1.1490988117134353,-0.6840756304244657,0.5988634601211742,-0.25866615772247314,0.9123954176902771,-0.31721654534339905
1729110285874,7i,5.233754747691657,0.9s : 0.3s,-11.42436702393961,3.386656782836376,10.988544719479496,5.967664016809631,1.4768695831298828,-8.416865348815918,-14.362210273742676,3.4379496574401855,4.674778938293457,1.3928236961364746,-1.040125765367085,-0.966819060824908,0.38341279312891474,-0.4165721833705902,0.862467885017395,-0.2874312996864319
1729110285884,7i,5.233754747691657,0.9s : 0.3s,-11.42436702393961,3.4354563922563606,10.657881083076338,6.42984790244624,3.124279499053955,-6.658914566040039,-14.24998950958252,5.613879203796387,3.008225202560425,0.8819781541824341,-0.9044515218886078,-1.11864740783992,0.29111986510480736,-0.5560023784637451,0.7860862612724304,-0.2700549066066742
1729110285894,7i,5.233754747691657,0.9s : 0.3s,-11.42436702393961,3.4878680896969003,10.25367323272718,5.778530600153048,3.855586051940918,-5.488699436187744,-13.19781494140625,5.521924018859863,0.7541922330856323,1.526749849319458,-0.7636714763899641,-1.2034602345923877,0.25823611087972875,-0.6741150617599487,0.6915780305862427,-0.2594006061553955
1729110285904,7i,5.233754747691657,0.9s : 0.3s,-11.42436702393961,3.5443228447660853,9.848702909263887,6.169832994811101,4.58746862411499,-4.945651054382324,-12.207523345947266,5.448023319244385,1.2828738689422607,2.5961732864379883,-0.6303472585619302,-1.2581264310703697,0.25422892026732796,-0.7686561942100525,0.5894253253936768,-0.2484864741563797
1729110285914,7i,5.233754747691657,0.9s : 0.3s,-11.42436702393961,3.6024304120440225,9.485783737604352,5.87040622534292,5.6283416748046875,-4.601613998413086,-11.348396301269531,5.536364555358887,0.803551197052002,1.7789441347122192,-0.5030250514669381,-1.2968056234785281,0.2711946094540057,-0.8434476852416992,0.48207807540893555,-0.23705878853797913
1729110285924,7i,5.233754747691657,0.9s : 0.3s,-11.42436702393961,3.658687843502112,9.176511393926706,5.103534596767283,6.5203752517700195,-4.251451015472412,-10.586881637573242,5.037102222442627,0.3357977271080017,0.7489368915557861,-0.38142190533432324,-1.3260417923862617,0.30622714953786256,-0.9004749059677124,0.3722405731678009,-0.22490431368350983
1729110285934,7i,5.233754747691657,0.9s : 0.3s,-11.42436702393961,3.7130204332510157,8.878884044747185,4.76760670453046,6.736006736755371,-3.8916733264923096,-9.878335952758789,4.621506690979004,0.500205397605896,1.0590298175811768,-0.2665031853702041,-1.3532337549657285,0.3492180720858802,-0.9419563412666321,0.2633596956729889,-0.20823027193546295
1729110285944,7i,5.233754747691657,0.9s : 0.3s,-11.42436702393961,3.764945569883039,8.538070160023864,4.596067878127663,6.801088809967041,-3.4424233436584473,-9.032712936401367,4.18438196182251,0.11928775906562805,1.8975136280059814,-0.1607462533896414,-1.3797105975122763,0.3978289537959432,-0.96914142370224,0.16005487740039825,-0.1874764859676361
1729110285954,7i,5.233754747691657,0.9s : 0.3s,-11.42436702393961,3.8142498247219163,8.14437997607852,4.549569622801991,6.553863525390625,-3.2768828868865967,-8.131684303283691,4.010100841522217,-0.33503878116607666,2.12259840965271,-0.0646523387481545,-1.4074910692144584,0.4492641969495918,-0.9846339225769043,0.06460730731487274,-0.16224071383476257
1729110285964,7i,5.233754747691657,0.9s : 0.3s,-11.42436702393961,3.860758377575274,7.782022640414334,4.153489470934299,6.577579498291016,-3.105837345123291,-7.5381598472595215,3.680870294570923,-0.25301989912986755,1.9075244665145874,0.022540472352023923,-1.438348841272384,0.5021494668652232,-0.9909898042678833,-0.0225385632365942,-0.1320270299911499
1729110285974,7i,5.233754747691657,0.9s : 0.3s,-11.42436702393961,3.9035740885109114,7.441589274900731,3.523017268429057,6.889846324920654,-2.870241165161133,-6.763463497161865,3.227753162384033,-0.2576308250427246,1.3881233930587769,0.10144504818811609,-1.4718288427893989,0.560864721286711,-0.989990770816803,-0.1012711375951767,-0.09829803556203842
1729110285984,7i,5.233754747691657,0.9s : 0.3s,-11.42436702393961,3.9434692645064002,7.14948079759081,3.235002076316113,7.2721686363220215,-2.6716396808624268,-6.057473659515381,2.976156234741211,0.07389131188392639,1.2658090591430664,0.17131620087946578,-1.5085033708643856,0.6270145456444208,-0.9834501147270203,-0.1704794317483902,-0.06134137883782387
1729110285994,7i,5.233754747691657,0.9s : 0.3s,-11.42436702393961,3.9817346337809285,6.895178647381844,3.2384137578708945,7.430891990661621,-2.3120648860931396,-5.567613124847412,2.835675001144409,0.509452223777771,1.4787594079971313,0.23270774814430661,-1.5478996727893612,0.699174823460906,-0.972790539264679,-0.2306131273508072,-0.02227754145860672
1729110286004,7i,5.233754747691657,0.9s : 0.3s,-11.42436702393961,4.018188740254141,6.618038635554618,3.1208273665758264,7.4276299476623535,-2.033578634262085,-4.8052568435668945,2.5954995155334473,0.3939223289489746,1.687533974647522,0.2847798762986541,-1.589316261658064,0.7760632543325088,-0.95955890417099,-0.28094619512557983,0.01777300052344799
1729110286014,7i,5.233754747691657,0.9s : 0.3s,-11.42436702393961,4.052492013560124,6.380630842698866,2.9485752662184854,7.4921441078186035,-1.7658462524414062,-4.347743988037109,2.387697696685791,0.1662958860397339,1.72201669216156,0.328047083447133,-1.632228223289229,0.8560710247919788,-0.9448874592781067,-0.3221948742866516,0.058119356632232666
1729110286024,7i,5.233754747691657,0.9s : 0.3s,-11.42436702393961,4.084061310717159,6.179853806708046,2.5055416127737447,7.615748405456543,-1.517514944076538,-3.846287488937378,2.0395727157592773,0.1851719617843628,1.4434657096862793,0.3623778588964564,-1.6768704873470652,0.9396556996647923,-0.929800808429718,-0.35449865460395813,0.09899942576885223
1729110286034,7i,5.233754747691657,0.9s : 0.3s,-11.42436702393961,4.113278855141297,6.043846203322369,2.2240927180056533,7.894202709197998,-1.2439824342727661,-3.4196205139160156,1.8636329174041748,0.4434611201286316,1.1299570798873901,0.38834476385375866,-1.7228609858935433,1.0272455071844495,-0.9148566126823425,-0.37865695357322693,0.140199676156044
1729110286044,7i,5.233754747691657,0.9s : 0.3s,-11.42436702393961,4.140360522263638,5.89088058345669,2.076804685247474,7.83514404296875,-0.9770103693008423,-2.8633227348327637,1.6694469451904297,0.49953049421310425,1.129837989807129,0.4054286358912596,-1.7689401563725289,1.1176667654908392,-0.9009532928466797,-0.39441269636154175,0.18089188635349274
1729110286054,7i,5.233754747691657,0.9s : 0.3s,-11.42436702393961,4.1658123022026725,5.583373163633892,2.1493788197538333,6.860429763793945,-0.6036178469657898,-2.5250868797302246,1.6335060596466064,0.32003113627433777,1.3598041534423828,0.4150516636259058,-1.8101172685803135,1.2021485526359774,-0.8890143036842346,-0.4032371938228607,0.21691691875457764
1729110286064,7i,5.233754747691657,0.9s : 0.3s,-11.42436702393961,4.189215003254984,5.224678519356312,2.0924184838468944,6.249764442443848,-0.3897569477558136,-2.105842351913452,1.386784315109253,0.03248167037963867,1.566521406173706,0.4210484088710013,-1.845390580312338,1.2774804580639896,-0.8784682154655457,-0.4087175130844116,0.2474738359451294
1729110286074,7i,5.233754747691657,0.9s : 0.3s,-11.42436702393961,4.210483218103742,4.915221830738635,1.842230612659709,6.120945453643799,-0.13917987048625946,-1.6433124542236328,1.1876778602600098,0.04457181692123413,1.4075682163238525,0.42097053231290193,-1.877072570304268,1.3482717226138143,-0.8702186346054077,-0.40864643454551697,0.2751862108707428
1729110286084,7i,5.233754747691657,0.9s : 0.3s,-11.42436702393961,4.229435789438526,4.628288977318699,1.5051804517318634,5.845437049865723,0.010136032477021217,-1.285759687423706,0.9784977436065674,0.06887340545654297,1.141650915145874,0.4160711336707068,-1.9049623781537426,1.4154761731596182,-0.8640871047973633,-0.4041699171066284,0.29999926686286926
1729110286094,7i,5.233754747691657,0.9s : 0.3s,-11.42436702393961,4.245819658077819,4.410913327313318,1.3156634317327782,5.831651210784912,0.26098448038101196,-0.9604242444038391,0.6806280612945557,0.016314059495925903,1.1258106231689453,0.40680599694388564,-1.929222886298317,1.4794067066749608,-0.8600256443023682,-0.39567801356315613,0.322172075510025
1729110286104,7i,5.233754747691657,0.9s : 0.3s,-11.42436702393961,4.259991521706569,4.219506529698492,1.1549349927156065,5.662038803100586,0.5192475318908691,-0.6635866761207581,0.5161108374595642,0.13255000114440918,1.0246633291244507,0.3936779764320137,-1.9492581377068803,1.5409422186071027,-0.8581519722938538,-0.38358762860298157,0.3412271738052368
