timestamp,club,max_speed,tempo,w.rotation,l.speed,t.spped,acc,rotation.x,rotation.y,rotation.z,userAcceleration.x,userAcceleration.y,userAcceleration.z,pitch,roll,yaw,gravity.x,gravity.y,gravity.z
1729110471475,7i,4.496974299657762,0.9s : 0.3s,-6.2591876977831475,2.2227271676137322e-05,0.013673795511478749,0.009706484512700881,0.021375959739089012,-0.03047073632478714,-0.003074931912124157,-0.005565822124481201,0.0068295300006866455,0.004073694348335266,-0.21686646356519615,1.3833440534450645,0.17981930972670243,0.9594689011573792,0.21517054736614227,-0.18199126422405243
1729110471485,7i,4.496974299657762,0.9s : 0.3s,-6.2591876977831475,4.2896214204358804e-05,0.01261244046303343,0.005868604487373433,0.017227821052074432,-0.026472534984350204,-0.0010040579363703728,-0.00371551513671875,0.003375828266143799,0.003039613366127014,-0.21696554629110937,1.3830181558621233,0.17961198257242988,0.9593886137008667,0.21526730060577393,-0.18229995667934418
1729110471495,7i,4.496974299657762,0.9s : 0.3s,-6.2591876977831475,6.0972746398595435e-05,0.011959460426579027,0.006975987183489231,0.010459396056830883,-0.026954034343361855,-0.0027825171127915382,-0.0030859708786010742,0.0025168508291244507,0.005727708339691162,-0.2170483289290392,1.3827575577057478,0.17948016772469563,0.9593236446380615,0.21534815430641174,-0.18254666030406952
1729110471505,7i,4.496974299657762,0.9s : 0.3s,-6.2591876977831475,7.746132983946573e-05,0.011485066692928023,0.00735189184851587,0.00587076973170042,-0.025552945211529732,-0.0023542805574834347,-0.004575252532958984,0.0003676861524581909,0.005743011832237244,-0.2171553507529382,1.3825144546320332,0.1794040843386504,0.959256649017334,0.2154526561498642,-0.1827755570411682
1729110471515,7i,4.496974299657762,0.9s : 0.3s,-6.2591876977831475,9.311820930161961e-05,0.011056987603310142,0.004692471635333981,0.0023822947405278683,-0.02217738889157772,-0.0016618589870631695,-0.003365159034729004,-0.001738026738166809,0.00277024507522583,-0.21728032210422873,1.3822995499875137,0.1793650876365523,0.9591909050941467,0.2155746966600418,-0.18297666311264038
1729110471525,7i,4.496974299657762,0.9s : 0.3s,-6.2591876977831475,0.00011015920083733144,0.07186034434633817,0.008054137840766007,0.005799929611384869,-0.11113211512565613,0.36450400948524475,-0.006515979766845703,-0.002225354313850403,0.00417838990688324,-0.21691999966396341,1.3820079685352462,0.17942328661610962,0.9592137932777405,0.21522283554077148,-0.1832709014415741
1729110471535,7i,4.496974299657762,0.9s : 0.3s,-6.2591876977831475,0.00011390934608316347,0.2255072175062918,0.022818131810350615,0.10331583023071289,-0.27760419249534607,0.8189011216163635,0.021540343761444092,0.002277657389640808,0.007175862789154053,-0.21762141368799812,1.3818440349771601,0.1793546416199629,0.9590350985527039,0.2159077525138855,-0.1833997368812561
1729110471545,7i,4.496974299657762,0.9s : 0.3s,-6.2591876977831475,0.00026391230223496404,0.22919711850898158,0.05772381169845025,0.0800376683473587,-0.2954566776752472,0.24593283236026764,-0.05744588375091553,-0.005082845687866211,-0.0024846643209457397,-0.2185494319190476,1.3821247419292695,0.17929740198411295,0.9588892459869385,0.21681378781795502,-0.18309283256530762
1729110471555,7i,4.496974299657762,0.9s : 0.3s,-6.2591876977831475,0.0004405265489513197,0.15266174110310526,0.015237398012667363,-0.0025797069538384676,-0.09558404982089996,-0.11295502632856369,-0.01126188039779663,0.009985402226448059,0.002374887466430664,-0.2182131670456466,1.3819246203541506,0.17935400655181816,0.9589241743087769,0.21648551523685455,-0.18329842388629913
1729110471565,7i,4.496974299657762,0.9s : 0.3s,-6.2591876977831475,0.0005910081995098497,0.10867485459169529,0.010687286753684633,-0.009081282652914524,-0.025324534624814987,-0.008522361516952515,0.010051548480987549,-0.0017059147357940674,0.0032053589820861816,-0.2181069126494006,1.381651823921746,0.17940416814377028,0.9588967561721802,0.21638177335262299,-0.18356433510780334
1729110471575,7i,4.496974299657762,0.9s : 0.3s,-6.2591876977831475,0.0007360821419543906,0.08029154753571253,0.009478554089296093,0.006317514926195145,-0.017953835427761078,0.011005766689777374,-0.00839853286743164,-0.0029675960540771484,-0.003240525722503662,-0.21828960992255453,1.381460033270032,0.17939213360148226,0.9588226675987244,0.21656014025211334,-0.1837407797574997
1729110471585,7i,4.496974299657762,0.9s : 0.3s,-6.2591876977831475,0.0008606686458889079,0.05796645760923475,0.006754163951591789,0.010538225993514061,-0.015706971287727356,-0.005495346151292324,0.006058990955352783,0.0027170926332473755,-0.0012348145246505737,-0.21828091422524432,1.3813260073353968,0.17933737452728898,0.9587998986244202,0.21655164659023285,-0.18386965990066528
1729110471595,7i,4.496974299657762,0.9s : 0.3s,-6.2591876977831475,0.0009797423848289433,0.0429624052251669,0.011068039190301304,-0.0003575652663130313,-0.017428439110517502,-0.0014401508960872889,-0.006797313690185547,-0.008672133088111877,0.0010450482368469238,-0.21825604155771286,1.3811773012355666,0.17928187940258664,0.9587778449058533,0.21652737259864807,-0.1840132474899292
1729110471605,7i,4.496974299657762,0.9s : 0.3s,-6.2591876977831475,0.001088401916682251,0.03204950469653372,0.014711716141998154,-0.011634054593741894,-0.01562889665365219,-0.001828872598707676,-0.0016301274299621582,-0.013472050428390503,0.005681648850440979,-0.21826488138986594,1.3810517220936978,0.17934319492800713,0.9587528109550476,0.2165360003709793,-0.18413327634334564
1729110471615,7i,4.496974299657762,0.9s : 0.3s,-6.2591876977831475,0.0011932080259222867,0.027282258077895725,0.014364961968719326,-0.013737153261899948,-0.013470937497913837,-0.0026943995617330074,-0.005708158016204834,-0.012176573276519775,0.005049765110015869,-0.2182820682393701,1.3810097993362158,0.1794999851418813,0.9587415456771851,0.21655277907848358,-0.18417279422283173
1729110471625,7i,4.496974299657762,0.9s : 0.3s,-6.2591876977831475,0.0012943744089210787,0.023790934747098317,0.007376421306308468,-0.002639761194586754,-0.013282563537359238,-0.00403190590441227,-0.00495457649230957,-0.003878071904182434,0.0038502365350723267,-0.21839378175283092,1.3807760071931998,0.179553430441228,0.9586745500564575,0.21666184067726135,-0.18439233303070068
1729110471635,7i,4.496974299657762,0.9s : 0.3s,-6.2591876977831475,0.0013917250231228829,0.02101446852310516,0.007023820692309239,-0.0019116528565064073,-0.009703541174530983,0.0007524630054831505,-0.0044669508934021,-0.0021925270557403564,0.004957139492034912,-0.2185115929485966,1.3806669154686886,0.17956455633246632,0.9586294889450073,0.21677684783935547,-0.1844921112060547
1729110471645,7i,4.496974299657762,0.9s : 0.3s,-6.2591876977831475,0.001480796126875483,0.019722463573652205,0.006715477395601678,-0.0010190944885835052,-0.01398222055286169,-0.0005293495487421751,-4.965066909790039e-05,-0.005614221096038818,0.003684520721435547,-0.21848417331465422,1.3805948891500153,0.17959731646996072,0.9586219191551208,0.21675008535385132,-0.18456226587295532
1729110471655,7i,4.496974299657762,0.9s : 0.3s,-6.2591876977831475,0.0015621159330489111,0.018309563907775724,0.003787139055346877,0.003674993058666587,-0.009986680001020432,-0.0011522627901285887,2.294778823852539e-05,-0.0036235004663467407,0.001100972294807434,-0.21847687149297587,1.3804410563774856,0.17957600757657813,0.9585950970649719,0.21674294769763947,-0.18471002578735352
1729110471675,7i,4.496974299657762,0.9s : 0.3s,-6.2591876977831475,0.0016722255530159076,0.1103828659966072,0.02942981228816504,0.0027522079180926085,-0.13152368366718292,0.48644813895225525,-0.028693974018096924,-0.0064561814069747925,0.0010427981615066528,-0.21775234762234066,1.3801029101593834,0.17964340214038513,0.9586864709854126,0.21603558957576752,-0.18506386876106262
1729110471665,7i,4.496974299657762,0.9s : 0.3s,-6.2591876977831475,0.0017755514868284658,0.0773331412343898,0.0043754675892358,0.000727939186617732,-0.009309882298111916,-0.003202763618901372,-0.0028526782989501953,-0.0031450390815734863,0.0010562539100646973,-0.21850257806676707,1.3803432810273797,0.17954940928243254,0.9585716128349304,0.2167680561542511,-0.18480271100997925
1729110471685,7i,4.496974299657762,0.9s : 0.3s,-6.2591876977831475,0.002236244282383296,0.3443381174163536,0.11615349160486217,0.0681258887052536,-0.4338800609111786,1.3737287521362305,-0.11375510692596436,-0.02323661744594574,0.003386572003364563,-0.21810748778173614,1.3800622257373905,0.17966381308216076,0.9586036205291748,0.21638233959674835,-0.18508833646774292
1729110471695,7i,4.496974299657762,0.9s : 0.3s,-6.2591876977831475,0.002608123455581734,0.3816908956510559,0.04153728481932362,0.01618572510778904,-0.3860883116722107,0.5994724631309509,0.03917771577835083,0.008626148104667664,0.010772287845611572,-0.21888652973190353,1.3807447661066994,0.17973087583082573,0.9585639238357544,0.21714285016059875,-0.18440210819244385
1729110471705,7i,4.496974299657762,0.9s : 0.3s,-6.2591876977831475,0.002889286821936964,0.2693561480792984,0.04867293048052675,-0.020069483667612076,-0.08198710530996323,-0.026478923857212067,0.048073649406433105,0.007081747055053711,0.002797722816467285,-0.21848345853388243,1.3806922622924582,0.1799460737188306,0.9586400985717773,0.2167493849992752,-0.18446896970272064
1729110471715,7i,4.496974299657762,0.9s : 0.3s,-6.2591876977831475,0.003153798770074915,0.18512808050216834,0.012747674453990445,-0.03979232534766197,-0.011223717592656612,-0.02529914490878582,-0.00847017765045166,-0.009379446506500244,0.0016689151525497437,-0.21824597560055425,1.380638412671706,0.18022083923110663,0.9586808085441589,0.21651753783226013,-0.1845303177833557
1729110471725,7i,4.496974299657762,0.9s : 0.3s,-6.2591876977831475,0.0033903404639131205,0.13401495333927294,0.007313232414442398,-0.040550924837589264,-0.006254925392568111,0.019146915525197983,0.0023480653762817383,-0.005947485566139221,-0.0035492777824401855,-0.21835662396480793,1.3806015370122695,0.1805852126678398,0.9586504101753235,0.21662555634975433,-0.1845611333847046
1729110471735,7i,4.496974299657762,0.9s : 0.3s,-6.2591876977831475,0.0036090715522618575,0.0934220562632963,0.007600581091758926,-0.02873101644217968,-0.0017983918078243732,-0.006987215019762516,-0.005051076412200928,-0.0029133260250091553,-0.004875242710113525,-0.21837465713882145,1.3806150528387073,0.18094559019232861,0.9586489796638489,0.21664316952228546,-0.18454743921756744
1729110471755,7i,4.496974299657762,0.9s : 0.3s,-6.2591876977831475,0.0037964314432861125,0.05778310933622693,0.008673471987296236,0.002180427312850952,0.0069990502670407295,-0.039804983884096146,0.008554935455322266,0.0011589974164962769,-0.0008360147476196289,-0.21832958547624018,1.3805896541718148,0.18144356804019704,0.9586538076400757,0.21659916639328003,-0.18457360565662384
1729110471745,7i,4.496974299657762,0.9s : 0.3s,-6.2591876977831475,0.003964787444097553,0.03750026430002962,0.0022720419184050745,-0.012045646086335182,0.00519715528935194,-0.017225373536348343,-4.4465065002441406e-05,0.0010509788990020752,-0.002013862133026123,-0.21836206411019266,1.3805913133357377,0.1812196578350928,0.9586473107337952,0.21663087606430054,-0.18457069993019104
1729110471765,7i,4.496974299657762,0.9s : 0.3s,-6.2591876977831475,0.004102207744123332,0.03001673054899815,0.013878731958718405,0.012696185149252415,0.006082390435039997,-0.06178038939833641,0.013220131397247314,-0.0024634450674057007,-0.0034320205450057983,-0.21825763456787964,1.380610760695757,0.18164061887825594,0.9586730003356934,0.21652892231941223,-0.18455632030963898
1729110471775,7i,4.496974299657762,0.9s : 0.3s,-6.2591876977831475,0.004197221109322466,0.015013579073255798,0.026487462530499738,0.022107530385255814,0.0056690676137804985,-0.07315794378519058,0.02646106481552124,0.00042313337326049805,0.0011039376258850098,-0.21820806783819668,1.3806563467614836,0.18183959624328708,0.9586920142173767,0.2164805382490158,-0.18451465666294098
1729110471785,7i,4.496974299657762,0.9s : 0.3s,-6.2591876977831475,0.004213911256957476,0.014664073627687268,0.03550913064630813,0.030228840187191963,0.0015638049226254225,-0.08042411506175995,0.03487682342529297,0.0010432302951812744,0.006589174270629883,-0.21816679770486733,1.3807300599932393,0.18204619778546774,0.9587144255638123,0.21644024550914764,-0.18444567918777466
1729110471795,7i,4.496974299657762,0.9s : 0.3s,-6.2591876977831475,0.004083189104421411,0.025593931337873122,0.04714088492553912,0.02895265258848667,-0.003931627608835697,-0.07601284980773926,0.045590758323669434,-0.0015419870615005493,0.011889830231666565,-0.2181265843766456,1.3808370213250558,0.18232821913684805,0.958742618560791,0.21640098094940186,-0.18434475362300873
1729110471805,7i,4.496974299657762,0.9s : 0.3s,-6.2591876977831475,0.0038160944804034804,0.031109069936515122,0.06004450490046629,0.022838834673166275,-0.014531008899211884,-0.06704092770814896,0.058074891567230225,-0.003919497132301331,0.014740660786628723,-0.21810798234178164,1.380967846800335,0.18276424763780091,0.9587706923484802,0.21638281643390656,-0.1842201054096222
1729110471815,7i,4.496974299657762,0.9s : 0.3s,-6.2591876977831475,0.0034283584758284524,0.03220293481104326,0.06819954500572041,0.03347470238804817,-0.027369042858481407,-0.048739954829216,0.06718814373016357,-0.0001540929079055786,0.011700749397277832,-0.21809597000341138,1.3810991969799404,0.18329480843643742,0.9587975144386292,0.216371089220047,-0.18409466743469238
1729110471825,7i,4.496974299657762,0.9s : 0.3s,-6.2591876977831475,0.002951571414733454,0.03255443242125524,0.07620929368233663,0.039872679859399796,-0.041115835309028625,-0.029359733685851097,0.07522380352020264,0.0066588521003723145,0.010241851210594177,-0.2180883144831038,1.38120475354053,0.1838319082232023,0.9588186144828796,0.21636362373828888,-0.18399378657341003
1729110471835,7i,4.496974299657762,0.9s : 0.3s,-6.2591876977831475,0.002447587850542209,0.03164798530411354,0.07886149655785246,0.04232491925358772,-0.06445018947124481,0.00820708367973566,0.07742959260940552,0.007760852575302124,0.012789174914360046,-0.21806922352731595,1.3813019682339966,0.18444384652453374,0.958840548992157,0.21634498238563538,-0.1839013546705246
1729110471845,7i,4.496974299657762,0.9s : 0.3s,-6.2591876977831475,0.001955038177360287,0.03570836205556293,0.08436239415848994,0.045525237917900085,-0.08095717430114746,0.03258233144879341,0.08265405893325806,0.011124864220619202,0.012710526585578918,-0.21810884013841553,1.3813982382598133,0.18507583785735018,0.9588496685028076,0.2163836508989334,-0.1838073879480362
1729110471855,7i,4.496974299657762,0.9s : 0.3s,-6.2591876977831475,0.0015869148825253948,0.045882215773598294,0.07807140578894559,0.055089447647333145,-0.08662863075733185,0.07575749605894089,0.07431775331497192,0.020653218030929565,0.012060701847076416,-0.2181174501447411,1.3815185702844182,0.18560681029482784,0.958869993686676,0.21639205515384674,-0.18369168043136597
1729110471865,7i,4.496974299657762,0.9s : 0.3s,-6.2591876977831475,0.0014651130495174011,0.06035965430129195,0.07054103645607213,0.05599705129861832,-0.09408397972583771,0.1067608892917633,0.0666130781173706,0.021554142236709595,0.008611306548118591,-0.21811681270236577,1.3816787260350243,0.1860556727310649,0.9588996767997742,0.2163914442062378,-0.18353815376758575
1729110471875,7i,4.496974299657762,0.9s : 0.3s,-6.2591876977831475,0.001654499182058283,0.07699316043725765,0.06526803524598819,0.053710196167230606,-0.10209529846906662,0.13854651153087616,0.06204640865325928,0.018678128719329834,0.00782860815525055,-0.21810865746296382,1.3818587712345647,0.186484091170639,0.9589342474937439,0.21638347208499908,-0.18336579203605652
1729110471885,7i,4.496974299657762,0.9s : 0.3s,-6.2591876977831475,0.002072554186692896,0.09403240477822888,0.061725707904200934,0.04572164639830589,-0.10807600617408752,0.1680499017238617,0.05907726287841797,0.016005411744117737,0.007985413074493408,-0.21811116647451917,1.3820770282743042,0.1869251018415638,0.95897376537323,0.21638593077659607,-0.18315641582012177
1729110471895,7i,4.496974299657762,0.9s : 0.3s,-6.2591876977831475,0.002607921801391303,0.11070694288569771,0.05620214643033104,0.025432351976633072,-0.11650411784648895,0.19463491439819336,0.05445671081542969,0.011159151792526245,0.008283793926239014,-0.2181205912757387,1.3823224186961984,0.1874523916087743,0.9590166807174683,0.21639512479305267,-0.1829206943511963
1729110471905,7i,4.496974299657762,0.9s : 0.3s,-6.2591876977831475,0.0031900017194172324,0.1267248786157213,0.0482548421212089,0.008537526242434978,-0.1215834692120552,0.2172689139842987,0.04739558696746826,0.007714077830314636,0.004762470722198486,-0.21816398941281648,1.3826033203912893,0.18812970371081397,0.9590588212013245,0.21643750369548798,-0.18264953792095184
1729110471915,7i,4.496974299657762,0.9s : 0.3s,-6.2591876977831475,0.0037846365072549994,0.14193921375194796,0.043483901955535975,0.008000632748007774,-0.12395474314689636,0.23608149588108063,0.04200887680053711,0.010422050952911377,0.00418148934841156,-0.21821918368387871,1.3829204132439412,0.1888548612405233,0.9591050744056702,0.21649138629436493,-0.18234321475028992
1729110471925,7i,4.496974299657762,0.9s : 0.3s,-6.2591876977831475,0.0043756726866421266,0.15522213343699462,0.042315181065145015,0.007202749606221914,-0.12751947343349457,0.2476276308298111,0.03989213705062866,0.014111503958702087,0.00023959577083587646,-0.21828496422960722,1.3832252490617816,0.18951051213097786,0.9591465592384338,0.2165556102991104,-0.18204817175865173
1729110471935,7i,4.496974299657762,0.9s : 0.3s,-6.2591876977831475,0.004952938776517883,0.16641815229829482,0.041051679079990126,-0.002322845160961151,-0.12895998358726501,0.25747624039649963,0.035910189151763916,0.01951374113559723,-0.0038616806268692017,-0.21840935664050834,1.383534748391461,0.19015502094556697,0.9591764807701111,0.21667703986167908,-0.18174631893634796
1729110471945,7i,4.496974299657762,0.9s : 0.3s,-6.2591876977831475,0.0055113522406983724,0.17545551906393161,0.03865842152714822,0.00018345587886869907,-0.13382576406002045,0.2608659565448761,0.032327234745025635,0.020163536071777344,-0.006546393036842346,-0.21858781353807347,1.383812717494755,0.190774735489813,0.9591888785362244,0.21685124933719635,-0.18147248029708862
1729110471955,7i,4.496974299657762,0.9s : 0.3s,-6.2591876977831475,0.006045899375185186,0.1832610585975884,0.03606510463432271,0.008648845367133617,-0.12750022113323212,0.27258384227752686,0.0271185040473938,0.022062495350837708,-0.008861422538757324,-0.21876829573865436,1.3840551526457276,0.19127664923481516,0.9591943025588989,0.2170274406671524,-0.18123264610767365
1729110471965,7i,4.496974299657762,0.9s : 0.3s,-6.2591876977831475,0.006518351182942666,0.19136660593976132,0.02123996166367259,-0.01471360120922327,-0.12031931430101395,0.29042044281959534,0.020443201065063477,0.0014581531286239624,-0.005575418472290039,-0.21886718269950223,1.3843794445526463,0.1918148203604374,0.9592320322990417,0.21712397038936615,-0.1809176206588745
1729110471975,7i,4.496974299657762,0.9s : 0.3s,-6.2591876977831475,0.006964431120068523,0.20043980163895544,0.033942533303440985,-0.04260648787021637,-0.12206021696329117,0.3066084682941437,0.01750946044921875,-0.029051870107650757,0.0012260526418685913,-0.21887510364782556,1.3847491083942165,0.19262252445010553,0.9592971801757812,0.21713170409202576,-0.18056270480155945
1729110471985,7i,4.496974299657762,0.9s : 0.3s,-6.2591876977831475,0.007384892274891783,0.21166548236320615,0.04398666629430253,-0.06210615113377571,-0.11814475804567337,0.3315533697605133,0.019279837608337402,-0.039327338337898254,-0.004058957099914551,-0.21870958146076888,1.3851434680173311,0.19364707963723363,0.9594035148620605,0.21697013080120087,-0.18019099533557892
1729110471995,7i,4.496974299657762,0.9s : 0.3s,-6.2591876977831475,0.007766418839548269,0.22195689708690472,0.0631835579455035,-0.09826788306236267,-0.12060897797346115,0.33680459856987,0.01645559072494507,-0.06094883382320404,-0.002572000026702881,-0.2184124055813215,1.3855621819329766,0.19492821937437707,0.9595422148704529,0.21668002009391785,-0.17980113625526428
1729110472005,7i,4.496974299657762,0.9s : 0.3s,-6.2591876977831475,0.008102456780158354,0.23084370029703988,0.0673536192651166,-0.11889713257551193,-0.10608910769224167,0.34436875581741333,0.013995051383972168,-0.06554335355758667,0.00668710470199585,-0.2180545908950896,1.3860094509132037,0.19647219893487505,0.9596986770629883,0.21633069217205048,-0.179386168718338
1729110472015,7i,4.496974299657762,0.9s : 0.3s,-6.2591876977831475,0.008429241998178806,0.23800164523777603,0.056794854440920244,-0.14453165233135223,-0.09659148007631302,0.34306272864341736,0.012687325477600098,-0.05348433554172516,0.014286816120147705,-0.21761231546174226,1.3865673456252123,0.19820512354651154,0.9598925709724426,0.21589887142181396,-0.17886823415756226
1729110472025,7i,4.496974299657762,0.9s : 0.3s,-6.2591876977831475,0.008757348360511662,0.23841174078947397,0.03900477887441268,-0.1516987532377243,-0.09829971939325333,0.31754153966903687,0.02103966474533081,-0.031046882271766663,0.010714307427406311,-0.21724571069451823,1.3871249315879843,0.2000774616843737,0.9600698351860046,0.21554090082645416,-0.1783474236726761
1729110472035,7i,4.496974299657762,0.9s : 0.3s,-6.2591876977831475,0.009083223793311649,0.2339569413193896,0.032932769468008195,-0.1278727799654007,-0.09962011128664017,0.2815108299255371,0.02719295024871826,-0.0011150836944580078,-0.018543660640716553,-0.21704866987743335,1.3875533619911053,0.20175574871841628,0.9601879715919495,0.215348482131958,-0.17794382572174072
1729110472045,7i,4.496974299657762,0.9s : 0.3s,-6.2591876977831475,0.00939166448314628,0.2205846941098305,0.0249625562488843,-0.0795409306883812,-0.09251293540000916,0.2545457184314728,0.014943242073059082,0.007512018084526062,-0.018531009554862976,-0.2169488419913444,1.3878461584026818,0.2030120958038428,0.9602611064910889,0.21525099873542786,-0.177666574716568
1729110472055,7i,4.496974299657762,0.9s : 0.3s,-6.2591876977831475,0.009676465464779202,0.20155560670082795,0.02168588051346938,-0.027075596153736115,-0.07814012467861176,0.22237259149551392,0.008297562599182129,0.015348389744758606,-0.012878462672233582,-0.21687753078210237,1.3880644489315654,0.20371947534569046,0.960314929485321,0.2151813507080078,-0.1774597465991974
1729110472065,7i,4.496974299657762,0.9s : 0.3s,-6.2591876977831475,0.009932246416113382,0.1832192687482033,0.016644895132273217,-0.00796954520046711,-0.06871599704027176,0.20159801840782166,0.0005601048469543457,0.01580694317817688,-0.005184531211853027,-0.21681421551275407,1.388254024864099,0.20402865903620243,0.9603620767593384,0.21511952579021454,-0.17728018760681152
1729110472075,7i,4.496974299657762,0.9s : 0.3s,-6.2591876977831475,0.010158980756761849,0.16477468220504563,0.012450815861762547,-0.003559084376320243,-0.06065114587545395,0.17351897060871124,-0.00429922342300415,0.010415583848953247,0.0052967071533203125,-0.21677248507112182,1.3884162131541946,0.20421067528206757,0.9603995680809021,0.21507877111434937,-0.17712603509426117
1729110472085,7i,4.496974299657762,0.9s : 0.3s,-6.2591876977831475,0.010358016752951412,0.1484327239152636,0.018079677933145324,0.026400279253721237,-0.048942603170871735,0.1618192195892334,-0.0033659934997558594,0.017665177583694458,0.0018671751022338867,-0.21666145040849133,1.3885281215333196,0.20418207051049386,0.9604429602622986,0.21497033536434174,-0.17702290415763855
1729110472095,7i,4.496974299657762,0.9s : 0.3s,-6.2591876977831475,0.010528268502652085,0.1334283098297848,0.01507636754989534,0.033727698028087616,-0.04053926467895508,0.14315125346183777,-0.0071953535079956055,0.01306617259979248,0.002190634608268738,-0.21643337103914137,1.3885977531365334,0.20396956498877095,0.9605035185813904,0.2147475779056549,-0.1769649088382721
1729110472105,7i,4.496974299657762,0.9s : 0.3s,-6.2591876977831475,0.01067534942387939,0.12041948422422265,0.011034568544063594,0.020511098206043243,-0.03322315961122513,0.1302306354045868,-0.00782787799835205,-0.003788992762565613,0.0067918747663497925,-0.2160837380738965,1.3886508785521308,0.2037851063511537,0.960586667060852,0.2144060879945755,-0.17692747712135315
1729110472115,7i,4.496974299657762,0.9s : 0.3s,-6.2591876977831475,0.010810549091825931,0.10584064377570059,0.017617973551059356,-0.021370572969317436,-0.03161966800689697,0.10215158760547638,-0.0019759535789489746,-0.01052507758140564,0.013989686965942383,-0.21571589969661023,1.3886861387792566,0.20388796516020494,0.9606703519821167,0.21404679119586945,-0.17690786719322205
1729110472125,7i,4.496974299657762,0.9s : 0.3s,-6.2591876977831475,0.01093624629363224,0.0899619755498212,0.009447480210824007,-0.04544688016176224,-0.028115304186940193,0.07038787007331848,0.0014775395393371582,-0.001242905855178833,0.009248077869415283,-0.21546103181706164,1.3886129845921682,0.20430767202704797,0.9607111215591431,0.21379782259464264,-0.17698802053928375
1729110472135,7i,4.496974299657762,0.9s : 0.3s,-6.2591876977831475,0.011052497241834915,0.07208907407125648,0.011437054497399426,-0.04389452561736107,-0.016353987157344818,0.03467833995819092,0.004702508449554443,0.010309994220733643,-0.0015481114387512207,-0.21528718159199944,1.3885490888236602,0.20482222925599197,0.9607362747192383,0.21362799406051636,-0.17705613374710083
1729110472145,7i,4.496974299657762,0.9s : 0.3s,-6.2591876977831475,0.011151925063298564,0.059044683712728536,0.01053148239750984,-0.04009405896067619,-0.01405128464102745,0.029619963839650154,-0.0022171735763549805,0.007632240653038025,-0.006909787654876709,-0.21512296730377334,1.38848238939079,0.20531128919390623,0.9607589840888977,0.2134675681591034,-0.17712658643722534
1729110472155,7i,4.496974299657762,0.9s : 0.3s,-6.2591876977831475,0.011232110125153686,0.04915229426614606,0.016640520536704992,-0.02521044947206974,-0.017550412565469742,0.027516067028045654,-0.004917919635772705,0.0031954199075698853,-0.015572741627693176,-0.21501014435512747,1.3884350736598523,0.20571039823633372,0.9607742428779602,0.2133573442697525,-0.17717640101909637
1729110472165,7i,4.496974299657762,0.9s : 0.3s,-6.2591876977831475,0.011295008902807737,0.04206885215778968,0.01864510278114204,-0.013401861302554607,-0.01994561403989792,0.026499170809984207,-0.0044425129890441895,0.003781944513320923,-0.017708778381347656,-0.21498764290596056,1.3883087280167816,0.20594263020669928,0.9607565402984619,0.21333535015583038,-0.1772986501455307
1729110472175,7i,4.496974299657762,0.9s : 0.3s,-6.2591876977831475,0.011343825172430825,0.03938223741457926,0.017760323001116872,-0.020923960953950882,-0.021242840215563774,0.023240260779857635,-0.0047757625579833984,-0.0045371949672698975,-0.016493484377861023,-0.21494395172698838,1.3881572809521254,0.2061568479835105,0.9607387781143188,0.2132926732301712,-0.17744582891464233
1729110472185,7i,4.496974299657762,0.9s : 0.3s,-6.2591876977831475,0.011378990423243017,0.038549941821769795,0.020048748263604966,-0.04011416807770729,-0.025754857808351517,0.023453647270798683,-0.007464706897735596,-0.011947393417358398,-0.014265000820159912,-0.21476641835513893,1.3880525471032183,0.20652720041817488,0.9607574939727783,0.21311922371387482,-0.17755334079265594
1729110472195,7i,4.496974299657762,0.9s : 0.3s,-6.2591876977831475,0.011402167589722541,0.03845720889619247,0.022069097376451876,-0.04865625500679016,-0.031026050448417664,0.026492580771446228,-0.007920801639556885,-0.014947444200515747,-0.01417320966720581,-0.2145104798172973,1.3879990868936534,0.20705246691478477,0.9608016014099121,0.21286915242671967,-0.17761461436748505
1729110472205,7i,4.496974299657762,0.9s : 0.3s,-6.2591876977831475,0.011410090316275413,0.03955262902392152,0.0286614175752615,-0.06492456793785095,-0.03773229196667671,0.02755941078066826,-0.010952413082122803,-0.01995234191417694,-0.01741911470890045,-0.21435438268999837,1.3878739179784128,0.2076855460491159,0.9608120322227478,0.21271662414073944,-0.1777409315109253
1729110472215,7i,4.496974299657762,0.9s : 0.3s,-6.2591876977831475,0.011408656324124364,0.042138119446938606,0.02681003809285204,-0.07199366390705109,-0.042072977870702744,0.026802271604537964,-0.007728278636932373,-0.015064015984535217,-0.020787671208381653,-0.21431748173102486,1.3876334407817734,0.20843572462369522,0.9607769846916199,0.21268057823181152,-0.1779734045267105
1729110472225,7i,4.496974299657762,0.9s : 0.3s,-6.2591876977831475,0.011402172823214296,0.04368606088518488,0.027795755950864535,-0.0652870312333107,-0.04808133468031883,0.026934832334518433,-0.0011629462242126465,0.0011491626501083374,-0.027747631072998047,-0.21426209867136103,1.3872882912733784,0.20917099327490576,0.9607270359992981,0.21262645721435547,-0.17830714583396912
1729110472235,7i,4.496974299657762,0.9s : 0.3s,-6.2591876977831475,0.011394971070267886,0.044050669113861754,0.027923338396557786,-0.04674903303384781,-0.04812261089682579,0.02818864956498146,0.0025907158851623535,0.005831912159919739,-0.027184367179870605,-0.21413887219804192,1.386802273889596,0.2097697716367286,0.9606660008430481,0.21250604093074799,-0.17877884209156036
1729110472245,7i,4.496974299657762,0.9s : 0.3s,-6.2591876977831475,0.011388903700131242,0.04349466767024168,0.02252345911610216,-0.026910079643130302,-0.04389236122369766,0.030930373817682266,0.0034266114234924316,0.00951164960861206,-0.02012692391872406,-0.21396471972151937,1.3862769725275301,0.21014186871222088,0.9606082439422607,0.21233586966991425,-0.17929023504257202
1729110472255,7i,4.496974299657762,0.9s : 0.3s,-6.2591876977831475,0.011384083841085933,0.04276419806526508,0.014747654013611501,-0.020436467602849007,-0.041921354830265045,0.03311203420162201,0.000887453556060791,0.0002997070550918579,-0.01471787691116333,-0.21364794261457973,1.385773761411717,0.21040504969945026,0.9605840444564819,0.21202631294727325,-0.17978598177433014
1729110472265,7i,4.496974299657762,0.9s : 0.3s,-6.2591876977831475,0.01138411701674414,0.042414548716852726,0.014735863008599045,-0.026654284447431564,-0.04781559482216835,0.02763567678630352,0.003814876079559326,-0.0008062571287155151,-0.014210641384124756,-0.21328073927407729,1.3852764913699078,0.21066210110439432,0.9605710506439209,0.21166743338108063,-0.1802779883146286
1729110472275,7i,4.496974299657762,0.9s : 0.3s,-6.2591876977831475,0.011391107895165082,0.04169656613033918,0.01176487097966239,-0.014032498002052307,-0.04965716972947121,0.027177879586815834,0.006481945514678955,0.004325792193412781,-0.008813858032226562,-0.21293203319460252,1.3847238022150414,0.2108995203714659,0.960543692111969,0.21132661402225494,-0.180822491645813
1729110472285,7i,4.496974299657762,0.9s : 0.3s,-6.2591876977831475,0.011398820160401767,0.040120425033855274,0.0104401048460778,0.00966018158942461,-0.04496445879340172,0.028691120445728302,0.0020425915718078613,0.009237617254257202,-0.004414752125740051,-0.21248095389698907,1.384117916682986,0.2109340097762693,0.9605275988578796,0.21088570356369019,-0.1814221292734146
1729110472295,7i,4.496974299657762,0.9s : 0.3s,-6.2591876977831475,0.011402177391931459,0.038687434222554114,0.00673328590493653,0.022016184404492378,-0.045184701681137085,0.03378601372241974,-0.0034758448600769043,0.0036591291427612305,-0.0044571757316589355,-0.21202184955548578,1.383481788938365,0.21078798231772947,0.9605070352554321,0.21043691039085388,-0.18205112218856812
1729110472305,7i,4.496974299657762,0.9s : 0.3s,-6.2591876977831475,0.0114080777646399,0.03803711503281076,0.008452149970791202,0.014157062396407127,-0.05104352533817291,0.03153321146965027,0.0010241270065307617,-0.004730582237243652,-0.00692903995513916,-0.21169141609954972,1.382780371753671,0.21061509640135387,0.9604473114013672,0.21011385321617126,-0.1827377825975418
1729110472315,7i,4.496974299657762,0.9s : 0.3s,-6.2591876977831475,0.011418269136960908,0.037478461865767435,0.01175633672225237,0.010414788499474525,-0.04613505303859711,0.031879425048828125,0.0018887519836425781,-0.009493961930274963,-0.006671488285064697,-0.21141317152952005,1.3820787310216462,0.21050040217600144,0.9603762030601501,0.20984181761741638,-0.18342256546020508
1729110472325,7i,4.496974299657762,0.9s : 0.3s,-6.2591876977831475,0.01143112495373665,0.037327436127528986,0.014536359269636916,-0.003702495712786913,-0.041116904467344284,0.03715091571211815,-0.0005462765693664551,-0.013972222805023193,0.003972947597503662,-0.21117111137491668,1.3815230756504182,0.2105051758156935,0.9603239893913269,0.2096051424741745,-0.18396572768688202
1729110472335,7i,4.496974299657762,0.9s : 0.3s,-6.2591876977831475,0.011444961540788572,0.03771588689516283,0.022271124461803255,-0.022308137267827988,-0.044431738555431366,0.03619936853647232,-0.0031180381774902344,-0.02027095854282379,0.008681535720825195,-0.21085578392198503,1.3810501511613884,0.2106807955603726,0.9603017568588257,0.2092968076467514,-0.18443232774734497
1729110472345,7i,4.496974299657762,0.9s : 0.3s,-6.2591876977831475,0.01145764308849615,0.03829543034432256,0.01377178026242943,-0.03949098661541939,-0.04850100353360176,0.027213364839553833,-0.0032408833503723145,-0.01338125765323639,0.0003170967102050781,-0.2105979643434208,1.3806026553714785,0.21103425954752317,0.9602720737457275,0.2090446949005127,-0.18487222492694855
1729110472355,7i,4.496974299657762,0.9s : 0.3s,-6.2591876977831475,0.011462608768867063,0.03903388758743396,0.00912771965059127,-0.05863671749830246,-0.041856151074171066,0.026861028745770454,-0.00725787878036499,-0.0038375109434127808,-0.003988981246948242,-0.21046597452900523,1.3802299405369896,0.21157202465294936,0.9602302312850952,0.2089156210422516,-0.18523535132408142
1729110472365,7i,4.496974299657762,0.9s : 0.3s,-6.2591876977831475,0.011458754320416513,0.04509728222765626,0.015525305493586803,-0.08738181740045547,-0.03968372195959091,0.028240879997611046,-0.010619759559631348,-0.010598048567771912,0.003992140293121338,-0.21043568480644204,1.3799761236341934,0.21235035817245157,0.9601893424987793,0.20888599753379822,-0.1854802668094635
1729110472375,7i,4.496974299657762,0.9s : 0.3s,-6.2591876977831475,0.011447461123167203,0.055566784053765604,0.02423776174307716,-0.118135467171669,-0.03923337906599045,0.028240347281098366,-0.012242913246154785,-0.019229799509048462,0.008233770728111267,-0.21039969397430391,1.3798031052402058,0.21343774309598537,0.9601646661758423,0.20885080099105835,-0.18564783036708832
1729110472385,7i,4.496974299657762,0.9s : 0.3s,-6.2591876977831475,0.01142957007471348,0.06666916411036702,0.018970478326225247,-0.13272172212600708,-0.03928748518228531,0.03020685724914074,-0.011101603507995605,-0.013861134648323059,0.006671011447906494,-0.21032414235595712,1.3796539830220425,0.21476051503958846,0.9601523876190186,0.20877690613269806,-0.18579399585723877
1729110472395,7i,4.496974299657762,0.9s : 0.3s,-6.2591876977831475,0.011405873705515128,0.07682654329694309,0.01619332856920348,-0.14277303218841553,-0.03862915188074112,0.03276429325342178,-0.010693728923797607,-0.012096405029296875,-0.001242995262145996,-0.2101891182241005,1.3795269052478367,0.2161885855114461,0.9601565003395081,0.20864486694335938,-0.18592138588428497
1729110472405,7i,4.496974299657762,0.9s : 0.3s,-6.2591876977831475,0.011374304438072925,0.08481527154673628,0.014763269485125217,-0.14554844796657562,-0.042752835899591446,0.030646447092294693,-0.012335002422332764,-0.008110642433166504,-0.00013899803161621094,-0.21002980082243453,1.3794801967486232,0.2177200355097417,0.960180401802063,0.2084890455007553,-0.18597252666950226
1729110472415,7i,4.496974299657762,0.9s : 0.3s,-6.2591876977831475,0.011335672695304161,0.08998655689874598,0.011897520120167322,-0.1507597118616104,-0.03897887095808983,0.03574080392718315,-0.01053541898727417,-0.001010298728942871,0.005434632301330566,-0.2098062847043097,1.3794850704881294,0.21927567228115388,0.9602270722389221,0.20827043056488037,-0.18597672879695892
1729110472425,7i,4.496974299657762,0.9s : 0.3s,-6.2591876977831475,0.011291211893192092,0.09261824756780898,0.014618471855156806,-0.1524624079465866,-0.03287743777036667,0.03467324376106262,-0.009987115859985352,-0.001084163784980774,0.010619878768920898,-0.20963218559188587,1.379463322651399,0.22086964832388997,0.9602586627006531,0.20810015499591827,-0.18600450456142426
1729110472435,7i,4.496974299657762,0.9s : 0.3s,-6.2591876977831475,0.011243460152085449,0.09695504460894146,0.013359842552623576,-0.16462640464305878,-0.027505308389663696,0.02923986315727234,-0.00544816255569458,0.008255437016487122,0.00898057222366333,-0.20959973228435058,1.3794715419323689,0.2225084422467336,0.9602668285369873,0.20806841552257538,-0.1859978884458542
1729110472445,7i,4.496974299657762,0.9s : 0.3s,-6.2591876977831475,0.011195416278793583,0.10073617260427123,0.01813842077099774,-0.1697189062833786,-0.031079981476068497,0.02334548905491829,-0.0013565421104431152,0.013083696365356445,0.012489154934883118,-0.20960867968956548,1.3795515854531764,0.22425628685538973,0.9602797031402588,0.20807716250419617,-0.18592064082622528
1729110472455,7i,4.496974299657762,0.9s : 0.3s,-6.2591876977831475,0.011146657217852686,0.1017441340101537,0.019424515844546394,-0.16093739867210388,-0.02748497948050499,0.027769267559051514,-0.0005061626434326172,0.016767263412475586,0.009793594479560852,-0.20952431824736947,1.379644964436778,0.22595898724985475,0.9603143334388733,0.20799463987350464,-0.18583431839942932
1729110472465,7i,4.496974299657762,0.9s : 0.3s,-6.2591876977831475,0.01110085156137866,0.11294654266311008,0.011509888935019447,-0.20294462144374847,-0.02577722817659378,0.03774763271212578,-0.0014862418174743652,0.0018229633569717407,0.011267006397247314,-0.20943682104325598,1.3798144100280418,0.22780247311948648,0.9603637456893921,0.20790906250476837,-0.18567505478858948
1729110472475,7i,4.496974299657762,0.9s : 0.3s,-6.2591876977831475,0.011065935514815791,0.13059145068143396,0.022836127849841896,-0.2514314651489258,-0.030485428869724274,0.040315985679626465,0.0008422732353210449,-0.015548646450042725,0.016703858971595764,-0.2094129047101469,1.3799852735610783,0.23017839742705765,0.9604002833366394,0.20788566768169403,-0.18551190197467804
1729110472485,7i,4.496974299657762,0.9s : 0.3s,-6.2591876977831475,0.011041585446501087,0.146263169127769,0.015012913963552452,-0.26685091853141785,-0.03066590428352356,0.04684578999876976,0.004637777805328369,-0.00451776385307312,0.013545051217079163,-0.20944529621921815,1.380206580956695,0.23286363890258371,0.96043461561203,0.20791734755039215,-0.18529805541038513
1729110472495,7i,4.496974299657762,0.9s : 0.3s,-6.2591876977831475,0.011026074856032927,0.15557732550017234,0.011644152632902768,-0.2572683095932007,-0.028586506843566895,0.053845375776290894,0.004019439220428467,-0.004200056195259094,0.010089099407196045,-0.20944813988663824,1.3805002031297022,0.2356159251479146,0.960488498210907,0.2079201340675354,-0.1850159615278244
1729110472505,7i,4.496974299657762,0.9s : 0.3s,-6.2591876977831475,0.011014142785505197,0.15768070680903062,0.0024505638088681806,-0.24764138460159302,-0.027484269812703133,0.05560988560318947,0.000709235668182373,-0.0023157894611358643,0.00037331879138946533,-0.2093937139189911,1.3808476626642998,0.2382846325787263,0.9605637192726135,0.20786689221858978,-0.18468432128429413
1729110472515,7i,4.496974299657762,0.9s : 0.3s,-6.2591876977831475,0.011003328394364187,0.1579444402651542,0.008982319272725033,-0.23323875665664673,-0.031411632895469666,0.04123787209391594,0.0014660954475402832,0.0052433013916015625,-0.007144257426261902,-0.2094655986612614,1.3811254711260519,0.24082375808768758,0.9606004357337952,0.20793721079826355,-0.18441466987133026
1729110472525,7i,4.496974299657762,0.9s : 0.3s,-6.2591876977831475,0.01099339759763162,0.15119646934527886,0.027247853049549024,-0.1946323812007904,-0.0213032066822052,0.03142355754971504,0.007706701755523682,0.025110721588134766,-0.007245957851409912,-0.20963672537349168,1.3813990846253479,0.2430642127420629,0.9606159925460815,0.20810459554195404,-0.18414513766765594
1729110472535,7i,4.496974299657762,0.9s : 0.3s,-6.2591876977831475,0.010978621255668035,0.13946721815894403,0.03087028968395882,-0.1648196130990982,-0.019292520359158516,0.02088622748851776,0.0059264302253723145,0.029803156852722168,-0.005442798137664795,-0.2098781464364535,1.3816406620865749,0.24492442426651165,0.9606109261512756,0.20834071934223175,-0.18390360474586487
1729110472545,7i,4.496974299657762,0.9s : 0.3s,-6.2591876977831475,0.010958469763760923,0.1287822910963051,0.019619467485150848,-0.15307839214801788,-0.016651328653097153,0.017317291349172592,-0.0008803009986877441,0.01959647238254547,-0.00035615265369415283,-0.21000152712126827,1.381868233557417,0.2465453499832482,0.9606276154518127,0.20846138894557953,-0.18368017673492432
1729110472555,7i,4.496974299657762,0.9s : 0.3s,-6.2591876977831475,0.010936896881915898,0.12762809506224826,0.004655223493107706,-0.17397062480449677,-0.013959938660264015,0.015227243304252625,-0.003224194049835205,0.0020974427461624146,0.0026222914457321167,-0.21001427618217988,1.3821823047148356,0.2482267758704027,0.96068274974823,0.20847386121749878,-0.18337798118591309
1729110472565,7i,4.496974299657762,0.9s : 0.3s,-6.2591876977831475,0.010919987579367563,0.13096942835685463,0.01913629421655936,-0.21675483882427216,-0.016436943784356117,0.019262997433543205,-0.0034285783767700195,-0.01755291223526001,0.006807193160057068,-0.21016723624548414,1.3825530620455848,0.250232189481929,0.9607192873954773,0.20862345397472382,-0.18301580846309662
1729110472575,7i,4.496974299657762,0.9s : 0.3s,-6.2591876977831475,0.010910845081298692,0.1323997003687956,0.019878618135908393,-0.2130860686302185,-0.028813451528549194,0.017278941348195076,-0.00021183490753173828,-0.018968388438224792,0.005942627787590027,-0.21035080145751478,1.3828578877028135,0.2524729032455441,0.9607373476028442,0.2088029831647873,-0.1827157884836197
1729110472585,7i,4.496974299657762,0.9s : 0.3s,-6.2591876977831475,0.010906303303324453,0.1325785167220747,0.003591165939558617,-0.19659525156021118,-0.02771987020969391,0.024430062621831894,0.003505408763885498,0.0004772692918777466,-0.0006170868873596191,-0.21051630076872227,1.3829924800999167,0.25457376937407444,0.9607279300689697,0.20896482467651367,-0.18258000910282135
1729110472595,7i,4.496974299657762,0.9s : 0.3s,-6.2591876977831475,0.010903124285393933,0.133229216674167,0.00223286299047892,-0.2033093422651291,-0.0269416943192482,0.03029860369861126,0.00013744831085205078,-0.0021478235721588135,0.0005946755409240723,-0.21062612440040074,1.3830926071972196,0.2565940467013231,0.9607236385345459,0.20907223224639893,-0.18247953057289124
1729110472605,7i,4.496974299657762,0.9s : 0.3s,-6.2591876977831475,0.01090323563769035,0.14183363535446647,0.008503425574735133,-0.23690272867679596,-0.02899659052491188,0.035472527146339417,0.0002931356430053711,-0.008281826972961426,0.0019062161445617676,-0.21090696688614863,1.3832248986110838,0.2588356879037185,0.9606900215148926,0.20934686064720154,-0.18234147131443024
1729110472615,7i,4.496974299657762,0.9s : 0.3s,-6.2591876977831475,0.010911248722853943,0.15840947412575251,0.015776926145410222,-0.2892964482307434,-0.03926600515842438,0.03265676647424698,0.0029459595680236816,-0.014589399099349976,0.0052327960729599,-0.21128735419229755,1.383415744612436,0.26153299669345026,0.9606465697288513,0.20971879363059998,-0.18214330077171326
1729110472625,7i,4.496974299657762,0.9s : 0.3s,-6.2591876977831475,0.010920160548809694,0.17311709261994637,0.008563554057340238,-0.3052612841129303,-0.03495931997895241,0.03409953415393829,-0.0008963942527770996,-0.008050411939620972,0.0027788132429122925,-0.21168469748210098,1.383682695629365,0.26459348666991855,0.9606131911277771,0.21010729670524597,-0.18187132477760315
1729110472635,7i,4.496974299657762,0.9s : 0.3s,-6.2591876977831475,0.010926843438234243,0.18337058698040604,0.013069557834736983,-0.30561310052871704,-0.02342197299003601,0.039932120591402054,0.0022325515747070312,0.011114969849586487,-0.006502807140350342,-0.21191844255538236,1.3840270865605224,0.267733109770134,0.9606274366378784,0.21033580601215363,-0.18153135478496552
1729110472645,7i,4.496974299657762,0.9s : 0.3s,-6.2591876977831475,0.01093585529313001,0.19284457443658384,0.007981214367631629,-0.315705806016922,-0.01805548183619976,0.053763214498758316,0.004248082637786865,0.004034519195556641,-0.005419984459877014,-0.21185643823639047,1.3845384353356582,0.2709498290228148,0.9607330560684204,0.21027518808841705,-0.18104253709316254
1729110472655,7i,4.496974299657762,0.9s : 0.3s,-6.2591876977831475,0.010953063738367269,0.20251543326146365,0.01201220642984035,-0.32878378033638,-0.02918642945587635,0.06066213548183441,0.007410883903503418,-0.005448520183563232,-0.007725641131401062,-0.2117234330067996,1.3850378336879878,0.2743249165330992,0.9608506560325623,0.21014516055583954,-0.1805678755044937
1729110472665,7i,4.496974299657762,0.9s : 0.3s,-6.2591876977831475,0.01097485219029578,0.2183381974953189,0.02049741714342298,-0.3740898668766022,-0.03854331001639366,0.05716763809323311,0.004124343395233154,-0.009938731789588928,-0.01744578778743744,-0.21175884165391134,1.3854495561224975,0.27792282943712454,0.960917592048645,0.21017977595329285,-0.18017087876796722
1729110472675,7i,4.496974299657762,0.9s : 0.3s,-6.2591876977831475,0.010994345020371993,0.24277930902805117,0.0271474920632119,-0.4404124319553375,-0.04989317059516907,0.05705658346414566,-0.005041003227233887,-0.022360369563102722,-0.01454608142375946,-0.21191594826585294,1.3858555363440281,0.2821191546713689,0.9609582424163818,0.21033337712287903,-0.179774671792984
1729110472685,7i,4.496974299657762,0.9s : 0.3s,-6.2591876977831475,0.011017444588346676,0.2769137866747465,0.028133211987529237,-0.5234968066215515,-0.061482496559619904,0.06754234433174133,-0.0028095245361328125,-0.02616886794567108,-0.009938538074493408,-0.21219057056873303,1.386321467179708,0.28707051971522135,0.9609851241111755,0.2106018364429474,-0.17931632697582245
1729110472695,7i,4.496974299657762,0.9s : 0.3s,-6.2591876977831475,0.011057857208804046,0.32001737421905585,0.04278780629770789,-0.6181053519248962,-0.07364222407341003,0.07376961410045624,-0.003771662712097168,-0.04180775582790375,-0.008287489414215088,-0.21253256317803626,1.3868920146759358,0.2929618274151419,0.9610164165496826,0.21093615889549255,-0.17875483632087708
1729110472705,7i,4.496974299657762,0.9s : 0.3s,-6.2591876977831475,0.01111632729010137,0.368211595302501,0.06048610365613989,-0.7070992588996887,-0.06850103288888931,0.09169165790081024,-0.00999748706817627,-0.058423325419425964,-0.012055456638336182,-0.21293712862965578,1.3876210198067054,0.2997502127215723,0.961062490940094,0.21133160591125488,-0.17803864181041718
1729110472715,7i,4.496974299657762,0.9s : 0.3s,-6.2591876977831475,0.011214647201731438,0.4317176357534897,0.07764174509676877,-0.8568989038467407,-0.0688062310218811,0.0907992348074913,-0.011468470096588135,-0.07533350586891174,-0.014885485172271729,-0.21342468810984405,1.3886567911142222,0.30774362907698616,0.9611449241638184,0.21180811524391174,-0.17702442407608032
1729110472725,7i,4.496974299657762,0.9s : 0.3s,-6.2591876977831475,0.011359185303612343,0.503428107874162,0.09231443243115148,-0.9928393959999084,-0.07789578288793564,0.089124895632267,-0.01886284351348877,-0.0902022123336792,-0.005450546741485596,-0.21424339114349755,1.389936633442302,0.31727806147998816,0.9611997604370117,0.21260817348957062,-0.17576290667057037
1729110472735,7i,4.496974299657762,0.9s : 0.3s,-6.2591876977831475,0.011544039731951769,0.5650940062044603,0.06000375702725738,-1.050644874572754,-0.06648226827383041,0.09261150658130646,-0.0039823055267333984,-0.05618371069431305,-0.02068774402141571,-0.21515801076955363,1.391449383910104,0.3277573755298166,0.9612728357315063,0.21350179612636566,-0.17427389323711395
1729110472745,7i,4.496974299657762,0.9s : 0.3s,-6.2591876977831475,0.01175771371950086,0.6135847319826576,0.04309051841413441,-1.077022910118103,-0.06318487226963043,0.09572098404169083,-0.003443002700805664,-0.03912478685379028,-0.017725393176078796,-0.21612688705991032,1.3931230945469317,0.3386567599344981,0.9613590836524963,0.2144482284784317,-0.17262810468673706
1729110472755,7i,4.496974299657762,0.9s : 0.3s,-6.2591876977831475,0.011983714970062547,0.6473082898022711,0.027744411967101142,-1.0757794380187988,-0.059372831135988235,0.09877989441156387,0.00029647350311279297,-0.02628752589225769,-0.008867383003234863,-0.21705961933730894,1.3948875655288395,0.34968650974476795,0.9614648818969727,0.2153591811656952,-0.1708964854478836
1729110472765,7i,4.496974299657762,0.9s : 0.3s,-6.2591876977831475,0.012196158284027446,0.6636493713033301,0.013322421562924,-1.040600299835205,-0.07157707959413528,0.0770023912191391,0.007082641124725342,-0.009413361549377441,-0.006221875548362732,-0.2180305845131972,1.396573401076256,0.36054579402948744,0.9615451097488403,0.21630725264549255,-0.16923901438713074
1729110472775,7i,4.496974299657762,0.9s : 0.3s,-6.2591876977831475,0.012382832882453261,0.6589837383831507,0.034671235467347364,-0.9518455862998962,-0.07976895570755005,0.062250614166259766,0.0065277814865112305,0.03209616243839264,-0.011371850967407227,-0.21907209936834687,1.398016745241105,0.3707237509628228,0.9615660309791565,0.21732398867607117,-0.16781219840049744
1729110472785,7i,4.496974299657762,0.9s : 0.3s,-6.2591876977831475,0.012530141668074046,0.6414581738328031,0.04803177215630414,-0.8899191617965698,-0.08209434151649475,0.0527782142162323,0.0017127394676208496,0.04402880370616913,-0.019120201468467712,-0.22007240058576477,1.3992600613406994,0.3800733889672631,0.9615592360496521,0.21830028295516968,-0.16657933592796326
1729110472795,7i,4.496974299657762,0.9s : 0.3s,-6.2591876977831475,0.012650686095487262,0.6224204171212664,0.02098538777800881,-0.8558226823806763,-0.08535458147525787,0.05053716152906418,-0.0028821825981140137,0.020298168063163757,-0.004479274153709412,-0.22106084879993373,1.4003722002197285,0.38898322194734086,0.9615307450294495,0.21926477551460266,-0.16547316312789917
1729110472805,7i,4.496974299657762,0.9s : 0.3s,-6.2591876977831475,0.012741255627394383,0.5990462449875653,0.030495003459100705,-0.804957389831543,-0.09533007442951202,0.044842593371868134,0.00022685527801513672,0.030432701110839844,-0.0019350647926330566,-0.2219809169486501,1.4013246960824874,0.3974737621814003,0.9614887833595276,0.22016236186027527,-0.1645231693983078
1729110472815,7i,4.496974299657762,0.9s : 0.3s,-6.2591876977831475,0.012731206554881849,0.5809358878741163,0.04978107325921579,-0.796898365020752,-0.09066634625196457,0.037987615913152695,-0.002508401870727539,0.04890504479408264,-0.008953198790550232,-0.22291012715013647,1.402208378394369,0.4055839891370822,0.9614315629005432,0.22106868028640747,-0.16363903880119324
1729110472825,7i,4.496974299657762,0.9s : 0.3s,-6.2591876977831475,0.012652829841725336,0.5722776120074212,0.0400903233331214,-0.8170462846755981,-0.09276890754699707,0.03125394508242607,-0.0072670578956604,0.03873531520366669,0.007348418235778809,-0.22393479780725742,1.4030997993278327,0.41381445084598956,0.9613533020019531,0.22206787765026093,-0.16274404525756836
1729110472835,7i,4.496974299657762,0.9s : 0.3s,-6.2591876977831475,0.012543566566974166,0.5715034578426864,0.03424065689229804,-0.8351091742515564,-0.10035306215286255,0.02673882246017456,-0.008461415767669678,0.032105520367622375,0.00837033987045288,-0.22500678142358838,1.4040113371132963,0.42221109917893296,0.9612658619880676,0.22311297059059143,-0.16182804107666016
1729110472845,7i,4.496974299657762,0.9s : 0.3s,-6.2591876977831475,0.012387641954460016,0.5713728522069385,0.04135404571564003,-0.8427819609642029,-0.11233390867710114,0.016431191936135292,-0.011055052280426025,0.03667221963405609,0.01559138298034668,-0.22617650706503772,1.4048514174173128,0.4308708824064648,0.961143434047699,0.22425305843353271,-0.16097722947597504
1729110472855,7i,4.496974299657762,0.9s : 0.3s,-6.2591876977831475,0.012169294237258032,0.5691947563510199,0.05030924537834826,-0.8198028802871704,-0.11467296630144119,0.01713719591498375,-0.010635316371917725,0.048315420746803284,0.009139493107795715,-0.22738150165540794,1.4056119954676012,0.4393718212543682,0.9609982967376709,0.22542719542980194,-0.16020159423351288
1729110472865,7i,4.496974299657762,0.9s : 0.3s,-6.2591876977831475,0.011940452125830265,0.5585633768887762,0.04336875714152672,-0.7880918383598328,-0.10992330312728882,0.012783326208591461,-0.0067275166511535645,0.04269133508205414,0.0036110281944274902,-0.22853410686018535,1.40635062117585,0.4476196048299464,0.960859477519989,0.22654998302459717,-0.15944911539554596
1729110472875,7i,4.496974299657762,0.9s : 0.3s,-6.2591876977831475,0.011708211996120725,0.5379059346056819,0.03554288979911379,-0.7212259769439697,-0.11692795157432556,-0.0036249414552003145,-0.007149398326873779,0.03397670388221741,0.007600441575050354,-0.22974245279417932,1.4069637793669874,0.45536641083728824,0.960686206817627,0.2277267575263977,-0.1588151454925537
1729110472885,7i,4.496974299657762,0.9s : 0.3s,-6.2591876977831475,0.011445679814870149,0.5098993308589463,0.05511722145964511,-0.6559838652610779,-0.09461510926485062,-0.0077475812286138535,-0.00863504409790039,0.05440540611743927,-0.001842796802520752,-0.2308894693861538,1.4074733727493174,0.4623736439068933,0.9605087637901306,0.22884348034858704,-0.15828301012516022
1729110472895,7i,4.496974299657762,0.9s : 0.3s,-6.2591876977831475,0.011172880485020749,0.48055196351286494,0.04831566864288706,-0.6073676347732544,-0.09223237633705139,-0.026157215237617493,-0.014181852340698242,0.046142175793647766,0.0020441412925720215,-0.2320893771910451,1.4079871130824448,0.46879565512368165,0.9603182673454285,0.23001137375831604,-0.157744899392128
1729110472905,7i,4.496974299657762,0.9s : 0.3s,-6.2591876977831475,0.010852787797452664,0.4456398418339291,0.06935158418718064,-0.5365733504295349,-0.07918581366539001,-0.03791986405849457,-0.008163154125213623,0.0688677728176117,0.0004847794771194458,-0.2333227639758953,1.408466639738706,0.4745897844365893,0.9601130485534668,0.23121152818202972,-0.1572384089231491
1729110472915,7i,4.496974299657762,0.9s : 0.3s,-6.2591876977831475,0.010492385278257915,0.4062211439978372,0.08619889705364443,-0.46154651045799255,-0.06764686852693558,-0.06427957117557526,-0.002512633800506592,0.08598123490810394,-0.005582451820373535,-0.23463184919729987,1.4088864639740646,0.4796077471080671,0.9598795175552368,0.23248493671417236,-0.15678639709949493
1729110472925,7i,4.496974299657762,0.9s : 0.3s,-6.2591876977831475,0.010154986440114375,0.36812013096990737,0.07617997417232744,-0.40963736176490784,-0.05152520164847374,-0.06739889085292816,0.0018710494041442871,0.07558678090572357,0.009301945567131042,-0.23598461819886998,1.409287247458727,0.4839355592268029,0.9596310257911682,0.23380042612552643,-0.1563509702682495
1729110472935,7i,4.496974299657762,0.9s : 0.3s,-6.2591876977831475,0.0098725094810329,0.3420088188856397,0.04476017829095427,-0.4130781590938568,-0.05021785572171211,-0.051772262901067734,0.007868468761444092,0.024800896644592285,0.03642082214355469,-0.23722936751772294,1.4097589726504807,0.4880349474853326,0.9594166278839111,0.23501048982143402,-0.15585148334503174
1729110472945,7i,4.496974299657762,0.9s : 0.3s,-6.2591876977831475,0.009656913057222875,0.3176687142465074,0.0415762340479636,-0.3818705677986145,-0.05747004225850105,-0.046487852931022644,0.013314366340637207,-0.004244327545166016,0.039157330989837646,-0.23835207644779657,1.4101707156927763,0.492056384429379,0.959219753742218,0.23610161244869232,-0.1554141640663147
1729110472955,7i,4.496974299657762,0.9s : 0.3s,-6.2591876977831475,0.009499177213943874,0.29288371249475015,0.024836229740899253,-0.3427807092666626,-0.05280657857656479,-0.052022166550159454,0.004279494285583496,-0.003783181309700012,0.024170473217964172,-0.23940077620956418,1.4104822409392404,0.4956844139706398,0.9590229988098145,0.23712053894996643,-0.15507568418979645
1729110472965,7i,4.496974299657762,0.9s : 0.3s,-6.2591876977831475,0.009371413514876581,0.2663506067827027,0.02968437912216969,-0.29873839020729065,-0.04398725554347038,-0.04108896106481552,-0.001422584056854248,0.0037721097469329834,0.029409348964691162,-0.2403724944201179,1.4107408532424142,0.49884705083615166,0.958835244178772,0.23806442320346832,-0.15479089319705963
1729110472975,7i,4.496974299657762,0.9s : 0.3s,-6.2591876977831475,0.009268758897265006,0.24460101768610307,0.02741110866705171,-0.2796424627304077,-0.054952021688222885,-0.05167342722415924,0.0015376806259155273,0.023094698786735535,0.014684662222862244,-0.24126298743318078,1.4109124076968669,0.5016747676383062,0.958652138710022,0.23892922699451447,-0.1545925885438919
1729110472985,7i,4.496974299657762,0.9s : 0.3s,-6.2591876977831475,0.0091893327219091,0.22554829537272403,0.023286616570009563,-0.26472675800323486,-0.02792941778898239,-0.04698289930820465,0.0009675025939941406,0.02097509801387787,0.010068550705909729,-0.24217305398270303,1.41115515754185,0.5044531734062379,0.9584745168685913,0.23981283605098724,-0.1543252319097519
1729110472995,7i,4.496974299657762,0.9s : 0.3s,-6.2591876977831475,0.009130513447969285,0.20161641798603605,0.019569014637687353,-0.21234239637851715,-0.017833907157182693,-0.045755185186862946,-0.00040978193283081055,0.014099910855293274,0.013563588261604309,-0.24301515869661455,1.4114869915973989,0.5068525718623762,0.9583258628845215,0.24063028395175934,-0.15397506952285767
1729110473005,7i,4.496974299657762,0.9s : 0.3s,-6.2591876977831475,0.009081584045273016,0.17945374079888277,0.016643754213773163,-0.18843106925487518,0.004506775643676519,-0.037663403898477554,-0.009286820888519287,-0.003794148564338684,0.013280585408210754,-0.2437337260036096,1.4118811298565466,0.5088759733463446,0.9582155346870422,0.2413276731967926,-0.15356993675231934
1729110473015,7i,4.496974299657762,0.9s : 0.3s,-6.2591876977831475,0.009047110362855985,0.16599552475789028,0.024569317294788225,-0.19981901347637177,-0.004284585360437632,-0.022979265078902245,-0.003109753131866455,-0.022095978260040283,0.010283410549163818,-0.24433803057380432,1.4123415102798293,0.5109045453204248,0.9581419825553894,0.2419140636920929,-0.1531057506799698
1729110473025,7i,4.496974299657762,0.9s : 0.3s,-6.2591876977831475,0.00903911646891634,0.16636031286534667,0.03291193638543359,-0.2527103126049042,-0.0018696757033467293,-0.023230966180562973,0.012405097484588623,-0.03043520450592041,-0.0017341971397399902,-0.24489666442047262,1.4128382239956734,0.5132335459529644,0.9580843448638916,0.2424560785293579,-0.15260852873325348
1729110473035,7i,4.496974299657762,0.9s : 0.3s,-6.2591876977831475,0.009042786122615222,0.1711752239714157,0.031050316827126237,-0.27844151854515076,-0.02668873965740204,-0.01984369195997715,0.004576146602630615,-0.030708447098731995,0.00041513144969940186,-0.24557160955196194,1.4133073272810104,0.5161546864472404,0.9579941034317017,0.24311082065105438,-0.15213339030742645
1729110473045,7i,4.496974299657762,0.9s : 0.3s,-6.2591876977831475,0.009044531641024981,0.16419984169251803,0.03826196845813356,-0.21794767677783966,-0.011141248047351837,0.006533087231218815,-0.0013170838356018066,-0.02129293978214264,-0.031762465834617615,-0.24602689749041493,1.4137478079102705,0.5187707339419813,0.9579514861106873,0.24355243146419525,-0.15169405937194824
1729110473055,7i,4.496974299657762,0.9s : 0.3s,-6.2591876977831475,0.009044406243954193,0.15623856673187195,0.04957315056547541,-0.20518288016319275,-0.006977130193263292,0.007595954462885857,0.0015124678611755371,-0.03508484363555908,-0.03498947620391846,-0.24626080936386638,1.4141762946686944,0.5209185979912369,0.9579600691795349,0.2437792867422104,-0.1512746810913086
1729110473065,7i,4.496974299657762,0.9s : 0.3s,-6.2591876977831475,0.009040336024384752,0.14224339423131258,0.040389744732105645,-0.16397765278816223,-0.007608033716678619,0.0220431387424469,-0.0019797086715698242,-0.03909039497375488,-0.009967610239982605,-0.24641037664994628,1.4146030928131632,0.5229193377020759,0.957988440990448,0.2439243495464325,-0.15086013078689575
1729110473075,7i,4.496974299657762,0.9s : 0.3s,-6.2591876977831475,0.009038479343057518,0.12699103396026298,0.02175331155887218,-0.1340613067150116,-0.0067235976457595825,0.05683733895421028,-0.0009058713912963867,-0.02049076557159424,-0.007246688008308411,-0.24625394789661753,1.4149227690570838,0.5244054605620343,0.9580745100975037,0.24377264082431793,-0.15055981278419495
1729110473085,7i,4.496974299657762,0.9s : 0.3s,-6.2591876977831475,0.009053472291317312,0.14750436222445845,0.031417399560765294,-0.28781411051750183,-0.05079944431781769,0.011657541617751122,0.011518597602844238,-0.027120471000671387,-0.010902062058448792,-0.2461829149855683,1.4151893198993124,0.5266138612766567,0.9581316709518433,0.24370373785495758,-0.15030711889266968
1729110473095,7i,4.496974299657762,0.9s : 0.3s,-6.2591876977831475,0.00906483717452032,0.16852379196076012,0.018151362424210563,-0.3154233694076538,-0.07721028476953506,0.030160119757056236,-0.0057985782623291016,-0.016934767365455627,-0.0030103325843811035,-0.24637907285790564,1.4152899935209058,0.529913413611599,0.9580994844436646,0.24389398097991943,-0.15020324289798737
1729110473105,7i,4.496974299657762,0.9s : 0.3s,-6.2591876977831475,0.009123610538369568,0.18316595264669458,0.0922106033800378,-0.31474199891090393,-0.062377046793699265,0.04931400716304779,0.013281822204589844,-0.01263032853603363,-0.09037069976329803,-0.24622021862377955,1.4153957714568297,0.5332143410504702,0.9581536054611206,0.24373991787433624,-0.15010789036750793
1729110473115,7i,4.496974299657762,0.9s : 0.3s,-6.2591876977831475,0.009197448868339963,0.20361471700643,0.05808557723771504,-0.3592623174190521,-0.0873471200466156,0.06691696494817734,-0.0007489323616027832,-0.05239681899547577,-0.025058865547180176,-0.24598638789213262,1.4154801839426188,0.5367171969387802,0.9582225680351257,0.24351313710212708,-0.1500358283519745
1729110473125,7i,4.496974299657762,0.9s : 0.3s,-6.2591876977831475,0.009271532156631485,0.23868282925611284,0.06990790327200117,-0.46278712153434753,-0.08342942595481873,0.08564131706953049,-0.007452428340911865,-0.06948824226856232,0.0017205923795700073,-0.24568915380102815,1.41544377500743,0.5409695724851488,0.9582886695861816,0.2432248443365097,-0.15008191764354706
1729110473135,7i,4.496974299657762,0.9s : 0.3s,-6.2591876977831475,0.009361282473353114,0.2934794746410299,0.06704901347001777,-0.6156325936317444,-0.08654239773750305,0.0907527282834053,-0.003647446632385254,-0.0658671110868454,0.011991247534751892,-0.2456684550246405,1.4159844163442272,0.5466944590862874,0.9583746790885925,0.2432047575712204,-0.14956457912921906
1729110473145,7i,4.496974299657762,0.9s : 0.3s,-6.2591876977831475,0.009480569580001508,0.3526968368070823,0.0658634668494452,-0.7194991707801819,-0.09295293688774109,0.09626570343971252,0.006610393524169922,-0.05687037110328674,0.032558560371398926,-0.24575320721718738,1.4168105551242343,0.5537526248477197,0.9584774374961853,0.24328696727752686,-0.14876960217952728
1729110473155,7i,4.496974299657762,0.9s : 0.3s,-6.2591876977831475,0.009627966646897468,0.38925166289155194,0.050168219386032165,-0.6926311254501343,-0.11166350543498993,0.08906211704015732,0.014892160892486572,-0.035339370369911194,0.03234505653381348,-0.24594111131755086,1.4175513721266828,0.5612688444874516,0.9585421681404114,0.2434692233800888,-0.14805252850055695
1729110473165,7i,4.496974299657762,0.9s : 0.3s,-6.2591876977831475,0.009772121001360577,0.3910435437128014,0.018003673583880907,-0.5852434039115906,-0.11079087853431702,0.08890712261199951,0.0014431476593017578,-0.0009814053773880005,0.017918884754180908,-0.24604049407586584,1.418063792448737,0.5680416182229202,0.958594024181366,0.2435656189918518,-0.14755766093730927
1729110473175,7i,4.496974299657762,0.9s : 0.3s,-6.2591876977831475,0.009889316225535483,0.3494622068672558,0.026200523637634213,-0.35503950715065,-0.1153976172208786,0.07123571634292603,-0.014855563640594482,0.018272534012794495,0.011484518647193909,-0.2459802994562853,1.418188432629002,0.5731491698867117,0.9586267471313477,0.2435072362422943,-0.1474403738975525
1729110473185,7i,4.496974299657762,0.9s : 0.3s,-6.2591876977831475,0.00985508848238694,0.25844370456915045,0.10333159803256733,-0.04180473834276199,-0.07919145375490189,0.06676949560642242,-0.009337544441223145,0.09424769878387451,-0.04132312536239624,-0.24561677044561311,1.4177376842045946,0.5752106438515953,0.9586477875709534,0.2431546300649643,-0.1478859782218933
1729110473195,7i,4.496974299657762,0.9s : 0.3s,-6.2591876977831475,0.00969141238561515,0.16107144897898826,0.0997372498627451,0.13931924104690552,-0.04815230518579483,0.06826406717300415,-0.016864120960235596,0.09512105584144592,-0.024801313877105713,-0.24487376167480088,1.416974228605172,0.5746395200893074,0.9587127566337585,0.24243386089801788,-0.14864544570446014
1729110473205,7i,4.496974299657762,0.9s : 0.3s,-6.2591876977831475,0.009533485762133188,0.10108013269386731,0.02383194046336262,0.1898239701986313,-0.047128766775131226,0.06106007844209671,-0.01997542381286621,0.012861311435699463,-0.0018789619207382202,-0.24396123340637962,1.4161146025672677,0.5729788088052232,0.9588028192520142,0.24154844880104065,-0.14950354397296906
1729110473215,7i,4.496974299657762,0.9s : 0.3s,-6.2591876977831475,0.009395667102480264,0.06393319769323345,0.017652612526865105,0.20152829587459564,-0.053441789001226425,0.05855670943856239,-0.003973841667175293,0.017025694251060486,-0.002439066767692566,-0.2430820515691522,1.415157389009033,0.5710761919142848,0.958868682384491,0.24069520831108093,-0.1504541039466858
1729110473225,7i,4.496974299657762,0.9s : 0.3s,-6.2591876977831475,0.009286667807924113,0.07683484742871241,0.04109855698041571,0.2620908319950104,-0.034256868064403534,0.09561063349246979,0.004568934440612793,0.03254316747188568,-0.02468113601207733,-0.24199817008706903,1.4141757400330297,0.568937777476092,0.9589776396751404,0.23964305222034454,-0.15143591165542603
1729110473235,7i,4.496974299657762,0.9s : 0.3s,-6.2591876977831475,0.009225500732944869,0.09551639016780171,0.04518116536135969,0.1941935420036316,-0.05400766804814339,0.08973410725593567,0.015029549598693848,0.013850927352905273,-0.040293946862220764,-0.2406784862801272,1.4132758070725098,0.5667603126319705,0.9591525793075562,0.23836161196231842,-0.1523483693599701
1729110473245,7i,4.496974299657762,0.9s : 0.3s,-6.2591876977831475,0.009200097187202197,0.08375706721894399,0.022251338917702243,0.03220197558403015,-0.044930193573236465,0.07301804423332214,0.011810541152954102,-0.018564075231552124,-0.0033178776502609253,-0.23964708744411659,1.4124846548217536,0.5656540762973105,0.9592738747596741,0.23735980689525604,-0.15314580500125885
1729110473255,7i,4.496974299657762,0.9s : 0.3s,-6.2591876977831475,0.009136074167583781,0.059857044573174444,0.08167929123176973,-0.1595911681652069,-0.0710587352514267,0.04245639964938164,-0.01912534236907959,-0.07418365776538849,0.028328657150268555,-0.23924005857793126,1.4121030928614118,0.566615249684018,0.9593108296394348,0.2369644045829773,-0.15352709591388702
1729110473265,7i,4.496974299657762,0.9s : 0.3s,-6.2591876977831475,0.009077631150033441,0.06839629796524509,0.016409671551071363,-0.20204328000545502,-0.07511303573846817,0.04136503487825394,-0.002541780471801758,0.012119978666305542,-0.010766744613647461,-0.23906739331672072,1.4118578212066066,0.5686092432934547,0.9593135118484497,0.23679664731025696,-0.153768852353096
1729110473275,7i,4.496974299657762,0.9s : 0.3s,-6.2591876977831475,0.009035666682496325,0.09363899842813063,0.031547229292849845,-0.24723473191261292,-0.08717076480388641,0.011899556964635849,0.00193709135055542,0.018822863698005676,-0.025242328643798828,-0.2391886258460906,1.411593364500915,0.5710202718923462,0.9592444896697998,0.23691442608833313,-0.15401798486709595
1729110473285,7i,4.496974299657762,0.9s : 0.3s,-6.2591876977831475,0.008990331296441393,0.12255576358877897,0.02422301444770998,-0.2889213263988495,-0.07550368458032608,-0.00027857953682541847,-0.011501312255859375,0.011405691504478455,-0.01801067590713501,-0.23955131153124004,1.4114210730971581,0.5738515344476107,0.9591330885887146,0.23726677894592285,-0.15416961908340454
1729110473295,7i,4.496974299657762,0.9s : 0.3s,-6.2591876977831475,0.008934023843537997,0.1532720946783161,0.029138433269500878,-0.3381804823875427,-0.05968637019395828,-0.0011355848982930183,-0.02228367328643799,-0.004210561513900757,-0.01829637587070465,-0.24007643484077307,1.4114915099469056,0.5771218057997852,0.959020733833313,0.23777687549591064,-0.1540822684764862
1729110473305,7i,4.496974299657762,0.9s : 0.3s,-6.2591876977831475,0.008876722750090833,0.19684651936329353,0.021589053783861247,-0.446200966835022,-0.056706737726926804,0.0002755576279014349,-0.011852860450744629,-0.017703071236610413,-0.003492593765258789,-0.24069297100440373,1.4118780749249094,0.5811869080826432,0.9589353203773499,0.2383756786584854,-0.15368831157684326
1729110473315,7i,4.496974299657762,0.9s : 0.3s,-6.2591876977831475,0.008817380279584,0.25039179080953056,0.01875810591280523,-0.5578476190567017,-0.0653633400797844,-0.008358676917850971,-0.0031662583351135254,-0.003989711403846741,0.01805335283279419,-0.2415459153447548,1.4124645881003923,0.5864004031286457,0.9588241577148438,0.23920394480228424,-0.15309374034404755
1729110473325,7i,4.496974299657762,0.9s : 0.3s,-6.2591876977831475,0.0087520043221491,0.3056683004276794,0.02065516985704178,-0.6477517485618591,-0.0496685765683651,-0.007981873117387295,-0.004985153675079346,0.015512630343437195,0.012694194912910461,-0.24256584048901117,1.4133669274093235,0.5926972106658094,0.9587203860282898,0.2401941418647766,-0.15219014883041382
1729110473335,7i,4.496974299657762,0.9s : 0.3s,-6.2591876977831475,0.00864146818700487,0.36350746949753066,0.03787983848543289,-0.742717444896698,-0.043287910521030426,-0.021312590688467026,-0.015072286128997803,0.02018354833126068,0.028290152549743652,-0.2437903266274869,1.4145907353238734,0.5998586037320628,0.9586146473884583,0.24138259887695312,-0.15097087621688843
1729110473345,7i,4.496974299657762,0.9s : 0.3s,-6.2591876977831475,0.008434661097271848,0.4187021556596246,0.056976221464022495,-0.816129207611084,-0.02968035452067852,-0.02419702708721161,-0.02075868844985962,0.02616487443447113,0.046160221099853516,-0.24522156426878594,1.4161244596362887,0.6078716559336531,0.9585027694702148,0.24277126789093018,-0.14944708347320557
1729110473355,7i,4.496974299657762,0.9s : 0.3s,-6.2591876977831475,0.008175253476499266,0.474660992648009,0.05762937349657515,-0.9017351865768433,-0.028172476217150688,-0.02282123826444149,-0.02118217945098877,0.017807945609092712,0.05055034160614014,-0.24680552496801936,1.4179460314115766,0.6167176950510043,0.9583922028541565,0.2443075329065323,-0.147642120718956
1729110473365,7i,4.496974299657762,0.9s : 0.3s,-6.2591876977831475,0.007924744854551479,0.5191493090559618,0.05458829766765631,-0.9283754825592041,-0.022621603682637215,-0.007612292654812336,-0.009865999221801758,-0.017560720443725586,0.050736233592033386,-0.24833095159862176,1.4199857943473289,0.6262637545437995,0.9583218693733215,0.24578645825386047,-0.14563077688217163
1729110473375,7i,4.496974299657762,0.9s : 0.3s,-6.2591876977831475,0.007685613477722903,0.5342681666417374,0.04533397388209735,-0.8487070202827454,-0.017985839396715164,-0.0048386100679636,-0.007281839847564697,0.023025289177894592,0.03836639225482941,-0.2497345910113985,1.4219966570940308,0.6354731883146143,0.9582704305648804,0.24714678525924683,-0.14365211129188538
1729110473385,7i,4.496974299657762,0.9s : 0.3s,-6.2591876977831475,0.0074533925303621965,0.5343349914924219,0.06264474837826613,-0.7975095510482788,-0.005989008583128452,0.0007225358858704567,-0.009913504123687744,0.05276583135128021,0.03227776288986206,-0.250961885370454,1.4239407199441982,0.6439498910283838,0.958247184753418,0.2483358234167099,-0.14174441993236542
1729110473395,7i,4.496974299657762,0.9s : 0.3s,-6.2591876977831475,0.007236724665426606,0.5273532440372907,0.041165563839821305,-0.7587749361991882,0.0018167165108025074,0.004637915175408125,-0.012438654899597168,0.01459445059299469,0.03642643988132477,-0.25207412682430036,1.4259387609544705,0.6520468464647282,0.9582545757293701,0.24941307306289673,-0.13978956639766693
1729110473405,7i,4.496974299657762,0.9s : 0.3s,-6.2591876977831475,0.007047658670271438,0.49159049323567244,0.03165340670586064,-0.6084442138671875,0.00808149203658104,-0.006561043672263622,-0.0048615336418151855,0.022799372673034668,0.021412432193756104,-0.2530556392944307,1.4277325848065279,0.6591866711321427,0.9582611322402954,0.25036343932151794,-0.13803544640541077
1729110473415,7i,4.496974299657762,0.9s : 0.3s,-6.2591876977831475,0.006879115917556881,0.4330708296358363,0.0730329205023118,-0.4418264329433441,0.030799321830272675,-0.02245825156569481,-0.012876570224761963,0.07185393571853638,0.002239048480987549,-0.25394087469303395,1.4292529759287134,0.6646342515646666,0.9582499861717224,0.2512204051017761,-0.1365470141172409
1729110473425,7i,4.496974299657762,0.9s : 0.3s,-6.2591876977831475,0.006722180089940617,0.3777646097706945,0.05058051372416287,-0.3689493238925934,0.04492099955677986,-0.044287849217653275,-0.026690006256103516,0.03880143165588379,0.018452122807502747,-0.25485733490886237,1.43062787272356,0.6688223429792742,0.9582083821296692,0.2521073520183563,-0.13519716262817383
1729110473435,7i,4.496974299657762,0.9s : 0.3s,-6.2591876977831475,0.006593514885785391,0.3268937910986791,0.030781908253862365,-0.30688780546188354,0.058061834424734116,-0.03391456976532936,-0.012784421443939209,0.015099525451660156,0.02358153462409973,-0.25568248691433026,1.432012330266216,0.6723518497493172,0.9581882357597351,0.2529057562351227,-0.1338416039943695
1729110473445,7i,4.496974299657762,0.9s : 0.3s,-6.2591876977831475,0.0065118552026031395,0.28912151497669236,0.01940171778207769,-0.2936919927597046,0.06646770238876343,-0.03698842599987984,0.005610644817352295,0.0037342309951782227,0.018193483352661133,-0.25643706652498516,1.4333720921109814,0.6754174175199001,0.9581801295280457,0.2536357343196869,-0.1325124055147171
1729110473455,7i,4.496974299657762,0.9s : 0.3s,-6.2591876977831475,0.00644866390722152,0.27726145688796144,0.048343287998127274,-0.36540451645851135,0.06672815978527069,-0.03519638255238533,-0.006045162677764893,-0.034121572971343994,0.033708274364471436,-0.2572403745125031,1.4348913513571153,0.67882712893181,0.9581782817840576,0.2544127106666565,-0.1310288906097412
1729110473465,7i,4.496974299657762,0.9s : 0.3s,-6.2591876977831475,0.006383464160084367,0.2774587382234414,0.06446408097838978,-0.41039544343948364,0.06652194261550903,-0.02515460178256035,-0.007445871829986572,-0.04678449034690857,0.04371942579746246,-0.25810627015736226,1.4365468681404805,0.6829409575648002,0.958175003528595,0.2552500069141388,-0.12941287457942963
1729110473475,7i,4.496974299657762,0.9s : 0.3s,-6.2591876977831475,0.006339476086067456,0.2784010356524363,0.03432357245983065,-0.42131492495536804,0.06846524775028229,-0.028909390792250633,0.0034267306327819824,-0.028180301189422607,0.019293412566184998,-0.25890745902692947,1.438298542197569,0.6872849743627124,0.9581974148750305,0.256024569272995,-0.12770724296569824
1729110473485,7i,4.496974299657762,0.9s : 0.3s,-6.2591876977831475,0.006296257891758144,0.27941399753408647,0.03262733130489069,-0.4233028292655945,0.06938310712575912,-0.0332166887819767,-0.012862563133239746,-0.025895118713378906,0.015117540955543518,-0.2597636350828514,1.4400786625556243,0.691640664939617,0.9582054018974304,0.2568521201610565,-0.1259726881980896
1729110473495,7i,4.496974299657762,0.9s : 0.3s,-6.2591876977831475,0.006262536216646144,0.2650738079469862,0.012521559151867144,-0.33780232071876526,0.06443016231060028,-0.035420455038547516,-0.00783848762512207,-0.004480928182601929,0.00867576152086258,-0.2605941830926122,1.4417403864505298,0.6956409602065919,0.95820152759552,0.25765472650527954,-0.12435274571180344
1729110473505,7i,4.496974299657762,0.9s : 0.3s,-6.2591876977831475,0.006236419171761667,0.2442911927945795,0.017646467753501992,-0.2802467346191406,0.08277512341737747,-0.033811938017606735,-0.009433925151824951,0.014795362949371338,-0.001869790256023407,-0.26134769155917953,1.4432450115304367,0.6987738761849853,0.9581947922706604,0.2583827078342438,-0.12288615107536316
1729110473515,7i,4.496974299657762,0.9s : 0.3s,-6.2591876977831475,0.006206240179485528,0.24462949086348432,0.03807131584227652,-0.3580946624279022,0.08117403090000153,-0.04113190248608589,-0.020571768283843994,-0.017409086227416992,0.026891469955444336,-0.26209886256716547,1.4449408576391751,0.7020512563120553,0.9582089781761169,0.259108304977417,-0.12123662978410721
1729110473525,7i,4.496974299657762,0.9s : 0.3s,-6.2591876977831475,0.006191015017419164,0.24412970741554335,0.03684436523642138,-0.34878942370414734,0.06237473711371422,-0.04623568430542946,-0.0011730194091796875,-0.02711614966392517,0.02491677552461624,-0.2629704111612946,1.4466378394206845,0.7057875190354732,0.9581888914108276,0.2599499821662903,-0.11958238482475281
1729110473535,7i,4.496974299657762,0.9s : 0.3s,-6.2591876977831475,0.0062118938658105175,0.22454136863776472,0.03732893132015445,-0.2556890547275543,0.05739568918943405,-0.05619058012962341,0.020959854125976562,0.02981320023536682,-0.008081257343292236,-0.2638566876493377,1.4479866482350454,0.7088649726442163,0.9581202864646912,0.2608056962490082,-0.11826159060001373
1729110473545,7i,4.496974299657762,0.9s : 0.3s,-6.2591876977831475,0.006258280346865267,0.18592841151184264,0.049739162840759577,-0.12549151480197906,0.06599952280521393,-0.052764322608709335,0.0005271434783935547,0.04962873458862305,-0.0032703429460525513,-0.2646529066703768,1.4491022748860776,0.7108213968502227,0.958045244216919,0.26157426834106445,-0.11716737598180771
1729110473555,7i,4.496974299657762,0.9s : 0.3s,-6.2591876977831475,0.006301722094679771,0.13583933546333826,0.050062408696011036,0.010560063645243645,0.09100740402936935,-0.05622297152876854,-0.0022757649421691895,0.04555526375770569,-0.020634524524211884,-0.26525300384302597,1.4500058940443261,0.711289560516595,0.9579946398735046,0.2621534466743469,-0.11628267168998718
1729110473565,7i,4.496974299657762,0.9s : 0.3s,-6.2591876977831475,0.0063454041125682314,0.09125510214246028,0.021307712399333954,0.09924372285604477,0.10472112894058228,-0.04152994602918625,-0.005415797233581543,0.019582480192184448,-0.006419830024242401,-0.265682372312149,1.450810887255398,0.7106088887627067,0.9579761028289795,0.26256775856018066,-0.11549796909093857
1729110473575,7i,4.496974299657762,0.9s : 0.3s,-6.2591876977831475,0.006400395623204518,0.06675387085953423,0.014444412844628671,0.1550377607345581,0.0999082624912262,-0.03292021155357361,0.0013597607612609863,0.01217871904373169,0.007646627724170685,-0.26587548553216195,1.4515076086256042,0.7092956975607986,0.958005964756012,0.26275408267974854,-0.11482445895671844
1729110473585,7i,4.496974299657762,0.9s : 0.3s,-6.2591876977831475,0.006465725481470643,0.08192925317566759,0.02802589608741154,0.2801010012626648,0.10575173050165176,-0.03510916233062744,0.00331956148147583,0.02698296308517456,-0.006808161735534668,-0.2659670654261567,1.4519236749575792,0.7070656099227861,0.9580298662185669,0.26284244656562805,-0.11442301422357559
1729110473595,7i,4.496974299657762,0.9s : 0.3s,-6.2591876977831475,0.006538381903547663,0.13878740933048064,0.053389086673373456,0.43418270349502563,0.11284399032592773,-0.024968646466732025,-0.00450742244720459,0.049497514963150024,-0.01949547976255417,-0.2658482320258502,1.4520466260964486,0.7033355952436964,0.9580748081207275,0.2627277970314026,-0.1143089085817337
1729110473605,7i,4.496974299657762,0.9s : 0.3s,-6.2591876977831475,0.006608969724699047,0.2110173089244015,0.04701763153061998,0.5691384077072144,0.11287035793066025,-0.020601794123649597,-0.015872955322265625,0.03962668776512146,-0.019708693027496338,-0.2654512536339834,1.451788323697036,0.6981088750170835,0.9581488966941833,0.26234474778175354,-0.11456876993179321
1729110473615,7i,4.496974299657762,0.9s : 0.3s,-6.2591876977831475,0.006680202278207829,0.2827386833809791,0.04149887530664523,0.6623789072036743,0.13027091324329376,-0.014805157668888569,-0.023558437824249268,0.03381162881851196,-0.004891872406005859,-0.2649151906598565,1.4513275088854964,0.6917439627097665,0.958235502243042,0.26182740926742554,-0.1150270402431488
1729110473625,7i,4.496974299657762,0.9s : 0.3s,-6.2591876977831475,0.006757635438831493,0.3515434881627287,0.0441326489996093,0.752009391784668,0.1417313814163208,-0.0023283150512725115,-0.025298476219177246,0.03615275025367737,0.0008102208375930786,-0.26414957309042725,1.4508000556016467,0.6845152785656303,0.9583731889724731,0.26108843088150024,-0.11555638164281845
1729110473635,7i,4.496974299657762,0.9s : 0.3s,-6.2591876977831475,0.006864318970658171,0.41011394950417573,0.04763771112973717,0.8056654334068298,0.13011707365512848,-0.010387306101620197,-0.005740702152252197,0.04711654782295227,-0.004052996635437012,-0.26327201249807797,1.4500599751148746,0.676477936616287,0.9585146903991699,0.26024121046066284,-0.11629319190979004
1729110473645,7i,4.496974299657762,0.9s : 0.3s,-6.2591876977831475,0.006985884400455544,0.4602560192786069,0.02030393869512874,0.853325605392456,0.11815495789051056,-0.0038400585763156414,-0.0054253339767456055,0.01823526620864868,0.007091596722602844,-0.2623359692108721,1.44908189878613,0.6679964997475205,0.9586417078971863,0.25933730602264404,-0.11726014316082001
1729110473655,7i,4.496974299657762,0.9s : 0.3s,-6.2591876977831475,0.007126349103081124,0.5117989916645764,0.02824886639088465,0.9363400936126709,0.11102540791034698,-0.010727258399128914,-0.002598881721496582,0.028095006942749023,0.0013837814331054688,-0.26130654349667104,1.4478436030233859,0.6587855256475306,0.9587602615356445,0.2583429515361786,-0.11847982555627823
1729110473665,7i,4.496974299657762,0.9s : 0.3s,-6.2591876977831475,0.007329816347620395,0.5626507893389319,0.058110188313653104,1.0113412141799927,0.0992279127240181,-0.01651747152209282,-0.0028735995292663574,0.05770513415336609,0.0062172263860702515,-0.26024010589614843,1.44632312993985,0.648836300212909,0.9588519930839539,0.2573125660419464,-0.1199716106057167
1729110473675,7i,4.496974299657762,0.9s : 0.3s,-6.2591876977831475,0.007566414445298731,0.6144350990301257,0.05073382644080287,1.0923737287521362,0.09199929237365723,-0.027156267315149307,-0.003021240234375,0.049953997135162354,0.008330151438713074,-0.2591503705654828,1.444490297811816,0.6380626441646831,0.9589081406593323,0.25625938177108765,-0.12176407873630524
1729110473685,7i,4.496974299657762,0.9s : 0.3s,-6.2591876977831475,0.007834464688215739,0.6701294295518546,0.05234391805481191,1.189617395401001,0.0841229036450386,-0.03397815302014351,-0.0029844045639038086,0.05196315050125122,0.005550682544708252,-0.2580191145134374,1.4423510663676866,0.6263363453990043,0.9589321613311768,0.2551657557487488,-0.12385215610265732
1729110473695,7i,4.496974299657762,0.9s : 0.3s,-6.2591876977831475,0.00814663374491179,0.7290482586043612,0.05992354109018528,1.2897053956985474,0.07263083010911942,-0.027279503643512726,0.000766754150390625,0.05920010805130005,0.009251490235328674,-0.25673659673887306,1.4399042895726424,0.6136035418655196,0.9589499235153198,0.25392547249794006,-0.12624068558216095
1729110473705,7i,4.496974299657762,0.9s : 0.3s,-6.2591876977831475,0.008503335174555695,0.7912226370751625,0.060034152876843376,1.3952021598815918,0.050879113376140594,-0.019782904535531998,0.01749706268310547,0.054464906454086304,0.018207862973213196,-0.2551802406007415,1.4370312834985879,0.599899900167985,0.9589737057685852,0.2524198293685913,-0.12904776632785797
1729110473715,7i,4.496974299657762,0.9s : 0.3s,-6.2591876977831475,0.008892669531101318,0.8578446128002566,0.05357551752350949,1.510696530342102,0.028803370893001556,-0.01986306719481945,0.021800100803375244,0.04379129409790039,0.02184981107711792,-0.2534224481017808,1.4336776627150232,0.5851042675325445,0.9589737057685852,0.2507185637950897,-0.13232353329658508
1729110473725,7i,4.496974299657762,0.9s : 0.3s,-6.2591876977831475,0.009307401463350502,0.9266689815629185,0.05282549862182576,1.6209057569503784,0.016736099496483803,-0.01266177836805582,0.016366302967071533,0.0446428507566452,0.023015066981315613,-0.251424234473797,1.4298933249902315,0.5691366042022229,0.9589602947235107,0.2487836629152298,-0.13602174818515778
1729110473735,7i,4.496974299657762,0.9s : 0.3s,-6.2591876977831475,0.009726975493171983,0.9919423961179272,0.04211189530320865,1.705971360206604,-0.0015060210134834051,0.0023318175226449966,0.011258900165557861,0.026760607957839966,0.03050440549850464,-0.24910794519364507,1.4257488424192035,0.5521769338867611,0.9589558839797974,0.24653953313827515,-0.1400778740644455
1729110473745,7i,4.496974299657762,0.9s : 0.3s,-6.2591876977831475,0.01013387393529693,1.0483713506673877,0.030936850814312394,1.7591032981872559,-0.025414947420358658,-0.00020321225747466087,0.01611083745956421,0.009746432304382324,0.02454662322998047,-0.24654303101126193,1.4212696597292453,0.5345664791195163,0.9589409828186035,0.24405299127101898,-0.14446552097797394
1729110473755,7i,4.496974299657762,0.9s : 0.3s,-6.2591876977831475,0.01052233356484839,1.0917642367977403,0.020719615362672722,1.7778877019882202,-0.014543659053742886,-0.006800661329180002,0.016048073768615723,0.009753838181495667,0.008753538131713867,-0.2439086024809264,1.4166606903862222,0.5165668020277431,0.9588968753814697,0.24149736762046814,-0.14898188412189484
1729110473765,7i,4.496974299657762,0.9s : 0.3s,-6.2591876977831475,0.01088457567558283,1.126308581832135,0.028686867217974112,1.7984979152679443,-0.0186456385999918,-0.003190746298059821,0.013687610626220703,-0.004214927554130554,0.02485598623752594,-0.24118067697773987,1.4121476992168827,0.498484269467694,0.9588616490364075,0.23884929716587067,-0.15341134369373322
1729110473775,7i,4.496974299657762,0.9s : 0.3s,-6.2591876977831475,0.01124798674063055,1.1604346607283467,0.05059324239967104,1.8478009700775146,-0.018145229667425156,-0.009009220637381077,0.03833889961242676,0.007521778345108032,0.032143861055374146,-0.23828761199480014,1.407542204726964,0.4800416635413094,0.9588227272033691,0.2360389679670334,-0.15793737769126892
1729110473785,7i,4.496974299657762,0.9s : 0.3s,-6.2591876977831475,0.011608204471104989,1.166661013435128,0.048051935741615585,1.7646592855453491,0.02649010345339775,-0.03631104901432991,0.04060310125350952,0.0049180686473846436,0.025222793221473694,-0.2355349115819891,1.4032381225792305,0.4616253862659087,0.9587711095809937,0.23336316645145416,-0.16217049956321716
1729110473795,7i,4.496974299657762,0.9s : 0.3s,-6.2591876977831475,0.01174841221812568,1.1255038092733884,0.08425602821520298,1.5332069396972656,0.05887920409440994,-0.04810645803809166,0.01007908582687378,-0.06559044122695923,0.05191709101200104,-0.23316366135404468,1.3997788402660376,0.44493228997086903,0.9587470293045044,0.23105673491954803,-0.1655799001455307
1729110473805,7i,4.496974299657762,0.9s : 0.3s,-6.2591876977831475,0.011713676638217325,1.0453202629846523,0.11067715848786394,1.2764365673065186,0.08282754570245743,-0.06841382384300232,0.022473037242889404,-0.08946564793586731,0.061157941818237305,-0.2313399020512451,1.3971863504234852,0.4306904978752576,0.958728015422821,0.2292819321155548,-0.16813740134239197
1729110473815,7i,4.496974299657762,0.9s : 0.3s,-6.2591876977831475,0.011636512391568214,0.9345752897366829,0.10612457314260541,1.00346040725708,0.0864638239145279,-0.07722409069538116,0.0325549840927124,-0.07849007844924927,0.06357598304748535,-0.2300813162395193,1.3953529694278792,0.419120305174643,0.9587016105651855,0.22805669903755188,-0.16994507610797882
1729110473825,7i,4.496974299657762,0.9s : 0.3s,-6.2591876977831475,0.011520992931395399,0.8157345239544119,0.1136745965956111,0.7966032028198242,0.08418375998735428,-0.08179917186498642,0.019647955894470215,-0.09054912626743317,0.06585383415222168,-0.22930254398348882,1.3941394108116936,0.41004371360150127,0.9586691856384277,0.22729837894439697,-0.17113955318927765
1729110473835,7i,4.496974299657762,0.9s : 0.3s,-6.2591876977831475,0.011458256623319348,0.7145241080703494,0.08182068012128375,0.7066027522087097,0.06907644867897034,-0.08182580024003983,0.019231677055358887,-0.068254753947258,0.04081733524799347,-0.22879985202759417,1.3931542572070066,0.40252489758215987,0.9586123824119568,0.2268088161945343,-0.17210406064987183
1729110473845,7i,4.496974299657762,0.9s : 0.3s,-6.2591876977831475,0.011405536282652243,0.6207736050003922,0.05125293098601152,0.5913368463516235,0.08640244603157043,-0.06721662729978561,0.006172537803649902,-0.05066986382007599,0.0046181827783584595,-0.2283385728926226,1.3923672903803066,0.3959645068167859,0.9585795402526855,0.2263595312833786,-0.17287695407867432
1729110473855,7i,4.496974299657762,0.9s : 0.3s,-6.2591876977831475,0.01136252098496842,0.5271939388195866,0.06738884155893071,0.45630958676338196,0.05259094759821892,-0.032574500888586044,-0.015465795993804932,-0.06505599617958069,0.008353590965270996,-0.2279753332976207,1.3919081022556135,0.3908799928437792,0.9585809707641602,0.2260057032108307,-0.17333173751831055
1729110473865,7i,4.496974299657762,0.9s : 0.3s,-6.2591876977831475,0.011261987886984792,0.46768184997668166,0.09496604520774088,0.4903913736343384,0.055085621774196625,0.05142413079738617,0.0035033226013183594,-0.0863761156797409,-0.039312124252319336,-0.22702360437371033,1.3912925447913744,0.38628057066829624,0.9586853384971619,0.2250785082578659,-0.17396008968353271
1729110473875,7i,4.496974299657762,0.9s : 0.3s,-6.2591876977831475,0.010724258843245632,0.35630297094099445,0.20971093803673385,0.13939714431762695,0.05746728181838989,0.03789899870753288,-0.03469729423522949,-0.19874592125415802,-0.057226166129112244,-0.2259316784078044,1.3911793438824929,0.38316861261576207,0.9589067101478577,0.22401446104049683,-0.17411239445209503
1729110473885,7i,4.496974299657762,0.9s : 0.3s,-6.2591876977831475,0.009999780872313955,0.2059088491510082,0.20755311289705147,-0.22541531920433044,0.044706080108881,0.039955925196409225,-0.06913548707962036,-0.1948442906141281,-0.018283367156982422,-0.22567026202240867,1.3918082790613542,0.3839795254237549,0.9590737819671631,0.22375968098640442,-0.17351971566677094
1729110473895,7i,4.496974299657762,0.9s : 0.3s,-6.2591876977831475,0.009409935044241077,0.055461580736859986,0.11625467540949914,-0.47772106528282166,0.023108646273612976,0.015317689627408981,-0.02592933177947998,-0.09651023149490356,-0.0594019740819931,-0.22600810347997355,1.3929834666946856,0.387863485089949,0.9592024683952332,0.22408893704414368,-0.17237910628318787
1729110473905,7i,4.496974299657762,0.9s : 0.3s,-6.2591876977831475,0.008891398957934891,0.0780728441906231,0.06881263401549766,-0.522413432598114,0.024462418630719185,-0.008816474117338657,-0.033323705196380615,-0.023791998624801636,-0.05530506372451782,-0.22690594020542554,1.3943701935892039,0.3932145210948128,0.9592422246932983,0.22496385872364044,-0.17101341485977173
1729110473915,7i,4.496974299657762,0.9s : 0.3s,-6.2591876977831475,0.008393629914359333,0.14876449111659704,0.06279978993676182,-0.4758416712284088,0.016344038769602776,-0.018358580768108368,-0.044857025146484375,1.481175422668457e-05,-0.04395066201686859,-0.22788945248491593,1.3957277218897546,0.39842393482357896,0.9592550992965698,0.22592204809188843,-0.169672429561615
1729110473925,7i,4.496974299657762,0.9s : 0.3s,-6.2591876977831475,0.007948047916365913,0.19483773888350256,0.07342303887522811,-0.45124736428260803,0.017642417922616005,-0.022134345024824142,-0.02623295783996582,0.056993842124938965,-0.03813759982585907,-0.22890491812715952,1.3969274063809753,0.40319012534632476,0.9592314958572388,0.22691114246845245,-0.1684817373752594
1729110473935,7i,4.496974299657762,0.9s : 0.3s,-6.2591876977831475,0.007548545621332689,0.24526744249877624,0.07929562030032282,-0.5399042963981628,0.02777894213795662,-0.02469657175242901,-0.016558468341827393,0.07372090220451355,-0.02405911684036255,-0.22998263076244116,1.398272930989478,0.40822479548257495,0.9592158794403076,0.22796061635017395,-0.16714884340763092
1729110473945,7i,4.496974299657762,0.9s : 0.3s,-6.2591876977831475,0.007248950230826206,0.29930502785733976,0.03269471899255056,-0.6334452629089355,0.02974608540534973,-0.006425854749977589,-0.012113809585571289,0.024643152952194214,0.01774585247039795,-0.23114809689682367,1.399915942229704,0.41433260518266957,0.9592267870903015,0.2290952354669571,-0.1655273288488388
1729110473955,7i,4.496974299657762,0.9s : 0.3s,-6.2591876977831475,0.007015293375655825,0.33657884257900705,0.04125294964479307,-0.6298561096191406,0.04432209953665733,0.011181368492543697,0.008990883827209473,0.03420354425907135,0.021238818764686584,-0.2322212289735032,1.4017508829672538,0.42095611667122795,0.9592859745025635,0.23013970255851746,-0.16372546553611755
1729110473965,7i,4.496974299657762,0.9s : 0.3s,-6.2591876977831475,0.006828431278158423,0.3578683089368336,0.05627192218912756,-0.60452800989151,0.05831199511885643,0.035879090428352356,0.016869962215423584,0.051038652658462524,0.01664300262928009,-0.2330004994421187,1.4037425419226417,0.4274154582109535,0.9594329595565796,0.23089797794818878,-0.16178469359874725
1729110473975,7i,4.496974299657762,0.9s : 0.3s,-6.2591876977831475,0.006679362343767829,0.3573487493699633,0.05191900017263957,-0.5222160816192627,0.05383735150098801,0.04421877861022949,0.012874603271484375,0.04786944389343262,0.015438377857208252,-0.2335603508796985,1.405659452565513,0.4334165752750184,0.9596136808395386,0.2314426600933075,-0.1599239706993103
1729110473985,7i,4.496974299657762,0.9s : 0.3s,-6.2591876977831475,0.006477248116010247,0.32054434143069693,0.06796634018474024,-0.34517553448677063,0.05292930081486702,0.0422871895134449,0.010196506977081299,0.06447289884090424,-0.01893937587738037,-0.23382506402972836,1.4072386792318161,0.43808410964430994,0.9598046541213989,0.23170018196105957,-0.1583983600139618
1729110473995,7i,4.496974299657762,0.9s : 0.3s,-6.2591876977831475,0.006162952088902833,0.24185049829106378,0.09240639363693477,-0.07616990804672241,0.06314492225646973,0.05799105390906334,0.001697242259979248,0.08450257778167725,-0.0373547226190567,-0.23370486599692264,1.408322212123953,0.4404887832532143,0.9600032567977905,0.23158325254917145,-0.15736280381679535
1729110474005,7i,4.496974299657762,0.9s : 0.3s,-6.2591876977831475,0.005788026694399388,0.154123274104483,0.07787990822938634,0.10355871170759201,0.07483233511447906,0.07466107606887817,-0.0006970763206481934,0.060631975531578064,-0.048872873187065125,-0.2329737117824101,1.408999909574788,0.4404692251622247,0.9602764248847961,0.23087191581726074,-0.15673938393592834
1729110474015,7i,4.496974299657762,0.9s : 0.3s,-6.2591876977831475,0.005443462028349687,0.08952801706535662,0.03996574207783463,0.15089640021324158,0.07971391081809998,0.05093497037887573,-0.010114967823028564,0.026711583137512207,-0.027954235672950745,-0.23215842440732049,1.4094933198232438,0.4393759794502954,0.9605391621589661,0.2300785779953003,-0.1562957465648651
1729110474025,7i,4.496974299657762,0.9s : 0.3s,-6.2591876977831475,0.005108539619627522,0.05916643911571677,0.05417612039631006,0.1628073751926422,0.08484183251857758,0.04444484785199165,-0.019095003604888916,0.016736581921577454,-0.04785728454589844,-0.23143286577983582,1.4099558406067552,0.43797444037700606,0.9607758522033691,0.22937242686748505,-0.15587814152240753
1729110474035,7i,4.496974299657762,0.9s : 0.3s,-6.2591876977831475,0.004780218511523682,0.056371856147457544,0.05805222050831187,0.08692221343517303,0.08042391389608383,0.02816947177052498,-0.02028292417526245,-0.011673137545585632,-0.05312627553939819,-0.23086632714113636,1.4104905071821179,0.4368813723138461,0.9609871506690979,0.22882094979286194,-0.15538515150547028
1729110474045,7i,4.496974299657762,0.9s : 0.3s,-6.2591876977831475,0.004445831338872326,0.05520956519081031,0.0698698468822551,-0.01293407753109932,0.06259031593799591,0.024708427488803864,-0.019078850746154785,-0.04352886974811554,-0.051215529441833496,-0.2305480834203047,1.4111182497428565,0.43669222695820503,0.96115642786026,0.22851113975048065,-0.15479344129562378
1729110474055,7i,4.496974299657762,0.9s : 0.3s,-6.2591876977831475,0.004056714034036306,0.054546399477934875,0.08585324216423099,-0.13625468313694,0.03296371549367905,0.025063693523406982,-0.009689271450042725,-0.06548173725605011,-0.054672107100486755,-0.23041804430868504,1.4117823943565369,0.4376441820454104,0.9612882137298584,0.22838453948497772,-0.1541597545146942
1729110474065,7i,4.496974299657762,0.9s : 0.3s,-6.2591876977831475,0.0036595355132761362,0.07283251578205131,0.07471064778182983,-0.21051239967346191,0.026143094524741173,0.01034174021333456,-0.006711900234222412,-0.048960745334625244,-0.056031033396720886,-0.23051647743972659,1.4125097653404084,0.4396219192939317,0.9613778591156006,0.22848036885261536,-0.1534569412469864
1729110474075,7i,4.496974299657762,0.9s : 0.3s,-6.2591876977831475,0.0032863450529906587,0.0920424090941951,0.06394051257658623,-0.21559010446071625,0.023529691621661186,-0.0029503293335437775,-0.010825037956237793,0.0009101629257202148,-0.06301094591617584,-0.23085600622532748,1.4132658135021048,0.4419841220670316,0.9614170789718628,0.22881090641021729,-0.15271790325641632
1729110474085,7i,4.496974299657762,0.9s : 0.3s,-6.2591876977831475,0.0029436286412643535,0.10443085787411663,0.07047264210337946,-0.19818195700645447,0.033964622765779495,0.0006990334950387478,-0.01768571138381958,0.012945398688316345,-0.06697779893875122,-0.23117356856792617,1.4139994191559881,0.444251787902122,0.9614569544792175,0.22912003099918365,-0.15200118720531464
1729110474095,7i,4.496974299657762,0.9s : 0.3s,-6.2591876977831475,0.0026719272427121973,0.11264169217203232,0.05736911494077091,-0.19564875960350037,0.03007614053785801,-0.007423341274261475,-0.012080729007720947,0.017162427306175232,-0.05339215695858002,-0.2315126575831434,1.4147748382202912,0.44637613774866186,0.9614977240562439,0.22945009171962738,-0.15124352276325226
1729110474105,7i,4.496974299657762,0.9s : 0.3s,-6.2591876977831475,0.0025187430592337047,0.11303922620330499,0.03006066844567164,-0.17221108078956604,0.026382334530353546,0.0016855350695550442,0.006715178489685059,0.015725523233413696,-0.024723634123802185,-0.23184452656143711,1.4154953685129235,0.4483740874227737,0.9615311026573181,0.22977308928966522,-0.15053890645503998
1729110474115,7i,4.496974299657762,0.9s : 0.3s,-6.2591876977831475,0.002498683703690971,0.09632018714902506,0.02320568695673427,-0.0833299532532692,0.018503906205296516,0.002654126612469554,0.015708327293395996,0.01055745780467987,-0.013427302241325378,-0.23198085046160655,1.4158661652986406,0.44978190229221565,0.9615559577941895,0.22990576922893524,-0.15017752349376678
1729110474125,7i,4.496974299657762,0.9s : 0.3s,-6.2591876977831475,0.0025581774095233146,0.054245196967293866,0.04800460450832861,0.07635092735290527,0.026970762759447098,-0.0013681452255696058,-0.001114964485168457,0.043724894523620605,-0.01978212594985962,-0.2318607486057282,1.4159415164277205,0.449868565456789,0.9615946412086487,0.2297888696193695,-0.15010935068130493
1729110474135,7i,4.496974299657762,0.9s : 0.3s,-6.2591876977831475,0.002636338122737493,0.023654720804004645,0.06803294397572258,0.17047210037708282,0.048113863915205,0.0028905156068503857,-0.01700735092163086,0.06515555083751678,-0.009694620966911316,-0.2314455948772328,1.4158760192240027,0.4486070277065649,0.9616788029670715,0.22938480973243713,-0.15018701553344727
1729110474145,7i,4.496974299657762,0.9s : 0.3s,-6.2591876977831475,0.002744243622223554,0.040425047026158685,0.03014638002570905,0.168292835354805,0.03134899586439133,0.011103171855211258,-0.017717480659484863,0.024380743503570557,0.0006888061761856079,-0.2309630652733259,1.4157114631986614,0.4469277375521613,0.9617633819580078,0.22891512513160706,-0.15036235749721527
1729110474155,7i,4.496974299657762,0.9s : 0.3s,-6.2591876977831475,0.0028811174661590878,0.06231021877771658,0.014307532939318626,0.1771763414144516,0.01794903725385666,0.014645442366600037,0.0025722384452819824,-0.013839542865753174,0.0025604963302612305,-0.23056815048692106,1.4153505777498807,0.44531599603836247,0.961798369884491,0.2285306751728058,-0.1507234275341034
1729110474165,7i,4.496974299657762,0.9s : 0.3s,-6.2591876977831475,0.003061345355071349,0.10581477680449924,0.032720441108523166,0.31250715255737305,0.01969398558139801,0.011715066619217396,0.016734182834625244,0.022431761026382446,-0.016953185200691223,-0.2301281784886483,1.414682204206519,0.44285684601311087,0.9617967009544373,0.22810232639312744,-0.15138186514377594
1729110474175,7i,4.496974299657762,0.9s : 0.3s,-6.2591876977831475,0.003271898704153805,0.14804577701726612,0.0439221612777772,0.36797013878822327,0.021293744444847107,0.008380522020161152,0.0014244914054870605,0.03676784038543701,-0.023984432220458984,-0.22957137010232764,1.4138904552501372,0.4393180259046024,0.9618017673492432,0.2275601625442505,-0.15216311812400818
1729110474185,7i,4.496974299657762,0.9s : 0.3s,-6.2591876977831475,0.003475686725309164,0.1807051372299303,0.009877228525435712,0.3836466670036316,0.010575098916888237,0.0008466725703328848,-0.008900880813598633,0.0018422454595565796,-0.0038652420043945312,-0.2290054494706741,1.4131256057244166,0.4356678185968316,0.9618121981620789,0.22700904309749603,-0.15291891992092133
1729110474195,7i,4.496974299657762,0.9s : 0.3s,-6.2591876977831475,0.0036954505300851957,0.21186241429292393,0.02491243634998947,0.42503511905670166,-0.0020522798877209425,-0.009038714691996574,0.014757096767425537,0.01653498411178589,-0.011377692222595215,-0.2284586371409776,1.412183493500397,0.43154786691494923,0.9617900252342224,0.22647647559642792,-0.15384455025196075
1729110474205,7i,4.496974299657762,0.9s : 0.3s,-6.2591876977831475,0.003933015241865582,0.22293457157892888,0.031446890330783905,0.37114274501800537,-0.007844166830182076,-0.0014209095388650894,0.01815497875213623,0.020059913396835327,-0.016028210520744324,-0.22812948546972497,1.4111451011339076,0.4274943470886724,0.9617033004760742,0.2261558622121811,-0.15485502779483795
1729110474215,7i,4.496974299657762,0.9s : 0.3s,-6.2591876977831475,0.0041467139757137795,0.22297884830419695,0.01949949869153841,0.3333434462547302,-0.025007974356412888,-0.008417566306889057,0.0021644234657287598,-0.019338458776474,0.001252889633178711,-0.22819233508978629,1.410150419537041,0.4240212266068226,0.961534857749939,0.2262170910835266,-0.15580928325653076
1729110474225,7i,4.496974299657762,0.9s : 0.3s,-6.2591876977831475,0.004347877868171909,0.23031167802679534,0.010349549951894188,0.3695965111255646,-0.03117017261683941,-0.01773909665644169,0.007216095924377441,-0.006249964237213135,-0.003997385501861572,-0.22814899154503399,1.4091059259977072,0.4205217757688759,0.9613812565803528,0.22617487609386444,-0.1568150818347931
1729110474235,7i,4.496974299657762,0.9s : 0.3s,-6.2591876977831475,0.004550981013121291,0.2523205774833227,0.02466563785016826,0.4513976275920868,-0.03188549727201462,-0.02267686277627945,0.006497621536254883,0.02166515588760376,-0.009838476777076721,-0.22757816165128908,1.4079181904557234,0.41634026686293163,0.9613216519355774,0.22561879456043243,-0.15797777473926544
1729110474245,7i,4.496974299657762,0.9s : 0.3s,-6.2591876977831475,0.004748620934540137,0.28132902342238764,0.014893316372185599,0.5181208848953247,-0.04773179441690445,-0.016375191509723663,-0.0005590915679931641,0.011170446872711182,-0.00983460247516632,-0.22696392539698973,1.406429599723836,0.41140983554802285,0.9612219333648682,0.22502034902572632,-0.15943124890327454
1729110474255,7i,4.496974299657762,0.9s : 0.3s,-6.2591876977831475,0.004946923359084216,0.3324384522488482,0.03149656189552356,0.6680941581726074,-0.08414493501186371,-0.030216172337532043,0.015651822090148926,0.02729685604572296,-0.0013912320137023926,-0.22621445475363064,1.4044049882414478,0.40539946467218835,0.9610631465911865,0.22429004311561584,-0.16140489280223846
1729110474265,7i,4.496974299657762,0.9s : 0.3s,-6.2591876977831475,0.005197683557837407,0.4021371209381411,0.07158503128514773,0.8364582061767578,-0.09058911353349686,-0.024734288454055786,0.020039677619934082,0.06872141361236572,0.0004419684410095215,-0.22524691597448257,1.4018204253469841,0.39772426547357825,0.9608561992645264,0.22334705293178558,-0.1639246940612793
1729110474275,7i,4.496974299657762,0.9s : 0.3s,-6.2591876977831475,0.005443351476423995,0.476218490322435,0.06729958286955964,0.9632830023765564,-0.08476105332374573,-0.021829577162861824,0.008353888988494873,0.06463088095188141,0.016801655292510986,-0.22394901010926688,1.3988832233580364,0.38854413591614523,0.9606553912162781,0.2220817357301712,-0.16679567098617554
1729110474285,7i,4.496974299657762,0.9s : 0.3s,-6.2591876977831475,0.005683657129604369,0.543188062380723,0.06081757938672728,1.0395022630691528,-0.07743731141090393,-0.012611612677574158,0.003916323184967041,0.05157168209552765,0.03199690580368042,-0.22236629798942187,1.3958194353164972,0.3783726285303811,0.9604848027229309,0.22053827345371246,-0.1697991043329239
1729110474295,7i,4.496974299657762,0.9s : 0.3s,-6.2591876977831475,0.005928508857062828,0.5954580979959754,0.046299728202552105,1.0675253868103027,-0.06395719200372696,1.1505093425512314e-05,0.005247056484222412,0.039223119616508484,0.024034976959228516,-0.220603205450385,1.3927729308829087,0.3676617339322899,0.9603442549705505,0.21881824731826782,-0.17279301583766937
1729110474305,7i,4.496974299657762,0.9s : 0.3s,-6.2591876977831475,0.006155029869213816,0.6220184150595166,0.02119973918255921,1.0167484283447266,-0.07304128259420395,0.00647443113848567,0.0042833685874938965,0.00011195242404937744,0.020762205123901367,-0.21866749235080465,1.3897923795271898,0.3571100876757684,0.9602398872375488,0.21692903339862823,-0.17573052644729614
1729110474315,7i,4.496974299657762,0.9s : 0.3s,-6.2591876977831475,0.006336952549289775,0.6236422421991225,0.03479733396595203,0.9448949694633484,-0.07949198782444,0.0104931415989995,-0.006490528583526611,-0.026367321610450745,0.021759867668151855,-0.21682880887612752,1.386905499302725,0.34725172822657574,0.9601190090179443,0.21513377130031586,-0.17857451736927032
1729110474325,7i,4.496974299657762,0.9s : 0.3s,-6.2591876977831475,0.006473599879365375,0.6136983128016951,0.040916736752587064,0.8764446973800659,-0.07911448925733566,0.01560085080564022,-0.002274811267852783,-0.03921771049499512,0.011444464325904846,-0.2150036369626019,1.384151957845001,0.33809983420286727,0.9600077867507935,0.21335098147392273,-0.18129010498523712
1729110474335,7i,4.496974299657762,0.9s : 0.3s,-6.2591876977831475,0.006483905750611122,0.5933190683285267,0.05572659265856006,0.8082776069641113,-0.0927024632692337,0.01225592102855444,-0.002198934555053711,-0.055236756801605225,0.007036939263343811,-0.21328318847663913,1.3815185432616621,0.3297567796936582,0.9598861932754517,0.21166983246803284,-0.1838863641023636
1729110474345,7i,4.496974299657762,0.9s : 0.3s,-6.2591876977831475,0.006454884142044836,0.5743790378653746,0.03811070722266248,0.7852829098701477,-0.08731715381145477,0.011039022356271744,-0.003053128719329834,-0.036246851086616516,-0.011369705200195312,-0.21168285594714625,1.3789031735734276,0.32183607052892305,0.9597333669662476,0.21010549366474152,-0.18646056950092316
1729110474355,7i,4.496974299657762,0.9s : 0.3s,-6.2591876977831475,0.006422186093154833,0.5526309954304639,0.024634933796604964,0.7435082793235779,-0.08020731061697006,0.01366969384253025,-0.002374708652496338,-0.020215779542922974,-0.01387670636177063,-0.2100816579731802,1.3764627353550436,0.3142231411839882,0.9596043825149536,0.20853976905345917,-0.18886692821979523
1729110474365,7i,4.496974299657762,0.9s : 0.3s,-6.2591876977831475,0.006304513433340479,0.5223187535940965,0.04741863190668487,0.6678579449653625,-0.08276301622390747,0.013632308691740036,-0.00024574995040893555,-0.047169432044029236,-0.00484880805015564,-0.20857530828667561,1.3741621644909756,0.3072114997295839,0.9594742655754089,0.20706629753112793,-0.1911352127790451
1729110474375,7i,4.496974299657762,0.9s : 0.3s,-6.2591876977831475,0.006030423367861956,0.4773591088071902,0.07739466070617675,0.5498402118682861,-0.07532880455255508,0.01925930194556713,0.00260162353515625,-0.07525476813316345,0.017885327339172363,-0.20721231690461,1.3721219444672548,0.30121797730128536,0.9593580961227417,0.20573265850543976,-0.19314786791801453
1729110474385,7i,4.496974299657762,0.9s : 0.3s,-6.2591876977831475,0.005638493748123365,0.4317697290861322,0.0832918702005971,0.4783741533756256,-0.08263984322547913,0.008227656595408916,0.0034600496292114258,-0.07876011729240417,0.026877641677856445,-0.20605433661438172,1.370273082788815,0.29619580476229834,0.9592321515083313,0.2045993059873581,-0.1949685662984848
1729110474395,7i,4.496974299657762,0.9s : 0.3s,-6.2591876977831475,0.005276231449628987,0.3856085594944365,0.04564999078588246,0.40821316838264465,-0.07033684104681015,0.014544941484928131,0.005278229713439941,-0.042439669370651245,0.01596672832965851,-0.20506774540575454,1.3686297189871677,0.2918819464174273,0.9591076374053955,0.20363348722457886,-0.19658508896827698
1729110474405,7i,4.496974299657762,0.9s : 0.3s,-6.2591876977831475,0.004949414525579558,0.34939452698612017,0.03413491905261224,0.3898799419403076,-0.059331949800252914,0.020686257630586624,-0.001342475414276123,-0.02891063690185547,0.018098771572113037,-0.20418510075269508,1.3671125899207333,0.2881168833915685,0.9589840173721313,0.20276924967765808,-0.1980762481689453
1729110474415,7i,4.496974299657762,0.9s : 0.3s,-6.2591876977831475,0.004669014367574592,0.31944737400267487,0.029693423017610368,0.3645697832107544,-0.07525179535150528,0.013391326181590557,0.001916646957397461,-0.02817434072494507,0.009177818894386292,-0.20318397882961758,1.3656858163318106,0.284560390101596,0.9588986039161682,0.20178882777690887,-0.19948554039001465
1729110474425,7i,4.496974299657762,0.9s : 0.3s,-6.2591876977831475,0.004440666811083719,0.2942527213516795,0.026473928830076137,0.34369805455207825,-0.07158355414867401,0.010304389521479607,-0.01208651065826416,-0.022684559226036072,-0.00634002685546875,-0.20231505997969584,1.3642746381141182,0.28113083804638944,0.9587874412536621,0.20093770325183868,-0.20087440311908722
1729110474435,7i,4.496974299657762,0.9s : 0.3s,-6.2591876977831475,0.0042659901896097445,0.2795161868211778,0.019962832097409115,0.35921764373779297,-0.06653260439634323,0.00460788793861866,-0.01793617010116577,-0.003753557801246643,-0.007919549942016602,-0.20154158098419725,1.3628678049494,0.27768322040607396,0.9586557149887085,0.20017994940280914,-0.20225508511066437
1729110474445,7i,4.496974299657762,0.9s : 0.3s,-6.2591876977831475,0.004132062210605547,0.2680354640840779,0.015545702628095057,0.35473939776420593,-0.05634916201233864,0.016554461792111397,-0.013231396675109863,0.008081719279289246,-0.0011335015296936035,-0.20069070487975163,1.3615717184337117,0.27416954406569977,0.9585590362548828,0.19934621453285217,-0.20353272557258606
1729110474455,7i,4.496974299657762,0.9s : 0.3s,-6.2591876977831475,0.004027056082266122,0.2679909344701291,0.01084949053991676,0.39358481764793396,-0.061677880585193634,0.01831401325762272,-0.010366737842559814,-0.003156617283821106,0.0005272179841995239,-0.19974898446579603,1.3602459648247605,0.2705916200231476,0.9584714770317078,0.19842331111431122,-0.2048424929380417
1729110474465,7i,4.496974299657762,0.9s : 0.3s,-6.2591876977831475,0.003958992207252475,0.2868573362049816,0.021910586388686554,0.4913547933101654,-0.045386526733636856,0.022546442225575447,0.001208662986755371,0.020729631185531616,-0.006992518901824951,-0.1986218304119017,1.3588430448557833,0.266337324401817,0.9584012031555176,0.1973184496164322,-0.20623387396335602
1729110474475,7i,4.496974299657762,0.9s : 0.3s,-6.2591876977831475,0.003924178248029615,0.3200581891761376,0.03868643906562422,0.5926859378814697,-0.03055005706846714,0.02081512100994587,-0.0004850029945373535,0.033954232931137085,-0.018534168601036072,-0.19725714815128623,1.3574277014132896,0.26102027507569575,0.9583706259727478,0.19598041474819183,-0.2076469510793686
1729110474485,7i,4.496974299657762,0.9s : 0.3s,-6.2591876977831475,0.0039046770972721748,0.36447024666154826,0.019819426652472265,0.6992567181587219,-0.005935212597250938,0.02192142978310585,-0.007169842720031738,0.013466864824295044,-0.012650951743125916,-0.19569610259449666,1.3560055963077897,0.2546561633772205,0.9583721160888672,0.19444939494132996,-0.20907460153102875
1729110474495,7i,4.496974299657762,0.9s : 0.3s,-6.2591876977831475,0.0038994927665858023,0.42178831628684205,0.00837734679566151,0.8294304609298706,0.01596635766327381,0.019047347828745842,0.0076375603675842285,0.0030538737773895264,-0.0015879124402999878,-0.19385188897171593,1.3546041437187026,0.24714553023153496,0.9584267139434814,0.1926400512456894,-0.21049407124519348
1729110474505,7i,4.496974299657762,0.9s : 0.3s,-6.2591876977831475,0.003900288901762571,0.4867607622308525,0.007249744356861353,0.9519546031951904,0.0319177582859993,0.015683142468333244,0.005823075771331787,-0.0007243305444717407,0.004257455468177795,-0.19176254593411532,1.353180341159791,0.23838693962655821,0.9585170149803162,0.19058942794799805,-0.21194490790367126
1729110474515,7i,4.496974299657762,0.9s : 0.3s,-6.2591876977831475,0.00390658051517235,0.5628656128037419,0.0030241742069621745,1.1031019687652588,0.06405172497034073,0.0022727951873093843,0.002943873405456543,0.0006832778453826904,0.0001112222671508789,-0.18944318602754892,1.3517153265862238,0.22829870812437286,0.9586344361305237,0.18831206858158112,-0.21344442665576935
1729110474525,7i,4.496974299657762,0.9s : 0.3s,-6.2591876977831475,0.00389701037410998,0.6421795031577336,0.021582128702022252,1.2286405563354492,0.1279173493385315,0.021172717213630676,-0.0018506050109863281,-0.0018874257802963257,0.021419644355773926,-0.18680997488865433,1.350482883120235,0.21676933708862292,0.9588512182235718,0.18572531640529633,-0.21473334729671478
1729110474535,7i,4.496974299657762,0.9s : 0.3s,-6.2591876977831475,0.003827996163494731,0.6996351125560825,0.09408381923288003,1.2337669134140015,0.15269167721271515,0.06539104133844376,-0.0016610026359558105,-0.074249267578125,0.05775856971740723,-0.18366324880996088,1.3496684483866725,0.20458390044127417,0.959241509437561,0.1826324313879013,-0.2156413197517395
1729110474545,7i,4.496974299657762,0.9s : 0.3s,-6.2591876977831475,0.0039085881183615005,0.7399715885939723,0.1974210431378171,1.2335065603256226,0.13655082881450653,0.0858331024646759,0.027811765670776367,-0.16391238570213318,0.10646268725395203,-0.18022144309620025,1.3489383338604932,0.19261143809049688,0.9596913456916809,0.1792474389076233,-0.21647866070270538
1729110474555,7i,4.496974299657762,0.9s : 0.3s,-6.2591876977831475,0.004374596177582977,0.7858177501222648,0.16515628245589645,1.3233171701431274,0.1092664822936058,0.0860096737742424,0.046035706996917725,-0.13150902092456818,0.08867180347442627,-0.1765532278676444,1.3479583216966633,0.1802704766790119,0.960113525390625,0.17563743889331818,-0.21756291389465332
1729110474565,7i,4.496974299657762,0.9s : 0.3s,-6.2591876977831475,0.0049801476880716984,0.8466497435319754,0.04788591023967007,1.466597080230713,0.09821231663227081,0.10316967964172363,0.01521533727645874,-0.0415225625038147,0.018369287252426147,-0.17258120970738547,1.3466135598982814,0.16671634002383479,0.9604926705360413,0.1717257797718048,-0.219007208943367
1729110474575,7i,4.496974299657762,0.9s : 0.3s,-6.2591876977831475,0.005570681210170174,0.899919503642312,0.05570206774093545,1.5167396068572998,0.11024713516235352,0.1351771503686905,-0.010469138622283936,-0.024222254753112793,-0.0490550696849823,-0.16804800526766145,1.3451674752463527,0.15217908617235787,0.9609238505363464,0.16725817322731018,-0.22056783735752106
1729110474585,7i,4.496974299657762,0.9s : 0.3s,-6.2591876977831475,0.00618475442699598,0.9128366665626904,0.09073051372231172,1.3971524238586426,0.09045146405696869,0.12234967201948166,-0.03406339883804321,-0.074530228972435,-0.038948118686676025,-0.1635147491281323,1.3438915355387144,0.13812698031367468,0.9613704681396484,0.162787064909935,-0.22196198999881744
1729110474595,7i,4.496974299657762,0.9s : 0.3s,-6.2591876977831475,0.0067730335234736355,0.9351187120435095,0.060034039517221714,1.465297818183899,0.08603967726230621,0.09753379970788956,-0.040630996227264404,-0.03498087823390961,-0.02701011300086975,-0.15923386237741619,1.3425553527287315,0.12442301748351478,0.9617430567741394,0.1585618108510971,-0.2234020084142685
1729110474605,7i,4.496974299657762,0.9s : 0.3s,-6.2591876977831475,0.006867536457098222,0.9809234968723901,0.1262975409467929,1.615280270576477,0.10641919821500778,0.08736702054738998,-0.03698134422302246,0.0955398827791214,-0.07386189699172974,-0.154833856851864,1.341186622360668,0.10952077776120214,0.9621063470840454,0.1542159467935562,-0.22487476468086243
1729110474615,7i,4.496974299657762,0.9s : 0.3s,-6.2591876977831475,0.00647927386775437,1.046359277367886,0.1827084604538323,1.7837398052215576,0.10958702862262726,0.04587869718670845,-0.01776421070098877,0.1567426323890686,-0.09218764305114746,-0.15026446311143768,1.3397180545997813,0.09295486785991655,0.9624509811401367,0.1496996134519577,-0.2264464646577835
1729110474625,7i,4.496974299657762,0.9s : 0.3s,-6.2591876977831475,0.0057598911546737725,1.1195973374068366,0.21346685012278824,1.919247031211853,0.13472150266170502,0.020451899617910385,0.006722867488861084,0.19268614053726196,-0.09162396192550659,-0.14570421467619482,1.3382626142723757,0.07478634409393367,0.9627746939659119,0.14518922567367554,-0.22800196707248688
1729110474635,7i,4.496974299657762,0.9s : 0.3s,-6.2591876977831475,0.005036805650951344,1.1582785828169295,0.20468873675711563,1.8563839197158813,0.14301379024982452,-0.019004695117473602,0.007327914237976074,0.18065233528614044,-0.09596100449562073,-0.1412740088136616,1.336992151912268,0.056118696477163624,0.9631006121635437,0.14080454409122467,-0.22937174141407013
1729110474645,7i,4.496974299657762,0.9s : 0.3s,-6.2591876977831475,0.004631183060466344,1.1590625261654803,0.12767700574471233,1.736981987953186,0.0947793647646904,-0.07425852864980698,-0.014400660991668701,0.1244015246629715,-0.02486562728881836,-0.13755220230975687,1.335733841584241,0.03855946397836265,0.9633141756057739,0.1371188461780548,-0.23070389032363892
1729110474655,7i,4.496974299657762,0.9s : 0.3s,-6.2591876977831475,0.004567082309870507,1.1774318856297732,0.21715956409516446,1.8166030645370483,0.08835822343826294,-0.1305830478668213,-0.024869859218597412,0.20674392580986023,-0.061617493629455566,-0.13443517749842787,1.3342297322318155,0.02102611258332611,0.9633768200874329,0.13403061032295227,-0.2322515845298767
1729110474665,7i,4.496974299657762,0.9s : 0.3s,-6.2591876977831475,0.005347501445027819,1.1997445911818965,0.3459609623156196,1.858513355255127,0.09728407114744186,-0.18774747848510742,-0.05679970979690552,0.3212250769138336,-0.1152268648147583,-0.13162347580240275,1.3327106351166782,0.002678178082887011,0.9633853435516357,0.1312437504529953,-0.23380273580551147
1729110474675,7i,4.496974299657762,0.9s : 0.3s,-6.2591876977831475,0.006992181206723756,1.2108426505786012,0.3235542952308022,1.8277703523635864,0.08885490149259567,-0.27783557772636414,-0.10165780782699585,0.29964348673820496,-0.06757849454879761,-0.12950545250407428,1.331231094185893,-0.015782928286230968,0.9633063077926636,0.12914375960826874,-0.23529328405857086
