timestamp,club,max_speed,tempo,w.rotation,l.speed,t.spped,acc,rotation.x,rotation.y,rotation.z,userAcceleration.x,userAcceleration.y,userAcceleration.z,pitch,roll,yaw,gravity.x,gravity.y,gravity.z
1729110326191,7i,4.737848849088877,0.9s : 0.3s,-7.165473470852859,0.0003177164727224071,0.16360539401699134,0.05533283084449885,-0.8675602078437805,-0.08670982718467712,-0.040859296917915344,-0.002725958824157715,0.054244264960289,0.01057596504688263,-0.1676396429565777,1.4362920865741655,0.14656348406414776,0.9770757555961609,0.16685554385185242,-0.132219135761261
1729110326201,7i,4.737848849088877,0.9s : 0.3s,-7.165473470852859,0.0006349110462672779,0.2621338609314628,0.03872114243059055,-0.7317725419998169,-0.05796632170677185,-0.04841228574514389,-0.002837240695953369,0.034644246101379395,0.017060279846191406,-0.1691178707343887,1.4369148389078417,0.1544756019002387,0.9769124984741211,0.16831287741661072,-0.13157758116722107
1729110326211,7i,4.737848849088877,0.9s : 0.3s,-7.165473470852859,0.0009397977599371664,0.29892385368710334,0.019583716701071483,-0.5652403831481934,-0.08727294206619263,-0.04245010390877724,-0.004259169101715088,0.018721342086791992,0.00385911762714386,-0.17044189512351518,1.437230289155134,0.16098750607706322,0.9767321348190308,0.16961786150932312,-0.1312396079301834
1729110326221,7i,4.737848849088877,0.9s : 0.3s,-7.165473470852859,0.0012209091749658637,0.2746856357342858,0.04259971844589317,-0.3158092498779297,-0.06730722635984421,-0.04534921795129776,-0.015070140361785889,0.014559820294380188,0.037089601159095764,-0.1714132227428822,1.4372578916380714,0.1653848201955221,0.9765719771385193,0.17057503759860992,-0.13119064271450043
1729110326231,7i,4.737848849088877,0.9s : 0.3s,-7.165473470852859,0.001510286859393561,0.20305804169484268,0.03619903840779853,-0.03781239688396454,-0.09375166147947311,0.16326028108596802,-0.0012860894203186035,0.027119264006614685,-0.023942887783050537,-0.17187635557772857,1.4368849429243808,0.16715375428745485,0.976444661617279,0.17103135585784912,-0.131544291973114
1729110326241,7i,4.737848849088877,0.9s : 0.3s,-7.165473470852859,0.0020742406879082167,0.10867102552087073,0.10777175926102568,0.27333375811576843,0.01166424248367548,0.2640577256679535,9.548664093017578e-05,0.10482139885425568,-0.025044307112693787,-0.17289410713198142,1.4366294776346442,0.16631393946655898,0.9762380123138428,0.17203402519226074,-0.13177038729190826
1729110326251,7i,4.737848849088877,0.9s : 0.3s,-7.165473470852859,0.00276486016045425,0.05006440483096473,0.08985328500544376,0.42240700125694275,0.03597006946802139,-0.02400578185915947,0.013064801692962646,0.08798705041408539,-0.012696564197540283,-0.17347123657095034,1.4364561020380544,0.16362527656841486,0.9761166572570801,0.17260251939296722,-0.13192632794380188
1729110326261,7i,4.737848849088877,0.9s : 0.3s,-7.165473470852859,0.003451846086806691,0.13610991107581175,0.05848477643106339,0.5814831852912903,0.06188688799738884,-0.13287420570850372,-0.00205838680267334,0.058049753308296204,-0.0068160295486450195,-0.17302156336069152,1.43577284695984,0.15905431907748252,0.9761030673980713,0.1721595823764801,-0.13260366022586823
1729110326271,7i,4.737848849088877,0.9s : 0.3s,-7.165473470852859,0.004118752812523482,0.2422393253400035,0.050551980524911735,0.7290412187576294,0.04121241718530655,-0.010188900865614414,-0.01880347728729248,0.04610039293766022,0.008757039904594421,-0.17241925998984794,1.4349337130964763,0.1524033923251579,0.976094126701355,0.17156623303890228,-0.13343673944473267
1729110326281,7i,4.737848849088877,0.9s : 0.3s,-7.165473470852859,0.004765057279909228,0.3227460659867762,0.07103958980410761,0.759168803691864,0.04006193205714226,-0.041325777769088745,0.05026543140411377,0.04442223906517029,0.0233810693025589,-0.1717684345297617,1.4340519359575625,0.1448787292915849,0.9760862588882446,0.17092502117156982,-0.13431254029273987
1729110326291,7i,4.737848849088877,0.9s : 0.3s,-7.165473470852859,0.00532120340471429,0.38333543659312436,0.04983273304111326,0.7796672582626343,0.05122026056051254,-0.032116204500198364,-0.016908705234527588,-0.016455426812171936,0.0438932329416275,-0.17105110662155024,1.4331891830721526,0.13713469185263347,0.9760912656784058,0.17021821439266205,-0.13517139852046967
1729110326301,7i,4.737848849088877,0.9s : 0.3s,-7.165473470852859,0.005819128867899333,0.44305309635433826,0.03925483609226212,0.8656341433525085,0.043416135013103485,-0.04603095352649689,-0.003566443920135498,0.0019815564155578613,0.03904223442077637,-0.17031893755830374,1.43223616045071,0.12884849644917035,0.9760852456092834,0.16949668526649475,-0.13611876964569092
1729110326311,7i,4.737848849088877,0.9s : 0.3s,-7.165473470852859,0.0063255478377167345,0.515242528092059,0.0552239605783433,1.0166451930999756,0.04363362491130829,-0.05038009583950043,-0.008266150951385498,0.05282723903656006,0.013807222247123718,-0.16947950264881204,1.4310964012487597,0.11932993666932622,0.9760701060295105,0.16866932809352875,-0.13725094497203827
1729110326321,7i,4.737848849088877,0.9s : 0.3s,-7.165473470852859,0.006857393065246121,0.6027204040798693,0.06784279110865155,1.2005788087844849,0.039524368941783905,-0.05260223522782326,-0.017484843730926514,0.06533041596412659,0.005372270941734314,-0.16843609339360455,1.4296331744116326,0.10815390872848708,0.9760419726371765,0.1676407754421234,-0.13870370388031006
1729110326331,7i,4.737848849088877,0.9s : 0.3s,-7.165473470852859,0.007400182290690585,0.6818153448311207,0.06244315108843134,1.2905362844467163,0.04262593388557434,-0.01930190436542034,-0.019862830638885498,0.057833075523376465,0.012647151947021484,-0.16701762945744528,1.4279359052884355,0.09548614667101833,0.976039469242096,0.16624222695827484,-0.14039382338523865
1729110326341,7i,4.737848849088877,0.9s : 0.3s,-7.165473470852859,0.00793174913200208,0.7233876019309,0.05019157285221768,1.222567081451416,0.030594833195209503,-0.002560475841164589,-0.0024002790451049805,0.03928974270820618,0.03114078938961029,-0.16528875268485094,1.4262113297180798,0.08278609907264192,0.9760788679122925,0.16453716158866882,-0.14211806654930115
1729110326351,7i,4.737848849088877,0.9s : 0.3s,-7.165473470852859,0.008398587639873048,0.7226371554752177,0.03416717684137891,1.0671721696853638,0.012917126528918743,0.0006602844223380089,0.010920107364654541,-0.010769084095954895,0.03053152561187744,-0.1636283828625217,1.4245466288249236,0.07125919555269536,0.9761098623275757,0.1628991812467575,-0.1437823474407196
1729110326361,7i,4.737848849088877,0.9s : 0.3s,-7.165473470852859,0.008768697682286776,0.6887601448485372,0.05835805808369305,0.9091992974281311,-0.010517891496419907,-0.003987996838986874,0.030507564544677734,-0.046550676226615906,0.017549529671669006,-0.16218999575190926,1.4229838149935174,0.06140377932609069,0.9761146306991577,0.16147984564304352,-0.14534200727939606
1729110326371,7i,4.737848849088877,0.9s : 0.3s,-7.165473470852859,0.008946580288654018,0.6521806452461187,0.06611719005131966,0.8448423743247986,-0.03321121633052826,-0.022549163550138474,0.041729092597961426,-0.05127197504043579,0.0011619925498962402,-0.16102141932476224,1.4213549082821781,0.05266515594037899,0.9760625958442688,0.1603264957666397,-0.1469598114490509
1729110326381,7i,4.737848849088877,0.9s : 0.3s,-7.165473470852859,0.009033635262500976,0.6454219090228367,0.05206198955298609,0.8945159316062927,-0.11322961747646332,0.2946311831474304,0.03597348928451538,-0.02525569498538971,-0.027901768684387207,-0.15949114565402436,1.4194338775626787,0.044047954875809925,0.9760197997093201,0.15881583094596863,-0.14887140691280365
1729110326391,7i,4.737848849088877,0.9s : 0.3s,-7.165473470852859,0.009210533148450736,0.6795687321980822,0.11272959295248787,0.9868282079696655,-0.3292502164840698,0.8591763377189636,0.09923815727233887,0.024838566780090332,-0.047358155250549316,-0.1588269626258334,1.4176067491930335,0.03495271682474712,0.9758502840995789,0.1581600457429886,-0.15067054331302643
1729110326401,7i,4.737848849088877,0.9s : 0.3s,-7.165473470852859,0.009423026372194224,0.6979528926373662,0.0666120650125212,0.9651985168457031,-0.3885153830051422,0.4579697549343109,-0.02405226230621338,0.02904599905014038,-0.054908886551856995,-0.15875379072504983,1.4164176825645376,0.02561547515141639,0.9756819605827332,0.15808779001235962,-0.15183258056640625
1729110326411,7i,4.737848849088877,0.9s : 0.3s,-7.165473470852859,0.009554904694533071,0.659698139298305,0.07674811706565031,0.893351137638092,-0.11826716363430023,-0.07130531966686249,-0.06221204996109009,-0.0058250874280929565,-0.044564589858055115,-0.15746065882179366,1.4143866837109502,0.016454642072366982,0.9755724668502808,0.15681079030036926,-0.15384554862976074
1729110326421,7i,4.737848849088877,0.9s : 0.3s,-7.165473470852859,0.009649632192982587,0.6274197905842164,0.04220467725843948,0.8437337875366211,-0.05225859209895134,-0.029400747269392014,0.006132185459136963,-0.03214731812477112,-0.026649221777915955,-0.15621017909501864,1.4123517892243613,0.00770277981017984,0.9754502773284912,0.15557566285133362,-0.1558612436056137
1729110326431,7i,4.737848849088877,0.9s : 0.3s,-7.165473470852859,0.009661932596613137,0.5922736376752126,0.05983829549980569,0.7660053968429565,-0.06550595909357071,-0.01145443506538868,0.038026392459869385,-0.03687901794910431,-0.02783079445362091,-0.15523861234969633,1.4105058344686545,-0.0003612625578965546,0.9753098487854004,0.1546158492565155,-0.15768568217754364
1729110326441,7i,4.737848849088877,0.9s : 0.3s,-7.165473470852859,0.009473334378326965,0.549555187132832,0.07455201929544142,0.6713507771492004,-0.0733787938952446,-0.027441658079624176,0.008784055709838867,-0.06906478106975555,-0.026662707328796387,-0.15420890491053832,1.4086927016747806,-0.007567464875481074,0.9751788377761841,0.15359844267368317,-0.15947939455509186
1729110326451,7i,4.737848849088877,0.9s : 0.3s,-7.165473470852859,0.009151051716924579,0.5086693890978988,0.08369346970257381,0.6158612966537476,-0.07096627354621887,-0.08195193111896515,0.014117717742919922,-0.07328446209430695,-0.037877097725868225,-0.15335261025637204,1.4068828569730758,-0.01392884613572305,0.9750180840492249,0.15275225043296814,-0.16126546263694763
1729110326461,7i,4.737848849088877,0.9s : 0.3s,-7.165473470852859,0.008842702568985972,0.48321895080324895,0.06243609671668112,0.626583993434906,-0.0596635565161705,-0.14860446751117706,0.005728363990783691,-0.04918980598449707,-0.038023874163627625,-0.15257958142168132,1.4050185622195048,-0.020010749349670492,0.9748318195343018,0.15198825299739838,-0.16310232877731323
1729110326471,7i,4.737848849088877,0.9s : 0.3s,-7.165473470852859,0.008579455345778492,0.471734168392431,0.028441515952918286,0.6497697234153748,-0.03452056273818016,-0.18627089262008667,-0.009180188179016113,-0.017648950219154358,-0.02032630145549774,-0.1516832592243242,1.4032754883360985,-0.02622146483725549,0.9746799468994141,0.15110227465629578,-0.16482391953468323
1729110326481,7i,4.737848849088877,0.9s : 0.3s,-7.165473470852859,0.008336995714213598,0.4633461468178859,0.03974896883957465,0.6295166611671448,-0.02133818157017231,-0.22077880799770355,-0.03412073850631714,-0.019675686955451965,-0.005350053310394287,-0.1506927313341855,1.4016966227117844,-0.03224253777589586,0.9745656251907349,0.15012304484844208,-0.16638772189617157
1729110326491,7i,4.737848849088877,0.9s : 0.3s,-7.165473470852859,0.008089481292302123,0.45173537996838126,0.06018567812813109,0.5942509174346924,-0.020537856966257095,-0.25159406661987305,-0.04812455177307129,-0.036055684089660645,-0.00251615047454834,-0.14960442343472086,1.4002573700408858,-0.03782494403923109,0.9744855165481567,0.14904698729515076,-0.16781781613826752
1729110326501,7i,4.737848849088877,0.9s : 0.3s,-7.165473470852859,0.007722240299305269,0.43955015848907536,0.08148028051518633,0.5575048923492432,-0.030467454344034195,-0.2796027958393097,-0.056688904762268066,-0.05834871530532837,-0.004564166069030762,-0.1484934250444858,1.3988647115080426,-0.04288726482450067,0.9744133949279785,0.14794830977916718,-0.1692030131816864
1729110326511,7i,4.737848849088877,0.9s : 0.3s,-7.165473470852859,0.007229651790332438,0.42095831385066157,0.10187313528260775,0.49126380681991577,-0.032313380390405655,-0.29696574807167053,-0.07274019718170166,-0.07099585235118866,-0.006825566291809082,-0.1473339317552096,1.3975982252458936,-0.04728062762146963,0.9743667244911194,0.14680147171020508,-0.17046640813350677
1729110326521,7i,4.737848849088877,0.9s : 0.3s,-7.165473470852859,0.006678797036840368,0.39780403698913763,0.11522945026522176,0.4165235459804535,-0.05249188467860222,-0.32157015800476074,-0.09077203273773193,-0.0700499564409256,-0.01145721971988678,-0.1462235472141464,1.3964609736030873,-0.050737401391579486,0.9743322134017944,0.1457030326128006,-0.17160257697105408
1729110326531,7i,4.737848849088877,0.9s : 0.3s,-7.165473470852859,0.0061667491636411146,0.3847179596351372,0.1261237246210302,0.4101147949695587,-0.07729510217905045,-0.3447365462779999,-0.10429239273071289,-0.0682116448879242,-0.01942838728427887,-0.14522916835109445,1.395287072146756,-0.05359362627885479,0.9742722511291504,0.1447191834449768,-0.17277143895626068
1729110326541,7i,4.737848849088877,0.9s : 0.3s,-7.165473470852859,0.0058180041443459075,0.38369899671568447,0.10867631938276572,0.43676984310150146,-0.09855750948190689,-0.345995157957077,-0.0969383716583252,-0.04006075859069824,-0.02843642234802246,-0.14421301826225244,1.3940189373388234,-0.056432869848795426,0.9741965532302856,0.14371366798877716,-0.1740325689315796
1729110326551,7i,4.737848849088877,0.9s : 0.3s,-7.165473470852859,0.005684961680089344,0.37785633653789463,0.10752768591850266,0.4283829927444458,-0.10843047499656677,-0.3076004385948181,-0.10251867771148682,-0.016102924942970276,-0.028157055377960205,-0.1432093082730159,1.3928340502225969,-0.05927315508409052,0.9741311073303223,0.1427202969789505,-0.17521220445632935
1729110326561,7i,4.737848849088877,0.9s : 0.3s,-7.165473470852859,0.0057654698806943894,0.36230454666297474,0.10314546923239941,0.3978850245475769,-0.12047675251960754,-0.256906658411026,-0.1011660099029541,-0.01609852910041809,-0.012052536010742188,-0.1422337269089409,1.3917404738591488,-0.06185027666582215,0.974075436592102,0.1417546421289444,-0.17630209028720856
1729110326571,7i,4.737848849088877,0.9s : 0.3s,-7.165473470852859,0.006033182732735199,0.34585414215873567,0.08865453134115113,0.3798888325691223,-0.1384546458721161,-0.22332321107387543,-0.0850369930267334,-0.02385731041431427,-0.0076918452978134155,-0.14131628186149034,1.3906711001192027,-0.06417694092659958,0.9740138649940491,0.1408464014530182,-0.17736686766147614
1729110326581,7i,4.737848849088877,0.9s : 0.3s,-7.165473470852859,0.006463149427288131,0.33344153281757005,0.07816093158900472,0.39686089754104614,-0.14693309366703033,-0.1778089851140976,-0.07409793138504028,-0.017841115593910217,-0.017329812049865723,-0.14049523551067802,1.3895273493132252,-0.06653372949787863,0.973923921585083,0.14003348350524902,-0.17850157618522644
1729110326591,7i,4.737848849088877,0.9s : 0.3s,-7.165473470852859,0.00702432624849065,0.3173180351192862,0.07494826424974117,0.3686060607433319,-0.15904362499713898,-0.13635608553886414,-0.07117730379104614,0.0015515238046646118,-0.02342277765274048,-0.1395719343364197,1.3884436620254175,-0.06886459702960246,0.9738566279411316,0.1391192227602005,-0.17958027124404907
1729110326601,7i,4.737848849088877,0.9s : 0.3s,-7.165473470852859,0.00767029339976653,0.2924320536613093,0.08489335963561351,0.3030949831008911,-0.16241759061813354,-0.09783985465765,-0.07798588275909424,-0.030436381697654724,-0.014096498489379883,-0.13874544758345642,1.3874119950049326,-0.07081372485111485,0.9737834930419922,0.13830073177814484,-0.18060576915740967
1729110326611,7i,4.737848849088877,0.9s : 0.3s,-7.165473470852859,0.008373497178019872,0.26559762157061007,0.08921689928039093,0.26099494099617004,-0.16667713224887848,-0.054054029285907745,-0.08057749271392822,-0.03821262717247009,-0.0025918930768966675,-0.13798477971336706,1.386492032281759,-0.07221081805024503,0.9737200736999512,0.1375473290681839,-0.1815207600593567
1729110326621,7i,4.737848849088877,0.9s : 0.3s,-7.165473470852859,0.009119838908344695,0.2414021262183336,0.08126614073508175,0.23028841614723206,-0.17227697372436523,-0.0272397231310606,-0.07509434223175049,-0.030324071645736694,-0.006743595004081726,-0.13727637238629417,1.3856027742030466,-0.07328854388803924,0.9736537337303162,0.13684561848640442,-0.18240447342395782
1729110326631,7i,4.737848849088877,0.9s : 0.3s,-7.165473470852859,0.009893402214829306,0.22128596505217685,0.07096268342295968,0.21748901903629303,-0.16785673797130585,0.010052920319139957,-0.06913304328918457,-0.013589814305305481,-0.008464142680168152,-0.13660333803829394,1.384801478032818,-0.07422193793729044,0.9735975861549377,0.1361788809299469,-0.18320158123970032
1729110326641,7i,4.737848849088877,0.9s : 0.3s,-7.165473470852859,0.010670381550612066,0.20380708146781384,0.062327806793728444,0.19374880194664001,-0.16735872626304626,0.03397876024246216,-0.06200641393661499,-0.002475947141647339,-0.005816340446472168,-0.13595094665438406,1.3840734783729272,-0.07503000133754117,0.9735510945320129,0.13553254306316376,-0.1839267909526825
1729110326651,7i,4.737848849088877,0.9s : 0.3s,-7.165473470852859,0.011442419864332178,0.18815015109501418,0.06291598944476426,0.1687794029712677,-0.16353988647460938,0.05966797471046448,-0.06175118684768677,-0.010451778769493103,0.005997747182846069,-0.1353457727640827,1.383411209135488,-0.0756753297620365,0.9735093712806702,0.13493293523788452,-0.18458671867847443
1729110326661,7i,4.737848849088877,0.9s : 0.3s,-7.165473470852859,0.012191818296638937,0.17424291856549598,0.056300920829055974,0.14068305492401123,-0.16116595268249512,0.08488358557224274,-0.055139243602752686,-0.008816197514533997,0.007192507386207581,-0.13477310460837172,1.3828100430327381,-0.07612717815851423,0.9734740853309631,0.13436546921730042,-0.18518635630607605
1729110326671,7i,4.737848849088877,0.9s : 0.3s,-7.165473470852859,0.012897806602187046,0.16269536491018657,0.05013158235177064,0.10884242504835129,-0.16047029197216034,0.10619303584098816,-0.047372281551361084,-0.011541768908500671,0.01165461540222168,-0.13424376338505944,1.3822683346323987,-0.07635179115962122,0.9734433889389038,0.1338409185409546,-0.18572697043418884
1729110326681,7i,4.737848849088877,0.9s : 0.3s,-7.165473470852859,0.013585082339379835,0.15985866622645822,0.051592274474969266,0.09473618865013123,-0.1600886583328247,0.12556593120098114,-0.04729664325714111,-0.017230167984962463,0.011309802532196045,-0.13374794940649912,1.3817575030270275,-0.07641220790127155,0.9734134674072266,0.13334955275058746,-0.1862366795539856
1729110326691,7i,4.737848849088877,0.9s : 0.3s,-7.165473470852859,0.014250948053672281,0.15816590764182628,0.0466747243003935,0.10676822066307068,-0.15698140859603882,0.13558319211006165,-0.045783817768096924,-0.008813858032226562,0.0021651387214660645,-0.13326183932210175,1.3812417817379359,-0.07652532362684114,0.9733807444572449,0.13286776840686798,-0.18675082921981812
1729110326701,7i,4.737848849088877,0.9s : 0.3s,-7.165473470852859,0.014875286526237288,0.15745520262937038,0.039490903054376796,0.11224953830242157,-0.15753987431526184,0.1505642682313919,-0.03902018070220947,0.005973920226097107,-0.0011265873908996582,-0.13275178182012035,1.380701944285945,-0.07682580886401666,0.9733462929725647,0.1323622167110443,-0.1872890591621399
1729110326711,7i,4.737848849088877,0.9s : 0.3s,-7.165473470852859,0.015458456378455138,0.15676557450741171,0.03698042815919023,0.10890181362628937,-0.15452396869659424,0.14956021308898926,-0.033903658390045166,0.014500543475151062,0.0027979016304016113,-0.13229307457420095,1.3801149301605837,-0.07718542274003357,0.9732956886291504,0.13190752267837524,-0.18787188827991486
1729110326721,7i,4.737848849088877,0.9s : 0.3s,-7.165473470852859,0.016017085084465046,0.15626080449898208,0.04226104172598293,0.11450271308422089,-0.1450796127319336,0.15352804958820343,-0.03371351957321167,0.025430575013160706,-0.001637101173400879,-0.131888087892209,1.3795555176174794,-0.07764940399057801,0.9732428789138794,0.1315060704946518,-0.18842647969722748
1729110326731,7i,4.737848849088877,0.9s : 0.3s,-7.165473470852859,0.016552252213644605,0.15565727552125763,0.04531271728844797,0.1150146946310997,-0.13925433158874512,0.15019288659095764,-0.03175407648086548,0.03164424002170563,-0.006600230932235718,-0.13153066129327712,1.3790357421618098,-0.07821413459459921,0.9731908440589905,0.1311517357826233,-0.18894127011299133
1729110326741,7i,4.737848849088877,0.9s : 0.3s,-7.165473470852859,0.017066348309890456,0.15513040246680654,0.040495198239037106,0.12118497490882874,-0.12873990833759308,0.1534712314605713,-0.03286176919937134,0.0236140638589859,-0.0015300959348678589,-0.1311807795056408,1.3785229764233768,-0.07888861893538784,0.9731387495994568,0.1308048665523529,-0.1894490122795105
1729110326751,7i,4.737848849088877,0.9s : 0.3s,-7.165473470852859,0.017558575613711797,0.1540258144233002,0.03374237788484793,0.11039797961711884,-0.12188693881034851,0.1529305875301361,-0.029828011989593506,0.01573079824447632,0.001174628734588623,-0.1308058374529365,1.3780424781670415,-0.07961091505362619,0.973095715045929,0.13043314218521118,-0.18992596864700317
1729110326761,7i,4.737848849088877,0.9s : 0.3s,-7.165473470852859,0.018002630319368138,0.14983274576625238,0.022209384554156556,0.08022995293140411,-0.11340291053056717,0.1481025367975235,-0.019486844539642334,0.007453128695487976,0.007613837718963623,-0.13044391637540048,1.3775813228492477,-0.08020065354989163,0.9730542302131653,0.13007430732250214,-0.19038373231887817
1729110326771,7i,4.737848849088877,0.9s : 0.3s,-7.165473470852859,0.018404619234630652,0.14131706693040322,0.024936657800202038,0.04590633511543274,-0.10952099412679672,0.14546939730644226,-0.009673237800598145,0.002651706337928772,0.022830545902252197,-0.13014642061014048,1.3771304371201387,-0.08048014644279354,0.9730062484741211,0.12977932393550873,-0.19082988798618317
1729110326781,7i,4.737848849088877,0.9s : 0.3s,-7.165473470852859,0.01876573721707735,0.13252026488413768,0.030272850523801072,0.037759456783533096,-0.10428415238857269,0.1320103108882904,-0.00826805830001831,-0.0007905364036560059,0.029111161828041077,-0.1299246314004789,1.3766561038273744,-0.0806126556196857,0.9729437828063965,0.12955941259860992,-0.19129694998264313
1729110326791,7i,4.737848849088877,0.9s : 0.3s,-7.165473470852859,0.019089582412895014,0.12246247892310602,0.022038604033242985,0.030181968584656715,-0.09114696085453033,0.11858492344617844,-0.005294620990753174,0.00786176323890686,0.01989622414112091,-0.12975478355211542,1.3762356330741226,-0.08073089746899254,0.9728848338127136,0.12939098477363586,-0.19171026349067688
1729110326801,7i,4.737848849088877,0.9s : 0.3s,-7.165473470852859,0.019379988317430596,0.11399507127123748,0.020938158088641586,0.04971678555011749,-0.08586191385984421,0.09964558482170105,-0.004725039005279541,0.009926557540893555,0.017819762229919434,-0.1296883866397531,1.3757680552833407,-0.08091312778268418,0.97280353307724,0.12932515144348145,-0.19216682016849518
1729110326811,7i,4.737848849088877,0.9s : 0.3s,-7.165473470852859,0.01964338779185219,0.11019827840261624,0.024395028992936146,0.08552058786153793,-0.07123476266860962,0.0883856788277626,-0.007677555084228516,0.016958534717559814,0.015766441822052002,-0.12958301898013067,1.3752620403106224,-0.08149824857002247,0.9727196097373962,0.12922066450119019,-0.19266170263290405
1729110326821,7i,4.737848849088877,0.9s : 0.3s,-7.165473470852859,0.01989036493095927,0.10564438060729138,0.021952653671540173,0.09803611785173416,-0.06584106385707855,0.06686600297689438,-0.011046051979064941,0.0187053382396698,0.0031644999980926514,-0.12940632206973507,1.3747313650079918,-0.0823407616135413,0.9726395010948181,0.12904545664787292,-0.19318228960037231
1729110326831,7i,4.737848849088877,0.9s : 0.3s,-7.165473470852859,0.020115465502190212,0.09926609768298611,0.011572882894693411,0.09913959354162216,-0.057028092443943024,0.05011634901165962,-0.0033576488494873047,0.010633677244186401,0.0030955970287323,-0.1291752846273131,1.3741963468916365,-0.08324922768827453,0.9725651741027832,0.12881633639335632,-0.19370846450328827
1729110326841,7i,4.737848849088877,0.9s : 0.3s,-7.165473470852859,0.020317434383217484,0.08485790045820149,0.006368956379343183,0.0752401202917099,-0.034284427762031555,0.022593913599848747,0.0008242130279541016,-0.003855779767036438,0.005001723766326904,-0.12890728450545239,1.373780913443945,-0.0840807039434393,0.9725186228752136,0.12855057418346405,-0.19411925971508026
1729110326851,7i,4.737848849088877,0.9s : 0.3s,-7.165473470852859,0.020506579369971596,0.06829085470279922,0.017366166346773227,0.024697987362742424,-0.0314740389585495,0.02030116505920887,-0.006910979747772217,-0.01342947781085968,0.008571535348892212,-0.1286368419673414,1.373600429151004,-0.08449585976232508,0.9725174903869629,0.128282368183136,-0.1943015605211258
1729110326861,7i,4.737848849088877,0.9s : 0.3s,-7.165473470852859,0.020686297922650428,0.05516172331302837,0.022715315533881782,0.013379552401602268,-0.03296620771288872,0.016477130353450775,-0.009208261966705322,-0.017710059881210327,0.010841920971870422,-0.12846039926180763,1.3735297359370233,-0.08456522466048096,0.972525954246521,0.12810738384723663,-0.19437475502490997
1729110326871,7i,4.737848849088877,0.9s : 0.3s,-7.165473470852859,0.020855562845023764,0.053348992790841765,0.006126096584716165,0.04966871812939644,-0.032724618911743164,0.014996579848229885,-0.006045103073120117,-0.0009439438581466675,-0.0003078281879425049,-0.12837144236061251,1.3733706061846362,-0.08479725399107897,0.9725062847137451,0.12801915407180786,-0.19453176856040955
1729110326881,7i,4.737848849088877,0.9s : 0.3s,-7.165473470852859,0.0210130588997981,0.05196871204884911,0.01096658662069141,0.05665498971939087,-0.026029961183667183,0.01644107885658741,-0.003348410129547119,0.008406728506088257,-0.006195247173309326,-0.12826669034767382,1.3732452477543884,-0.08529791225485295,0.9724950790405273,0.12791526317596436,-0.19465631246566772
1729110326891,7i,4.737848849088877,0.9s : 0.3s,-7.165473470852859,0.021158930663338297,0.05137930000658202,0.006896396740352736,0.06276334822177887,-0.03829856961965561,0.011279439553618431,-0.004248380661010742,-0.0031090378761291504,0.004454821348190308,-0.12833898203103414,1.373055626224519,-0.0857851875259913,0.9724490642547607,0.12798696756362915,-0.19483889639377594
1729110326901,7i,4.737848849088877,0.9s : 0.3s,-7.165473470852859,0.02128471456446459,0.05412242422569482,0.009114719214343734,0.10378322005271912,-0.028505591675639153,0.012176924385130405,0.003184199333190918,0.0008402615785598755,0.008498996496200562,-0.12841865571750555,1.3726293189226748,-0.08658697736732189,0.9723557829856873,0.12806597352027893,-0.19525140523910522
1729110326911,7i,4.737848849088877,0.9s : 0.3s,-7.165473470852859,0.021385424958992233,0.0623785531068442,0.022688777100235393,0.1277892142534256,-0.024912720546126366,0.01248105801641941,0.009811997413635254,0.020451784133911133,0.00047941505908966064,-0.12826074010328392,1.372265780282222,-0.08770408874867937,0.9723045825958252,0.1279093623161316,-0.19560886919498444
1729110326921,7i,4.737848849088877,0.9s : 0.3s,-7.165473470852859,0.021474434016928282,0.06389603417412056,0.00867539195974762,0.11105205118656158,-0.02501045912504196,0.015256337821483612,0.00039947032928466797,0.00828811526298523,0.00253179669380188,-0.12781706684814118,1.3719711630300235,-0.08885907551944386,0.9723023176193237,0.12746931612491608,-0.19590649008750916
1729110326931,7i,4.737848849088877,0.9s : 0.3s,-7.165473470852859,0.021554647912144488,0.06547493750772941,0.00606555225871208,0.11270920187234879,-0.024011731147766113,0.02048162743449211,-0.00135725736618042,0.0012068450450897217,0.005787253379821777,-0.12724908620797137,1.3716978436183216,-0.08990813666452081,0.9723196625709534,0.12690594792366028,-0.19618654251098633
1729110326941,7i,4.737848849088877,0.9s : 0.3s,-7.165473470852859,0.02163054562961505,0.06946753170981229,0.004725769144605306,0.12422630935907364,-0.023881766945123672,0.020730098709464073,-0.0019913315773010254,-0.001869291067123413,-0.0038565844297409058,-0.12656601003775547,1.3714646559672081,-0.09101256521047846,0.9723585844039917,0.12622837722301483,-0.19643037021160126
1729110326951,7i,4.737848849088877,0.9s : 0.3s,-7.165473470852859,0.021712910641039248,0.07132075042536534,0.015258314419555262,0.12189138680696487,-0.025420675054192543,0.02052759937942028,-0.00967395305633545,-0.004686042666435242,-0.01082921028137207,-0.12614458367757503,1.3710825313239812,-0.09219548008907436,0.9723356366157532,0.12581031024456024,-0.1968124806880951
1729110326961,7i,4.737848849088877,0.9s : 0.3s,-7.165473470852859,0.021800882160847433,0.07394295459878333,0.015644108551152922,0.12808988988399506,-0.025371938943862915,0.019302545115351677,-0.009415805339813232,-0.005553379654884338,-0.011191099882125854,-0.12588066845931964,1.3706140849570396,-0.09340022862378476,0.9722757339477539,0.12554848194122314,-0.19727452099323273
1729110326971,7i,4.737848849088877,0.9s : 0.3s,-7.165473470852859,0.021887479224562478,0.07495172052739608,0.01001402725783132,0.12203585356473923,-0.024188030511140823,0.018634658306837082,-0.004478096961975098,-0.0020516663789749146,-0.008718833327293396,-0.12544251329645995,1.3702953855080147,-0.09458363874998311,0.972266674041748,0.12511378526687622,-0.19759532809257507
1729110326981,7i,4.737848849088877,0.9s : 0.3s,-7.165473470852859,0.021972471562807155,0.0749842089727197,0.0075751807575404565,0.10709579288959503,-0.022505447268486023,0.02589736320078373,-0.006084084510803223,-0.004513002932071686,9.149312973022461e-06,-0.12504734853695756,1.3700701258734944,-0.09565701738105511,0.9722704291343689,0.1247217133641243,-0.1978241503238678
1729110326991,7i,4.737848849088877,0.9s : 0.3s,-7.165473470852859,0.022057937324848627,0.07513558088481499,0.01860068529102438,0.10783787816762924,-0.02681919001042843,0.02571670338511467,-0.007884681224822998,-0.016257144510746002,0.004418432712554932,-0.12491913381479593,1.3697600109624144,-0.09662651467443638,0.9722248315811157,0.12459449470043182,-0.19812887907028198
1729110327001,7i,4.737848849088877,0.9s : 0.3s,-7.165473470852859,0.022140699241567505,0.08658774933483256,0.012323699261477332,0.16713927686214447,-0.022278500720858574,0.021713972091674805,-0.0023106932640075684,-0.006383106112480164,-0.010285437107086182,-0.12462538268744867,1.3694793077217466,-0.09792424820976355,0.9722050428390503,0.12430302798748016,-0.1984090954065323
1729110327011,7i,4.737848849088877,0.9s : 0.3s,-7.165473470852859,0.022220857009437753,0.10030100744502422,0.011705576039529033,0.1968947947025299,-0.009887432679533958,0.025608912110328674,-0.002309858798980713,-0.005786970257759094,-0.009909391403198242,-0.12402459767228928,1.3691077928938784,-0.09968404656650867,0.9722042083740234,0.1237068846821785,-0.1987851858139038
1729110327021,7i,4.737848849088877,0.9s : 0.3s,-7.165473470852859,0.0223048062120715,0.10944432328410231,0.012811351796440674,0.19466198980808258,-0.001803407445549965,0.023883182555437088,-0.011330366134643555,-0.0047528669238090515,0.0036281943321228027,-0.12338229944807762,1.368807091758304,-0.10159990076327664,0.9722219705581665,0.12306949496269226,-0.19909341633319855
1729110327031,7i,4.737848849088877,0.9s : 0.3s,-7.165473470852859,0.02239844227788428,0.12500518965275784,0.01639545283928453,0.2413834184408188,0.0030609453096985817,0.014115506783127785,-0.015445709228515625,0.000820554792881012,-0.005437612533569336,-0.12274792272725063,1.3684016196162123,-0.10367648889665038,0.9722175002098083,0.1224399134516716,-0.19950325787067413
1729110327041,7i,4.737848849088877,0.9s : 0.3s,-7.165473470852859,0.022487794384755035,0.1479797881552883,0.022693569351871914,0.3006957471370697,0.01721484772861004,0.01805991306900978,-0.0024781227111816406,0.016420237720012665,-0.015467151999473572,-0.12203545826242998,1.3680632638389467,-0.10634119293469596,0.9722350835800171,0.12173277884721756,-0.1998497098684311
1729110327051,7i,4.737848849088877,0.9s : 0.3s,-7.165473470852859,0.022577157773418597,0.15873104131930307,0.022813428507613597,0.2727707624435425,0.0368281826376915,0.017450349405407906,-0.006993472576141357,0.018058255314826965,-0.012059986591339111,-0.1212922334363541,1.3679204392637965,-0.10918727645719577,0.9722948670387268,0.12099504470825195,-0.20000675320625305
1729110327061,7i,4.737848849088877,0.9s : 0.3s,-7.165473470852859,0.022672576840852016,0.15857389909606678,0.013414532443621306,0.23319247364997864,0.03119932860136032,0.006763084791600704,-0.01284879446029663,-0.0022829100489616394,-0.0031058788299560547,-0.12066325327079143,1.367986102396047,-0.1116079376806125,0.9723824262619019,0.12037066370248795,-0.1999582052230835
1729110327071,7i,4.737848849088877,0.9s : 0.3s,-7.165473470852859,0.0227579287270768,0.17093605125230343,0.015292861120484778,0.29706132411956787,0.03265168517827988,-0.005551538430154324,0.0026388168334960938,-0.014693200588226318,-0.003319352865219116,-0.11999188763624752,1.3680497450112166,-0.11415363175272762,0.9724741578102112,0.11970414966344833,-0.19991256296634674
1729110327081,7i,4.737848849088877,0.9s : 0.3s,-7.165473470852859,0.022806893293128242,0.20012869483485657,0.03619561395463359,0.39433860778808594,0.0776899978518486,-0.0072311945259571075,0.014567196369171143,0.022106021642684937,-0.024682849645614624,-0.11921312179961195,1.3681486396515568,-0.1175820962524541,0.9725849032402039,0.11893095076084137,-0.19983507692813873
1729110327091,7i,4.737848849088877,0.9s : 0.3s,-7.165473470852859,0.022851139886407624,0.23131834300250564,0.06026484022835082,0.4428703486919403,0.10346509516239166,0.0008868861477822065,0.002645730972290039,0.046867385506629944,-0.03779284656047821,-0.11838694437424095,1.368454035576797,-0.12179818592787654,0.9727416634559631,0.11811059713363647,-0.19955770671367645
1729110327101,7i,4.737848849088877,0.9s : 0.3s,-7.165473470852859,0.022901590765566752,0.268648695390835,0.021611859421070398,0.5238818526268005,0.08100905269384384,0.005440625362098217,-0.004360020160675049,-0.02015519142150879,-0.006467685103416443,-0.11739422451903309,1.3688086534805042,-0.12655823551902964,0.9729267358779907,0.1171247661113739,-0.19923615455627441
1729110327111,7i,4.737848849088877,0.9s : 0.3s,-7.165473470852859,0.022916189263510342,0.3242020879186034,0.043939506285711055,0.6724094152450562,0.07644257694482803,-0.007129661738872528,0.01802682876586914,-0.034898094832897186,0.019693568348884583,-0.11632171107448878,1.3687951925726636,-0.13241034223094342,0.973046600818634,0.1160595715045929,-0.19927434623241425
1729110327121,7i,4.737848849088877,0.9s : 0.3s,-7.165473470852859,0.022886592165745144,0.3976967554944254,0.04122780952218917,0.8457077145576477,0.07206833362579346,-0.024564577266573906,0.02267634868621826,0.03161552548408508,-0.013637229800224304,-0.11493861204035528,1.368645670031723,-0.13990638735944685,0.9731731414794922,0.11468570679426193,-0.19945187866687775
1729110327131,7i,4.737848849088877,0.9s : 0.3s,-7.165473470852859,0.02293365158025751,0.4854799899589384,0.06947096670472026,1.0257911682128906,0.07386285811662674,-0.04941380023956299,-0.01211082935333252,0.05449840426445007,-0.04134570062160492,-0.11342342391962662,1.3683191805803439,-0.1492073122932619,0.9732770323753357,0.11318038403987885,-0.19980430603027344
1729110327141,7i,4.737848849088877,0.9s : 0.3s,-7.165473470852859,0.023105682739388924,0.5838276587629433,0.08774331868174443,1.208670973777771,0.06508561223745346,-0.08178852498531342,-0.024918973445892334,0.05292029678821564,-0.06540165841579437,-0.11178680899182737,1.3677541908358959,-0.16037861596348554,0.973344087600708,0.11155413091182709,-0.2003912478685379
1729110327151,7i,4.737848849088877,0.9s : 0.3s,-7.165473470852859,0.023324911176479387,0.6785212324536396,0.09517496575566667,1.3354915380477905,0.06682474166154861,-0.10284986346960068,-0.0049130916595458984,0.05369117856025696,-0.07843081653118134,-0.11013601908185133,1.3670064020843273,-0.17311394755949705,0.9733729958534241,0.10991349816322327,-0.20115603506565094
1729110327161,7i,4.737848849088877,0.9s : 0.3s,-7.165473470852859,0.023548799845930276,0.7441419571387792,0.07849457675152866,1.3308216333389282,0.0633314773440361,-0.11913562566041946,0.010031521320343018,0.05125162750482559,-0.058600664138793945,-0.1085070193289142,1.3661876314574954,-0.18658312652406947,0.9733820557594299,0.10829421877861023,-0.2019890695810318
1729110327171,7i,4.737848849088877,0.9s : 0.3s,-7.165473470852859,0.023779770279474383,0.7709054496786576,0.05180379294222747,1.233777642250061,0.03602404519915581,-0.1496955305337906,0.006179153919219971,-0.004067420959472656,-0.05127286911010742,-0.1071777294310971,1.3653046935956825,-0.19947903522705043,0.9733434319496155,0.10697265714406967,-0.20287762582302094
1729110327181,7i,4.737848849088877,0.9s : 0.3s,-7.165473470852859,0.02399786393294519,0.7965602624475815,0.04798853010372528,1.2653968334197998,0.02309093438088894,-0.1762981116771698,0.020998120307922363,-0.0015606582164764404,-0.04312241077423096,-0.10626799864170142,1.3642252938692652,-0.21201079003384282,0.9732187390327454,0.10606809705495834,-0.2039480060338974
1729110327191,7i,4.737848849088877,0.9s : 0.3s,-7.165473470852859,0.0242589698854068,0.8315475027300173,0.11443545815970174,1.3414335250854492,0.010427515022456646,-0.24769733846187592,0.007638275623321533,0.07658468186855316,-0.08468717336654663,-0.10544960571157543,1.3629576077383279,-0.22534724140167883,0.9730439782142639,0.10525428503751755,-0.20519942045211792
1729110327201,7i,4.737848849088877,0.9s : 0.3s,-7.165473470852859,0.02486927721046247,0.8849088583072375,0.2109293395021789,1.475807547569275,0.03605138510465622,-0.30186280608177185,-0.059772789478302,0.14845392107963562,-0.13740390539169312,-0.1053572047880844,1.3616398148471818,-0.2398882933123508,0.9727823734283447,0.10516239702701569,-0.20648355782032013
1729110327211,7i,4.737848849088877,0.9s : 0.3s,-7.165473470852859,0.025837085738871838,0.9293517946534496,0.311318402311947,1.502326250076294,0.03310033679008484,-0.346451073884964,-0.04979604482650757,0.2555968165397644,-0.17061585187911987,-0.10534617875481253,1.3603941434865083,-0.25523093991705126,0.972525417804718,0.10515143722295761,-0.2076953798532486
1729110327221,7i,4.737848849088877,0.9s : 0.3s,-7.165473470852859,0.02716107272952205,0.9688300786215607,0.25203967746487876,1.525023341178894,0.0017184459138661623,-0.4382864534854889,-0.09570014476776123,0.2036636471748352,-0.11351916193962097,-0.10601355369399622,1.358921229873099,-0.27086761988339847,0.9721497297286987,0.10581508278846741,-0.20911282300949097
1729110327231,7i,4.737848849088877,0.9s : 0.3s,-7.165473470852859,0.028904895763922876,1.022347978170629,0.30924970706824473,1.6339911222457886,-0.0016494765877723694,-0.521012544631958,-0.13247841596603394,0.25996917486190796,-0.10247379541397095,-0.10737871498238899,1.3571489941155828,-0.2874343927131315,0.9716354012489319,0.10717248171567917,-0.2108045220375061
1729110327241,7i,4.737848849088877,0.9s : 0.3s,-7.165473470852859,0.031260315743465474,1.0876286002621347,0.45924683050130044,1.7516807317733765,-0.007438390050083399,-0.60252845287323,-0.155656635761261,0.41249755024909973,-0.12854740023612976,-0.10924974317339789,1.355200107560933,-0.30523214660826337,0.9710251092910767,0.10903254896402359,-0.21265444159507751
1729110327251,7i,4.737848849088877,0.9s : 0.3s,-7.165473470852859,0.03435812819319708,1.1647908911275302,0.5039729703266846,1.8853974342346191,-0.004890454933047295,-0.690625786781311,-0.22140920162200928,0.43417441844940186,-0.12829378247261047,-0.11165064373665055,1.3529937807789107,-0.3245414530186279,0.9702953100204468,0.11141882091760635,-0.21473917365074158
1729110327261,7i,4.737848849088877,0.9s : 0.3s,-7.165473470852859,0.038195763834891705,1.2297432614152872,0.5431281074490001,1.9027959108352661,-0.005238529294729233,-0.8019877076148987,-0.2615712285041809,0.4569401741027832,-0.13332033157348633,-0.11478385902749334,1.3506398071960142,-0.34483107964947074,0.9694415926933289,0.114531971514225,-0.21694530546665192
1729110327271,7i,4.737848849088877,0.9s : 0.3s,-7.165473470852859,0.04274997804691348,1.2989563953605823,0.6020875838390694,1.9875297546386719,-0.022860843688249588,-0.9012730717658997,-0.3019539713859558,0.5094203948974609,-0.10873876512050629,-0.11881913167733825,1.3480926897057492,-0.36577020146712247,0.9684271812438965,0.11853975057601929,-0.219310000538826
1729110327281,7i,4.737848849088877,0.9s : 0.3s,-7.165473470852859,0.04803280978233514,1.3852568317037552,0.6560290253228935,2.136387825012207,-0.04626603424549103,-1.0243912935256958,-0.336372435092926,0.5484615564346313,-0.12813113629817963,-0.12360583846524713,1.3450255276757437,-0.38820001051506237,0.9671858549118042,0.12329132854938507,-0.22214971482753754
1729110327291,7i,4.737848849088877,0.9s : 0.3s,-7.165473470852859,0.054114612767426865,1.468904054995131,0.737503957977252,2.1950855255126953,-0.05960296839475632,-1.1685094833374023,-0.3554132580757141,0.6213270425796509,-0.1776125282049179,-0.12935375265274893,1.3414903136204244,-0.4120131003320403,0.9656884074211121,0.12899331748485565,-0.22540272772312164
1729110327301,7i,4.737848849088877,0.9s : 0.3s,-7.165473470852859,0.060920190878757274,1.5568731915993672,0.7857920399806784,2.273632526397705,-0.07819582521915436,-1.3302046060562134,-0.3674958348274231,0.6698576211929321,-0.18359386920928955,-0.13642761602294473,1.337503404625827,-0.43680839638343344,0.9638702869415283,0.13600480556488037,-0.22903437912464142
1729110327311,7i,4.737848849088877,0.9s : 0.3s,-7.165473470852859,0.0683323571925758,1.6509106979876405,0.810766165438909,2.371490955352783,-0.11192671209573746,-1.4766650199890137,-0.3805663585662842,0.6923002004623413,-0.18229496479034424,-0.14464461351043628,1.332943265617856,-0.46290004253393896,0.9616972804069519,0.14414076507091522,-0.23315617442131042
1729110327321,7i,4.737848849088877,0.9s : 0.3s,-7.165473470852859,0.07634274749667504,1.7425979302808028,0.8648959209785599,2.4200193881988525,-0.14372646808624268,-1.6382898092269897,-0.3810712695121765,0.7498458623886108,-0.20139718055725098,-0.15406794171122845,1.3275888292686393,-0.4902175833018863,0.9590741395950317,0.15345914661884308,-0.2379644811153412
1729110327331,7i,4.737848849088877,0.9s : 0.3s,-7.165473470852859,0.08482057659360547,1.8328130398384603,0.8891393466093531,2.468940019607544,-0.18585801124572754,-1.7906296253204346,-0.3598376512527466,0.7939958572387695,-0.17508918046951294,-0.16472535498326976,1.3214990767195698,-0.5184431822478459,0.955967903137207,0.16398140788078308,-0.24338321387767792
1729110327341,7i,4.737848849088877,0.9s : 0.3s,-7.165473470852859,0.0936483382462237,1.9260890318646002,0.8898006158909453,2.528733491897583,-0.2119665890932083,-1.9579253196716309,-0.3530328869819641,0.7967159152030945,-0.1798795908689499,-0.1766283900074526,1.3145233609363722,-0.547799759678954,0.9522911310195923,0.17571142315864563,-0.24953331053256989
1729110327351,7i,4.737848849088877,0.9s : 0.3s,-7.165473470852859,0.10286984852309357,2.015667418929298,0.9289524846693094,2.53987979888916,-0.24512706696987152,-2.1364083290100098,-0.3682789206504822,0.8296207189559937,-0.19761785864830017,-0.18987439867397563,1.3066830839626695,-0.5780736972955995,0.9479754567146301,0.18873555958271027,-0.2563616931438446
1729110327361,7i,4.737848849088877,0.9s : 0.3s,-7.165473470852859,0.11241509711768978,2.0977606283307773,0.9491438148699143,2.5000925064086914,-0.30259010195732117,-2.3273794651031494,-0.3426510691642761,0.8631781935691833,-0.19592761993408203,-0.20470031655409363,1.297946995285215,-0.6088978974202198,0.9429012537002563,0.203273743391037,-0.26385030150413513
1729110327371,7i,4.737848849088877,0.9s : 0.3s,-7.165473470852859,0.12213429284914404,2.18898839695304,0.9396264262886505,2.533047914505005,-0.40164411067962646,-2.5221786499023438,-0.30940699577331543,0.8708218932151794,-0.1698068380355835,-0.2211246310387846,1.2877635555836064,-0.6403617093892594,0.9368330240249634,0.21932700276374817,-0.2724692225456238
1729110327381,7i,4.737848849088877,0.9s : 0.3s,-7.165473470852859,0.13211387357727822,2.284464694083533,0.9886383948507226,2.5664658546447754,-0.45527324080467224,-2.6980786323547363,-0.2663392424583435,0.9259135723114014,-0.22170552611351013,-0.2389044403872945,1.276000539431665,-0.6731605613834356,0.9296846389770508,0.23663832247257233,-0.28229236602783203
1729110327391,7i,4.737848849088877,0.9s : 0.3s,-7.165473470852859,0.14233124546599557,2.379799284264118,1.0112252925134093,2.593953847885132,-0.535911500453949,-2.8501455783843994,-0.23557239770889282,0.9572827816009521,-0.22514864802360535,-0.25773453890075315,1.2627064475239145,-0.7070778995598725,0.9214395880699158,0.2548905611038208,-0.29322296380996704
1729110327401,7i,4.737848849088877,0.9s : 0.3s,-7.165473470852859,0.15258942253637658,2.465220545119621,0.956195642476428,2.545200824737549,-0.628716766834259,-3.0026209354400635,-0.21699625253677368,0.9011169672012329,-0.2349700927734375,-0.27757402603326903,1.247641134597134,-0.7418708667648103,0.9119424819946289,0.2740233540534973,-0.30540475249290466
1729110327411,7i,4.737848849088877,0.9s : 0.3s,-7.165473470852859,0.16279591394404816,2.539023917972261,0.9229230410169835,2.4228954315185547,-0.7476434707641602,-3.175081968307495,-0.16507983207702637,0.8761669397354126,-0.238468199968338,-0.2986953738632331,1.2308459078858358,-0.7768248686078167,0.9010263681411743,0.29427358508110046,-0.3186759948730469
1729110327421,7i,4.737848849088877,0.9s : 0.3s,-7.165473470852859,0.17296128767093533,2.614562551618843,0.9256623506705417,2.4007363319396973,-0.8380764126777649,-3.3155252933502197,-0.08571618795394897,0.8999783992767334,-0.19885271787643433,-0.32097387007055195,1.212077487623511,-0.8123564199021678,0.8885267972946167,0.31549084186553955,-0.33314502239227295
1729110327431,7i,4.737848849088877,0.9s : 0.3s,-7.165473470852859,0.18300496387825543,2.68272951687402,0.983211230117908,2.308549404144287,-0.9810000658035278,-3.4400970935821533,-0.0007736682891845703,0.955380380153656,-0.2322758138179779,-0.34396453258348886,1.191218515412413,-0.8484598610177513,0.8744155764579773,0.33722203969955444,-0.34882470965385437
1729110327441,7i,4.737848849088877,0.9s : 0.3s,-7.165473470852859,0.19288889262109632,2.765250331272412,0.9835079162580186,2.317059278488159,-1.1046222448349,-3.606283664703369,0.08148294687271118,0.9549386501312256,-0.22077256441116333,-0.36774744153089867,1.1678318394220493,-0.8855623801468436,0.8583973050117493,0.35951438546180725,-0.36592793464660645
1729110327451,7i,4.737848849088877,0.9s : 0.3s,-7.165473470852859,0.20274904139771788,2.857031437046412,1.0564422125105761,2.381854772567749,-1.1868456602096558,-3.7369678020477295,0.1702755093574524,1.0167148113250732,-0.23101383447647095,-0.3918904377016202,1.141824084894272,-0.9246958320785478,0.8404512405395508,0.3819362223148346,-0.38440364599227905
1729110327461,7i,4.737848849088877,0.9s : 0.3s,-7.165473470852859,0.2127180666850674,2.949506217242286,1.1209751978170492,2.4570324420928955,-1.2726085186004639,-3.82761549949646,0.24220937490463257,1.0680474042892456,-0.23915424942970276,-0.41568345184984484,1.1132725650567925,-0.9661230012403338,0.8207482695579529,0.40381526947021484,-0.40411055088043213
1729110327471,7i,4.737848849088877,0.9s : 0.3s,-7.165473470852859,0.2225083717009284,3.034693568155443,1.0545832304908451,2.4371824264526367,-1.4007459878921509,-3.922769069671631,0.30186527967453003,0.981468141078949,-0.24029862880706787,-0.4390073320813435,1.0819314569284426,-1.0095486675963468,0.7991477251052856,0.425041139125824,-0.425091415643692
1729110327481,7i,4.737848849088877,0.9s : 0.3s,-7.165473470852859,0.2322147334300083,3.1173755042658904,1.124227827353363,2.4350569248199463,-1.548317313194275,-4.01145601272583,0.41819584369659424,1.0031538009643555,-0.2875463366508484,-0.4618523029744614,1.047561268241346,-1.0547034229613592,0.775453507900238,0.44560709595680237,-0.44733232259750366
1729110327491,7i,4.737848849088877,0.9s : 0.3s,-7.165473470852859,0.24177374515663858,3.1912511389879574,1.1616750437523684,2.3265883922576904,-1.677955985069275,-4.125331878662109,0.5394177436828613,0.9828773736953735,-0.30408793687820435,-0.48444317016524563,1.0101832191741402,-1.101276653965514,0.7494769096374512,0.4657156765460968,-0.47052454948425293
1729110327501,7i,4.737848849088877,0.9s : 0.3s,-7.165473470852859,0.25123476554357965,3.2459060808021793,1.0929664872178915,2.1871378421783447,-1.8310967683792114,-4.160041332244873,0.6094427108764648,0.8769422769546509,-0.23265331983566284,-0.5069520308552753,0.969939007956446,-1.14866370422488,0.7211083769798279,0.48551487922668457,-0.49424490332603455
1729110327511,7i,4.737848849088877,0.9s : 0.3s,-7.165473470852859,0.2602602239214686,3.2934935623007644,1.148620399125,2.0927741527557373,-1.9686390161514282,-4.2028937339782715,0.7057225108146667,0.866340696811676,-0.26596683263778687,-0.5285478607700802,0.9271004483297023,-1.196708710807746,0.6907312273979187,0.5042799115180969,-0.5182586312294006
1729110327521,7i,4.737848849088877,0.9s : 0.3s,-7.165473470852859,0.26908722370430005,3.337599256880056,1.2258753531593747,2.025907516479492,-2.0969808101654053,-4.237070560455322,0.803313136100769,0.877339780330658,-0.2961980700492859,-0.5490126523496772,0.88151841813344,-1.245906432494899,0.6582956910133362,0.5218452215194702,-0.5425165295600891
1729110327531,7i,4.737848849088877,0.9s : 0.3s,-7.165473470852859,0.2778979475306304,3.390717551094332,1.2777003523771155,2.0768425464630127,-2.1990978717803955,-4.287735939025879,0.8707634806632996,0.8947809338569641,-0.27139681577682495,-0.5678683135288806,0.8328707911212835,-1.2970459389918167,0.6237432956695557,0.5378361344337463,-0.5671652555465698
1729110327541,7i,4.737848849088877,0.9s : 0.3s,-7.165473470852859,0.28689949621484323,3.441702940582395,1.3407221827810865,2.107464551925659,-2.2950053215026855,-4.303412437438965,0.9325422048568726,0.9222580790519714,-0.2781025767326355,-0.5843586988885824,0.7813315102713454,-1.3505832157250717,0.5873704552650452,0.5516645908355713,-0.5921672582626343
1729110327551,7i,4.737848849088877,0.9s : 0.3s,-7.165473470852859,0.29595241666449507,3.5055340426348223,1.3297116469534553,2.210228443145752,-2.378910541534424,-4.376413345336914,0.9785900115966797,0.8619200587272644,-0.2599778175354004,-0.5985178470530497,0.7266873501924993,-1.4064477199075276,0.5489063262939453,0.5634185671806335,-0.6174636483192444
1729110327561,7i,4.737848849088877,0.9s : 0.3s,-7.165473470852859,0.305294075441175,3.5671474040843827,1.391323828054775,2.336204767227173,-2.455883264541626,-4.373589515686035,1.0269701480865479,0.8869566917419434,-0.30728185176849365,-0.6091059565819128,0.669323539538575,-1.4649367874760273,0.5088728070259094,0.5721344351768494,-0.6432034373283386
1729110327571,7i,4.737848849088877,0.9s : 0.3s,-7.165473470852859,0.3147772580697578,3.619069049274631,1.3852312251891523,2.324787139892578,-2.555410385131836,-4.378389358520508,1.0682315826416016,0.8239673376083374,-0.31436389684677124,-0.6165125405312011,0.609718996182939,-1.5249594062971978,0.46721452474594116,0.5781932473182678,-0.6688820123672485
1729110327581,7i,4.737848849088877,0.9s : 0.3s,-7.165473470852859,0.3241305221967408,3.6474252750649088,1.3590057080473812,2.1909947395324707,-2.6579220294952393,-4.33848237991333,1.118087887763977,0.7274896502494812,-0.2598745822906494,-0.621435165074558,0.5488405804614368,-1.584972424243067,0.4241636395454407,0.5822026133537292,-0.6936319470405579
1729110327591,7i,4.737848849088877,0.9s : 0.3s,-7.165473470852859,0.3333878735709547,3.6656097401477576,1.3840336814918157,2.018012523651123,-2.8026654720306396,-4.327631950378418,1.1756895780563354,0.6812812089920044,-0.2629812955856323,-0.6246729009475519,0.48700951653407637,-1.644110687552161,0.37960824370384216,0.584831953048706,-0.7168466448783875
1729110327601,7i,4.737848849088877,0.9s : 0.3s,-7.165473470852859,0.34269941556544414,3.684075628929758,1.394929221834452,1.990745186805725,-2.900233745574951,-4.310349941253662,1.1919845342636108,0.669376015663147,-0.27737367153167725,-0.6257120609803745,0.42414546180683965,-1.7027975314419685,0.3335739076137543,0.5856745839118958,-0.7387243509292603
1729110327611,7i,4.737848849088877,0.9s : 0.3s,-7.165473470852859,0.3523490825594289,3.7033363985473944,1.4400675206015932,2.0259125232696533,-2.9370901584625244,-4.303950309753418,1.2152135372161865,0.7131437063217163,-0.29745012521743774,-0.6236923869823235,0.3606366998774947,-1.7613434180775416,0.2864343225955963,0.5840363502502441,-0.7595109343528748
1729110327621,7i,4.737848849088877,0.9s : 0.3s,-7.165473470852859,0.36244189746476946,3.715754173255687,1.4464350589609178,1.9832438230514526,-2.9764952659606934,-4.288540363311768,1.2059046030044556,0.7336586713790894,-0.3157743215560913,-0.6185050808557517,0.29732474910061163,-1.8193129157132908,0.23869077861309052,0.5798178315162659,-0.7789980173110962
1729110327631,7i,4.737848849088877,0.9s : 0.3s,-7.165473470852859,0.3727155703567943,3.7345187670440385,1.3680855568420502,2.0339791774749756,-3.1191298961639404,-4.230746746063232,1.177290678024292,0.6466642022132874,-0.2597501873970032,-0.6103121970696704,0.23408699252404044,-1.876116956845202,0.1900799423456192,0.5731233358383179,-0.7971193194389343
1729110327641,7i,4.737848849088877,0.9s : 0.3s,-7.165473470852859,0.3832485212636869,3.7587010118248667,1.3863094561545364,1.9967525005340576,-3.2317702770233154,-4.237732410430908,1.2089207172393799,0.6213553547859192,-0.27254748344421387,-0.5989916370359403,0.1708610854066696,-1.931435270426448,0.1404293328523636,0.5638099312782288,-0.8138782978057861
1729110327651,7i,4.737848849088877,0.9s : 0.3s,-7.165473470852859,0.3939796793809322,3.7757306633000396,1.430883554288021,1.9018030166625977,-3.320498466491699,-4.214744567871094,1.2428512573242188,0.6482886672019958,-0.2871764302253723,-0.5854724134940382,0.10803481578042937,-1.985182937088537,0.08986668288707733,0.5525931715965271,-0.8285920023918152
1729110327661,7i,4.737848849088877,0.9s : 0.3s,-7.165473470852859,0.40492464173142884,3.7809639312262906,1.3834973927171976,1.7254116535186768,-3.398158311843872,-4.190766334533691,1.2272312641143799,0.5850895643234253,-0.2562004327774048,-0.5707476227380658,0.04614965105039267,-2.036862531336721,0.0388210229575634,0.5402613282203674,-0.8406013250350952
1729110327671,7i,4.737848849088877,0.9s : 0.3s,-7.165473470852859,0.4158062186941485,3.7837511561942105,1.3498636137272446,1.695072054862976,-3.454643487930298,-4.156257152557373,1.196536898612976,0.5676328539848328,-0.261197566986084,-0.5543331902690128,-0.014595124997765933,-2.086512268549833,-0.01240908820182085,0.526376485824585,-0.850161075592041
1729110327681,7i,4.737848849088877,0.9s : 0.3s,-7.165473470852859,0.42695058039919,3.783370612587834,1.3735205631477114,1.6809192895889282,-3.4749112129211426,-4.1134934425354,1.188307762145996,0.6184636354446411,-0.3032921552658081,-0.5356460900520225,-0.07382778944507595,-2.133938292612919,-0.06342974305152893,0.5103967189788818,-0.8575965166091919
1729110327691,7i,4.737848849088877,0.9s : 0.3s,-7.165473470852859,0.4383093334608412,3.7840995234111734,1.376695594601754,1.5787721872329712,-3.548093557357788,-4.117208957672119,1.215253233909607,0.6035003662109375,-0.23288977146148682,-0.5152144983481614,-0.13175063518733252,-2.179339055131577,-0.11431630700826645,0.4927215278148651,-0.8626455068588257
1729110327701,7i,4.737848849088877,0.9s : 0.3s,-7.165473470852859,0.4498335353578932,3.782572866431769,1.3704674447517395,1.4653174877166748,-3.582019329071045,-4.093864917755127,1.2288048267364502,0.5800178050994873,-0.1783229112625122,-0.49363534390719044,-0.1884389004313299,-2.2228911102526174,-0.16496199369430542,0.47383034229278564,-0.8650273680686951
1729110327711,7i,4.737848849088877,0.9s : 0.3s,-7.165473470852859,0.46156116291693094,3.765521816614193,1.380710217871158,1.4457234144210815,-3.565546751022339,-4.019497871398926,1.2161084413528442,0.6220394372940063,-0.20126575231552124,-0.47076459815822563,-0.24316268305476818,-2.264140161880152,-0.21458254754543304,0.45356783270835876,-0.865003228187561
1729110327721,7i,4.737848849088877,0.9s : 0.3s,-7.165473470852859,0.473172380708557,3.7521505472247734,1.3185624759726593,1.305896282196045,-3.624640941619873,-4.0057291984558105,1.1827373504638672,0.5514724850654602,-0.18872588872909546,-0.44676240380893145,-0.2963278562553581,-2.303102810125804,-0.2633494734764099,0.432047963142395,-0.8625437021255493
1729110327731,7i,4.737848849088877,0.9s : 0.3s,-7.165473470852859,0.48442881469146293,3.7496610158847914,1.2593823135338444,1.1781911849975586,-3.698056936264038,-3.9974398612976074,1.1614904403686523,0.4577067196369171,-0.16579604148864746,-0.42238662773474095,-0.3488656701164504,-2.3407324774562195,-0.31178948283195496,0.4099384844303131,-0.857168436050415
1729110327741,7i,4.737848849088877,0.9s : 0.3s,-7.165473470852859,0.4958793264414717,3.734277980939719,1.3329856142195828,1.128524899482727,-3.717686653137207,-3.9295105934143066,1.1847255229949951,0.5512596368789673,-0.26341772079467773,-0.39709812482934215,-0.40012765253277205,-2.3762641932064277,-0.35922500491142273,0.3867439031600952,-0.849344789981842
1729110327751,7i,4.737848849088877,0.9s : 0.3s,-7.165473470852859,0.5075497749530066,3.709852744768767,1.361618296873868,0.9397526979446411,-3.727360248565674,-3.87764048576355,1.219475507736206,0.5706667304039001,-0.2030353546142578,-0.3715053888085935,-0.4499683024184871,-2.4100091188002914,-0.4052664339542389,0.36301854252815247,-0.8390331864356995
1729110327761,7i,4.737848849088877,0.9s : 0.3s,-7.165473470852859,0.5189448023341219,3.6809224482331544,1.278515169884637,0.7612804174423218,-3.771876811981201,-3.794463634490967,1.193239688873291,0.44955456256866455,-0.09317070245742798,-0.3464423172639577,-0.49882219083276114,-2.4423401183762214,-0.44996875524520874,0.3395536541938782,-0.8259730339050293
1729110327771,7i,4.737848849088877,0.9s : 0.3s,-7.165473470852859,0.5300588341339258,3.651321151762055,1.2638141554467701,0.6080617904663086,-3.7992708683013916,-3.7282228469848633,1.1959855556488037,0.3892403841018677,-0.12384140491485596,-0.32180580140061144,-0.5468846706767441,-2.473297449844975,-0.4933335483074188,0.31628018617630005,-0.8103017210960388
1729110327781,7i,4.737848849088877,0.9s : 0.3s,-7.165473470852859,0.5413126428887379,3.6068579818750806,1.3103834040274942,0.5260444283485413,-3.7590713500976562,-3.6047728061676025,1.2191308736801147,0.4371351897716522,-0.19934242963790894,-0.2972330715990106,-0.5935399751580116,-2.5024277438630143,-0.5347740650177002,0.292875736951828,-0.7926161885261536
1729110327791,7i,4.737848849088877,0.9s : 0.3s,-7.165473470852859,0.552647770063529,3.560726463045457,1.3013808652105592,0.4211924970149994,-3.724639892578125,-3.5427937507629395,1.2331244945526123,0.39268171787261963,-0.1371029019355774,-0.2727827780595802,-0.6387435397703586,-2.5300611269830187,-0.57414311170578,0.2694123685359955,-0.7731602191925049
1729110327801,7i,4.737848849088877,0.9s : 0.3s,-7.165473470852859,0.563669428302033,3.5105818043209718,1.2584999962849646,0.3543279767036438,-3.6838815212249756,-3.4594008922576904,1.212314248085022,0.33109065890312195,-0.0670475959777832,-0.248248786980734,-0.6824707043636973,-2.556209533394738,-0.6113772392272949,0.24570681154727936,-0.7522273659706116
1729110327811,7i,4.737848849088877,0.9s : 0.3s,-7.165473470852859,0.5747492802420581,3.455784716533112,1.27520227367569,0.23921801149845123,-3.6387600898742676,-3.3745481967926025,1.228222370147705,0.3206338584423065,-0.1216740608215332,-0.22381736391371423,-0.7248855738625878,-2.5809918857578076,-0.6465114951133728,0.2219533771276474,-0.7299037575721741
1729110327821,7i,4.737848849088877,0.9s : 0.3s,-7.165473470852859,0.5858314930052549,3.4009984276083114,1.292140034184047,0.07665546238422394,-3.5948429107666016,-3.3134875297546387,1.2662217617034912,0.23313380777835846,-0.10934782028198242,-0.20003655998463593,-0.7661234551364517,-2.605013074201347,-0.6795212030410767,0.19870516657829285,-0.7062345147132874
1729110327831,7i,4.737848849088877,0.9s : 0.3s,-7.165473470852859,0.5968501433081477,3.3458446479131765,1.2842033098022836,-0.030675390735268593,-3.5452563762664795,-3.2437355518341064,1.2732892036437988,0.15791460871696472,-0.0545501708984375,-0.17668235635116838,-0.8062160627058733,-2.628492934499246,-0.7104381322860718,0.1757645457983017,-0.6814576387405396
1729110327841,7i,4.737848849088877,0.9s : 0.3s,-7.165473470852859,0.6078247504977041,3.2808953807608887,1.2816481335452659,-0.041823647916316986,-3.451425075531006,-3.1446475982666016,1.2707600593566895,0.154094398021698,-0.06360602378845215,-0.15349923796616693,-0.8449035197179062,-2.6508144459465295,-0.7391132712364197,0.15289714932441711,-0.6559985280036926
1729110327851,7i,4.737848849088877,0.9s : 0.3s,-7.165473470852859,0.6187577015290034,3.2034166407430584,1.2974560240742032,-0.03059496358036995,-3.313701868057251,-3.054365396499634,1.2904255390167236,0.12771707773208618,-0.043386757373809814,-0.13020358508307625,-0.8816617064332568,-2.671427929795095,-0.7652636766433716,0.12983600795269012,-0.6304872035980225
1729110327861,7i,4.737848849088877,0.9s : 0.3s,-7.165473470852859,0.6289724116633861,3.113490128679203,1.240851099813453,-0.004559101536870003,-3.1809496879577637,-2.9343268871307373,1.2368708848953247,0.041504718363285065,0.09021764993667603,-0.10687671786584407,-0.9163489307380089,-2.690397022133135,-0.7888574004173279,0.10667336732149124,-0.6052475571632385
1729110327871,7i,4.737848849088877,0.9s : 0.3s,-7.165473470852859,0.6383517625714693,3.011294678913018,1.2119079524896963,0.06378532946109772,-3.045626640319824,-2.791605234146118,1.1985266208648682,-0.029047906398773193,0.17723160982131958,-0.08368040934310575,-0.949109954702193,-2.707277261641541,-0.8100529313087463,0.08358278125524521,-0.5803688764572144
1729110327881,7i,4.737848849088877,0.9s : 0.3s,-7.165473470852859,0.6475916454754561,2.8915314933400875,1.2534905585275158,0.128111332654953,-2.874279260635376,-2.6222782135009766,1.2280619144439697,-0.11754744499921799,0.22200250625610352,-0.06091395686571353,-0.9798005313209054,-2.7219512897738696,-0.8288461565971375,0.06087629497051239,-0.5561547875404358
1729110327891,7i,4.737848849088877,0.9s : 0.3s,-7.165473470852859,0.6558443091082973,2.7554910525191603,1.2716648185516348,0.12299339473247528,-2.6918201446533203,-2.437303066253662,1.211491584777832,-0.2162299007177353,0.3204125165939331,-0.03900896120553123,-1.0082670184910358,-2.7347260296096265,-0.8452653288841248,0.03899906948208809,-0.5329217314720154
1729110327901,7i,4.737848849088877,0.9s : 0.3s,-7.165473470852859,0.6630435342205865,2.6081888710879055,1.2931484511707052,0.08848388493061066,-2.5113842487335205,-2.252248525619507,1.181386947631836,-0.3445834219455719,0.3972657322883606,-0.018488900701397113,-1.0346431678019452,-2.7460855143349314,-0.8595331907272339,0.018487846478819847,-0.5107454061508179
1729110327911,7i,4.737848849088877,0.9s : 0.3s,-7.165473470852859,0.6692013895501466,2.4389879643185766,1.3666895830670414,0.11143727600574493,-2.287482738494873,-2.0092687606811523,1.1836450099945068,-0.4790297746658325,0.4871913194656372,0.0004624193602856769,-1.0587426791296355,-2.7559218118527467,-0.8717400431632996,-0.0004624193534255028,-0.489968478679657
1729110327921,7i,4.737848849088877,0.9s : 0.3s,-7.165473470852859,0.6745110642068759,2.2537616220054897,1.421883985731838,0.1484765261411667,-2.057170867919922,-1.7667604684829712,1.1789801120758057,-0.5374076962471008,0.5856218338012695,0.017662205137621352,-1.0803779233054664,-2.7638606430564208,-0.8819982409477234,-0.017661286517977715,-0.4709215462207794
1729110327931,7i,4.737848849088877,0.9s : 0.3s,-7.165473470852859,0.6790278497236003,2.048214133531267,1.4967163393478236,0.20119431614875793,-1.780335545539856,-1.5059229135513306,1.1679043769836426,-0.6258032321929932,0.6960815191268921,0.03297040936940961,-1.099439991751802,-2.7699143194203124,-0.8904688954353333,-0.03296443447470665,-0.45384830236434937
1729110327941,7i,4.737848849088877,0.9s : 0.3s,-7.165473470852859,0.6828222019509054,1.822028832725561,1.5650922945005838,0.27742013335227966,-1.4876573085784912,-1.2092182636260986,1.1510672569274902,-0.7091653943061829,0.7884430885314941,0.046237427274048164,-1.115616262805687,-2.7738590243037518,-0.8972219228744507,-0.04622095450758934,-0.4391542077064514
1729110327951,7i,4.737848849088877,0.9s : 0.3s,-7.165473470852859,0.6860057258381921,1.577054573736568,1.6519068464313726,0.30272653698921204,-1.1722220182418823,-0.9044977426528931,1.1522495746612549,-0.7928035259246826,0.8789651393890381,0.057004562981614375,-1.1288385951017668,-2.7758254600124874,-0.9024477601051331,-0.05697369575500488,-0.42701515555381775
1729110327961,7i,4.737848849088877,0.9s : 0.3s,-7.165473470852859,0.688668850445931,1.310097130716026,1.7575176601550255,0.3988029956817627,-0.8003840446472168,-0.5769670009613037,1.1557848453521729,-0.8789108991622925,0.9902248978614807,0.06515071667095618,-1.138670552112865,-2.7758811801377026,-0.9061509966850281,-0.06510463356971741,-0.41791361570358276
1729110327971,7i,4.737848849088877,0.9s : 0.3s,-7.165473470852859,0.6910374269570618,1.0303967507744196,1.8140379352435863,0.5434311628341675,-0.4097203016281128,-0.24098137021064758,1.1474416255950928,-0.8967623710632324,1.081632375717163,0.07076495709034154,-1.1448450589921255,-2.7732808159328055,-0.908366858959198,-0.07070591300725937,-0.41215306520462036
1729110327981,7i,4.737848849088877,0.9s : 0.3s,-7.165473470852859,0.693270299446767,0.7537259848883019,1.8734828537062906,0.6738530993461609,-0.018284911289811134,0.11411147564649582,1.1519864797592163,-0.945081353187561,1.1356436014175415,0.07381503952765213,-1.1473698791583096,-2.7679539168791085,-0.9092037677764893,-0.07374802231788635,-0.4097678065299988
1729110327991,7i,4.737848849088877,0.9s : 0.3s,-7.165473470852859,0.6955025128558925,0.5154970197943802,1.9656696120441444,0.7313856482505798,0.369303822517395,0.4511147439479828,1.1759722232818604,-1.0102016925811768,1.2084861993789673,0.07412515950395608,-1.146153934096115,-2.7603358245016714,-0.9086839556694031,-0.07405729591846466,-0.41086357831954956
1729110328001,7i,4.737848849088877,0.9s : 0.3s,-7.165473470852859,0.6979110107883201,0.41086259521432406,2.0768853612289893,0.7667170166969299,0.7674732804298401,0.8097605109214783,1.2121853828430176,-1.0592594146728516,1.3122609853744507,0.07150835685215641,-1.1411646230754418,-2.750916118951518,-0.9067957401275635,-0.07144743204116821,-0.41547146439552307
1729110328011,7i,4.737848849088877,0.9s : 0.3s,-7.165473470852859,0.7008572949343506,0.5518241937647125,2.1582274469563067,0.8375695943832397,1.1664780378341675,1.1745846271514893,1.292837142944336,-1.0772619247436523,1.3513047695159912,0.06588262927201416,-1.1322778814487884,-2.7394522076761345,-0.9034174680709839,-0.06583497673273087,-0.42367738485336304
1729110328021,7i,4.737848849088877,0.9s : 0.3s,-7.165473470852859,0.7046519810241568,0.8282280252343528,2.2172563278223776,0.8640339374542236,1.5929316282272339,1.5520600080490112,1.3770580291748047,-1.0860544443130493,1.3566217422485352,0.05721106077683437,-1.119347831235543,-2.7258262105110016,-0.8983439207077026,-0.057179857045412064,-0.4355555772781372
1729110328031,7i,4.737848849088877,0.9s : 0.3s,-7.165473470852859,0.7094741923579697,1.1605012457099124,2.3138464820614484,0.9087138175964355,2.0274529457092285,1.958659052848816,1.459312915802002,-1.1132135391235352,1.40891695022583,0.04543251391813178,-1.1020456723487793,-2.7100771024857813,-0.8912128210067749,-0.04541688412427902,-0.4513058662414551
1729110328041,7i,4.737848849088877,0.9s : 0.3s,-7.165473470852859,0.7155995638127574,1.530019704060526,2.3896225913688056,1.0375993251800537,2.475522041320801,2.3919670581817627,1.5716586112976074,-1.120365858078003,1.4088881015777588,0.030624656299628485,-1.080269926184182,-2.691388813740734,-0.8816713690757751,-0.030619869008660316,-0.47086936235427856
1729110328051,7i,4.737848849088877,0.9s : 0.3s,-7.165473470852859,0.7234062689166586,1.9157601364158183,2.466843416684743,1.112992763519287,2.942408800125122,2.8025262355804443,1.7392897605895996,-1.1179687976837158,1.3454862833023071,0.01308931888269977,-1.0536769406439304,-2.669384036996763,-0.8691723942756653,-0.013088945299386978,-0.4943358600139618
1729110328061,7i,4.737848849088877,0.9s : 0.3s,-7.165473470852859,0.7330209664991628,2.310333705428099,2.5918962668665633,1.1614357233047485,3.410665988922119,3.2115836143493652,1.875351905822754,-1.1414563655853271,1.3777005672454834,-0.007056970352708085,-1.0219769300641368,-2.644314646325692,-0.8531197309494019,0.007056911941617727,-0.5216673612594604
1729110328071,7i,4.737848849088877,0.9s : 0.3s,-7.165473470852859,0.7447422510751338,2.7186018333509807,2.754121879965468,1.2567379474639893,3.8819093704223633,3.6543524265289307,2.0640010833740234,-1.142162799835205,1.4214608669281006,-0.02952672319493391,-0.9849959332412753,-2.615696072633014,-0.8329066038131714,0.029522433876991272,-0.5526254773139954
1729110328081,7i,4.737848849088877,0.9s : 0.3s,-7.165473470852859,0.7590166760968762,3.135627313661864,2.912091097753428,1.3752994537353516,4.366069316864014,4.0713419914245605,2.3069591522216797,-1.0954363346099854,1.3993688821792603,-0.053744695100002404,-0.9423914918633095,-2.5828121008976996,-0.8077981472015381,0.053718823939561844,-0.5870062708854675
1729110328091,7i,4.737848849088877,0.9s : 0.3s,-7.165473470852859,0.7761015604691358,3.555805820749139,3.0870161210439213,1.4482166767120361,4.849446773529053,4.4853692054748535,2.5453784465789795,-1.0691919326782227,1.3811392784118652,-0.07913168656717053,-0.8938297525498354,-2.5454932678528968,-0.7770372629165649,0.07904912531375885,-0.624471127986908
1729110328101,7i,4.737848849088877,0.9s : 0.3s,-7.165473470852859,0.7962238206038377,3.9750194864101656,3.3201474994773394,1.4154272079467773,5.3351054191589355,4.907647609710693,2.818885564804077,-1.0849802494049072,1.378434419631958,-0.10562333562617827,-0.8390926610219887,-2.503991681077364,-0.7398906946182251,0.10542704910039902,-0.664414644241333
1729110328111,7i,4.737848849088877,0.9s : 0.3s,-7.165473470852859,0.8196992172364398,4.404345388520071,3.612476288212128,1.3749231100082397,5.834835529327393,5.39108419418335,3.143573760986328,-1.1109532117843628,1.3905797004699707,-0.1331973183144635,-0.7777802600680684,-2.4580356441856774,-0.6954842209815979,0.132803812623024,-0.7061620354652405
1729110328121,7i,4.737848849088877,0.9s : 0.3s,-7.165473470852859,0.8469063300660131,4.873373425321582,3.931008799118474,1.2754045724868774,6.462632179260254,5.988732814788818,3.510481595993042,-1.1135516166687012,1.3745369911193848,-0.16171028843111246,-0.708811446767967,-2.406636983669744,-0.6424394845962524,0.16100642085075378,-0.7492318749427795
1729110328131,7i,4.737848849088877,0.9s : 0.3s,-7.165473470852859,0.8784339790798549,5.389592309466845,4.345493630794171,0.9736368656158447,7.19799280166626,6.648822784423828,3.9784603118896484,-1.105453372001648,1.3539354801177979,-0.1920970775331226,-0.630430582405324,-2.349104604409378,-0.5786495208740234,0.19091781973838806,-0.7929155826568604
1729110328141,7i,4.737848849088877,0.9s : 0.3s,-7.165473470852859,0.9153098118991811,5.995559752020813,4.991410228351151,0.45010173320770264,8.192712783813477,7.451702117919922,4.633811950683594,-1.13898503780365,1.4644712209701538,-0.2249377726373411,-0.540491290575672,-2.285108793353812,-0.5015945434570312,0.2230457067489624,-0.8358549475669861
1729110328151,7i,4.737848849088877,0.9s : 0.3s,-7.165473470852859,0.9589191571878214,6.723348455829814,5.838717771754235,-0.24458608031272888,9.398833274841309,8.411737442016602,5.469541549682617,-1.168306827545166,1.6762456893920898,-0.2611389537504004,-0.43504587586620447,-2.212488284371594,-0.4071633219718933,0.25818106532096863,-0.8761053085327148
1729110328161,7i,4.737848849088877,0.9s : 0.3s,-7.165473470852859,1.010782117077369,7.5689005997336025,6.827132160878922,-0.8833348751068115,10.641622543334961,9.490666389465332,6.478333473205566,-1.1904853582382202,1.7954591512680054,-0.2991604388947991,-0.3114540557812134,-2.127985636111855,-0.2928321659564972,0.29471802711486816,-0.9096101522445679
1729110328171,7i,4.737848849088877,0.9s : 0.3s,-7.165473470852859,1.0722052452166542,8.487024754681974,7.865576885004707,-1.4419773817062378,11.870023727416992,10.4722261428833,7.593891620635986,-1.182806372642517,1.6736423969268799,-0.3342597481262645,-0.16784340525916713,-2.0287671624074686,-0.15781044960021973,0.3280699849128723,-0.9313785433769226
1729110328181,7i,4.737848849088877,0.9s : 0.3s,-7.165473470852859,1.1444900000218927,9.382940474116252,9.001449701604955,-2.3947913646698,12.898777961730957,11.077865600585938,8.842498779296875,-1.0125913619995117,1.3457231521606445,-0.36227594005638564,-0.00546613504362051,-1.9162424873740387,-0.005111317150294781,0.35440337657928467,-0.9350786805152893
1729110328191,7i,4.737848849088877,0.9s : 0.3s,-7.165473470852859,1.2297866125230468,10.241040019550761,10.41419379024893,-4.256684303283691,13.676974296569824,11.562795639038086,10.32150650024414,-0.2013665735721588,1.3716367483139038,-0.3851335761665164,0.17339904834037922,-1.792134835493454,0.1598931849002838,0.37568292021751404,-0.9128507375717163
1729110328201,7i,4.737848849088877,0.9s : 0.3s,-7.165473470852859,1.3289633364627291,11.046790794159378,11.74339280808493,-6.815235614776611,13.468278884887695,12.498368263244629,11.64563274383545,0.865227222442627,1.2401187419891357,-0.4066283633930664,0.36479091937579455,-1.6505887231180965,0.3276641070842743,0.3955148756504059,-0.8580234050750732
1729110328211,7i,4.737848849088877,0.9s : 0.3s,-7.165473470852859,1.4434711018978412,11.579897723999242,13.474632173606677,-8.711833000183105,11.763932228088379,13.021097183227539,13.232429504394531,2.369405508041382,0.9243587851524353,-0.41939269414893193,0.557411622924371,-1.4872495687598242,0.48314711451530457,0.40720584988594055,-0.7750821113586426
1729110328221,7i,4.737848849088877,0.9s : 0.3s,-7.165473470852859,1.573374928005996,11.863008356636703,15.24652406293354,-11.242507934570312,9.503568649291992,12.768621444702148,14.412093162536621,4.960386276245117,0.3776700496673584,-0.419784939255148,0.7368065809117271,-1.3088256917132939,0.6135873198509216,0.40756407380104065,-0.6763150691986084
1729110328231,7i,4.737848849088877,0.9s : 0.3s,-7.165473470852859,1.7142312222733123,12.100128779331113,16.012555812279654,-15.601969718933105,6.529240131378174,11.717846870422363,14.110597610473633,7.568894386291504,-0.06940090656280518,-0.41736048779975354,0.8985337296943697,-1.107270250108752,0.7152537107467651,0.40534892678260803,-0.5693015456199646
1729110328241,7i,4.737848849088877,0.9s : 0.3s,-7.165473470852859,1.860948742490322,12.842786778315174,16.241403997150368,-21.3644962310791,2.5213263034820557,11.635627746582031,13.09611701965332,9.596946716308594,-0.41657716035842896,-0.41605184051049854,1.043001192607713,-0.8630436688474477,0.7902200818061829,0.4041522741317749,-0.4606659412384033
1729110328251,7i,4.737848849088877,0.9s : 0.3s,-7.165473470852859,2.0097299308961363,14.421092669758158,16.692360124167507,-25.516756057739258,-1.5885318517684937,14.277063369750977,11.589066505432129,12.011650085449219,0.22064965963363647,-0.4009870912592668,1.165824777401383,-0.5690219795253252,0.8462058901786804,0.3903273344039917,-0.36273956298828125
1729110328261,7i,4.737848849088877,0.9s : 0.3s,-7.165473470852859,2.155963243100454,15.206433845849988,16.80789578510809,-21.081369400024414,-3.889401912689209,15.76055908203125,9.181239128112793,13.928495407104492,2.051151990890503,-0.34783970431954664,1.2472975808167426,-0.26372476807284123,0.8913467526435852,0.34086769819259644,-0.2988479733467102
1729110328271,7i,4.737848849088877,0.9s : 0.3s,-7.165473470852859,2.292457327817381,15.20079141595187,16.194645600520026,-16.999847412109375,-4.04276704788208,15.424412727355957,5.731349468231201,14.961386680603027,2.3611624240875244,-0.25256280915158114,1.2747469990655638,-0.02883539863435625,0.9261518120765686,0.24988627433776855,-0.2824881672859192
1729110328281,7i,4.737848849088877,0.9s : 0.3s,-7.165473470852859,2.413937152520141,15.13060630124512,16.063901948038875,-16.618534088134766,-3.0028865337371826,14.878764152526855,2.0742735862731934,15.751310348510742,2.3754067420959473,-0.15559737045836045,1.281748897172335,0.17599261664114096,0.9469359517097473,0.15497027337551117,-0.28159573674201965
1729110328291,7i,4.737848849088877,0.9s : 0.3s,-7.165473470852859,2.5129105224231107,13.790459795017963,9.346057412924532,1.4973937273025513,2.4028658866882324,22.40606117248535,-0.1791941523551941,8.504286766052246,3.872180938720703,-0.03175966602238233,1.2804689855234748,0.3529169179339276,0.9576669931411743,0.031754326075315475,-0.2861214876174927
1729110328301,7i,4.737848849088877,0.9s : 0.3s,-7.165473470852859,2.5747445931816415,18.49466591641046,9.993709038675716,-56.88108825683594,-13.964131355285645,-7.332670211791992,0.9080590605735779,-7.72104024887085,-6.2797441482543945,-0.027104318267649363,1.2437475489498162,0.6122587654544729,0.9466466903686523,0.027100998908281326,-0.3211316466331482
1729110328311,7i,4.737848849088877,0.9s : 0.3s,-7.165473470852859,2.6221721355785683,16.186363523173373,23.426587282688228,-12.800217628479004,-7.017783164978027,8.659138679504395,1.5819404125213623,-9.05928897857666,21.546037673950195,-0.1402071231331042,1.1328266207034117,0.9716486908586075,0.8967278599739075,0.139748215675354,-0.4199399948120117
1729110328321,7i,4.737848849088877,0.9s : 0.3s,-7.165473470852859,2.7511849766080725,17.551291338386406,34.31105666362682,-30.6536922454834,-7.705321788787842,3.13303542137146,19.406953811645508,28.290620803833008,-0.5094385743141174,-0.14036550790654687,1.1512979620211525,1.1482009277677898,0.9043110013008118,0.13990503549575806,-0.40329650044441223
1729110328331,7i,4.737848849088877,0.9s : 0.3s,-7.165473470852859,2.820476889898343,18.28646226698647,7.397496083687947,-30.372568130493164,-10.4567289352417,-10.440378189086914,-4.701375961303711,-5.7089104652404785,-0.16838550567626953,-0.3351928942428985,1.1326378208920602,1.4534763558395454,0.8551386594772339,0.32895132899284363,-0.40066054463386536
1729110328341,7i,4.737848849088877,0.9s : 0.3s,-7.165473470852859,2.859597241549988,16.075664369900828,16.151467149424764,-15.2916898727417,-6.31240177154541,-4.566483974456787,-5.30062198638916,-2.354579448699951,15.074125289916992,-0.5113210274879949,1.1033127662934141,1.624709218883024,0.7785271406173706,0.4893297255039215,-0.39300376176834106
1729110328351,7i,4.737848849088877,0.9s : 0.3s,-7.165473470852859,2.9481373853813615,14.753817854353255,23.626164449519116,-14.669269561767578,-7.282769680023193,-13.249430656433105,9.150656700134277,21.261314392089844,4.734726905822754,-0.6548385001957019,1.1001661988949327,1.7308792182130415,0.7069176435470581,0.6090311408042908,-0.3596506118774414
1729110328361,7i,4.737848849088877,0.9s : 0.3s,-7.165473470852859,3.017067365563922,14.423942140629663,7.688980420543156,-14.465916633605957,-9.854375839233398,-14.790693283081055,-2.1602346897125244,7.1546244621276855,1.806973934173584,-0.8508703451654587,1.069108509807708,1.8126578182940205,0.5780813097953796,0.7518545389175415,-0.31707531213760376
1729110328371,7i,4.737848849088877,0.9s : 0.3s,-7.165473470852859,3.060096038409436,13.731074335198741,2.9229551705170125,-10.154546737670898,-9.976165771484375,-14.270878791809082,-2.0889384746551514,0.695017397403717,-1.9227464199066162,-1.0357295999858476,1.0143101940799828,1.8701255341076297,0.4329630732536316,0.8602346181869507,-0.26933127641677856
1729110328381,7i,4.737848849088877,0.9s : 0.3s,-7.165473470852859,3.1017664964925844,13.568892254045036,6.131099258399271,-9.450311660766602,-9.896825790405273,-16.274166107177734,2.454061985015869,4.296408653259277,-3.6206119060516357,-1.216717269626058,0.8939352308769305,1.8476719438126643,0.27028805017471313,0.9379662275314331,-0.21717184782028198
1729110328391,7i,4.737848849088877,0.9s : 0.3s,-7.165473470852859,3.140775099502341,13.347192968180325,3.8490062438204373,-7.360147953033447,-8.897333145141602,-16.85131072998047,2.9140877723693848,1.6422429084777832,-1.904200553894043,-1.3874834063587826,0.5405161527244854,1.5807022406668219,0.09380088746547699,0.9832451939582825,-0.15630057454109192
1729110328401,7i,4.737848849088877,0.9s : 0.3s,-7.165473470852859,3.1843404769527677,13.111649060766124,5.04351139844472,-2.876840353012085,-6.517592906951904,-19.86687660217285,3.375699043273926,3.696532726287842,0.6142548322677612,-1.4298409869642121,-0.7634323580299264,0.34267406152345253,-0.09713470190763474,0.9900822043418884,-0.101498544216156
1729110328411,7i,4.737848849088877,0.9s : 0.3s,-7.165473470852859,3.2387601092831297,12.57861004982604,7.764754595446388,1.6506292819976807,-4.736087799072266,-18.926265716552734,4.39336633682251,6.254192352294922,1.3692421913146973,-1.265792503596617,-1.2856688669720868,-0.13083002241743077,-0.2881723642349243,0.9538457989692688,-0.08446735888719559
1729110328421,7i,4.737848849088877,0.9s : 0.3s,-7.165473470852859,3.309044225900108,11.826374395829712,9.569066618392927,5.028546333312988,-3.532153844833374,-16.50916862487793,8.29903507232666,4.483445167541504,1.6098982095718384,-1.0896028977487937,-1.3530983009599549,-0.15798517860116598,-0.45191317796707153,0.8864431977272034,-0.09996481239795685
1729110328431,7i,4.737848849088877,0.9s : 0.3s,-7.165473470852859,3.387043804653174,11.237167522337137,9.155941137614642,6.424818992614746,-2.704582691192627,-15.125053405761719,8.807999610900879,1.5132205486297607,1.9901167154312134,-0.9227761519804973,-1.3484244890071446,-0.11531104852037159,-0.5887463092803955,0.7972803711891174,-0.13312213122844696
1729110328441,7i,4.737848849088877,0.9s : 0.3s,-7.165473470852859,3.464815041971772,10.648666348217496,8.455449307197911,6.73134183883667,-2.279996156692505,-13.282878875732422,8.133674621582031,-0.7798367142677307,2.174813747406006,-0.769563338534986,-1.3371958633224235,-0.06715425677015434,-0.6987072229385376,0.6958217024803162,-0.1662534922361374
1729110328451,7i,4.737848849088877,0.9s : 0.3s,-7.165473470852859,3.5410513951386644,10.131600728226562,7.924641524621614,7.689548969268799,-2.3374695777893066,-11.841251373291016,7.609816074371338,-0.7642120122909546,2.07524037361145,-0.6307405423456053,-1.3265879517160193,-0.014812072375158997,-0.7836290001869202,0.5897429585456848,-0.1952660232782364
1729110328461,7i,4.737848849088877,0.9s : 0.3s,-7.165473470852859,3.6125588532635318,9.695593079714257,6.503465682980532,8.514595031738281,-2.5123040676116943,-10.545738220214844,6.358722686767578,-0.5686324834823608,1.2403099536895752,-0.5019530154475197,-1.3182417341697246,0.04598139711725331,-0.8488349318504333,0.48113855719566345,-0.2190544605255127
1729110328471,7i,4.737848849088877,0.9s : 0.3s,-7.165473470852859,3.6767116711862666,9.293290656753284,5.306259590330095,8.614482879638672,-2.461271047592163,-9.47750473022461,5.139410972595215,-0.8893060684204102,0.9756948351860046,-0.38327050610280333,-1.3155858984737356,0.11074955222298852,-0.8974066376686096,0.37395569682121277,-0.23413296043872833
1729110328481,7i,4.737848849088877,0.9s : 0.3s,-7.165473470852859,3.7347447250520553,8.846445545046207,4.901764355212149,8.27187442779541,-2.232508897781372,-8.415913581848145,4.198814392089844,-0.575380802154541,2.462963342666626,-0.2753813957814668,-1.318523878567184,0.17379721556617359,-0.9318618178367615,0.27191397547721863,-0.24020037055015564
1729110328491,7i,4.737848849088877,0.9s : 0.3s,-7.165473470852859,3.7887776608940364,8.398280079688716,4.910194966679621,7.800725936889648,-2.1434009075164795,-7.704479694366455,4.222071647644043,-0.4803723096847534,2.4603593349456787,-0.1778414718793722,-1.3269842229780406,0.23304411492930888,-0.9551189541816711,0.17690549790859222,-0.23759624361991882
1729110328501,7i,4.737848849088877,0.9s : 0.3s,-7.165473470852859,3.839286796644257,8.001835920145895,4.817809798238939,7.586324691772461,-2.2610678672790527,-7.17527437210083,3.858736038208008,-0.5075139403343201,2.8396966457366943,-0.0873062413689978,-1.3411969182757006,0.2908624045658225,-0.970048725605011,0.08719536662101746,-0.22672061622142792
1729110328511,7i,4.737848849088877,0.9s : 0.3s,-7.165473470852859,3.886135563960315,7.620255728293091,4.422769496150854,7.418704509735107,-2.472599983215332,-6.469310760498047,3.627455711364746,-0.6964313387870789,2.4325785636901855,-0.004643674077432289,-1.3622940333163254,0.34888378127371766,-0.978331446647644,0.004643657244741917,-0.20699262619018555
1729110328521,7i,4.737848849088877,0.9s : 0.3s,-7.165473470852859,3.9289682454783628,7.287782744934077,3.6860960294659786,7.57649040222168,-2.5085277557373047,-5.762885570526123,3.2629125118255615,-0.5733194947242737,1.6161715984344482,0.07007889195814428,-1.3893760075793609,0.4104476036127624,-0.9811741709709167,-0.07002154737710953,-0.17998389899730682
1729110328531,7i,4.737848849088877,0.9s : 0.3s,-7.165473470852859,3.9685611767501765,6.998332984983189,3.304761989311711,7.756153583526611,-2.3681554794311523,-5.091714859008789,2.979731321334839,-0.21381188929080963,1.4131304025650024,0.13643396253791112,-1.4206662628295468,0.4773637975849571,-0.9795634746551514,-0.13601109385490417,-0.1481768637895584
1729110328541,7i,4.737848849088877,0.9s : 0.3s,-7.165473470852859,4.006872589732591,6.749045791862473,3.4704024611111386,8.015560150146484,-2.0032992362976074,-4.415598392486572,2.9318978786468506,0.32242509722709656,1.82858145236969,0.19393883523411426,-1.4547496490404073,0.5507253521459383,-0.9746530055999756,-0.19272537529468536,-0.11361571401357651
1729110328551,7i,4.737848849088877,0.9s : 0.3s,-7.165473470852859,4.043424508949107,6.511290015263656,3.2037166536921853,8.095776557922363,-1.6361936330795288,-3.7360851764678955,2.620182752609253,0.36543768644332886,1.8069028854370117,0.24221940717378407,-1.489995394154125,0.6288997928312331,-0.9676406979560852,-0.23985783755779266,-0.07835686951875687
1729110328561,7i,4.737848849088877,0.9s : 0.3s,-7.165473470852859,4.076907886410596,6.284131341436916,2.785316951925799,7.95375919342041,-1.354692816734314,-3.31278133392334,2.1539993286132812,0.052926719188690186,1.765071153640747,0.2824992902870814,-1.5257733577942936,0.7093576068249666,-0.9593885540962219,-0.2787567377090454,-0.043223731219768524
1729110328571,7i,4.737848849088877,0.9s : 0.3s,-7.165473470852859,4.106882980224842,6.033804716176489,2.4473624536222607,7.678050994873047,-1.0027048587799072,-2.8405563831329346,1.7236618995666504,-0.013774216175079346,1.7373493909835815,0.31533953817750593,-1.5616807458872388,0.790677273228995,-0.9506515860557556,-0.3101392984390259,-0.008665981702506542
1729110328581,7i,4.737848849088877,0.9s : 0.3s,-7.165473470852859,4.1337256684878385,5.7321012103894065,2.1218218454984,7.145664691925049,-0.5727667808532715,-2.4978954792022705,1.420915126800537,0.23177829384803772,1.5586555004119873,0.34125319178062147,-1.5948274708050556,0.8693327252013971,-0.9420639276504517,-0.33466827869415283,0.022643232718110085
1729110328591,7i,4.737848849088877,0.9s : 0.3s,-7.165473470852859,4.1574939267028075,5.440398296228578,1.9969668194230215,6.797237396240234,-0.3142995238304138,-2.2567226886749268,1.1045200824737549,0.20038488507270813,1.651592493057251,0.3623451462938146,-1.6249382992031616,0.9438486129224082,-0.9336978793144226,-0.35446807742118835,0.05060169845819473
1729110328601,7i,4.737848849088877,0.9s : 0.3s,-7.165473470852859,4.179347797228647,5.213354018270032,2.073129765182109,6.8425703048706055,0.058601077646017075,-1.8384836912155151,1.0693023204803467,0.3835783004760742,1.7341647148132324,0.3782185391809522,-1.6535415543615293,1.0186871644513855,-0.9261443018913269,-0.36926549673080444,0.07680939882993698
1729110328611,7i,4.737848849088877,0.9s : 0.3s,-7.165473470852859,4.19972837774497,4.898640456073575,1.8481213977043411,6.146856307983398,0.37342569231987,-1.3817856311798096,1.060097098350525,0.48991432785987854,1.4323863983154297,0.38780677179289164,-1.6779269864147321,1.0903238301679359,-0.9204334616661072,-0.37815895676612854,0.09898561984300613
1729110328621,7i,4.737848849088877,0.9s : 0.3s,-7.165473470852859,4.217557794081301,4.540745190597606,1.7402603186375445,5.455544948577881,0.31110507249832153,-1.1348352432250977,0.7260759472846985,-0.0035353899002075195,1.5815521478652954,0.39395060104271196,-1.6985046393090817,1.1537058484205682,-0.9158799052238464,-0.3838393986225128,0.1176055297255516
1729110328631,7i,4.737848849088877,0.9s : 0.3s,-7.165473470852859,4.232785472176983,4.2544348474699385,1.7448830263478208,5.417435169219971,0.4336217939853668,-0.49235478043556213,0.5513255596160889,-0.27143293619155884,1.6330894231796265,0.39456321847398484,-1.7178342224876133,1.2132862252611147,-0.9132029414176941,-0.3844050168991089,0.13525156676769257
1729110328641,7i,4.737848849088877,0.9s : 0.3s,-7.165473470852859,4.246287161043879,3.9479337179887346,1.4142376818907918,4.914083003997803,0.557824969291687,-0.042799074202775955,0.6195141077041626,-0.11748597025871277,1.2658860683441162,0.38891807724278954,-1.7340468444860164,1.26921758227425,-0.9130167961120605,-0.37918752431869507,0.15038883686065674
1729110328651,7i,4.737848849088877,0.9s : 0.3s,-7.165473470852859,4.258012983830079,3.715635209484089,1.3842413248803873,4.815608024597168,0.5973948836326599,0.3405832350254059,0.4669935703277588,-0.225521981716156,1.2834254503250122,0.37943392476571675,-1.74749211933801,1.320170950675958,-0.914411723613739,-0.3703947067260742,0.16327548027038574
1729110328661,7i,4.737848849088877,0.9s : 0.3s,-7.165473470852859,4.268193690426301,3.547908811957633,1.1342253481504927,4.732154846191406,0.7810973525047302,0.6616203784942627,0.35865575075149536,-0.07970309257507324,1.0730706453323364,0.36561336601015487,-1.7588041946867548,1.3699527709446335,-0.9174478054046631,-0.357522189617157,0.17454886436462402
1729110328671,7i,4.737848849088877,0.9s : 0.3s,-7.165473470852859,4.276841418333367,3.2909817349578745,1.0427612261931296,3.9657554626464844,0.8082356452941895,0.5427302122116089,0.1773509383201599,0.004014343023300171,1.0275609493255615,0.35133112058726756,-1.7661900946615714,1.414310963276708,-0.9210488796234131,-0.3441479206085205,0.18229304254055023
1729110328681,7i,4.737848849088877,0.9s : 0.3s,-7.165473470852859,4.285055626925195,3.0569116453054286,1.365797155790753,3.657468318939209,0.8403661847114563,0.5105365514755249,0.053132832050323486,0.0448840856552124,1.3640249967575073,0.3386748358121622,-1.7710415552142111,1.4528704134195143,-0.9243484735488892,-0.33223748207092285,0.1876107156276703
1729110328691,7i,4.737848849088877,0.9s : 0.3s,-7.165473470852859,4.292419504878233,2.7806441220335456,1.134378462221312,3.061269760131836,0.8917460441589355,0.4983212947845459,0.05475980043411255,0.271095335483551,1.1001468896865845,0.32701788292108164,-1.7734567856770718,1.4868071407396029,-0.9276235103607178,-0.32122036814689636,0.19060930609703064
1729110328701,7i,4.737848849088877,0.9s : 0.3s,-7.165473470852859,4.298511039404824,2.4600470034889717,0.9607996222400338,2.404773712158203,0.8637996315956116,0.444669246673584,-0.0650244951248169,0.1321726143360138,0.9494409561157227,0.31687703204302936,-1.7731508834215557,1.5138611309225485,-0.930824875831604,-0.31160059571266174,0.19097037613391876
1729110328711,7i,4.737848849088877,0.9s : 0.3s,-7.165473470852859,4.303265721617918,2.1952209373968072,0.9249430390996882,2.1855854988098145,0.8248147368431091,0.4771350026130676,-0.12233930826187134,-0.053145408630371094,0.915274977684021,0.30789748126048516,-1.7716595850377148,1.5363655995530598,-0.9338128566741943,-0.30305567383766174,0.19013263285160065
1729110328721,7i,4.737848849088877,0.9s : 0.3s,-7.165473470852859,4.307113821069508,1.9337613692127058,0.6660518847508412,1.7506238222122192,0.8914734125137329,0.5102788209915161,-0.0802154541015625,0.06121441721916199,0.6583641767501831,0.2990023613702744,-1.768925265570425,1.5558244617586736,-0.9369352459907532,-0.2945669889450073,0.18810176849365234
1729110328731,7i,4.737848849088877,0.9s : 0.3s,-7.165473470852859,4.310044137961992,1.6851261302812204,0.6021905962559543,1.335012674331665,0.9727483987808228,0.5696248412132263,-0.12035578489303589,-0.012088775634765625,0.5899168252944946,0.29085329416132033,-1.7638301475798177,1.5703939089794927,-0.9402062296867371,-0.2867697775363922,0.18377995491027832
1729110328741,7i,4.737848849088877,0.9s : 0.3s,-7.165473470852859,4.31224335038672,1.508186117676093,0.6966518606742473,1.182584285736084,1.0507808923721313,0.7892965078353882,-0.12156188488006592,-0.13673263788223267,0.6721984148025513,0.2818555754048368,-1.7570468448114551,1.5817931017025444,-0.9439287185668945,-0.27813848853111267,0.17786869406700134
1729110328751,7i,4.737848849088877,0.9s : 0.3s,-7.165473470852859,4.313916971999075,1.3842765629896538,0.6334222035552372,1.0080889463424683,1.1495603322982788,0.920218288898468,-0.08077406883239746,-0.183526873588562,0.6008470058441162,0.2714072397918395,-1.7487117698924888,1.5915096406967533,-0.9481869339942932,-0.2680874168872833,0.17049990594387054
1729110328761,7i,4.737848849088877,0.9s : 0.3s,-7.165473470852859,4.31482695911111,1.2740880445196285,0.7045839369277247,0.7184885740280151,1.1751877069473267,0.9654752612113953,-0.16702282428741455,-0.43428748846054077,0.5290900468826294,0.26060795813893267,-1.738944397951058,1.5986295799144512,-0.9526060223579407,-0.25766801834106445,0.16170574724674225
1729110328771,7i,4.737848849088877,0.9s : 0.3s,-7.165473470852859,4.3147835271595465,1.1922718482452905,0.7726727012703835,0.5102871656417847,1.215407371520996,0.9905458092689514,-0.2291521430015564,-0.45658499002456665,0.5796917676925659,0.24997443564023716,-1.728176955030574,1.6031676546331501,-0.9569439888000488,-0.24737918376922607,0.151860311627388
1729110328781,7i,4.737848849088877,0.9s : 0.3s,-7.165473470852859,4.314145796186294,1.1475124295237744,0.6330874240139581,0.42883893847465515,1.2611267566680908,0.995136022567749,-0.23755264282226562,-0.320742130279541,0.4914192855358124,0.23943072589655806,-1.7165109449164366,1.606344836180449,-0.9611775875091553,-0.23714962601661682,0.14105738699436188
1729110328791,7i,4.737848849088877,0.9s : 0.3s,-7.165473470852859,4.313300684255414,1.1304770981844352,0.4665420191856973,0.24769484996795654,1.3360780477523804,0.9929490685462952,-0.21339750289916992,-0.14202125370502472,0.3898113965988159,0.22905599237170216,-1.7040127697612655,1.6085022963093574,-0.9652523398399353,-0.2270582765340805,0.1293535828590393
1729110328801,7i,4.737848849088877,0.9s : 0.3s,-7.165473470852859,4.312470660015526,1.0905013944601092,0.4274150064788117,-0.022605080157518387,1.3830682039260864,0.8814219832420349,-0.2309727668762207,0.0390406996011734,0.3575066328048706,0.21963527800565436,-1.6903624788512606,1.6083486551543495,-0.9690089821815491,-0.217873677611351,0.11641597002744675
1729110328811,7i,4.737848849088877,0.9s : 0.3s,-7.165473470852859,4.3117283277142455,1.0767535214063586,0.45240266571562615,-0.05820022523403168,1.397158145904541,0.7770488262176514,-0.24968546628952026,0.14255405962467194,0.34929025173187256,0.21144791160007556,-1.676223864914464,1.6068327540449265,-0.9722992777824402,-0.20987577736377716,0.10288860648870468
1729110328821,7i,4.737848849088877,0.9s : 0.3s,-7.165473470852859,4.3113386861085585,1.0705022364154064,0.4349425547904164,-0.011830862611532211,1.448718547821045,0.6701420545578003,-0.18716931343078613,0.28769171237945557,0.26716315746307373,0.20423925945050744,-1.661740366250016,1.605930988316726,-0.9751688838005066,-0.20282228291034698,0.0889311134815216
1729110328831,7i,4.737848849088877,0.9s : 0.3s,-7.165473470852859,4.31099540332021,1.0347519019993472,0.33817943973470654,-0.08042057603597641,1.3876711130142212,0.5485366582870483,-0.19050055742263794,0.21036383509635925,0.1839073896408081,0.1982784713447979,-1.64723329348544,1.6049361887231364,-0.9775444269180298,-0.19698181748390198,0.0748663917183876
1729110328841,7i,4.737848849088877,0.9s : 0.3s,-7.165473470852859,4.310664641506213,1.036513804797828,0.2793661727558902,-0.016231469810009003,1.5558433532714844,0.40966346859931946,-0.16223514080047607,0.13639195263385773,0.18199574947357178,0.1933966498960531,-1.6322634653654007,1.6043364596191878,-0.9795038104057312,-0.19219332933425903,0.06028323620557785
1729110328851,7i,4.737848849088877,0.9s : 0.3s,-7.165473470852859,4.310266970077021,1.0314495914272113,0.24291768583188672,-0.2388995736837387,1.5584710836410522,0.268694132566452,-0.14794832468032837,0.04558156430721283,0.1871967315673828,0.1901270102752108,-1.6164320833421093,1.6028222356307131,-0.9809578061103821,-0.18898361921310425,0.044797856360673904
1729110328861,7i,4.737848849088877,0.9s : 0.3s,-7.165473470852859,4.310133730562113,1.0406697079970535,0.3559633373155974,-0.4029638469219208,1.5987935066223145,0.19039399921894073,-0.06641167402267456,0.030485600233078003,0.34838199615478516,0.18800905337752394,-1.6000237729697593,1.5994666636310328,-0.9819587469100952,-0.18690340220928192,0.02870832197368145
1729110328871,7i,4.737848849088877,0.9s : 0.3s,-7.165473470852859,4.310448591518618,1.0682934712396226,0.26652908132885555,-0.6452633142471313,1.6441599130630493,0.1362452656030655,0.024188458919525146,0.044296786189079285,0.2617068290710449,0.18647355532370022,-1.5828273406881856,1.5941036286986419,-0.9825928211212158,-0.185394749045372,0.011822158470749855
1729110328881,7i,4.737848849088877,0.9s : 0.3s,-7.165473470852859,4.31098333198237,1.1137723472118535,0.197093950033755,-0.7559829354286194,1.6986308097839355,0.17360836267471313,0.05077719688415527,-0.024820059537887573,0.18881648778915405,0.1850662638921912,-1.5647531492116449,1.5867900647021074,-0.982905924320221,-0.18401166796684265,-0.0059399474412202835
1729110328891,7i,4.737848849088877,0.9s : 0.3s,-7.165473470852859,4.311793765445785,1.1571341769727301,0.19755898310092643,-0.6540948152542114,1.7343021631240845,0.33007922768592834,0.11212462186813354,-0.04081419110298157,0.15745419263839722,0.18250247890763546,-1.5462480030137775,1.5795770477325655,-0.9830962419509888,-0.18149106204509735,-0.02413821406662464
1729110328901,7i,4.737848849088877,0.9s : 0.3s,-7.165473470852859,4.312738101770143,1.1888254568621204,0.24608415525050997,-0.46126192808151245,1.7515895366668701,0.5407219529151917,0.2236846685409546,-0.10256242752075195,0.0018785595893859863,0.17797769560837184,-1.5278826225067277,1.5741304157097804,-0.9832976460456848,-0.17703957855701447,-0.04222286492586136
1729110328911,7i,4.737848849088877,0.9s : 0.3s,-7.165473470852859,4.313749238010192,1.223552413367979,0.41480760307686093,-0.32497307658195496,1.8004870414733887,0.7238416075706482,0.29498565196990967,-0.21726495027542114,-0.19453728199005127,0.17142121115875966,-1.509499260912804,1.5704888296128352,-0.9834926724433899,-0.17058290541172028,-0.06036083400249481
1729110328921,7i,4.737848849088877,0.9s : 0.3s,-7.165473470852859,4.314726277297588,1.2741030570579723,0.44405582850103303,-0.29359516501426697,1.8692378997802734,0.9192070960998535,0.29211950302124023,-0.24639461934566498,-0.22614479064941406,0.16298688398677164,-1.490742031910831,1.5680454409013023,-0.983586847782135,-0.16226622462272644,-0.0789089947938919
1729110328931,7i,4.737848849088877,0.9s : 0.3s,-7.165473470852859,4.315835138629028,1.342249308990965,0.48344175635898307,-0.35190534591674805,1.9545406103134155,1.0773890018463135,0.34693443775177,-0.2799537777900696,-0.18702489137649536,0.15273772860041512,-1.4712986076848178,1.5657182983962479,-0.9834700226783752,-0.15214455127716064,-0.0981772169470787
1729110328941,7i,4.737848849088877,0.9s : 0.3s,-7.165473470852859,4.317206221414473,1.426857642646449,0.6110989606968125,-0.4707164168357849,2.0743825435638428,1.1796756982803345,0.4499191641807556,-0.3509675860404968,-0.21871542930603027,0.14101537856700413,-1.450801210347092,1.5630020528134212,-0.9829543828964233,-0.1405484825372696,-0.1185191199183464
1729110328951,7i,4.737848849088877,0.9s : 0.3s,-7.165473470852859,4.318826276728305,1.5237233036183646,0.6019282459482661,-0.6552301049232483,2.212312936782837,1.2303502559661865,0.4586973786354065,-0.2961231470108032,-0.25342732667922974,0.12831616263526088,-1.4288153862760127,1.5589173263252194,-0.9817991256713867,-0.1279643326997757,-0.14034105837345123
1729110328961,7i,4.737848849088877,0.9s : 0.3s,-7.165473470852859,4.320583363868031,1.6081912101500344,0.5467036159722949,-0.7136558294296265,2.281830310821533,1.2417126893997192,0.4196079969406128,-0.3030851483345032,-0.17593568563461304,0.11503026503354029,-1.4056782847342149,1.5539222912941308,-0.979880154132843,-0.11477675288915634,-0.16328249871730804
1729110328971,7i,4.737848849088877,0.9s : 0.3s,-7.165473470852859,4.3225777492466495,1.6792098277542702,0.5058488362081134,-0.6788778901100159,2.310554027557373,1.331125259399414,0.4460310935974121,-0.21261939406394958,-0.10831575095653534,0.10113625961785934,-1.382207821903764,1.5494043413728518,-0.9772504568099976,-0.10096393525600433,-0.18651463091373444
1729110328981,7i,4.737848849088877,0.9s : 0.3s,-7.165473470852859,4.324678772473366,1.7374746846104865,0.4507294807008469,-0.7256022095680237,2.300304889678955,1.413375735282898,0.38529425859451294,-0.10491634905338287,-0.209040567278862,0.08635299110634376,-1.3587663774335648,1.54513844450488,-0.9739629626274109,-0.08624570816755295,-0.20966064929962158
1729110328991,7i,4.737848849088877,0.9s : 0.3s,-7.165473470852859,4.326505028027868,1.7897608946133627,0.37057999901107463,-0.7293952703475952,2.3006482124328613,1.5235519409179688,0.26558613777160645,-0.14226776361465454,-0.2157624214887619,0.07042161318344278,-1.3354498908365304,1.541353214716814,-0.9700232148170471,-0.07036342471837997,-0.23260189592838287
1729110329001,7i,4.737848849088877,0.9s : 0.3s,-7.165473470852859,4.328272355093275,1.8485869276749363,0.24338549957797145,-0.8004337549209595,2.311112642288208,1.6819263696670532,0.22088384628295898,-0.04190291836857796,-0.0932253897190094,0.05304682682616486,-1.3122024515094217,1.5378660166219305,-0.9653905034065247,-0.053021952509880066,-0.2553616762161255
1729110329011,7i,4.737848849088877,0.9s : 0.3s,-7.165473470852859,4.330234461949766,1.916228328617632,0.22276804452281873,-0.8750855922698975,2.3156208992004395,1.8735666275024414,0.18117833137512207,0.126397505402565,0.028699904680252075,0.03367616560684049,-1.2889068497305147,1.5345086680445699,-0.9599869251251221,-0.03366979956626892,-0.27801331877708435
1729110329021,7i,4.737848849088877,0.9s : 0.3s,-7.165473470852859,4.332293233457343,1.9828065409153055,0.2411849031012397,-0.8274970650672913,2.300292730331421,2.0703067779541016,0.13099265098571777,0.1987384855747223,0.038911402225494385,0.01235265683928819,-1.265754896816141,1.5319565131437949,-0.9537617564201355,-0.01235234271734953,-0.30030977725982666
1729110329031,7i,4.737848849088877,0.9s : 0.3s,-7.165473470852859,4.334312091545818,2.0408896220689203,0.23937238220433696,-0.7574353814125061,2.258981466293335,2.2295103073120117,0.0658753514289856,0.23012934625148773,-0.00024378299713134766,-0.0105630350883725,-1.2429613723864028,1.5311476428273898,-0.9466888904571533,0.010562838986515999,-0.32197609543800354
1729110329041,7i,4.737848849088877,0.9s : 0.3s,-7.165473470852859,4.3360950089426895,2.092790935005503,0.1899635108437356,-0.6867756247520447,2.256532907485962,2.3297791481018066,0.012558341026306152,0.18870458006858826,-0.017860710620880127,-0.0345231412753599,-1.2203944987167725,1.5319057208384799,-0.9386752247810364,0.03451628237962723,-0.34307071566581726
1729110329051,7i,4.737848849088877,0.9s : 0.3s,-7.165473470852859,4.337720692838984,2.1317240665491486,0.19141069424863094,-0.6428395509719849,2.242785930633545,2.365939140319824,-0.03826802968978882,0.17770133912563324,-0.05996537208557129,-0.058935586778815836,-1.1977708614176816,1.534112341736173,-0.9296121597290039,0.05890147387981415,-0.3638017475605011
1729110329061,7i,4.737848849088877,0.9s : 0.3s,-7.165473470852859,4.33868493179945,2.15650583931297,0.2177305009106393,-0.6973198652267456,2.2350504398345947,2.32993221282959,-0.118896484375,0.17328321933746338,-0.05694842338562012,-0.08322154479180277,-1.1751936959596332,1.5367974274193559,-0.919570803642273,0.0831255167722702,-0.38403061032295227
1729110329071,7i,4.737848849088877,0.9s : 0.3s,-7.165473470852859,4.338929725285276,2.168990702517009,0.2162175219866611,-0.8080855011940002,2.229987382888794,2.2610180377960205,-0.1757187843322754,0.10900137573480606,-0.06317931413650513,-0.10728405789582152,-1.1526421324731242,1.5389982934069095,-0.9085859656333923,0.10707837343215942,-0.40373966097831726
1729110329081,7i,4.737848849088877,0.9s : 0.3s,-7.165473470852859,4.338520134804691,2.1674586749660585,0.2425884267685265,-0.8611820340156555,2.2051215171813965,2.1708106994628906,-0.2074418067932129,0.08658517897129059,-0.09121429920196533,-0.13095189021339157,-1.1302891179121939,1.5406078254488804,-0.8967909216880798,0.1305779367685318,-0.42274752259254456
1729110329091,7i,4.737848849088877,0.9s : 0.3s,-7.165473470852859,4.3376628232488335,2.1495256608802826,0.26662714749021266,-0.8770346641540527,2.192183256149292,2.0754284858703613,-0.18782687187194824,0.10388423502445221,-0.15817448496818542,-0.15384782254792756,-1.108107306487557,1.5421351806524315,-0.8842860460281372,0.15324163436889648,-0.44108396768569946
1729110329101,7i,4.737848849088877,0.9s : 0.3s,-7.165473470852859,4.336500731504762,2.1207204605671643,0.3392488655468162,-0.8904162049293518,2.1771349906921387,1.9629961252212524,-0.17434608936309814,0.15136294066905975,-0.2485608458518982,-0.17586669704685154,-1.0860386268747921,1.543438841487678,-0.8711402416229248,0.17496153712272644,-0.4588061571121216
1729110329111,7i,4.737848849088877,0.9s : 0.3s,-7.165473470852859,4.335101879916665,2.0827898233229387,0.36964418025488505,-0.8403351902961731,2.16371750831604,1.8605432510375977,-0.17645955085754395,0.1630275398492813,-0.2809285819530487,-0.19682233787807082,-1.0640455687254207,1.5449555679812499,-0.8574453592300415,0.19555401802062988,-0.4759684205055237
1729110329121,7i,4.737848849088877,0.9s : 0.3s,-7.165473470852859,4.333660682802432,2.0407873362211837,0.37946611562422583,-0.8154700994491577,2.1538922786712646,1.7603076696395874,-0.16952431201934814,0.2213059961795807,-0.2574484348297119,-0.2166332580672763,-1.0420886855839562,1.5467971031218821,-0.8432776927947998,0.2149427980184555,-0.49262791872024536
1729110329131,7i,4.737848849088877,0.9s : 0.3s,-7.165473470852859,4.332195057203927,1.995038954394974,0.36909294340857296,-0.772079586982727,2.1362226009368896,1.6675533056259155,-0.1828702688217163,0.22818991541862488,-0.22520530223846436,-0.2354354073816315,-1.0201867911766829,1.5487863914556208,-0.8286957740783691,0.23326639831066132,-0.5087729692459106
1729110329141,7i,4.737848849088877,0.9s : 0.3s,-7.165473470852859,4.330655158380254,1.9451444638541442,0.38489675590897404,-0.7109299898147583,2.1182444095611572,1.568522572517395,-0.19706040620803833,0.2270517349243164,-0.24033355712890625,-0.25308903861193655,-0.998327223294058,1.5512177910763933,-0.8137885332107544,0.2503957748413086,-0.5244522094726562
1729110329151,7i,4.737848849088877,0.9s : 0.3s,-7.165473470852859,4.328957723561098,1.8920959842978942,0.3982990435532941,-0.6482001543045044,2.0985565185546875,1.4668209552764893,-0.21680599451065063,0.20703518390655518,-0.2622474431991577,-0.2694970771417343,-0.9765272655162837,1.5539810878795395,-0.7986510992050171,0.2662467062473297,-0.5396935343742371
1729110329161,7i,4.737848849088877,0.9s : 0.3s,-7.165473470852859,4.327211671503476,1.8344043774676122,0.37697009591011427,-0.590843141078949,2.0855958461761475,1.328445315361023,-0.22721987962722778,0.1852952241897583,-0.23694568872451782,-0.2845319205724309,-0.9547787632988188,1.5569822873956254,-0.7833696603775024,0.2807082235813141,-0.5545582175254822
1729110329171,7i,4.737848849088877,0.9s : 0.3s,-7.165473470852859,4.325424936321483,1.7730615086774326,0.3521952057957698,-0.5490790009498596,2.0546040534973145,1.1961160898208618,-0.2266608476638794,0.16502419114112854,-0.2131509780883789,-0.29809609806525156,-0.933197940905,1.5599113047341204,-0.768090009689331,0.29370081424713135,-0.5690145492553711
1729110329181,7i,4.737848849088877,0.9s : 0.3s,-7.165473470852859,4.323616847071651,1.7039679077757068,0.3367889751461685,-0.4920428693294525,2.0090858936309814,1.036656379699707,-0.19515973329544067,0.14766255021095276,-0.23137688636779785,-0.3102477942097685,-0.9120209941119828,1.562721909522616,-0.7529908418655396,0.30529460310935974,-0.5829237103462219
1729110329191,7i,4.737848849088877,0.9s : 0.3s,-7.165473470852859,4.321762637566687,1.6249478471015109,0.32762376646997304,-0.37143218517303467,1.9280872344970703,0.9081328511238098,-0.15004253387451172,0.07261055707931519,-0.28205013275146484,-0.3205459711968989,-0.8914991228299142,1.5653882143301987,-0.7383851408958435,0.3150847554206848,-0.5962457656860352
1729110329201,7i,4.737848849088877,0.9s : 0.3s,-7.165473470852859,4.31998538489531,1.5408611016116636,0.3185604742056439,-0.2749943137168884,1.8604391813278198,0.7530559301376343,-0.09202104806900024,0.09661862254142761,-0.2892710566520691,-0.3289601529246037,-0.8715814817365868,1.568354003889039,-0.7243088483810425,0.3230591118335724,-0.6091054081916809
1729110329211,7i,4.737848849088877,0.9s : 0.3s,-7.165473470852859,4.318432052037164,1.4522891547957837,0.2767811151639874,-0.26490306854248047,1.749643325805664,0.6192687749862671,-0.049854159355163574,0.07497870922088623,-0.2617260813713074,-0.33590456502441907,-0.8526613106953224,1.5709263058518643,-0.7109489440917969,0.3296233117580414,-0.6212084889411926
1729110329221,7i,4.737848849088877,0.9s : 0.3s,-7.165473470852859,4.31721445582313,1.3593542993229748,0.18545299455749947,-0.3144266903400421,1.6201026439666748,0.48271411657333374,-0.003206789493560791,0.045353055000305176,-0.17979329824447632,-0.3419320797886277,-0.8352578519717506,1.5725556668521685,-0.6985448002815247,0.3353079557418823,-0.6321421265602112
1729110329231,7i,4.737848849088877,0.9s : 0.3s,-7.165473470852859,4.316429471521928,1.257299660321719,0.11527949213421547,-0.40390145778656006,1.44228196144104,0.3533550798892975,0.05952906608581543,-0.0038726627826690674,-0.09864407777786255,-0.34746143559904696,-0.8198428806600491,1.5726945485122525,-0.6873518228530884,0.3405120372772217,-0.6415597200393677
1729110329241,7i,4.737848849088877,0.9s : 0.3s,-7.165473470852859,4.316081517372571,1.1451315560517048,0.12096838355134451,-0.41759568452835083,1.2394764423370361,0.2670305669307709,0.104647696018219,-0.042775869369506836,-0.043039917945861816,-0.35252231846207416,-0.8067817091371243,1.5717574727533719,-0.6776609420776367,0.34526610374450684,-0.6492818593978882
1729110329251,7i,4.737848849088877,0.9s : 0.3s,-7.165473470852859,4.316056575582444,1.0305290639892954,0.189780632749398,-0.392437607049942,1.0501693487167358,0.24572353065013885,0.14862507581710815,-0.06907758116722107,-0.0956847071647644,-0.3571878080422667,-0.7957756258201397,1.5704969642118534,-0.6693158745765686,0.34964093565940857,-0.6555664539337158
1729110329261,7i,4.737848849088877,0.9s : 0.3s,-7.165473470852859,4.316298681321509,0.9171119312462621,0.23376125277466775,-0.362031489610672,0.8797088861465454,0.23076695203781128,0.17366176843643188,-0.077374666929245,-0.1360113024711609,-0.3615033182647978,-0.7865370403151345,1.5694153499873855,-0.6621565818786621,0.3536807894706726,-0.6606500148773193
1729110329271,7i,4.737848849088877,0.9s : 0.3s,-7.165473470852859,4.316845811126156,0.8102870974245322,0.21664861548803963,-0.34933778643608093,0.726635217666626,0.2461656928062439,0.18826806545257568,-0.054580748081207275,-0.09226429462432861,-0.36571841767136126,-0.7788121518274327,1.5684997760729444,-0.6559804081916809,0.3576202988624573,-0.6646784543991089
1729110329281,7i,4.737848849088877,0.9s : 0.3s,-7.165473470852859,4.317751208939127,0.7093022999521411,0.2168550822667651,-0.29767778515815735,0.5870562791824341,0.2770053446292877,0.2094888687133789,-0.02485683560371399,-0.05022627115249634,-0.36985576247531093,-0.7724218549341751,1.5680886212918694,-0.6506813764572144,0.3614809513092041,-0.6677912473678589
1729110329291,7i,4.737848849088877,0.9s : 0.3s,-7.165473470852859,4.3189436849653395,0.6157676503001809,0.23369508467838987,-0.2641567289829254,0.4626767635345459,0.28868368268013,0.2242322564125061,-0.020495206117630005,-0.06255584955215454,-0.37385463717350925,-0.7671187601195378,1.5681837714834965,-0.6461224555969238,0.3652065098285675,-0.670186460018158
1729110329301,7i,4.737848849088877,0.9s : 0.3s,-7.165473470852859,4.32034191337722,0.530342097110711,0.22524030078880972,-0.23812858760356903,0.343423068523407,0.30492255091667175,0.22098392248153687,0.006255775690078735,-0.04312962293624878,-0.3793490346761888,-0.759933841482387,1.5697499565703814,-0.6398985981941223,0.3703158497810364,-0.673346757888794
1729110329311,7i,4.737848849088877,0.9s : 0.3s,-7.165473470852859,4.321817157117593,0.4553451662319927,0.2166248787995816,-0.23953859508037567,0.23879823088645935,0.30151522159576416,0.2130398154258728,0.03557279706001282,-0.01658165454864502,-0.38478692857732316,-0.753840237239108,1.5714314883090184,-0.634395956993103,0.3753616511821747,-0.6757553815841675
1729110329321,7i,4.737848849088877,0.9s : 0.3s,-7.165473470852859,4.323363440265556,0.3956921785425046,0.20746782096005967,-0.22731441259384155,0.15500906109809875,0.33553871512413025,0.20087295770645142,0.05186939239501953,0.0015867352485656738,-0.39017585306453706,-0.7486922532975253,1.5733194673768778,-0.6295228004455566,0.38035106658935547,-0.6775205731391907
1729110329331,7i,4.737848849088877,0.9s : 0.3s,-7.165473470852859,4.324975382422237,0.3569578714038205,0.20909267195857792,-0.21111641824245453,0.07670587301254272,0.4164687395095825,0.20221328735351562,0.05318021774291992,0.0011816620826721191,-0.3957769802256702,-0.7441761800161834,1.5757491945704498,-0.6250037550926208,0.3855252265930176,-0.6787787079811096
1729110329341,7i,4.737848849088877,0.9s : 0.3s,-7.165473470852859,4.326641927585104,0.3500310097803945,0.2026074074634454,-0.18227650225162506,0.013436354696750641,0.5593854188919067,0.19422972202301025,0.0574304461479187,0.005130350589752197,-0.40189456216668895,-0.739997863377696,1.5792648636563293,-0.6205602288246155,0.3911626636981964,-0.6796298027038574
1729110329351,7i,4.737848849088877,0.9s : 0.3s,-7.165473470852859,4.328349460340505,0.38220422626045925,0.19687960176546176,-0.12689100205898285,-0.045914676040410995,0.7555098533630371,0.1775307059288025,0.08476442098617554,-0.007708370685577393,-0.40876278828827123,-0.735779122719009,1.5845065651078156,-0.6158698797225952,0.39747434854507446,-0.6802341341972351
1729110329361,7i,4.737848849088877,0.9s : 0.3s,-7.165473470852859,4.330085905900489,0.45210493400882323,0.2054563435293491,-0.06344172358512878,-0.07664995640516281,0.9683507680892944,0.16656488180160522,0.11384198069572449,-0.03883880376815796,-0.4164810566639419,-0.73116313824184,1.5918503840706473,-0.6106565594673157,0.4045448303222656,-0.680765688419342
1729110329371,7i,4.737848849088877,0.9s : 0.3s,-7.165473470852859,4.331856521430381,0.5539278242618099,0.22076253885573216,-0.05434862896800041,-0.08537295460700989,1.1997723579406738,0.16888082027435303,0.11960968375205994,-0.07686930894851685,-0.4253083297050906,-0.7257890270696423,1.6014333551764328,-0.6045955419540405,0.41260164976119995,-0.6813399791717529
1729110329381,7i,4.737848849088877,0.9s : 0.3s,-7.165473470852859,4.333635349863529,0.6725856157099133,0.22584906278228298,-0.059004899114370346,-0.0764380544424057,1.4199767112731934,0.17389100790023804,0.10278621315956116,-0.10101836919784546,-0.43557634818516117,-0.719544519696214,1.6129721195580966,-0.5975053906440735,0.42193299531936646,-0.6818795800209045
1729110329391,7i,4.737848849088877,0.9s : 0.3s,-7.165473470852859,4.335398025488678,0.7967184264648761,0.21005794465136138,-0.027271471917629242,-0.019832031801342964,1.6223596334457397,0.1454748511314392,0.11723074316978455,-0.09601229429244995,-0.44695648650021874,-0.7120242632925696,1.626552119626404,-0.5891851186752319,0.43222299218177795,-0.68267422914505
1729110329401,7i,4.737848849088877,0.9s : 0.3s,-7.165473470852859,4.337123113130572,0.9138327651728226,0.1942311838841548,-0.05024442821741104,0.07707161456346512,1.7688140869140625,0.10398995876312256,0.14316588640213013,-0.08009600639343262,-0.4592661219773199,-0.7028186780953584,1.6418676049825476,-0.5793927907943726,0.4432903826236725,-0.6839573383331299
1729110329411,7i,4.737848849088877,0.9s : 0.3s,-7.165473470852859,4.338565338275237,1.0164174767528404,0.14803614149339026,-0.1001008078455925,0.17769555747509003,1.8641070127487183,0.03812384605407715,0.13213831186294556,-0.054778993129730225,-0.47249737391854874,-0.692001941571988,1.6581685825899708,-0.5681683421134949,0.45511144399642944,-0.6856079697608948
1729110329421,7i,4.737848849088877,0.9s : 0.3s,-7.165473470852859,4.339538297141538,1.101600781474976,0.12381407568957808,-0.10166727751493454,0.29542776942253113,1.9199129343032837,-0.050965070724487305,0.10750430822372437,-0.034282803535461426,-0.4861760816478965,-0.6795865565033049,1.6752429184886286,-0.5556480288505554,0.46724849939346313,-0.6877021193504333
1729110329431,7i,4.737848849088877,0.9s : 0.3s,-7.165473470852859,4.339977400978689,1.1702055625982235,0.18726449455806413,-0.029596276581287384,0.4104652404785156,1.9505743980407715,-0.1296381950378418,0.12894797325134277,-0.04042708873748779,-0.4995937505355716,-0.665355223909992,1.6932480856835928,-0.5418857932090759,0.4790689945220947,-0.6905452013015747
1729110329441,7i,4.737848849088877,0.9s : 0.3s,-7.165473470852859,4.339826205022146,1.2265584604225244,0.27390294914987495,0.06238850951194763,0.5072950720787048,1.972801685333252,-0.20567840337753296,0.16174370050430298,-0.08098268508911133,-0.5121479319486508,-0.6493178753913557,1.7124830917208909,-0.5270638465881348,0.49005070328712463,-0.6943011283874512
1729110329451,7i,4.737848849088877,0.9s : 0.3s,-7.165473470852859,4.339010509554296,1.2731790965997922,0.34515870613353844,0.10358268022537231,0.5926385521888733,1.9837018251419067,-0.27258992195129395,0.16096925735473633,-0.13754332065582275,-0.5239638326474296,-0.6316626362657521,1.7327311661549643,-0.5112692713737488,0.5003161430358887,-0.6987757086753845
1729110329461,7i,4.737848849088877,0.9s : 0.3s,-7.165473470852859,4.33755036039771,1.307352926995795,0.3825666815610607,0.16347050666809082,0.6671591401100159,1.9642738103866577,-0.31420189142227173,0.13957619667053223,-0.1677883267402649,-0.5349785525133913,-0.6126990058918897,1.7536250110285263,-0.4947274923324585,0.5098226070404053,-0.7037937045097351
1729110329471,7i,4.737848849088877,0.9s : 0.3s,-7.165473470852859,4.335599136903101,1.331654341166402,0.3932857538433821,0.2378976196050644,0.7301878929138184,1.9367293119430542,-0.3307863175868988,0.13964366912841797,-0.16047972440719604,-0.5448797474450296,-0.592556139137351,1.7751601673366044,-0.4776090085506439,0.5183152556419373,-0.7093932628631592
1729110329481,7i,4.737848849088877,0.9s : 0.3s,-7.165473470852859,4.333333407060144,1.3424392512842798,0.3974673089946103,0.26148417592048645,0.7737345695495605,1.8802053928375244,-0.3320665657520294,0.15698444843292236,-0.15188133716583252,-0.5536918723841678,-0.5715205101511859,1.7970252896629317,-0.4600934088230133,0.5258310437202454,-0.715412974357605
