timestamp,club,max_speed,tempo,w.rotation,l.speed,t.spped,acc,rotation.x,rotation.y,rotation.z,userAcceleration.x,userAcceleration.y,userAcceleration.z,pitch,roll,yaw,gravity.x,gravity.y,gravity.z
1729111778624,9i,4.535142757706733,0.9s : 0.3s,-10.254191386300604,0.0003665073532872637,0.1088823981504493,0.022745372881975458,0.024576015770435333,-0.007573749870061874,-0.019601644948124886,-0.012949049472808838,0.01204882562160492,0.014300346374511719,-0.2027000331089756,1.49310710445169,0.18762629874696293,0.9765720367431641,0.20131482183933258,-0.07602213323116302
1729111778634,9i,4.535142757706733,0.9s : 0.3s,-10.254191386300604,0.0006946139159722173,0.08325455813542208,0.02682364715257495,0.03472159430384636,-0.0033561019226908684,-0.021946026012301445,-0.022441565990447998,0.009721726179122925,0.011016905307769775,-0.20297278907744637,1.4932462518448602,0.18735329139246618,0.9765278697013855,0.20158198475837708,-0.07588198781013489
1729111778644,9i,4.535142757706733,0.9s : 0.3s,-10.254191386300604,0.0009949511577640338,0.06247757037260545,0.0232246913202096,0.026569124311208725,0.007034131791442633,-0.010074651800096035,-0.01678907871246338,0.0010004490613937378,0.016015999019145966,-0.20304380814894885,1.4935479394791713,0.18707146899708435,0.9765365123748779,0.20165154337882996,-0.07558627426624298
1729111778654,9i,4.535142757706733,0.9s : 0.3s,-10.254191386300604,0.001277025429867104,0.03873378111940564,0.025844636789817882,-0.04123415797948837,0.0009549342794343829,0.007478509098291397,-0.004278779029846191,-0.015616387128829956,0.020143628120422363,-0.20304381162026758,1.4939774609766177,0.18717659062495645,0.9765688180923462,0.20165154337882996,-0.07516682893037796
1729111778664,9i,4.535142757706733,0.9s : 0.3s,-10.254191386300604,0.0015249825255215673,0.05056921339533089,0.06260783892653697,-0.12713775038719177,-0.07802993804216385,0.345758318901062,-0.00038248300552368164,-0.054924771189689636,0.030047707259655,-0.20279636102996085,1.4942614777439613,0.1881498370263394,0.9766399264335632,0.20140917599201202,-0.0748932808637619
1729111778674,9i,4.535142757706733,0.9s : 0.3s,-10.254191386300604,0.0018583959545854555,0.16859223733949336,0.06893454698276127,-0.2550104856491089,-0.10330360382795334,0.605328381061554,0.04953587055206299,-0.0407242476940155,0.02529238909482956,-0.20342504199397343,1.494636606822235,0.1893367133369711,0.9765415191650391,0.2020249217748642,-0.07451725751161575
1729111778684,9i,4.535142757706733,0.9s : 0.3s,-10.254191386300604,0.0022025917850101726,0.17505281321619925,0.023501944695301962,-0.202137291431427,-0.08618006110191345,0.20240572094917297,0.015539109706878662,0.01346278190612793,0.011385560035705566,-0.2040606964103951,1.4951329115393202,0.18992098726376092,0.9764500260353088,0.20264743268489838,-0.07402285933494568
1729111778694,9i,4.535142757706733,0.9s : 0.3s,-10.254191386300604,0.002517798433183447,0.11365342993245713,0.025848061101365234,0.01714473031461239,0.009070562198758125,-0.03998507931828499,-0.010174214839935303,0.02337561547756195,0.004264764487743378,-0.20387924359163276,1.4952868534766974,0.19021518303919205,0.9764981865882874,0.20246973633766174,-0.0738753229379654
1729111778704,9i,4.535142757706733,0.9s : 0.3s,-10.254191386300604,0.0028055329975985575,0.07849159631604916,0.029106092091362487,0.08483349531888962,0.007886609993875027,0.03283187001943588,0.01231396198272705,0.026193514466285706,-0.0030709505081176758,-0.20383755742857776,1.4954242379712182,0.18980129404054624,0.976516604423523,0.2024289220571518,-0.07374178618192673
1729111778714,9i,4.535142757706733,0.9s : 0.3s,-10.254191386300604,0.00307103894203579,0.05442521177752211,0.028898156135132906,0.08059000968933105,0.0052127959206700325,-0.008003445342183113,0.013546466827392578,0.02548733353614807,0.0014115571975708008,-0.20396656659986023,1.4954102743697932,0.1889769061688195,0.9764895439147949,0.20255525410175323,-0.0737534612417221
1729111778724,9i,4.535142757706733,0.9s : 0.3s,-10.254191386300604,0.0032979099385685817,0.04449898425278346,0.026925689968507943,0.12060574442148209,0.013756439089775085,0.003579142037779093,0.003978133201599121,0.0236472487449646,-0.012246422469615936,-0.2038978798890128,1.4954439907184054,0.1879540314763155,0.9765058159828186,0.2024879902601242,-0.07372158020734787
1729111778734,9i,4.535142757706733,0.9s : 0.3s,-10.254191386300604,0.003473351090737513,0.05035855909105898,0.034480758467052994,0.13867448270320892,0.010600592941045761,-0.008631184697151184,-0.008405327796936035,0.02514827251434326,-0.022041723132133484,-0.20370510856073124,1.495446139015101,0.18667820261223625,0.9765447974205017,0.20229920744895935,-0.07372241467237473
1729111778744,9i,4.535142757706733,0.9s : 0.3s,-10.254191386300604,0.003585075554119445,0.06213009118404423,0.039231098468892715,0.14676010608673096,0.006265321746468544,-0.010065896436572075,-0.0076133012771606445,0.027912214398384094,-0.026495754718780518,-0.20325116800968185,1.495467276420131,0.18526409876810435,0.9766379594802856,0.2018546313047409,-0.0737086832523346
1729111778754,9i,4.535142757706733,0.9s : 0.3s,-10.254191386300604,0.003587810475770207,0.08344479924268734,0.044495878510741875,0.2027999460697174,0.005989951081573963,-0.009887997061014175,-0.010324299335479736,0.02972199022769928,-0.03146260231733322,-0.20286781129480808,1.4953874186460936,0.1835652497520273,0.9767091274261475,0.20147915184497833,-0.07379249483346939
1729111778764,9i,4.535142757706733,0.9s : 0.3s,-10.254191386300604,0.0034542201196238573,0.11965287140695643,0.05967790626517438,0.30548185110092163,0.008324922062456608,-0.014895007014274597,-0.013682425022125244,0.04300279915332794,-0.03905128687620163,-0.2028775993684923,1.4950175235126086,0.18100567749573832,0.9766797423362732,0.20148874819278717,-0.07415361702442169
1729111778774,9i,4.535142757706733,0.9s : 0.3s,-10.254191386300604,0.003240695665934087,0.16247969015375807,0.06957186828175223,0.3910742402076721,0.004213001113384962,-0.022095661610364914,-0.011867284774780273,0.052915409207344055,-0.04358178377151489,-0.2029456634683214,1.4943901044972363,0.1774277932945972,0.9766194820404053,0.20155541598796844,-0.07476535439491272
1729111778784,9i,4.535142757706733,0.9s : 0.3s,-10.254191386300604,0.0030551444032913154,0.21085934054421396,0.05448087116902177,0.481642484664917,0.010945739224553108,-0.030843278393149376,-0.00874030590057373,0.03791394829750061,-0.0381353497505188,-0.2030100960411641,1.49356195924936,0.1729711844505686,0.9765442609786987,0.2016185224056244,-0.07557310163974762
1729111778794,9i,4.535142757706733,0.9s : 0.3s,-10.254191386300604,0.0029054239801190444,0.2506637159646783,0.03145964179635292,0.5104366540908813,0.011039216071367264,-0.04104212298989296,-0.016482412815093994,0.008230462670326233,-0.025500953197479248,-0.20309324130777714,1.4926541819141723,0.16780301926807825,0.9764586091041565,0.20169995725154877,-0.07645826041698456
1729111778804,9i,4.535142757706733,0.9s : 0.3s,-10.254191386300604,0.0027843651329415345,0.2676598349907387,0.04213786977372763,0.4565114378929138,0.005589633248746395,-0.037194620817899704,-0.015576481819152832,-0.03874710202217102,-0.005624532699584961,-0.2032135458095082,1.4917048610533705,0.16280071677295366,0.9763613939285278,0.20181779563426971,-0.07738327980041504
1729111778814,9i,4.535142757706733,0.9s : 0.3s,-10.254191386300604,0.002716554276574327,0.2710648112912793,0.048477369148843076,0.3649980425834656,-0.09891972690820694,0.423525869846344,0.029051899909973145,-0.03822144865989685,0.006720364093780518,-0.20258341425062348,1.4907144872548268,0.15865389691032272,0.9764107465744019,0.20120058953762054,-0.07836034893989563
1729111778824,9i,4.535142757706733,0.9s : 0.3s,-10.254191386300604,0.002365808110956714,0.37012319407207656,0.13649321304018924,0.1972387433052063,-0.28256168961524963,1.176173448562622,-0.1318526268005371,-0.03112141788005829,0.016635484993457794,-0.20281225909878378,1.4899480712096063,0.15507993487161706,0.9763044714927673,0.2014247477054596,-0.079104945063591
1729111778834,9i,4.535142757706733,0.9s : 0.3s,-10.254191386300604,0.001915189742206571,0.38686928574498836,0.10800524022096915,0.15036657452583313,-0.2616196572780609,0.608256995677948,-0.09874534606933594,-0.043404534459114075,0.005525842308998108,-0.203341717739865,1.48961224645164,0.1515605267423519,0.9761713147163391,0.2019433230161667,-0.07942414283752441
1729111778844,9i,4.535142757706733,0.9s : 0.3s,-10.254191386300604,0.0016242904164434863,0.3018213425814125,0.03071766617257104,0.25701963901519775,-0.023832792416214943,0.010146331042051315,-0.020510613918304443,-0.022819116711616516,-0.0014756843447685242,-0.20270164879394584,1.4887297456548156,0.14857156120016857,0.9762295484542847,0.20131640136241913,-0.08029616624116898
1729111778854,9i,4.535142757706733,0.9s : 0.3s,-10.254191386300604,0.0015071216573792228,0.25709928238161467,0.015664186186238657,0.30177217721939087,-0.0038721340242773294,0.03388015553355217,0.007213711738586426,-0.013698816299438477,0.0023814961314201355,-0.20208317788286145,1.4879621093159447,0.14559967104316784,0.9762916564941406,0.20071054995059967,-0.08105582743883133
1729111778864,9i,4.535142757706733,0.9s : 0.3s,-10.254191386300604,0.0014968611314728033,0.23003574978292204,0.025456989094241163,0.2919211685657501,-0.01589888148009777,0.028165211901068687,-0.004294991493225098,-0.023279771208763123,0.009362883865833282,-0.20167659113424904,1.4871949052448208,0.14257678750312386,0.9763102531433105,0.20031222701072693,-0.08181161433458328
1729111778874,9i,4.535142757706733,0.9s : 0.3s,-10.254191386300604,0.0015700796990560605,0.20809851303913154,0.026620046524208064,0.2627616822719574,-0.018316498026251793,0.0073813702911138535,-0.0007874965667724609,-0.026011988520622253,0.005602069199085236,-0.20121028293260704,1.4864600987379473,0.13972247108696423,0.9763428568840027,0.19985534250736237,-0.08253685384988785
1729111778884,9i,4.535142757706733,0.9s : 0.3s,-10.254191386300604,0.0017120743813773091,0.18109234516387454,0.03096816200074608,0.19943970441818237,-0.0054136598482728004,-0.023274876177310944,-0.01131659746170044,-0.02758273482322693,0.008375823497772217,-0.20083563298378226,1.485751107334406,0.1373605593556202,0.9763587117195129,0.19948823750019073,-0.08323541283607483
1729111778894,9i,4.535142757706733,0.9s : 0.3s,-10.254191386300604,0.0019115912869196478,0.1530599612811849,0.02892106640916389,0.15083222091197968,0.008199088275432587,-0.05554785951972008,-0.020706892013549805,-0.018526628613471985,0.00802600383758545,-0.20045411671951494,1.485100205502671,0.13543865283762246,0.9763801097869873,0.1991143822669983,-0.08387741446495056
1729111778904,9i,4.535142757706733,0.9s : 0.3s,-10.254191386300604,0.002157096644643203,0.12214351056001481,0.040384350438840394,0.08483988791704178,0.018584083765745163,-0.07337532937526703,-0.030434906482696533,-0.026194706559181213,0.0042952969670295715,-0.20002647452119804,1.484552812969304,0.1339227272163188,0.976418673992157,0.19869527220726013,-0.08441918343305588
1729111778914,9i,4.535142757706733,0.9s : 0.3s,-10.254191386300604,0.0024413929105099102,0.08811662200426962,0.047440049810541556,0.008991729468107224,0.02014043554663658,-0.08346417546272278,-0.0342097282409668,-0.03280191123485565,0.002070613205432892,-0.1995596107748536,1.484073380195281,0.13309655075802831,0.976470410823822,0.19823770225048065,-0.08489532768726349
1729111778924,9i,4.535142757706733,0.9s : 0.3s,-10.254191386300604,0.0027660779855358483,0.06385883585289112,0.051253576023206356,-0.03011932224035263,0.023535212501883507,-0.08663923293352127,-0.0473254919052124,-0.01959054172039032,-0.0018540620803833008,-0.19901757532274317,1.483633065273424,0.13274398333848822,0.9765399694442749,0.19770638644695282,-0.08533462882041931
1729111778934,9i,4.535142757706733,0.9s : 0.3s,-10.254191386300604,0.0031509968434256194,0.058970016178392266,0.06294195891148022,-0.030011730268597603,0.0291502196341753,-0.10402621328830719,-0.06275373697280884,0.0006205439567565918,-0.0048242732882499695,-0.19843300170328015,1.4832004799930434,0.13251285716557826,0.9766177535057068,0.19713331758975983,-0.08576713502407074
1729111778944,9i,4.535142757706733,0.9s : 0.3s,-10.254191386300604,0.0035899142316848445,0.05615618335944856,0.06801579455965905,-0.006751548033207655,0.032118089497089386,-0.11009392887353897,-0.06702673435211182,0.005589649081230164,-0.010115385055541992,-0.1979092417237732,1.4827216305354285,0.131991869563209,0.9766794443130493,0.19661980867385864,-0.08624386042356491
1729111778954,9i,4.535142757706733,0.9s : 0.3s,-10.254191386300604,0.004081099802425059,0.0568995069446086,0.06901244914606929,-0.01631149649620056,0.029902873560786247,-0.11745117604732513,-0.06898480653762817,-0.001833006739616394,0.0006743073463439941,-0.19741828941288891,1.4821974131915685,0.13130320557784383,0.9767301678657532,0.1961384266614914,-0.0867643728852272
1729111778964,9i,4.535142757706733,0.9s : 0.3s,-10.254191386300604,0.004679054648833902,0.06030857358117335,0.08368610926734116,-0.013926103711128235,0.03328890725970268,-0.11413653939962387,-0.08367842435836792,0.0008605867624282837,-0.0007386282086372375,-0.1970211136638238,1.4816514134642225,0.13055364247646167,0.97676020860672,0.1957489401102066,-0.08730459213256836
1729111778974,9i,4.535142757706733,0.9s : 0.3s,-10.254191386300604,0.005398626052006266,0.06059451560896649,0.09570482206192411,-0.00986158661544323,0.030337590724229813,-0.09592344611883163,-0.09542214870452881,0.00730520486831665,-0.0008127018809318542,-0.19664211428167047,1.4810935542112031,0.12963246601108683,0.9767850041389465,0.19537726044654846,-0.08785609900951385
1729111778984,9i,4.535142757706733,0.9s : 0.3s,-10.254191386300604,0.006149383462027147,0.05757738969693855,0.08696412429844896,-0.051051367074251175,0.005802065134048462,-0.05780269205570221,-0.0851789116859436,-0.017479464411735535,0.001334257423877716,-0.19635099205515347,1.4805722575211375,0.12881442780843566,0.9767956137657166,0.19509173929691315,-0.08837039768695831
1729111778994,9i,4.535142757706733,0.9s : 0.3s,-10.254191386300604,0.006919662523378024,0.05037129452132196,0.08161782238724227,-0.10560169816017151,-0.0182726439088583,-0.008460708893835545,-0.07689666748046875,-0.026578038930892944,0.006479144096374512,-0.19602871872811764,1.4800754571048977,0.1285591099951434,0.9768142700195312,0.19477565586566925,-0.08886135369539261
1729111779004,9i,4.535142757706733,0.9s : 0.3s,-10.254191386300604,0.007701706054444788,0.03730829825597631,0.07856724402478805,-0.13246220350265503,-0.03503444790840149,0.03933481127023697,-0.07840836048126221,-0.004588499665260315,-0.001971423625946045,-0.19563816770168369,1.479579821958284,0.1287402579543701,0.9768458604812622,0.19439256191253662,-0.08935242146253586
1729111779014,9i,4.535142757706733,0.9s : 0.3s,-10.254191386300604,0.008493467493814539,0.04302379345471486,0.0844133740323965,-0.11673091351985931,-0.04879499971866608,0.07787607610225677,-0.08233320713043213,0.014727890491485596,-0.011399559676647186,-0.1952194344433798,1.479054520040737,0.12898995357681337,0.9768796563148499,0.1939818114042282,-0.08987298607826233
1729111779024,9i,4.535142757706733,0.9s : 0.3s,-10.254191386300604,0.009299154590492138,0.053546381164382525,0.09272190731823941,-0.08566980063915253,-0.05335970222949982,0.10910426825284958,-0.0878380537033081,0.02572232484817505,-0.014838814735412598,-0.19474459655525556,1.4785070267788984,0.12897015202265874,0.9769219160079956,0.19351597130298615,-0.09041628241539001
1729111779034,9i,4.535142757706733,0.9s : 0.3s,-10.254191386300604,0.010115796107986248,0.062890048039054,0.09395034674653785,-0.04752587527036667,-0.054726436734199524,0.131830096244812,-0.08650064468383789,0.03400559723377228,-0.01370859146118164,-0.19431142325682113,1.477982803616536,0.12860013774094373,0.9769577980041504,0.19309096038341522,-0.09093616157770157
1729111779044,9i,4.535142757706733,0.9s : 0.3s,-10.254191386300604,0.01093000904591094,0.0744922603068944,0.0835674919151723,-0.02450644224882126,-0.06736051291227341,0.1519877165555954,-0.07438510656356812,0.03487616777420044,-0.015298187732696533,-0.19389070992305968,1.4774310035028893,0.12792318651562037,0.9769882559776306,0.19267815351486206,-0.09148279577493668
1729111779054,9i,4.535142757706733,0.9s : 0.3s,-10.254191386300604,0.011745915895062242,0.08629988057798729,0.08175530246815983,0.005354516673833132,-0.07671993225812912,0.16671420633792877,-0.07583838701248169,0.025261878967285156,-0.017155349254608154,-0.19356543363483608,1.4767921489739682,0.12701120394103313,0.9769919514656067,0.19235895574092865,-0.09211280941963196
1729111779064,9i,4.535142757706733,0.9s : 0.3s,-10.254191386300604,0.012558458197659914,0.10094907774666502,0.07288390640094936,-0.004556703381240368,-0.08781235665082932,0.18530139327049255,-0.06964230537414551,0.013935431838035583,-0.016365110874176025,-0.19324341721170266,1.476114225863371,0.12596730887053914,0.9769909381866455,0.19204294681549072,-0.09278097003698349
1729111779074,9i,4.535142757706733,0.9s : 0.3s,-10.254191386300604,0.013353941967034058,0.11588866862058997,0.05661860725808354,-0.01467591617256403,-0.1010112464427948,0.20096798241138458,-0.055606067180633545,0.0016446560621261597,-0.010532192885875702,-0.1929711216883382,1.4754123116754378,0.1250693313680876,0.9769774079322815,0.19177570939064026,-0.09347167611122131
1729111779084,9i,4.535142757706733,0.9s : 0.3s,-10.254191386300604,0.014092847610779387,0.13202656053829145,0.0455441365771392,-0.003984656650573015,-0.10937108844518661,0.22904562950134277,-0.04289823770523071,0.00520932674407959,-0.014383062720298767,-0.19266619176434135,1.4746585052615477,0.12419749188065018,0.9769648313522339,0.19147643446922302,-0.09421370923519135
1729111779094,9i,4.535142757706733,0.9s : 0.3s,-10.254191386300604,0.014810286463505169,0.14690510047620853,0.04941418388600938,0.023945776745676994,-0.11934089660644531,0.24458330869674683,-0.04603689908981323,0.004072055220603943,-0.017486676573753357,-0.19227027911252711,1.47381316090908,0.12315236930435469,0.9769601821899414,0.19108782708644867,-0.09504687041044235
1729111779104,9i,4.535142757706733,0.9s : 0.3s,-10.254191386300604,0.015515922984640643,0.16001928812330518,0.056040540112384005,0.04876577481627464,-0.13012602925300598,0.2516394257545471,-0.052720725536346436,0.0025138109922409058,-0.018834754824638367,-0.19186798460294147,1.4728579023447994,0.12185928598250624,0.9769454598426819,0.1906929314136505,-0.09598759561777115
1729111779114,9i,4.535142757706733,0.9s : 0.3s,-10.254191386300604,0.01621254965704474,0.17038497431851068,0.06019888707521318,0.06889048218727112,-0.1304306983947754,0.25360140204429626,-0.05456745624542236,0.012144535779953003,-0.022334031760692596,-0.19150803946293019,1.4718390322637191,0.12036004415394118,0.9769154191017151,0.1903395801782608,-0.096989706158638
1729111779124,9i,4.535142757706733,0.9s : 0.3s,-10.254191386300604,0.01690116964805106,0.17771828543210694,0.06129923115555247,0.09186144173145294,-0.1306035816669464,0.24739253520965576,-0.05452525615692139,0.019222885370254517,-0.020373336970806122,-0.1911989483475302,1.4708063679061236,0.1187040707298264,0.9768732190132141,0.1900361329317093,-0.09800434857606888
1729111779134,9i,4.535142757706733,0.9s : 0.3s,-10.254191386300604,0.017580377464992167,0.1846709539047634,0.058701698444644734,0.12851665914058685,-0.13396503031253815,0.24320977926254272,-0.05208909511566162,0.016724050045013428,-0.021281957626342773,-0.1909310792914693,1.469726725817258,0.1167591699933921,0.9768174886703491,0.18977314233779907,-0.09906409680843353
1729111779144,9i,4.535142757706733,0.9s : 0.3s,-10.254191386300604,0.018241241196013776,0.19177436879266185,0.053626750596390174,0.18049676716327667,-0.13017436861991882,0.23299555480480194,-0.04296821355819702,0.02029193937778473,-0.02485554665327072,-0.19070065619393362,1.4685627958050687,0.11437492442565828,0.9767450094223022,0.18954689800739288,-0.1002054363489151
1729111779154,9i,4.535142757706733,0.9s : 0.3s,-10.254191386300604,0.018879362787429087,0.2013910024954952,0.043884431734426424,0.22620460391044617,-0.12818072736263275,0.22901864349842072,-0.036899030208587646,0.01294068992137909,-0.01992093026638031,-0.19043292697663824,1.4673433768191726,0.11153262460186424,0.9766724705696106,0.18928401172161102,-0.10140165686607361
1729111779164,9i,4.535142757706733,0.9s : 0.3s,-10.254191386300604,0.019496661799205863,0.21317715051519445,0.04878713510165496,0.2713332176208496,-0.12774832546710968,0.21976810693740845,-0.0362401008605957,0.01682281494140625,-0.027997009456157684,-0.19014670959515143,1.4660409873656677,0.10829982501327212,0.9765934348106384,0.18900296092033386,-0.10267923772335052
1729111779174,9i,4.535142757706733,0.9s : 0.3s,-10.254191386300604,0.02010006022096366,0.22707066672070458,0.05126372343929816,0.3242984116077423,-0.12243105471134186,0.20267167687416077,-0.040125131607055664,0.01562725007534027,-0.027816042304039,-0.1898413961214466,1.464690004318926,0.1046212265069972,0.9765111207962036,0.18870314955711365,-0.10400461405515671
1729111779184,9i,4.535142757706733,0.9s : 0.3s,-10.254191386300604,0.02068803646345739,0.24539934665456578,0.047423240235953616,0.37853288650512695,-0.12387163192033768,0.1932736486196518,-0.03737998008728027,0.02077457308769226,-0.020496778190135956,-0.18952547645912127,1.463263954683658,0.10041003500888446,0.976421058177948,0.18839289247989655,-0.10540345311164856
1729111779194,9i,4.535142757706733,0.9s : 0.3s,-10.254191386300604,0.021247984049070055,0.27568234092619565,0.04127054485575087,0.5017621517181396,-0.10781703889369965,0.16331307590007782,-0.02400660514831543,0.008204430341720581,-0.032551929354667664,-0.18919604093387682,1.4616149367479132,0.09537086284411006,0.9763075113296509,0.18806934356689453,-0.10702019929885864
1729111779204,9i,4.535142757706733,0.9s : 0.3s,-10.254191386300604,0.021796396454680445,0.30094841015581825,0.07144183227203633,0.5154094099998474,-0.08732779324054718,0.16303446888923645,-0.03609919548034668,0.060831233859062195,-0.010017208755016327,-0.18877737277703302,1.4601102482424024,0.08993582002724959,0.9762236475944519,0.1876581311225891,-0.10849781334400177
1729111779214,9i,4.535142757706733,0.9s : 0.3s,-10.254191386300604,0.02232243639651776,0.3421998718916381,0.04913237437612206,0.6529086828231812,-0.07363302260637283,0.1290259063243866,-0.02381455898284912,0.02129460871219635,-0.03732822835445404,-0.18821928351320988,1.4585880919791367,0.08345740623962891,0.9761612415313721,0.18710993230342865,-0.10999535769224167
1729111779224,9i,4.535142757706733,0.9s : 0.3s,-10.254191386300604,0.02283370356689375,0.3809568658838633,0.035624528051554395,0.7095091938972473,-0.04847116023302078,0.08962254971265793,-0.02998882532119751,0.00497080385684967,-0.018576018512248993,-0.18779674040036035,1.4570036003089735,0.0761740052712182,0.9760642051696777,0.18669483065605164,-0.11155090481042862
1729111779234,9i,4.535142757706733,0.9s : 0.3s,-10.254191386300604,0.023333052131072195,0.4168981611369255,0.0393296524118029,0.753474235534668,-0.03533058986067772,0.059996478259563446,-0.03114449977874756,0.01991577446460724,-0.013423994183540344,-0.18740176603455697,1.4555013312453822,0.06844116467816845,0.9759688377380371,0.18630678951740265,-0.11302557587623596
1729111779244,9i,4.535142757706733,0.9s : 0.3s,-10.254191386300604,0.0237965671619433,0.46075257349896015,0.031076154161648994,0.8461553454399109,-0.024096710607409477,0.03525274991989136,-0.008284211158752441,0.027615413069725037,-0.011596903204917908,-0.18695749774918938,1.453951679954665,0.060068311754119384,0.9758744239807129,0.18587027490139008,-0.11454746872186661
1729111779254,9i,4.535142757706733,0.9s : 0.3s,-10.254191386300604,0.024222161063766064,0.5017035653251585,0.028775796503352893,0.896514892578125,-0.0103031350299716,0.0037012146785855293,-0.0034391283988952637,0.02791815996170044,-0.0060659050941467285,-0.18646308102083417,1.4522977093759675,0.050977285614375145,0.975774884223938,0.18538445234298706,-0.11617224663496017
1729111779264,9i,4.535142757706733,0.9s : 0.3s,-10.254191386300604,0.0245641319246411,0.535495327946454,0.01087504414972074,0.9199600219726562,0.005371076986193657,-0.016113102436065674,-0.0037795305252075195,0.009354263544082642,-0.004059493541717529,-0.18591347314567083,1.4506916833538632,0.0416158665757985,0.975688099861145,0.18484434485435486,-0.11775141209363937
1729111779274,9i,4.535142757706733,0.9s : 0.3s,-10.254191386300604,0.024870964443451167,0.5612233845208242,0.012133217033669054,0.9286749958992004,0.017923086881637573,-0.049395959824323654,-0.005310237407684326,0.0036990493535995483,-0.010263204574584961,-0.18528658044194377,1.4491196006238534,0.03211479254010036,0.9756166338920593,0.18422821164131165,-0.11929916590452194
1729111779284,9i,4.535142757706733,0.9s : 0.3s,-10.254191386300604,0.02515743184537323,0.5759591046802546,0.012035547928512493,0.9099977016448975,0.018478889018297195,-0.04970708116889,-0.00754624605178833,0.008480563759803772,-0.00399857759475708,-0.18464448629152538,1.4475772489478085,0.02274530120630044,0.9755485653877258,0.18359707295894623,-0.12081827968358994
1729111779294,9i,4.535142757706733,0.9s : 0.3s,-10.254191386300604,0.025420022456517123,0.5764897670786151,0.011945000871187234,0.8658725619316101,0.016441304236650467,-0.04864368215203285,-0.004697263240814209,-0.010065540671348572,0.004393592476844788,-0.18404591918197316,1.4460896832255,0.013709260464110163,0.9754765629768372,0.18300865590572357,-0.122282974421978
1729111779304,9i,4.535142757706733,0.9s : 0.3s,-10.254191386300604,0.02565541783619867,0.5722661286500041,0.02423151552063651,0.8273575305938721,0.013418661430478096,-0.04689941182732582,-0.002031564712524414,-0.016902491450309753,0.01724369078874588,-0.18347270831559492,1.4446616949002524,0.0050889687578156715,0.9754049181938171,0.18244509398937225,-0.12368899583816528
1729111779314,9i,4.535142757706733,0.9s : 0.3s,-10.254191386300604,0.02585528703895928,0.5529590857498206,0.036822118205896474,0.7562165260314941,0.007293656934052706,-0.03523236885666847,0.005765855312347412,-0.01743006706237793,0.03191889822483063,-0.18287641176019026,1.4433029596783298,-0.0029566558914616414,0.9753437042236328,0.18185876309871674,-0.12502801418304443
1729111779324,9i,4.535142757706733,0.9s : 0.3s,-10.254191386300604,0.02601234601519632,0.5266120054272204,0.03924559996985978,0.6926876306533813,0.0014805091777816415,-0.02479810267686844,0.012881040573120117,-0.018354564905166626,0.03220878541469574,-0.18224936186424093,1.442003741371162,-0.01029975336253407,0.9752935171127319,0.18124213814735413,-0.12630973756313324
1729111779334,9i,4.535142757706733,0.9s : 0.3s,-10.254191386300604,0.026134897894749792,0.4939956170930071,0.03948269374076231,0.6224813461303711,-0.004663137253373861,-0.017271744087338448,0.0005775690078735352,-0.019650205969810486,0.03424060344696045,-0.18161188688424104,1.4407805273807688,-0.016954530654634346,0.9752525091171265,0.18061518669128418,-0.12751756608486176
1729111779344,9i,4.535142757706733,0.9s : 0.3s,-10.254191386300604,0.02623080362017627,0.4607455229892463,0.04161150460922343,0.5711358785629272,-0.004834378603845835,-4.908186383545399e-05,-0.0041159987449646,-0.018391266465187073,0.037099018692970276,-0.18092143151154338,1.439649808773714,-0.02298580571780098,0.9752309918403625,0.17993603646755219,-0.12863647937774658
1729111779354,9i,4.535142757706733,0.9s : 0.3s,-10.254191386300604,0.026313626782642006,0.4236995215777454,0.043147204218727364,0.502670407295227,-0.005011789500713348,0.0020328108221292496,-0.007317543029785156,-0.018850281834602356,0.03811563551425934,-0.18019370023585532,1.4386249606859898,-0.028398105326678073,0.9752282500267029,0.17922013998031616,-0.12965311110019684
1729111779364,9i,4.535142757706733,0.9s : 0.3s,-10.254191386300604,0.026402103853091857,0.3853696928887268,0.04145011333998699,0.4410829544067383,-0.00321193621493876,0.007103136740624905,-0.0155448317527771,-0.01918335258960724,0.03329367935657501,-0.17952414123833957,1.4377339400276534,-0.03313155928812615,0.9752310514450073,0.17856138944625854,-0.13053789734840393
1729111779374,9i,4.535142757706733,0.9s : 0.3s,-10.254191386300604,0.0265006604362006,0.3498201269524155,0.03973154221300584,0.39769473671913147,-0.0006172184366732836,0.0017760155024006963,-0.019242405891418457,-0.011204302310943604,0.032905757427215576,-0.17892069491204246,1.4369572640009436,-0.03734567510790401,0.9752360582351685,0.1779676079750061,-0.1313096582889557
1729111779384,9i,4.535142757706733,0.9s : 0.3s,-10.254191386300604,0.026598943994786333,0.31822246715933383,0.038517653635250566,0.3643539547920227,0.0025431993417441845,0.006995378527790308,-0.010063350200653076,-0.004432052373886108,0.036914706230163574,-0.17838069262042255,1.4362861940094338,-0.04117526923376247,0.9752427935600281,0.17743618786334991,-0.13197696208953857
1729111779394,9i,4.535142757706733,0.9s : 0.3s,-10.254191386300604,0.026679007295268897,0.28782228961390216,0.04570098207227768,0.3230845630168915,-0.0009796302765607834,0.017123647034168243,0.004439830780029297,-0.017057642340660095,0.042165204882621765,-0.17779826195157733,1.4356887335958568,-0.04462943933126602,0.9752660989761353,0.17686296999454498,-0.13257351517677307
1729111779404,9i,4.535142757706733,0.9s : 0.3s,-10.254191386300604,0.02674610593159887,0.2583153850330855,0.03847221773155378,0.28213632106781006,-0.006019928492605686,0.012867914512753487,0.003838956356048584,-0.01426631212234497,0.035522475838661194,-0.1772411672432007,1.4351131022604755,-0.04762723828686728,0.9752869606018066,0.17631463706493378,-0.1331481635570526
1729111779414,9i,4.535142757706733,0.9s : 0.3s,-10.254191386300604,0.02680258855548228,0.23256673443089218,0.0298518947019677,0.2567175030708313,-0.008444736711680889,0.013389362022280693,0.004805028438568115,0.0016920864582061768,0.029414013028144836,-0.17676296181943332,1.4345666015702545,-0.050323118816042484,0.9752974510192871,0.17584389448165894,-0.13369257748126984
1729111779424,9i,4.535142757706733,0.9s : 0.3s,-10.254191386300604,0.026847561313274357,0.21252548324575413,0.03591940559347485,0.24664516746997833,-0.004923505242913961,0.01421147957444191,0.006802558898925781,0.004351362586021423,0.034999921917915344,-0.1762781711339256,1.4340609791920695,-0.05282844229469257,0.9753140807151794,0.17536664009094238,-0.13419729471206665
1729111779434,9i,4.535142757706733,0.9s : 0.3s,-10.254191386300604,0.02689315145884148,0.19393834851240419,0.02823971805005313,0.22439178824424744,-0.004430998116731644,0.0012522717006504536,-0.002375185489654541,0.00461442768573761,0.027758732438087463,-0.17588698575661488,1.4336099721926427,-0.05519680515056835,0.9753212928771973,0.1749815046787262,-0.13464652001857758
1729111779444,9i,4.535142757706733,0.9s : 0.3s,-10.254191386300604,0.02694310077632465,0.17439426235158378,0.021342608777036993,0.1919398456811905,-0.008530935272574425,-0.005102230701595545,-0.005442619323730469,0.00420360267162323,0.020204320549964905,-0.17563782965294236,1.433179348879276,-0.05730311659199854,0.9753063917160034,0.17473618686199188,-0.1350724846124649
1729111779454,9i,4.535142757706733,0.9s : 0.3s,-10.254191386300604,0.026993834907203886,0.154529263395395,0.012795731437232895,0.16079683601856232,-0.015090566128492355,0.0028310599736869335,-0.002692580223083496,0.0017690509557724,0.012383505702018738,-0.17541395265893914,1.432755317149823,-0.059064749705904786,0.975287914276123,0.1745157539844513,-0.13549143075942993
1729111779464,9i,4.535142757706733,0.9s : 0.3s,-10.254191386300604,0.027046381936577216,0.13747462364353563,0.010183703194765616,0.14465755224227905,-0.02080579847097397,0.0044678389094769955,-0.0035129189491271973,0.009517833590507507,0.000882074236869812,-0.17516875391764944,1.4323038494383002,-0.06060178664260437,0.9752690196037292,0.17427431046962738,-0.1359376460313797
1729111779474,9i,4.535142757706733,0.9s : 0.3s,-10.254191386300604,0.027103623660887935,0.12127589856774644,0.00854292612670584,0.12280311435461044,-0.022281456738710403,0.012439479120075703,-0.007341444492340088,-0.002422228455543518,-0.003635600209236145,-0.17491313190266725,1.4318575268719518,-0.061943270893797184,0.9752523303031921,0.1740226000547409,-0.13637907803058624
1729111779484,9i,4.535142757706733,0.9s : 0.3s,-10.254191386300604,0.02716842016710166,0.10539761204991616,0.014813164714605365,0.09895144402980804,-0.02867450937628746,0.012199562042951584,-0.01089853048324585,-0.0034822076559066772,-0.009408831596374512,-0.17464144103994042,1.4314160744241153,-0.06301758271837833,0.9752387404441833,0.17375504970550537,-0.136816143989563
1729111779494,9i,4.535142757706733,0.9s : 0.3s,-10.254191386300604,0.027227000994116915,0.09516246374725451,0.02508121478898766,0.10051418840885162,-0.03762539103627205,0.020711025223135948,7.462501525878906e-05,-0.00044536590576171875,-0.025077149271965027,-0.17434668303244585,1.4309201645980825,-0.06398854993393194,0.9752213358879089,0.17346476018428802,-0.13730686902999878
1729111779504,9i,4.535142757706733,0.9s : 0.3s,-10.254191386300604,0.027256235146672782,0.09350275674513182,0.047276318337382175,0.10761363804340363,-0.05330537632107735,0.02071215584874153,0.004451572895050049,-0.007292136549949646,-0.04649794101715088,-0.1740013384352123,1.430284621503185,-0.0649888252223734,0.975193202495575,0.17312464118003845,-0.13793502748012543
1729111779514,9i,4.535142757706733,0.9s : 0.3s,-10.254191386300604,0.027262500699448047,0.09437003678974633,0.0673567913910828,0.14170023798942566,-0.051606010645627975,0.036803506314754486,0.0018805265426635742,-0.025615543127059937,-0.06226752698421478,-0.17358060693561456,1.4297079515206284,-0.06615904494128769,0.9751854538917542,0.17271025478839874,-0.13850758969783783
1729111779524,9i,4.535142757706733,0.9s : 0.3s,-10.254191386300604,0.027276353565983166,0.10576492335431521,0.06759706294818049,0.18645453453063965,-0.0494648739695549,0.04597586765885353,-0.0038623809814453125,-0.027485787868499756,-0.06163583695888519,-0.1729697805946817,1.4289972118202492,-0.0677365021232118,0.9751909971237183,0.17210857570171356,-0.13921554386615753
1729111779534,9i,4.535142757706733,0.9s : 0.3s,-10.254191386300604,0.027295194187654352,0.11873679708658245,0.04527126146804811,0.21279266476631165,-0.03915231674909592,0.052672915160655975,-0.0011491775512695312,-0.01284731924533844,-0.043394848704338074,-0.17220546824186994,1.4283052627335286,-0.06968468165782982,0.9752244353294373,0.17135560512542725,-0.13990893959999084
1729111779544,9i,4.535142757706733,0.9s : 0.3s,-10.254191386300604,0.027306441645463617,0.1319841006975797,0.02881994507918405,0.23246370255947113,-0.05279511213302612,0.04579121246933937,0.010541081428527832,0.003804638981819153,-0.026551827788352966,-0.17145739654891562,1.4274974310729516,-0.07183333757051495,0.9752376675605774,0.17061856389045715,-0.14071497321128845
1729111779554,9i,4.535142757706733,0.9s : 0.3s,-10.254191386300604,0.027311491110921484,0.14951704626159906,0.05184381377067914,0.276990681886673,-0.05824873223900795,0.02827666513621807,0.01077204942703247,0.041528522968292236,-0.029105424880981445,-0.17074089572338247,1.426519466775027,-0.074340681394079,0.9752203822135925,0.16991251707077026,-0.14168621599674225
1729111779564,9i,4.535142757706733,0.9s : 0.3s,-10.254191386300604,0.027342269848431095,0.17407536940442098,0.060446371899395876,0.3405552804470062,-0.051916979253292084,0.028852639719843864,-0.009484708309173584,0.052542462944984436,-0.028338909149169922,-0.17004710192186617,1.4254379711495044,-0.07737481722709275,0.9751829504966736,0.16922877728939056,-0.142757847905159
1729111779574,9i,4.535142757706733,0.9s : 0.3s,-10.254191386300604,0.027397951679262962,0.20154531830450204,0.058302372131161045,0.39287441968917847,-0.051750801503658295,0.021512702107429504,-0.011191248893737793,0.04593287408351898,-0.03411881625652313,-0.16927562272802035,1.424202338594188,-0.08106302592207842,0.9751346707344055,0.16846837103366852,-0.14398173987865448
1729111779584,9i,4.535142757706733,0.9s : 0.3s,-10.254191386300604,0.027461146669912603,0.2222062823994141,0.04768570746635967,0.39812523126602173,-0.05930303409695625,0.023366296663880348,-0.0046272873878479,0.03834187984466553,-0.02797168493270874,-0.16846273209716772,1.4227228471304523,-0.08508154350943369,0.9750557541847229,0.16766704618930817,-0.14544445276260376
1729111779594,9i,4.535142757706733,0.9s : 0.3s,-10.254191386300604,0.027531469472075996,0.23237102989467504,0.023261738839009425,0.37432801723480225,-0.07080203294754028,0.024474171921610832,-0.006415009498596191,0.01914706826210022,-0.011547550559043884,-0.1674404951650476,1.420958965198535,-0.08900163491021319,0.9749665856361389,0.1666591912508011,-0.14718960225582123
1729111779604,9i,4.535142757706733,0.9s : 0.3s,-10.254191386300604,0.027616140608657514,0.23437706450283402,0.03290985259181713,0.36036014556884766,-0.0783793032169342,0.021352846175432205,-0.013359785079956055,0.027725815773010254,-0.011655628681182861,-0.16643135376923365,1.4190296460733487,-0.09273526272770861,0.974846601486206,0.16566407680511475,-0.14909571409225464
1729111779614,9i,4.535142757706733,0.9s : 0.3s,-10.254191386300604,0.027708654629894296,0.2352492115697935,0.034565201862226475,0.3523229956626892,-0.0876537561416626,0.012566013261675835,-0.008219718933105469,0.029512926936149597,-0.016005516052246094,-0.16564045303218755,1.4172666865996248,-0.09633900961793931,0.9747114181518555,0.1648840457201004,-0.1508340835571289
1729111779624,9i,4.535142757706733,0.9s : 0.3s,-10.254191386300604,0.027800655631189133,0.23816704556233972,0.02698500189432044,0.3649439811706543,-0.09701485931873322,0.0017459220252931118,-0.0014345049858093262,0.020221203565597534,-0.017811104655265808,-0.16509809364830877,1.4156108080926741,-0.09991635643945469,0.9745484590530396,0.16434909403324127,-0.15246166288852692
1729111779634,9i,4.535142757706733,0.9s : 0.3s,-10.254191386300604,0.02788609602756675,0.2469825794394745,0.024655365606456512,0.3873662054538727,-0.0966888889670372,0.005113222636282444,0.00406569242477417,0.015763074159622192,-0.018517091870307922,-0.1644974593167032,1.4140335302462792,-0.10370688634881303,0.9744042754173279,0.1637565940618515,-0.15401402115821838
1729111779644,9i,4.535142757706733,0.9s : 0.3s,-10.254191386300604,0.027950196091780476,0.24737512144598123,0.019585282065007713,0.35941261053085327,-0.10753603279590607,0.00244260486215353,0.013556063175201416,-0.014133498072624207,0.00024628639221191406,-0.16386796947027077,1.4123950943444863,-0.10744621390698506,0.9742521643638611,0.1631355732679367,-0.15562653541564941
1729111779654,9i,4.535142757706733,0.9s : 0.3s,-10.254191386300604,0.027984889927249516,0.24314483127494757,0.043012932309974966,0.3174041509628296,-0.1185452789068222,0.012294969521462917,0.018545329570770264,-0.036349594593048096,0.013597428798675537,-0.16326410804322833,1.4107041160827705,-0.11083684336142874,0.9740846753120422,0.1625397652387619,-0.15728943049907684
1729111779664,9i,4.535142757706733,0.9s : 0.3s,-10.254191386300604,0.027993465136571007,0.23059359268983284,0.03730957761819225,0.2747807800769806,-0.1296585500240326,0.016362348571419716,0.01749950647354126,-0.029034242033958435,0.01558154821395874,-0.16265456480150217,1.4089809525568704,-0.11375836328044192,0.9739097952842712,0.16193829476833344,-0.15898363292217255
1729111779674,9i,4.535142757706733,0.9s : 0.3s,-10.254191386300604,0.02798843509298405,0.2176364723977903,0.03699727954104014,0.2490498572587967,-0.13137468695640564,0.03322814777493477,0.007017970085144043,-0.03382307291030884,0.013249397277832031,-0.16198722500143004,1.407257108368872,-0.11635229788230612,0.9737406969070435,0.16127973794937134,-0.16067981719970703
1729111779684,9i,4.535142757706733,0.9s : 0.3s,-10.254191386300604,0.027990501354982968,0.20560294808294885,0.034720890497054395,0.23322896659374237,-0.1269364058971405,0.027836544439196587,-0.01024705171585083,-0.01805572211742401,0.02783036231994629,-0.16128643953810778,1.4055744793214857,-0.11870690848074127,0.9735801815986633,0.1605880856513977,-0.1623365730047226
1729111779694,9i,4.535142757706733,0.9s : 0.3s,-10.254191386300604,0.027982675173757233,0.20070518106864388,0.03394311308539669,0.24124693870544434,-0.12587247788906097,0.03569553419947624,0.001455068588256836,0.014054849743843079,0.03086225688457489,-0.1605691825912786,1.4039529453621729,-0.12099346665686946,0.9734290838241577,0.15988008677959442,-0.1639341562986374
1729111779704,9i,4.535142757706733,0.9s : 0.3s,-10.254191386300604,0.02796427187190931,0.20032332636015263,0.032107164689554324,0.2652658522129059,-0.12151381373405457,0.03225802630186081,0.0006932616233825684,0.00485268235206604,0.03173075616359711,-0.1598129411873514,1.4022975439796403,-0.12348936647223292,0.973275363445282,0.15913353860378265,-0.1655655950307846
1729111779714,9i,4.535142757706733,0.9s : 0.3s,-10.254191386300604,0.027997234108621327,0.1996171375561982,0.044404028069978244,0.2659151256084442,-0.10827869921922684,0.02312285080552101,-0.018902838230133057,0.017428576946258545,0.03620283305644989,-0.15909932364629364,1.4007322589590874,-0.12612087353849374,0.9731265902519226,0.15842896699905396,-0.16710799932479858
1729111779724,9i,4.535142757706733,0.9s : 0.3s,-10.254191386300604,0.02801543412934484,0.1988504068874672,0.043978226253277554,0.26280415058135986,-0.11006350070238113,0.02527165412902832,-0.0002186298370361328,0.012865766882896423,0.04205363988876343,-0.15841983444997018,1.3992387402496982,-0.1287349158983637,0.9729816913604736,0.15775802731513977,-0.16857951879501343
1729111779734,9i,4.535142757706733,0.9s : 0.3s,-10.254191386300604,0.027984327195236126,0.19585612407207684,0.05494943001982856,0.2444339394569397,-0.11102090775966644,0.02502557821571827,0.009268522262573242,-0.010697945952415466,0.05309508740901947,-0.15772871200062324,1.397727002153211,-0.13122754900471767,0.9728330373764038,0.15707552433013916,-0.17006897926330566
1729111779744,9i,4.535142757706733,0.9s : 0.3s,-10.254191386300604,0.02796878239824703,0.18480050025268382,0.05557369463114393,0.21144910156726837,-0.10575264692306519,0.019414696842432022,-0.011302053928375244,-0.01322704553604126,0.0527801513671875,-0.15712224827476018,1.3962951206570926,-0.1334553845249847,0.9726820588111877,0.15647655725479126,-0.1714782863855362
1729111779754,9i,4.535142757706733,0.9s : 0.3s,-10.254191386300604,0.027958412481352796,0.17273284179018716,0.041813750488934126,0.18747985363006592,-0.10498805344104767,0.022910362109541893,-0.005004405975341797,-0.011773839592933655,0.039808571338653564,-0.15657790392061893,1.3949471502559212,-0.13539072687571638,0.9725337028503418,0.15593889355659485,-0.17280413210391998
1729111779764,9i,4.535142757706733,0.9s : 0.3s,-10.254191386300604,0.027956772339370942,0.1614250072683387,0.0379649929528284,0.17592932283878326,-0.09575491398572922,0.021641399711370468,-0.00739675760269165,-0.009548887610435486,0.035992324352264404,-0.15604011811254598,1.3936614968118242,-0.13716051161564774,0.9723930954933167,0.15540766716003418,-0.17406907677650452
1729111779774,9i,4.535142757706733,0.9s : 0.3s,-10.254191386300604,0.027968164013008164,0.15272308556871483,0.047856531562075054,0.1803959757089615,-0.077669657766819,0.020946580916643143,-0.011414170265197754,0.002031281590461731,0.046431005001068115,-0.15551621030042048,1.392528972545516,-0.13886451336601682,0.9722753763198853,0.15489010512828827,-0.17518465220928192
1729111779784,9i,4.535142757706733,0.9s : 0.3s,-10.254191386300604,0.027981355211987222,0.1536381584621454,0.04621832936420921,0.23432232439517975,-0.06788893043994904,0.012909160926938057,7.069110870361328e-05,0.01880417764186859,0.042220041155815125,-0.1549875761894779,1.3914919174313194,-0.14088132045171986,0.9721736907958984,0.1543678194284439,-0.17620745301246643
1729111779794,9i,4.535142757706733,0.9s : 0.3s,-10.254191386300604,0.028001496520728097,0.17872394903194477,0.056033710059832875,0.360228568315506,-0.04952963441610336,-0.0006942660547792912,-0.0008810162544250488,0.04787708818912506,0.029099568724632263,-0.1544266717252937,1.3904383006016814,-0.14377678847670378,0.9720725417137146,0.15381361544132233,-0.17724716663360596
1729111779804,9i,4.535142757706733,0.9s : 0.3s,-10.254191386300604,0.028048406087198434,0.22638301626918078,0.06404093514356599,0.5158637166023254,-0.00828872062265873,-0.014677193015813828,-0.00803685188293457,0.061939239501953125,0.014148533344268799,-0.1536919801825269,1.3894675718445382,-0.14816719920840682,0.9720108509063721,0.15308763086795807,-0.1782110184431076
1729111779814,9i,4.535142757706733,0.9s : 0.3s,-10.254191386300604,0.028106925519173993,0.2868183831467304,0.02586457730231673,0.6448240876197815,0.02094799466431141,-0.03821101412177086,-0.008775174617767334,0.022243767976760864,0.009858369827270508,-0.15289654729787608,1.3886606691651793,-0.154024882010803,0.9719862341880798,0.15230152010917664,-0.17901727557182312
1729111779824,9i,4.535142757706733,0.9s : 0.3s,-10.254191386300604,0.028154146076058355,0.3432426480676873,0.015281712216165887,0.70904141664505,0.038573235273361206,-0.05653735622763634,0.0075272321701049805,-0.009563371539115906,0.009241938591003418,-0.15214801860637375,1.3879188743541895,-0.16086466261752516,0.971964955329895,0.1515616774559021,-0.1797589212656021
1729111779834,9i,4.535142757706733,0.9s : 0.3s,-10.254191386300604,0.02819246080596429,0.41822217621029295,0.01007138440753873,0.8824025392532349,0.07103690505027771,-0.05250666290521622,0.007212460041046143,0.006989479064941406,-0.0007485896348953247,-0.15127111419059122,1.3872488773421867,-0.16877439964805688,0.9719746708869934,0.1506948471069336,-0.18043428659439087
1729111779844,9i,4.535142757706733,0.9s : 0.3s,-10.254191386300604,0.028308933440756794,0.5278161802751679,0.07616295052922084,1.1609705686569214,0.13492311537265778,-0.06453057378530502,-0.01869487762451172,0.06789718568325043,-0.02900463342666626,-0.1499492903738926,1.3867491687458668,-0.1790136554507921,0.9720792770385742,0.14938798546791077,-0.18095625936985016
1729111779854,9i,4.535142757706733,0.9s : 0.3s,-10.254191386300604,0.02846744915808654,0.66018424734178,0.11453828209911675,1.4315093755722046,0.16061623394489288,-0.11814320087432861,-0.00917208194732666,0.10067330300807953,-0.05384957790374756,-0.14845230720186398,1.3862925321815351,-0.1921127382398316,0.9722152948379517,0.14790764451026917,-0.18144094944000244
1729111779864,9i,4.535142757706733,0.9s : 0.3s,-10.254191386300604,0.028521412453044584,0.804856007279022,0.11348057548291646,1.6869783401489258,0.18055962026119232,-0.14500880241394043,0.03311967849731445,0.08315728604793549,-0.06975524127483368,-0.146908538094257,1.3856824870234545,-0.20785369763329253,0.9723276495933533,0.14638067781925201,-0.18207581341266632
1729111779874,9i,4.535142757706733,0.9s : 0.3s,-10.254191386300604,0.02852706787303704,0.9441274054597326,0.14632072341257152,1.872491717338562,0.2081475704908371,-0.16681848466396332,0.03675633668899536,0.11252465844154358,-0.08600538969039917,-0.14512535264518722,1.3850093901913862,-0.22590828855840836,0.9724599719047546,0.14461646974086761,-0.18277817964553833
1729111779884,9i,4.535142757706733,0.9s : 0.3s,-10.254191386300604,0.02853936820091213,1.0492422141915612,0.11601560261124481,1.908677339553833,0.2071463167667389,-0.18974849581718445,0.03129279613494873,0.06785213947296143,-0.0887494683265686,-0.14337771929630397,1.3843328927745697,-0.2451654224814812,0.9725829362869263,0.14288698136806488,-0.1834825724363327
1729111779894,9i,4.535142757706733,0.9s : 0.3s,-10.254191386300604,0.028528212703991758,1.1024955943079953,0.062135547425586364,1.8084639310836792,0.1922808140516281,-0.18627546727657318,0.025011897087097168,-0.002626359462738037,-0.05681842565536499,-0.14178808831222217,1.3836757913281916,-0.26394729418153295,0.9726840257644653,0.14131347835063934,-0.1841636300086975
1729111779904,9i,4.535142757706733,0.9s : 0.3s,-10.254191386300604,0.02859008871990724,1.1118248743716213,0.04513036995899463,1.6701093912124634,0.186421737074852,-0.17231956124305725,-0.005416393280029297,0.03979875147342682,-0.020578444004058838,-0.14030285013391325,1.383072289578506,-0.2816218467811074,0.9727778434753418,0.13984300196170807,-0.18478958308696747
1729111779914,9i,4.535142757706733,0.9s : 0.3s,-10.254191386300604,0.028753797735566352,1.0818879821032985,0.10448126139754388,1.4907578229904175,0.1254071146249771,-0.19792291522026062,-0.01975870132446289,0.09016986191272736,0.048942044377326965,-0.13914527818561762,1.3824586544674846,-0.29775327582051164,0.9728225469589233,0.13869670033454895,-0.18541665375232697
1729111779924,9i,4.535142757706733,0.9s : 0.3s,-10.254191386300604,0.029117607972959314,1.0616002896032806,0.25964820334702365,1.4906620979309082,0.11341153085231781,-0.23290321230888367,-0.00025159120559692383,0.2508449852466583,0.0670367032289505,-0.13849809432060256,1.3814586945832654,-0.31303123140728695,0.9727246165275574,0.1380557417869568,-0.1864061951637268
1729111779934,9i,4.535142757706733,0.9s : 0.3s,-10.254191386300604,0.029956581212948176,1.0604185869041634,0.3767926307649248,1.5344111919403076,0.12192938476800919,-0.3000686466693878,-0.04073154926300049,0.3644871413707733,0.08638721704483032,-0.13821075791970935,1.3805070227984053,-0.3287299691678392,0.9725857377052307,0.13777115941047668,-0.18733933568000793
1729111779944,9i,4.535142757706733,0.9s : 0.3s,-10.254191386300604,0.031378404648059556,1.060555935897635,0.37877315515236293,1.5420100688934326,0.12991052865982056,-0.36639389395713806,-0.09031981229782104,0.3472526967525482,0.1213548481464386,-0.13858782285589588,1.3795454229864481,-0.34477026947499373,0.972353994846344,0.1381446123123169,-0.18826457858085632
1729111779954,9i,4.535142757706733,0.9s : 0.3s,-10.254191386300604,0.03342589618806254,1.0410593423044725,0.4101867489316365,1.4370609521865845,0.15442891418933868,-0.3612813949584961,-0.12039047479629517,0.3640885055065155,0.14559829235076904,-0.13932198807756618,1.3788377797477294,-0.3604223323407083,0.9721208214759827,0.1388716995716095,-0.18893322348594666
1729111779964,9i,4.535142757706733,0.9s : 0.3s,-10.254191386300604,0.036108616650375805,1.0057320211032512,0.43458671208313115,1.3149949312210083,0.16269415616989136,-0.39963915944099426,-0.15750646591186523,0.36964893341064453,0.16558076441287994,-0.1403943499655123,1.3784383546001442,-0.37509774612829416,0.9718984961509705,0.13993360102176666,-0.18929292261600494
1729111779974,9i,4.535142757706733,0.9s : 0.3s,-10.254191386300604,0.039539598007566054,0.9619965821814126,0.49623949514383126,1.1926839351654053,0.16195033490657806,-0.48328903317451477,-0.2169399857521057,0.414648175239563,0.1650986671447754,-0.14236608309701765,1.3781888927157233,-0.38850915383579954,0.9715786576271057,0.1418856531381607,-0.1894821971654892
1729111779984,9i,4.535142757706733,0.9s : 0.3s,-10.254191386300604,0.0438287170957427,0.9395433574478882,0.5914625760180077,1.2024630308151245,0.18319925665855408,-0.5570460557937622,-0.24381905794143677,0.5265249013900757,0.1146811842918396,-0.1451573938892585,1.3780497351687226,-0.4015223617649986,0.9711597561836243,0.14464816451072693,-0.1895407885313034
1729111779994,9i,4.535142757706733,0.9s : 0.3s,-10.254191386300604,0.048885330277925555,0.9443046481869981,0.6235093362962396,1.2498526573181152,0.23858848214149475,-0.681826114654541,-0.2845848798751831,0.5451380610466003,0.10295549035072327,-0.14887746207755467,1.3781851705147952,-0.4149610002023217,0.9706504344940186,0.14832811057567596,-0.18930493295192719
1729111780004,9i,4.535142757706733,0.9s : 0.3s,-10.254191386300604,0.054628768821238585,0.9628639384852521,0.6632165456141893,1.2593849897384644,0.27945998311042786,-0.8085548281669617,-0.3158610463142395,0.5744029879570007,0.10074320435523987,-0.1537718909091707,1.3786842564998354,-0.4290148975272627,0.9700207114219666,0.15316659212112427,-0.18867962062358856
1729111780014,9i,4.535142757706733,0.9s : 0.3s,-10.254191386300604,0.060934180294993825,0.9919602932043612,0.6978354339233934,1.2679613828659058,0.3197474777698517,-0.9256449341773987,-0.2968186140060425,0.6234531402587891,0.10089194774627686,-0.15989639265775504,1.3794602248344268,-0.44341317428300414,0.96922767162323,0.15921592712402344,-0.18774494528770447
1729111780024,9i,4.535142757706733,0.9s : 0.3s,-10.254191386300604,0.06777515131860988,1.0343912570645537,0.7416703253594293,1.2891751527786255,0.35224875807762146,-1.0694644451141357,-0.30299443006515503,0.6683324575424194,0.10770781338214874,-0.16723912070414415,1.3804123567013507,-0.4582304939194262,0.9682317972183228,0.16646063327789307,-0.18659572303295135
1729111780034,9i,4.535142757706733,0.9s : 0.3s,-10.254191386300604,0.07515738373620735,1.0954002097374016,0.7944928375888538,1.3579206466674805,0.39439141750335693,-1.2113449573516846,-0.30529069900512695,0.7220994234085083,0.12879782915115356,-0.175994024935276,1.3815376370579984,-0.4736917107875189,0.966972827911377,0.17508690059185028,-0.18522481620311737
1729111780044,9i,4.535142757706733,0.9s : 0.3s,-10.254191386300604,0.08291413226854877,1.1717214671735987,0.7980279055850236,1.456153154373169,0.4312792420387268,-1.3344084024429321,-0.27451473474502563,0.7356959581375122,0.1422731727361679,-0.1858276519385129,1.382692571653548,-0.49041168515957595,0.9654480814933777,0.18476000428199768,-0.1837770640850067
1729111780054,9i,4.535142757706733,0.9s : 0.3s,-10.254191386300604,0.09099776226892867,1.2517829153940734,0.8093639866534743,1.478633999824524,0.47243547439575195,-1.495665431022644,-0.2944788932800293,0.7335512638092041,0.1739390343427658,-0.197011563590215,1.3838909438484142,-0.5079311319220463,0.9635769128799438,0.19573958218097687,-0.1822245866060257
1729111780064,9i,4.535142757706733,0.9s : 0.3s,-10.254191386300604,0.09932640825757263,1.3332860724770794,0.8127660294332526,1.505279541015625,0.5200532674789429,-1.6328932046890259,-0.296194851398468,0.7301090359687805,0.19949442148208618,-0.209640381725268,1.3852109023724406,-0.5260331698521624,0.9613102078437805,0.20810817182064056,-0.18048198521137238
1729111780074,9i,4.535142757706733,0.9s : 0.3s,-10.254191386300604,0.1077892974753505,1.4150058996164951,0.8060403961037033,1.5230337381362915,0.5628907084465027,-1.7711206674575806,-0.27939629554748535,0.7182283997535706,0.23619228601455688,-0.22358652194200943,1.3866711317219194,-0.5445951518226314,0.9586260318756104,0.22172829508781433,-0.1785292774438858
1729111780084,9i,4.535142757706733,0.9s : 0.3s,-10.254191386300604,0.1163170220665087,1.4988783854205,0.8037592876174174,1.5348548889160156,0.6072461605072021,-1.924519419670105,-0.27562814950942993,0.7125670909881592,0.2496122121810913,-0.23899671292136362,1.3881905591454302,-0.5635468714358227,0.9554224014282227,0.2367279827594757,-0.17643104493618011
1729111780094,9i,4.535142757706733,0.9s : 0.3s,-10.254191386300604,0.12490260337838771,1.5843640785980566,0.8068721785927959,1.5712952613830566,0.6604164838790894,-2.0496737957000732,-0.2747774124145508,0.714550256729126,0.25486862659454346,-0.25571093682227936,1.3897591252978982,-0.583177842901587,0.9516726732254028,0.2529332935810089,-0.17419537901878357
1729111780104,9i,4.535142757706733,0.9s : 0.3s,-10.254191386300604,0.1336632330121873,1.673761749176252,0.8407220403502345,1.5585300922393799,0.7074655294418335,-2.2352187633514404,-0.2802201509475708,0.7433949708938599,0.2750529646873474,-0.27398183018701283,1.3913503235699896,-0.6032794084947686,0.9472429752349854,0.2705668807029724,-0.1718272566795349
1729111780114,9i,4.535142757706733,0.9s : 0.3s,-10.254191386300604,0.1425901122642968,1.7677926687724457,0.8644890584173888,1.5858913660049438,0.7597939968109131,-2.3930411338806152,-0.2462756633758545,0.7682945728302002,0.3105045557022095,-0.29396548939797174,1.3930052920544016,-0.6236273826596049,0.9420154094696045,0.2897498607635498,-0.16926917433738708
1729111780124,9i,4.535142757706733,0.9s : 0.3s,-10.254191386300604,0.1516390815305866,1.8690440312880627,0.8777076691576648,1.6172295808792114,0.8186896443367004,-2.5696401596069336,-0.1977149248123169,0.789429783821106,0.3287554979324341,-0.31557454294028403,1.3945339953554057,-0.6448440613086447,0.9358893036842346,0.31036269664764404,-0.16669189929962158
1729111780134,9i,4.535142757706733,0.9s : 0.3s,-10.254191386300604,0.16069470873898198,1.9657260221136421,0.8568192393312927,1.5948740243911743,0.8551201224327087,-2.7280197143554688,-0.1340404748916626,0.7725659608840942,0.34541887044906616,-0.33884627077111734,1.3959799284976524,-0.6665357494445556,0.9287639260292053,0.3323991894721985,-0.16403761506080627
1729111780144,9i,4.535142757706733,0.9s : 0.3s,-10.254191386300604,0.1697101809919025,2.055364943752232,0.8280585007430762,1.5332294702529907,0.8857907652854919,-2.8850831985473633,-0.07640701532363892,0.7463500499725342,0.35043466091156006,-0.3637780042685377,1.3972645874081193,-0.6882099380091139,0.9205232262611389,0.3558075428009033,-0.16136297583580017
1729111780154,9i,4.535142757706733,0.9s : 0.3s,-10.254191386300604,0.17864733478320383,2.1486332821982916,0.8742424766497502,1.5335508584976196,0.9148492813110352,-3.05076265335083,-0.026870548725128174,0.7988667488098145,0.354104220867157,-0.39040322671925665,1.3982625399060453,-0.7100470273118463,0.9110258221626282,0.38056132197380066,-0.15876120328903198
1729111780164,9i,4.535142757706733,0.9s : 0.3s,-10.254191386300604,0.18748630246372724,2.251848616301485,0.9014579521617785,1.5824733972549438,0.9469321370124817,-3.2309482097625732,0.07863706350326538,0.8283615708351135,0.34678488969802856,-0.4186720109401052,1.3987287356802525,-0.7326735078146338,0.9001379609107971,0.40654751658439636,-0.15643146634101868
1729111780174,9i,4.535142757706733,0.9s : 0.3s,-10.254191386300604,0.1962217437936643,2.357350312442826,0.8793410641387469,1.6005305051803589,0.9770002961158752,-3.4018192291259766,0.15020054578781128,0.7983919382095337,0.33652758598327637,-0.44863942960165243,1.3984353125563338,-0.7563893461214652,0.8876869678497314,0.4337400197982788,-0.15453600883483887
1729111780184,9i,4.535142757706733,0.9s : 0.3s,-10.254191386300604,0.20480109711499941,2.4608476378276327,0.885577999753259,1.5956401824951172,1.01124107837677,-3.5614969730377197,0.1968105435371399,0.8071987628936768,0.3065031170845032,-0.48021091885399153,1.3974702426361258,-0.7808087310791574,0.8736087679862976,0.46196624636650085,-0.15295393764972687
1729111780194,9i,4.535142757706733,0.9s : 0.3s,-10.254191386300604,0.21316747262137736,2.5586513163697844,0.9002213362010256,1.559252381324768,1.0235280990600586,-3.7165615558624268,0.26269280910491943,0.8081391453742981,0.2971566319465637,-0.5133181554692012,1.3958376957232135,-0.8057529707203197,0.8578211069107056,0.4910704493522644,-0.15163356065750122
1729111780204,9i,4.535142757706733,0.9s : 0.3s,-10.254191386300604,0.22138163591082133,2.6519026239438106,0.9593502724372104,1.5149513483047485,1.024850606918335,-3.87210750579834,0.37344640493392944,0.8352304697036743,0.2885841131210327,-0.5480235227484274,1.3933036635588878,-0.8310299798446307,0.840146005153656,0.5210012197494507,-0.15070568025112152
1729111780214,9i,4.535142757706733,0.9s : 0.3s,-10.254191386300604,0.22940998206317056,2.738351488003435,0.9925124450874789,1.4911669492721558,1.0183930397033691,-3.997880458831787,0.47374892234802246,0.8168368339538574,0.30564767122268677,-0.5840639422954983,1.3896432311851488,-0.8570315920525637,0.82057785987854,0.5514187216758728,-0.15029790997505188
1729111780224,9i,4.535142757706733,0.9s : 0.3s,-10.254191386300604,0.2373509246607224,2.8215585125192244,1.022868234540166,1.4295272827148438,1.007035255432129,-4.147251605987549,0.5286258459091187,0.8183037042617798,0.31175822019577026,-0.6214992795449209,1.384774786196938,-0.8835753096205181,0.7989803552627563,0.5822547674179077,-0.15036599338054657
1729111780234,9i,4.535142757706733,0.9s : 0.3s,-10.254191386300604,0.24521791786398514,2.9024754657146774,1.048737979156312,1.4951188564300537,1.0063313245773315,-4.242203712463379,0.5987691879272461,0.815771758556366,0.27539652585983276,-0.6600262837631858,1.3782424770277242,-0.911323576807674,0.7753763794898987,0.6131376028060913,-0.15117470920085907
1729111780244,9i,4.535142757706733,0.9s : 0.3s,-10.254191386300604,0.253045702226331,2.9886425577568576,1.057318137451883,1.5970057249069214,1.0180844068527222,-4.360282897949219,0.6372794508934021,0.8031802773475647,0.25825953483581543,-0.6995677402511103,1.369179728411802,-0.941765566412003,0.7496224045753479,0.6438870429992676,-0.15321803092956543
1729111780254,9i,4.535142757706733,0.9s : 0.3s,-10.254191386300604,0.2607390197772164,3.067730589304881,1.062627756594777,1.6511626243591309,1.0196146965026855,-4.4412760734558105,0.7030141353607178,0.7502606511116028,0.26843589544296265,-0.7393552379517737,1.357488741023684,-0.9750311288526375,0.7221567630767822,0.6738116145133972,-0.15642112493515015
1729111780264,9i,4.535142757706733,0.9s : 0.3s,-10.254191386300604,0.26812428255761883,3.13200209412408,1.0754424258617612,1.6184666156768799,0.9849973320960999,-4.509730815887451,0.7965237498283386,0.662585973739624,0.2882813811302185,-0.7794988084587083,1.3430657763935996,-1.0104892073458958,0.6929019093513489,0.7029229998588562,-0.16058054566383362
1729111780274,9i,4.535142757706733,0.9s : 0.3s,-10.254191386300604,0.2752571066769591,3.183915131685875,1.0830047574216417,1.5645884275436401,0.93410724401474,-4.577741622924805,0.8406076431274414,0.6273840069770813,0.26956892013549805,-0.8199192059515444,1.3257312380234285,-1.0480129609736808,0.6618947386741638,0.7310907244682312,-0.16553446650505066
1729111780284,9i,4.535142757706733,0.9s : 0.3s,-10.254191386300604,0.28226152543634275,3.2287752048795286,1.089123213364677,1.4737937450408936,0.8811289668083191,-4.665623188018799,0.864597499370575,0.6219844818115234,0.2275869995355606,-0.8608810625756399,1.3053874519633675,-1.087425408006846,0.628947913646698,0.7584171295166016,-0.1709616333246231
1729111780294,9i,4.535142757706733,0.9s : 0.3s,-10.254191386300604,0.2894051794863547,3.271558709761873,1.159780293358526,1.608178734779358,0.8492099046707153,-4.684693813323975,0.922420084476471,0.6837409734725952,0.16349250078201294,-0.9016769179372456,1.2807140860474227,-1.1305094433923806,0.5943798422813416,0.7843682169914246,-0.17742377519607544
1729111780304,9i,4.535142757706733,0.9s : 0.3s,-10.254191386300604,0.2968424375996103,3.319647485049742,1.2216182123135082,1.6938501596450806,0.7862032055854797,-4.763321876525879,0.9755776524543762,0.7268866300582886,0.11061251163482666,-0.9417777183864187,1.2492937431873412,-1.1801449348909785,0.558205246925354,0.8086053133010864,-0.18591463565826416
1729111780314,9i,4.535142757706733,0.9s : 0.3s,-10.254191386300604,0.30437868219345465,3.3590519262928904,1.1115674641473279,1.5429911613464355,0.7006853818893433,-4.860037803649902,0.9820026755332947,0.5049160718917847,0.12772130966186523,-0.9816277050203772,1.2115360299109852,-1.2350177543558827,0.5201945304870605,0.8314029574394226,-0.19536352157592773
1729111780324,9i,4.535142757706733,0.9s : 0.3s,-10.254191386300604,0.3117614120952692,3.376629036619918,1.086125483741265,1.3095754384994507,0.6305182576179504,-4.891932964324951,0.9764910936355591,0.4564982056617737,0.13320322334766388,-1.0216401043241399,1.1690973542181204,-1.2930928156614294,0.48041802644729614,0.852965235710144,-0.20408028364181519
1729111780334,9i,4.535142757706733,0.9s : 0.3s,-10.254191386300604,0.31907228107374275,3.378980137516595,1.1338871799082866,1.0745806694030762,0.5272278189659119,-4.922837257385254,1.0278371572494507,0.46695101261138916,0.10586626827716827,-1.0615066219982174,1.1218110676937123,-1.354295178225708,0.43923434615135193,0.8730910420417786,-0.21162493526935577
1729111780344,9i,4.535142757706733,0.9s : 0.3s,-10.254191386300604,0.3264186768855287,3.3775651729046663,1.1817970087413014,1.0306967496871948,0.45972439646720886,-4.904672622680664,1.0459176301956177,0.5487363338470459,0.03986121714115143,-1.1003986193594575,1.0670449377061466,-1.421579632698595,0.39693811535835266,0.8913881182670593,-0.21878574788570404
1729111780354,9i,4.535142757706733,0.9s : 0.3s,-10.254191386300604,0.3339435359287562,3.3750991373850576,1.1360801680417008,1.0144829750061035,0.41262826323509216,-4.89327335357666,1.0230790376663208,0.4939143657684326,-0.006002515554428101,-1.1372899820098226,1.001605998569789,-1.4987823880125746,0.3538282513618469,0.9074984788894653,-0.22638879716396332
1729111780364,9i,4.535142757706733,0.9s : 0.3s,-10.254191386300604,0.3416207078793708,3.3714497696117434,1.109697276652381,0.9615238904953003,0.34088292717933655,-4.901798248291016,1.0024281740188599,0.47552937269210815,-0.020919308066368103,-1.1718968461383499,0.9237867487893547,-1.5875156691206007,0.30990394949913025,0.9214890003204346,-0.2341313362121582
1729111780374,9i,4.535142757706733,0.9s : 0.3s,-10.254191386300604,0.34934460701521053,3.370726604513126,1.16408566666915,0.9866921305656433,0.2691895663738251,-4.9277215003967285,1.0354626178741455,0.5286988615989685,-0.05822473764419556,-1.2035993893870836,0.8304573477579972,-1.690990011850389,0.2650287449359894,0.9333373308181763,-0.24215976893901825
1729111780384,9i,4.535142757706733,0.9s : 0.3s,-10.254191386300604,0.35724782219520856,3.383779661684434,1.1659998242023135,1.1014851331710815,0.21546927094459534,-4.97454833984375,1.0307501554489136,0.5408225059509277,-0.06797590851783752,-1.2307181681936339,0.7170490045683041,-1.8140028817360547,0.2192040979862213,0.942728579044342,-0.25142112374305725
1729111780394,9i,4.535142757706733,0.9s : 0.3s,-10.254191386300604,0.3654137109933373,3.4060422270191744,1.1562389186492696,1.161245346069336,0.164497971534729,-5.0251030921936035,1.005519986152649,0.5667784214019775,-0.06767728924751282,-1.2520361402638291,0.5822001041603758,-1.9581471872384555,0.1723211407661438,0.9496247172355652,-0.2617599368095398
1729111780404,9i,4.535142757706733,0.9s : 0.3s,-10.254191386300604,0.3737329986033718,3.4175372855671564,1.1718267064710983,1.157660722732544,0.09340701252222061,-5.005539417266846,1.053278923034668,0.5112221837043762,-0.04932767152786255,-1.2662148550110115,0.42956288858242403,-2.1194208144750943,0.12489791214466095,0.953972578048706,-0.27264803647994995
1729111780414,9i,4.535142757706733,0.9s : 0.3s,-10.254191386300604,0.38205184587769925,3.41860500702557,1.1183406299347276,1.1007604598999023,0.01564990170300007,-4.994098663330078,1.0408527851104736,0.40877091884613037,-0.01475059986114502,-1.2726013749692493,0.26633604289463186,-2.2904734966272233,0.07732649147510529,0.9558683633804321,-0.28343668580055237
1729111780424,9i,4.535142757706733,0.9s : 0.3s,-10.254191386300604,0.39025223505498363,3.418070015058627,1.0928018095449734,1.012650489807129,-0.0784333199262619,-4.996715545654297,1.0089911222457886,0.4176065921783447,-0.04192188382148743,-1.271354476591311,0.10003920522764058,-2.463685608744943,0.029461055994033813,0.9555012583732605,-0.2935120165348053
1729111780434,9i,4.535142757706733,0.9s : 0.3s,-10.254191386300604,0.39868050966083335,3.4189324172827367,1.125024823098514,1.0315160751342773,-0.12882965803146362,-5.009288311004639,1.0099899768829346,0.49458837509155273,-0.03135982155799866,-1.262175857159738,-0.06131099628603532,-2.6311523838776876,-0.01861121691763401,0.952753484249115,-0.30317384004592896
1729111780444,9i,4.535142757706733,0.9s : 0.3s,-10.254191386300604,0.4073057241568125,3.4190228095538377,1.1177260649181375,1.0920330286026,-0.18074491620063782,-4.9865641593933105,1.0157545804977417,0.4663980007171631,0.005205124616622925,-1.2448371771594764,-0.20945435020176822,-2.78497706268122,-0.0665816068649292,0.9473440051078796,-0.31321898102760315
1729111780454,9i,4.535142757706733,0.9s : 0.3s,-10.254191386300604,0.41584409622334345,3.4176206955938544,1.0746830121728725,1.0366451740264893,-0.24681954085826874,-4.975622653961182,1.0030953884124756,0.3839872479438782,0.036014050245285034,-1.2209872640817372,-0.33979238591561933,-2.920248779594227,-0.11422520130872726,0.9394381642341614,-0.32312342524528503
1729111780464,9i,4.535142757706733,0.9s : 0.3s,-10.254191386300604,0.4243859876238236,3.4057806816077263,1.0505344018888259,0.9210277199745178,-0.32348892092704773,-4.9542036056518555,0.9688222408294678,0.4053295850753784,0.026719331741333008,-1.192749247994685,-0.4530796684209368,-3.0379331979049864,-0.16157126426696777,0.9293872714042664,-0.3318645656108856
1729111780474,9i,4.535142757706733,0.9s : 0.3s,-10.254191386300604,0.4330823158800353,3.395569317611248,1.0924846605578595,0.880311131477356,-0.3910943567752838,-4.942443370819092,1.0112073421478271,0.41329020261764526,0.013177752494812012,-1.1610330314161348,-0.5506572525717752,-3.139125781548991,-0.20845770835876465,0.9172151684761047,-0.339502215385437
1729111780484,9i,4.535142757706733,0.9s : 0.3s,-10.254191386300604,0.4419553120143099,3.3943035168990154,1.101748628449703,0.8720391392707825,-0.4189257025718689,-4.956491470336914,1.010618805885315,0.43721914291381836,0.03659358620643616,-1.1261475433980686,-0.6343137559135885,3.0571486384879325,-0.25491204857826233,0.9027618169784546,-0.34646904468536377
1729111780494,9i,4.535142757706733,0.9s : 0.3s,-10.254191386300604,0.45097041088122375,3.3834916775054666,1.1119899156694308,0.8872708678245544,-0.4573330283164978,-4.910778522491455,1.0387331247329712,0.39012831449508667,0.07317763566970825,-1.0885691186118716,-0.705129875912546,2.9834351913649257,-0.3005739450454712,0.8859642744064331,-0.35316112637519836
1729111780504,9i,4.535142757706733,0.9s : 0.3s,-10.254191386300604,0.46015614614352923,3.380071446617175,1.15334852428473,0.9016542434692383,-0.5159677267074585,-4.907242298126221,1.0841726064682007,0.3853122591972351,0.07947981357574463,-1.04901107732574,-0.7654499315855492,2.9207816884655746,-0.3453420102596283,0.8669307231903076,-0.35940229892730713
1729111780514,9i,4.535142757706733,0.9s : 0.3s,-10.254191386300604,0.46943182179600323,3.3692403012430323,1.1452242742081027,0.8729062676429749,-0.5696722269058228,-4.878767967224121,1.0861560106277466,0.3591839075088501,0.052826881408691406,-1.0078962311074844,-0.8174962138692545,2.8670109654551243,-0.38925662636756897,0.8457110524177551,-0.3650369644165039
1729111780524,9i,4.535142757706733,0.9s : 0.3s,-10.254191386300604,0.47845321639111277,3.3442836702631467,1.076521390197991,0.8875395059585571,-0.6173177361488342,-4.780529499053955,1.0427799224853516,0.2644445300102234,0.03971683979034424,-0.9660342510256016,-0.8624395220873589,2.8207361547086305,-0.43178749084472656,0.8226373791694641,-0.36990177631378174
1729111780534,9i,4.535142757706733,0.9s : 0.3s,-10.254191386300604,0.4871856003881284,3.3162019012580664,1.0525508598681521,0.766277551651001,-0.6698978543281555,-4.741064548492432,1.0288712978363037,0.22021692991256714,0.028136610984802246,-0.9240486671107019,-0.901887053636983,2.780549901556202,-0.4727342128753662,0.7980478405952454,-0.37368711829185486
1729111780544,9i,4.535142757706733,0.9s : 0.3s,-10.254191386300604,0.4959795752046735,3.2728168411104384,1.0762401808442,0.732204020023346,-0.6958954930305481,-4.620849132537842,1.0509499311447144,0.23190850019454956,0.0039517879486083984,-0.8821702416576512,-0.9370739927432495,2.7449632683340632,-0.5120857954025269,0.7721198201179504,-0.376296728849411
1729111780554,9i,4.535142757706733,0.9s : 0.3s,-10.254191386300604,0.5047542288453059,3.216456089393974,1.0817597374872507,0.6873769164085388,-0.7309061884880066,-4.489871501922607,1.0739370584487915,0.12954604625701904,-0.00900810956954956,-0.8409638543043051,-0.9683223079685152,2.713819079075169,-0.549355149269104,0.7452861070632935,-0.37783268094062805
1729111780564,9i,4.535142757706733,0.9s : 0.3s,-10.254191386300604,0.5133866896324075,3.157057380775211,1.0585238839676245,0.5862890481948853,-0.7531731724739075,-4.399795055389404,1.0541269779205322,0.09605193138122559,-0.007946938276290894,-0.8004707538182622,-0.9963948631238618,2.68616883343216,-0.5846139788627625,0.7176839709281921,-0.3783597946166992
1729111780574,9i,4.535142757706733,0.9s : 0.3s,-10.254191386300604,0.5219907432496298,3.0940795220303783,1.084886516371263,0.5502404570579529,-0.7689904570579529,-4.291965961456299,1.082770824432373,0.06630873680114746,-0.01375669240951538,-0.7606155332306839,-1.0222821155279653,2.6608440133539872,-0.6181406378746033,0.6893674731254578,-0.37772274017333984
1729111780584,9i,4.535142757706733,0.9s : 0.3s,-10.254191386300604,0.530220343943519,3.0263026774766444,1.1248864081258343,0.5831150412559509,-0.7686966061592102,-4.16516637802124,1.124866247177124,0.006485879421234131,0.0018139779567718506,-0.7214115480263353,-1.0453608313183635,2.6387742379459653,-0.6495854258537292,0.6604452133178711,-0.3766308128833771
1729111780594,9i,4.535142757706733,0.9s : 0.3s,-10.254191386300604,0.5384171165005918,2.953853593936073,1.1063291763324046,0.6038762927055359,-0.7570135593414307,-4.036069393157959,1.1058701276779175,-0.030919909477233887,-0.007711440324783325,-0.682805157991602,-1.065699786323866,2.619822612761277,-0.6789292097091675,0.6309717893600464,-0.3754061758518219
1729111780604,9i,4.535142757706733,0.9s : 0.3s,-10.254191386300604,0.5461769695072217,2.867573143756354,1.1234982059624934,0.5598859190940857,-0.7581750154495239,-3.8606581687927246,1.1176549196243286,-0.11095982789993286,-0.02799314260482788,-0.645262073701039,-1.0838953286903097,2.6031847012853238,-0.7060948610305786,0.6014078259468079,-0.37381651997566223
1729111780614,9i,4.535142757706733,0.9s : 0.3s,-10.254191386300604,0.5533019801610694,2.768253727399865,1.1507625513420672,0.6229839324951172,-0.7192648649215698,-3.6591713428497314,1.1224644184112549,-0.2535709738731384,-0.005462616682052612,-0.6091176460374689,-1.1000749962269392,2.5889563319726943,-0.7309545278549194,0.5721440315246582,-0.3719635307788849
1729111780624,9i,4.535142757706733,0.9s : 0.3s,-10.254191386300604,0.5598194055316957,2.655797929334731,1.1487258320744151,0.7212020754814148,-0.6763166189193726,-3.4308791160583496,1.0985426902770996,-0.33489882946014404,0.024854958057403564,-0.5743850419539177,-1.1136702086019192,2.577869403875725,-0.7533279061317444,0.5433186292648315,-0.3705427944660187
1729111780634,9i,4.535142757706733,0.9s : 0.3s,-10.254191386300604,0.5657096952079076,2.525390053656952,1.2114099091220731,0.7403044104576111,-0.6576739549636841,-3.1634230613708496,1.11655592918396,-0.46711480617523193,0.051191627979278564,-0.541520355896628,-1.1251532698566922,2.569546410143441,-0.77323317527771,0.5154393911361694,-0.3693678677082062
1729111780644,9i,4.535142757706733,0.9s : 0.3s,-10.254191386300604,0.5708172019615664,2.3835539529537733,1.2987954191650717,0.7269783020019531,-0.6637495756149292,-2.9015393257141113,1.1083765029907227,-0.6598324179649353,0.15163195133209229,-0.5109897214933156,-1.1354560420229194,2.562874316152777,-0.7909021377563477,0.4890407919883728,-0.3678489625453949
1729111780654,9i,4.535142757706733,0.9s : 0.3s,-10.254191386300604,0.5751068149029246,2.2332888357264986,1.3804948555660947,0.7073215246200562,-0.6848588585853577,-2.6341426372528076,1.0993847846984863,-0.8154523372650146,0.17932268977165222,-0.4828116200491989,-1.144888011406305,2.5571874878748466,-0.8065686225891113,0.4642712473869324,-0.3659224212169647
1729111780664,9i,4.535142757706733,0.9s : 0.3s,-10.254191386300604,0.57862704038962,2.068183509583372,1.4905017089136967,0.5904744267463684,-0.72210294008255,-2.335970401763916,1.1102955341339111,-0.9716992378234863,0.21128123998641968,-0.4574761766815217,-1.1540822492516727,2.5531551409232085,-0.8203937411308289,0.4416852295398712,-0.3631366789340973
1729111780674,9i,4.535142757706733,0.9s : 0.3s,-10.254191386300604,0.5814214838431938,1.8880715472441896,1.5819659602132097,0.4889400899410248,-0.7340511679649353,-2.013294219970703,1.0988842248916626,-1.113579511642456,0.23454302549362183,-0.4353869616175869,-1.1631829230136044,2.5497009396302053,-0.8324199914932251,0.42176130414009094,-0.3594362139701843
1729111780684,9i,4.535142757706733,0.9s : 0.3s,-10.254191386300604,0.5835840869304713,1.6884651325992177,1.6823504977922867,0.46383288502693176,-0.710732102394104,-1.6305711269378662,1.0939832925796509,-1.2498201131820679,0.26730775833129883,-0.4167139605637691,-1.1717501551109726,2.547333409064412,-0.8425794839859009,0.4047577977180481,-0.35528993606567383
1729111780694,9i,4.535142757706733,0.9s : 0.3s,-10.254191386300604,0.585152972949845,1.4598190459343632,1.8237255765360902,0.36156991124153137,-0.6588659882545471,-1.1872589588165283,1.0918776988983154,-1.4242832660675049,0.3243381679058075,-0.40216962432562237,-1.179258585566625,2.5463599418693827,-0.8505751490592957,0.3914157748222351,-0.35116302967071533
1729111780704,9i,4.535142757706733,0.9s : 0.3s,-10.254191386300604,0.586403394382622,1.2110268022215764,1.93055601095555,0.3104383945465088,-0.5754241347312927,-0.735119104385376,1.1073397397994995,-1.530403733253479,0.398383766412735,-0.39205497333680933,-1.1856841306561146,2.5463497744839474,-0.856439471244812,0.3820882737636566,-0.3471600115299225
1729111780714,9i,4.535142757706733,0.9s : 0.3s,-10.254191386300604,0.5876867302261695,0.9531497006683685,2.0317096474049596,0.4313555061817169,-0.440462589263916,-0.2622777819633484,1.1539394855499268,-1.610187292098999,0.4511813819408417,-0.38601419829991573,-1.1901279301226937,2.548638837812048,-0.8601008653640747,0.37649890780448914,-0.3442020118236542
1729111780724,9i,4.535142757706733,0.9s : 0.3s,-10.254191386300604,0.5891231417633521,0.6882654375059277,2.1323643684521087,0.5055457949638367,-0.2917691767215729,0.2763766646385193,1.1659451723098755,-1.7193036079406738,0.4811909794807434,-0.38430266658772483,-1.1920232966379118,2.553949733865283,-0.8613492250442505,0.3749127686023712,-0.3428089916706085
1729111780734,9i,4.535142757706733,0.9s : 0.3s,-10.254191386300604,0.5907915819651252,0.5640910466410987,2.2772209567939976,0.531816840171814,-0.13107456266880035,0.8378834128379822,1.1886612176895142,-1.872199296951294,0.5173872709274292,-0.3875500276399376,-1.1913174654778602,2.562034746120044,-0.8599715232849121,0.37792128324508667,-0.3429640233516693
1729111780744,9i,4.535142757706733,0.9s : 0.3s,-10.254191386300604,0.5930596753035184,0.4022795190141115,2.3779994511903517,0.6185134053230286,0.0496879443526268,1.4528731107711792,1.250396728515625,-1.9440186023712158,0.5587316751480103,-0.3959988754022576,-1.187774174645655,2.5729307027249773,-0.8557587265968323,0.38572996854782104,-0.3448033630847931
1729111780754,9i,4.535142757706733,0.9s : 0.3s,-10.254191386300604,0.5964150495804262,0.5938497672029914,2.5102831115644775,0.6428938508033752,0.22678177058696747,2.103848695755005,1.3753283023834229,-2.011199474334717,0.6042102575302124,-0.4100617591275603,-1.181009894442663,2.5871383734935063,-0.8483049869537354,0.3986659646034241,-0.3484881520271301
1729111780764,9i,4.535142757706733,0.9s : 0.3s,-10.254191386300604,0.6013390169917802,0.9686833559824741,2.615183462703402,0.7077283263206482,0.4060881733894348,2.7992050647735596,1.5202763080596924,-2.0365149974823,0.6168882846832275,-0.43010060081020235,-1.1708726096192776,2.604710637431418,-0.8372012376785278,0.41696223616600037,-0.3538877069950104
1729111780774,9i,4.535142757706733,0.9s : 0.3s,-10.254191386300604,0.6083101284610821,1.3947942916062388,2.714690885712137,0.7872199416160583,0.586900532245636,3.47963809967041,1.701122760772705,-2.0298590660095215,0.5961544513702393,-0.4559557472464467,-1.1567892069143604,2.6265273150668467,-0.8219876885414124,0.44032061100006104,-0.36118435859680176
1729111780784,9i,4.535142757706733,0.9s : 0.3s,-10.254191386300604,0.6177008291703641,1.8479579273710887,2.867538048917843,0.8434817790985107,0.7781704664230347,4.20155668258667,1.903946876525879,-2.060567855834961,0.5931448936462402,-0.48760527003443677,-1.1380918060490697,2.6530788384150705,-0.8020336031913757,0.46851158142089844,-0.37045809626579285
1729111780794,9i,4.535142757706733,0.9s : 0.3s,-10.254191386300604,0.6299192448597164,2.3174259710315868,3.073856625706921,0.8955071568489075,0.9359193444252014,4.9318437576293945,2.1640162467956543,-2.109424352645874,0.5621006488800049,-0.5250835836474232,-1.1142805154216398,2.684912338271651,-0.776671826839447,0.5012853145599365,-0.3814365863800049
1729111780804,9i,4.535142757706733,0.9s : 0.3s,-10.254191386300604,0.6454581626086145,2.8137232425221863,3.300922822127185,1.0230271816253662,1.1283797025680542,5.725559234619141,2.473818778991699,-2.120279312133789,0.5298374891281128,-0.5681757739059928,-1.0840678744766115,2.7235278258318356,-0.7449979782104492,0.5380953550338745,-0.394247829914093
1729111780814,9i,4.535142757706733,0.9s : 0.3s,-10.254191386300604,0.6647874788562828,3.3337472733416478,3.6051171529722823,1.0648231506347656,1.3176593780517578,6.565868377685547,2.8294014930725098,-2.173448085784912,0.5171849727630615,-0.6168233284557979,-1.0455829611264955,2.7707850500905367,-0.7057748436927795,0.5784468054771423,-0.40900009870529175
1729111780824,9i,4.535142757706733,0.9s : 0.3s,-10.254191386300604,0.6886167121334266,3.887040415307745,4.014233805536174,1.0857667922973633,1.5050760507583618,7.49436092376709,3.287930965423584,-2.234257936477661,0.5582781434059143,-0.6711372213282502,-0.997037926797,2.828340705304663,-0.6577123403549194,0.6218769550323486,-0.4250688850879669
1729111780834,9i,4.535142757706733,0.9s : 0.3s,-10.254191386300604,0.7177635458533558,4.484642539142941,4.476534239975703,1.042513370513916,1.7132713794708252,8.534322738647461,3.829411506652832,-2.233566999435425,0.6214054822921753,-0.730923304380075,-0.9350551587334884,2.8995158369779483,-0.599095344543457,0.6675573587417603,-0.442099392414093
1729111780844,9i,4.535142757706733,0.9s : 0.3s,-10.254191386300604,0.7532846200817254,5.1460427529649175,5.152134020329953,0.8340765833854675,1.9227875471115112,9.758077621459961,4.522702693939209,-2.347163438796997,0.7618852257728577,-0.7963724230294691,-0.855038542706578,2.9888380461004806,-0.5276924967765808,0.7148240208625793,-0.45887619256973267
1729111780854,9i,4.535142757706733,0.9s : 0.3s,-10.254191386300604,0.7962216310789011,5.869158316462596,5.908054378499351,0.5645636320114136,2.186814546585083,11.050029754638672,5.301126956939697,-2.441359758377075,0.9181078672409058,-0.8663610669275099,-0.7496455577769636,3.1033282176728765,-0.4412637948989868,0.7619773745536804,-0.47400084137916565
1729111780864,9i,4.535142757706733,0.9s : 0.3s,-10.254191386300604,0.847289912424553,6.651648181297715,6.632599832958124,0.22570540010929108,2.393768072128296,12.4252347946167,6.134805679321289,-2.3728420734405518,0.8515634536743164,-0.9370679548450248,-0.6078063277171393,-3.028883296868425,-0.3381597399711609,0.8058253526687622,-0.4861001670360565
1729111780874,9i,4.535142757706733,0.9s : 0.3s,-10.254191386300604,0.9070785706457805,7.4760056523537415,7.44402320639379,-0.10343734920024872,2.5358479022979736,13.798663139343262,7.055437088012695,-2.2847185134887695,0.6437004804611206,-1.0011211299157836,-0.41566160922019935,-2.8264335930459543,-0.21779046952724457,0.8420761823654175,-0.4934318959712982
1729111780884,9i,4.535142757706733,0.9s : 0.3s,-10.254191386300604,0.976558946244154,8.290412873529887,8.40120708670164,-0.23607660830020905,2.7437796592712402,14.947835922241211,8.134443283081055,-2.019202470779419,0.5778705477714539,-1.0443851363022982,-0.16350630030099703,-2.5629434442397403,-0.08178551495075226,0.864615797996521,-0.49573248624801636
1729111780894,9i,4.535142757706733,0.9s : 0.3s,-10.254191386300604,1.0572278422755963,9.057605206432493,9.602845723803833,-0.42505401372909546,2.9784646034240723,15.89249038696289,9.457043647766113,-1.5094784498214722,0.7074222564697266,-1.0496544725020793,0.1338467028311247,-2.253961129862736,0.06643956899642944,0.8672512769699097,-0.49341773986816406
1729111780904,9i,4.535142757706733,0.9s : 0.3s,-10.254191386300604,1.1503583160247925,9.683255779529816,10.921795376011907,-1.408561110496521,3.131516218185425,16.287912368774414,10.840208053588867,-0.7690971493721008,1.0881145000457764,-1.0128921508273452,0.4285617274350699,-1.947609765912769,0.2200029492378235,0.8483664989471436,-0.48153185844421387
1729111780914,9i,4.535142757706733,0.9s : 0.3s,-10.254191386300604,1.2564960926537048,10.150377262139273,12.278936428509233,-3.2234787940979004,2.9952447414398193,16.318185806274414,12.167634963989258,0.5880141854286194,1.5411614179611206,-0.9452911559538637,0.684599792761937,-1.6779053487267375,0.3702528774738312,0.8106674551963806,-0.45357587933540344
1729111780924,9i,4.535142757706733,0.9s : 0.3s,-10.254191386300604,1.374566827371818,10.415619527971119,13.48028180813022,-5.415400981903076,2.4215757846832275,15.708757400512695,13.076645851135254,2.5856566429138184,2.0084099769592285,-0.861063087569386,0.8946945226831646,-1.4466820094208868,0.5082841515541077,0.7585357427597046,-0.40776297450065613
1729111780934,9i,4.535142757706733,0.9s : 0.3s,-10.254191386300604,1.5022713504052176,10.652082930831856,14.56735057409558,-9.404611587524414,1.1973589658737183,14.926708221435547,13.335707664489746,5.028539180755615,3.0133697986602783,-0.7742967021367209,1.069776903074491,-1.2366064435198278,0.6270453929901123,0.699213445186615,-0.3433869481086731
1729111780944,9i,4.535142757706733,0.9s : 0.3s,-10.254191386300604,1.6357940194542642,11.112879806981123,15.661454026962252,-12.792181015014648,-0.7639997601509094,14.684593200683594,12.689153671264648,8.129990577697754,4.262601852416992,-0.6926907315551862,1.22069377823774,-1.0206385094530352,0.7228490114212036,0.6386100649833679,-0.26394447684288025
1729111780954,9i,4.535142757706733,0.9s : 0.3s,-10.254191386300604,1.7689827982978983,11.594193653858264,16.112147981945068,-14.775980949401855,-2.445158004760742,13.565398216247559,10.632318496704102,10.804555892944336,5.460465908050537,-0.6048005163235128,1.3377351446271193,-0.8071403342891373,0.8003754019737244,0.5685979723930359,-0.1899888664484024
1729111780964,9i,4.535142757706733,0.9s : 0.3s,-10.254191386300604,1.8956905519587837,12.041522517313684,15.69841467845343,-16.232284545898438,-4.237954139709473,12.094274520874023,7.680035591125488,11.925283432006836,6.7264323234558105,-0.510986789840719,1.4146559224672475,-0.5994097331091586,0.8616511821746826,0.48903822898864746,-0.13564267754554749
1729111780974,9i,4.535142757706733,0.9s : 0.3s,-10.254191386300604,2.011769614328557,12.50184650782266,14.48401461735175,-16.925092697143555,-6.244789123535156,11.15785026550293,4.794299602508545,11.272591590881348,7.728521823883057,-0.4178358339728144,1.4527146479522135,-0.3970696576636747,0.9076048731803894,0.40578341484069824,-0.10767240822315216
1729111780984,9i,4.535142757706733,0.9s : 0.3s,-10.254191386300604,2.1145291014397447,12.446350033581295,12.701885526766866,-13.601097106933594,-7.102762699127197,10.884841918945312,2.4841227531433105,10.176898956298828,7.183157920837402,-0.3264263612724006,1.4519604415466496,-0.21615782077993473,0.9405141472816467,0.32066014409065247,-0.11229594051837921
1729111780994,9i,4.535142757706733,0.9s : 0.3s,-10.254191386300604,2.2040974907188495,12.233374447888933,10.753705267759143,-12.283303260803223,-7.567527770996094,10.443643569946289,1.2722795009613037,8.9677734375,5.7967681884765625,-0.23814531853722265,1.4186707704685069,-0.07250538870214572,0.9605543613433838,0.23590070009231567,-0.14726261794567108
1729111781004,9i,4.535142757706733,0.9s : 0.3s,-10.254191386300604,2.2801362281156856,12.346123649122905,4.6011629595186045,-11.719439506530762,-7.979523181915283,12.620280265808105,1.8663036823272705,3.4171202182769775,2.451713800430298,-0.14697652252205015,1.3719468298678255,0.08249645417292092,0.9697252511978149,0.14644792675971985,-0.1954117864370346
1729111781014,9i,4.535142757706733,0.9s : 0.3s,-10.254191386300604,2.3470112460509305,11.530698899257521,7.308298193796788,-8.5883207321167,1.009276032447815,12.845098495483398,5.699851036071777,-1.9086074829101562,-4.156938552856445,-0.04329504124297967,1.3346566295190292,0.21774068116873727,0.9713372588157654,0.043281517922878265,-0.2337319701910019
1729111781024,9i,4.535142757706733,0.9s : 0.3s,-10.254191386300604,2.4205008137653192,13.133331850213402,14.417516138468166,-29.450971603393555,-7.168431758880615,0.6249707341194153,8.003706932067871,-8.477149963378906,8.48194408416748,-0.022791013739681423,1.2907783352749607,0.44392395874986307,0.9608009457588196,0.022789040580391884,-0.27630117535591125
1729111781034,9i,4.535142757706733,0.9s : 0.3s,-10.254191386300604,2.4982320771004987,16.14196389108134,9.728475499468122,-35.91934585571289,-11.699539184570312,-4.52181339263916,5.59567928314209,0.7571204304695129,7.922018527984619,-0.14077448629893483,1.212522515610732,0.730087254867575,0.9272392988204956,0.14030997455120087,-0.347189337015152
1729111781044,9i,4.535142757706733,0.9s : 0.3s,-10.254191386300604,2.579988328455548,14.326113056927028,12.920945002559302,-13.89457893371582,-8.229287147521973,-4.01657247543335,3.3889341354370117,8.531400680541992,9.092917442321777,-0.26602207257715593,1.1580510722537312,0.9661592157364607,0.8838013410568237,0.26289552450180054,-0.387015700340271
1729111781054,9i,4.535142757706733,0.9s : 0.3s,-10.254191386300604,2.657544600272697,13.221413118264502,9.757235952421201,-14.00429630279541,-8.21768569946289,-8.126404762268066,2.5634543895721436,8.3064546585083,4.431158542633057,-0.3841693934597647,1.1057473438320273,1.0650213428899546,0.8286505937576294,0.37478920817375183,-0.41577789187431335
1729111781064,9i,4.535142757706733,0.9s : 0.3s,-10.254191386300604,2.7334444899382646,10.623189021057051,6.364934820748015,-1.464836597442627,-10.500502586364746,-6.063419342041016,5.143730640411377,1.5790170431137085,3.4001669883728027,-0.47608824531238186,1.031317927915718,1.0985155454694981,0.7625649571418762,0.4583059549331665,-0.4565635323524475
1729111781074,9i,4.535142757706733,0.9s : 0.3s,-10.254191386300604,2.794703039029491,10.944628313208277,4.762655107980818,-10.26294231414795,-12.835707664489746,-8.992433547973633,1.5585947036743164,-2.071012496948242,3.9955692291259766,-0.5758388407463245,0.9137135106416703,1.1086926088618592,0.6640921235084534,0.5445385575294495,-0.5123080015182495
1729111781084,9i,4.535142757706733,0.9s : 0.3s,-10.254191386300604,2.8410611265615255,10.624268540495933,3.847008160680884,-7.201126575469971,-11.139215469360352,-8.292595863342285,-0.6577492952346802,0.48902493715286255,3.7586822509765625,-0.6979829586855157,0.8013725915935299,1.1176875922169218,0.5503274202346802,0.642673671245575,-0.5330200791358948
1729111781094,9i,4.535142757706733,0.9s : 0.3s,-10.254191386300604,2.879834145006026,10.050978677718092,3.986574568592477,-4.366003036499023,-10.297890663146973,-8.50925350189209,-0.0764264166355133,2.32651424407959,3.2363972663879395,-0.8005895311285044,0.6725206247091394,1.0857240027769945,0.4337567389011383,0.7177667021751404,-0.5446707010269165
1729111781104,9i,4.535142757706733,0.9s : 0.3s,-10.254191386300604,2.9152436183845114,9.648882644800446,3.2279069896663395,-3.055361032485962,-10.727670669555664,-8.183189392089844,1.0789563655853271,1.236100196838379,2.7798008918762207,-0.8780575564568306,0.5129360554528566,1.0105868528043422,0.31340813636779785,0.7694997787475586,-0.5564579963684082
1729111781114,9i,4.535142757706733,0.9s : 0.3s,-10.254191386300604,2.9468404703161366,9.488666641766004,3.3894159416365044,-3.371873140335083,-10.76728343963623,-8.227624893188477,0.9182720184326172,-0.5390428304672241,3.217817544937134,-0.9424510545063857,0.3175187956929888,0.8961167432256528,0.1835193932056427,0.8090012669563293,-0.558424174785614
1729111781124,9i,4.535142757706733,0.9s : 0.3s,-10.254191386300604,2.97471158850713,9.345091131242535,3.1288405695619455,-2.4675047397613525,-9.69924259185791,-9.61337947845459,0.304625004529953,0.41340863704681396,3.086412191390991,-0.9924532260318581,0.0859717811213954,0.7367477646378247,0.04693750664591789,0.8373695015907288,-0.5446183085441589
1729111781134,9i,4.535142757706733,0.9s : 0.3s,-10.254191386300604,3.000995668668148,9.169819195529533,2.7422309506363365,-1.066654920578003,-8.58686351776123,-10.581366539001465,0.7445135712623596,1.5968588590621948,2.1013262271881104,-1.005633669460257,-0.16686360748053056,0.5442035198176002,-0.08895018696784973,0.8445014953613281,-0.5281144976615906
1729111781144,9i,4.535142757706733,0.9s : 0.3s,-10.254191386300604,3.0276764813151233,8.929855419533181,2.481249029001374,0.8199719786643982,-8.252235412597656,-10.170753479003906,1.900667428970337,1.1298868656158447,1.125795602798462,-0.9768367957589909,-0.4031824270726744,0.36172163307503136,-0.21957603096961975,0.8287312388420105,-0.5147725939750671
1729111781154,9i,4.535142757706733,0.9s : 0.3s,-10.254191386300604,3.0537926849787764,8.896787167386773,2.347759529996442,1.216353178024292,-8.489689826965332,-10.178057670593262,2.309779644012451,0.161662757396698,0.3882756233215332,-0.9190364457425754,-0.6046505723193626,0.21788674439869157,-0.3448290526866913,0.7950174808502197,-0.4990392029285431
1729111781164,9i,4.535142757706733,0.9s : 0.3s,-10.254191386300604,3.0782194029890886,8.69415544791562,1.8577110122232348,1.2018909454345703,-7.7149739265441895,-9.876739501953125,1.7441203594207764,0.3339999318122864,0.5455074906349182,-0.8450677303011885,-0.7701693399319227,0.10892155901302693,-0.46209219098091125,0.7480160593986511,-0.4763852059841156
1729111781174,9i,4.535142757706733,0.9s : 0.3s,-10.254191386300604,3.10269713605318,8.365646163741399,2.2693452390862925,1.9820510149002075,-6.613740921020508,-9.40404987335205,1.9635212421417236,0.9402925968170166,0.640595018863678,-0.7634333359975596,-0.8978864732932625,0.03152894924125536,-0.5649769902229309,0.6914060115814209,-0.45028743147850037
1729111781184,9i,4.535142757706733,0.9s : 0.3s,-10.254191386300604,3.129351684166329,7.969456293946221,2.884600089785974,3.051175832748413,-5.662062168121338,-8.821367263793945,2.696493625640869,0.6306626796722412,0.8075298070907593,-0.6748557301566941,-0.9879266277204137,-0.011873178890291127,-0.6518769860267639,0.6247846484184265,-0.4297679662704468
1729111781194,9i,4.535142757706733,0.9s : 0.3s,-10.254191386300604,3.1586795873060844,7.617866563278008,3.2309386622772265,3.417133331298828,-4.91917610168457,-8.597122192382812,2.956157684326172,0.3628380298614502,1.2523757219314575,-0.5837579479427947,-1.0536647662278236,-0.03396139569902908,-0.7252922654151917,0.5511634349822998,-0.412516713142395
1729111781204,9i,4.535142757706733,0.9s : 0.3s,-10.254191386300604,3.189295196606317,7.34703185788116,3.0901854282455417,4.223592758178711,-4.620226860046387,-8.23815631866455,2.938483715057373,0.38080307841300964,0.8772391080856323,-0.49158735815217186,-1.104888413910814,-0.04138505540453774,-0.7876201272010803,0.47202587127685547,-0.39603790640830994
1729111781214,9i,4.535142757706733,0.9s : 0.3s,-10.254191386300604,3.219641439074906,7.205740672090506,2.8732998911997045,4.867963790893555,-4.807447910308838,-7.98153829574585,2.8353970050811768,0.36667028069496155,0.2862324118614197,-0.3988899600732095,-1.1487008930739366,-0.033905228398390726,-0.8406156897544861,0.3883956968784332,-0.37751060724258423
1729111781224,9i,4.535142757706733,0.9s : 0.3s,-10.254191386300604,3.2492477916557245,7.1238677479220405,2.681696618862845,5.169402122497559,-4.826488494873047,-7.774630546569824,2.6405434608459473,0.37500008940696716,0.2800034284591675,-0.30645576780938466,-1.1914127177363223,-0.017408352355919587,-0.8856148719787598,0.30168142914772034,-0.3530930280685425
1729111781234,9i,4.535142757706733,0.9s : 0.3s,-10.254191386300604,3.279852054323774,7.016708361748003,3.027545490404983,5.374228000640869,-4.595855712890625,-7.378382205963135,2.8834822177886963,0.6306694746017456,0.673660159111023,-0.21710125700066965,-1.2328571193607865,0.006148495867459897,-0.9212934970855713,0.215399831533432,-0.32376086711883545
1729111781244,9i,4.535142757706733,0.9s : 0.3s,-10.254191386300604,3.312174513666643,6.900742933228584,3.2718794533728506,5.897674083709717,-4.044688701629639,-7.053654670715332,2.971574306488037,0.5220867395401001,1.2658462524414062,-0.13084361040995768,-1.270605655032657,0.03765592841996078,-0.9471145272254944,0.13047058880329132,-0.29317471385002136
1729111781254,9i,4.535142757706733,0.9s : 0.3s,-10.254191386300604,3.344780301934383,6.7252243413965855,3.0479660699676145,6.050371170043945,-3.440709352493286,-6.5681047439575195,2.7205581665039062,0.14463669061660767,1.3666530847549438,-0.048619770065570896,-1.3046283956699847,0.0763902595662534,-0.9636458158493042,0.04860061779618263,-0.2627254128456116
1729111781264,9i,4.535142757706733,0.9s : 0.3s,-10.254191386300604,3.3774975355186827,6.500621130439406,3.016423026127328,5.925060272216797,-3.0640509128570557,-6.073712348937988,2.708242893218994,0.16257111728191376,1.3182560205459595,0.02729007010282522,-1.3364820083705904,0.11869316333760291,-0.9723115563392639,-0.027286682277917862,-0.23208963871002197
1729111781274,9i,4.535142757706733,0.9s : 0.3s,-10.254191386300604,3.410519006758505,6.337412104285791,3.0419834428968247,6.139146327972412,-2.9651012420654297,-5.829323768615723,2.792841911315918,0.48772773146629333,1.1026418209075928,0.09825253599543418,-1.36947366911727,0.16478793051193688,-0.9750773906707764,-0.09809453040361404,-0.1990010142326355
1729111781284,9i,4.535142757706733,0.9s : 0.3s,-10.254191386300604,3.4433946081191773,6.229441993711821,2.913479854417371,6.350518226623535,-2.822877883911133,-5.6928019523620605,2.6025962829589844,0.7310969829559326,1.0864412784576416,0.1663727629605844,-1.4052752835079587,0.21619817819967543,-0.97271329164505,-0.165606290102005,-0.16249117255210876
1729111781294,9i,4.535142757706733,0.9s : 0.3s,-10.254191386300604,3.4765141641385156,6.122020525207259,3.01406600450362,6.345573425292969,-2.6267893314361572,-5.507929801940918,2.564412832260132,0.732257068157196,1.4043433666229248,0.2309633460145214,-1.443594888293216,0.2718825626042635,-0.9655815958976746,-0.22891539335250854,-0.1234901174902916
1729111781304,9i,4.535142757706733,0.9s : 0.3s,-10.254191386300604,3.5095994310807437,6.0313019275168855,2.963230164710823,6.504966735839844,-2.3350131511688232,-5.331087589263916,2.4025535583496094,0.567541778087616,1.639013648033142,0.2917082849707774,-1.4841237206303202,0.33212651447404157,-0.9541587233543396,-0.28758877515792847,-0.08290712535381317
1729111781314,9i,4.535142757706733,0.9s : 0.3s,-10.254191386300604,3.5413044963052673,5.893098526682386,2.6300081036376097,6.293607234954834,-2.024976968765259,-5.088524341583252,1.9821165800094604,0.44255363941192627,1.6710184812545776,0.3479222982280108,-1.525822624942601,0.395793661998163,-0.9391324520111084,-0.3409453332424164,-0.04226476326584816
1729111781324,9i,4.535142757706733,0.9s : 0.3s,-10.254191386300604,3.5709582773195288,5.726323535886411,2.2942166433853473,6.184192657470703,-1.8022178411483765,-4.730010032653809,1.7549960613250732,0.3341328203678131,1.4393658638000488,0.39815858496121687,-1.5687555407760636,0.4613708591799565,-0.9217745065689087,-0.38772162795066833,-0.0018811471527442336
1729111781334,9i,4.535142757706733,0.9s : 0.3s,-10.254191386300604,3.598385080032387,5.547058595399085,2.091838158925714,6.100016117095947,-1.5221420526504517,-4.416531085968018,1.5152318477630615,0.2527320384979248,1.4198541641235352,0.44259333791633776,-1.6130984203545367,0.5296088244224842,-0.902835488319397,-0.42828434705734253,0.03821462765336037
1729111781344,9i,4.535142757706733,0.9s : 0.3s,-10.254191386300604,3.6235661911679498,5.347848010525213,1.922772240012714,5.960535049438477,-1.3293582201004028,-4.028253555297852,1.3143446445465088,0.17211800813674927,1.3928124904632568,0.4809079956480449,-1.6585753264219214,0.5997206315394097,-0.8831619620323181,-0.46258437633514404,0.07772279530763626
1729111781354,9i,4.535142757706733,0.9s : 0.3s,-10.254191386300604,3.6465237647950586,5.1409571145092885,1.743591502226867,5.8922600746154785,-1.1321439743041992,-3.5854313373565674,1.1552278995513916,0.09728500247001648,1.3023422956466675,0.5122128117682966,-1.7050754375005341,0.6712088163380648,-0.8638156056404114,-0.4901072680950165,0.1166946068406105
1729111781364,9i,4.535142757706733,0.9s : 0.3s,-10.254191386300604,3.667307047651627,4.919382620713807,1.6078213699262534,5.76933479309082,-0.9888330101966858,-3.086275577545166,0.9919419884681702,-0.014907479286193848,1.2652740478515625,0.5357643602120234,-1.7522419426228812,0.7442608260147361,-0.8457629084587097,-0.5104984641075134,0.15516653656959534
1729111781374,9i,4.535142757706733,0.9s : 0.3s,-10.254191386300604,3.6860088088352807,4.671147179985505,1.5218587297182786,5.479529857635498,-0.7526958584785461,-2.6937732696533203,0.7292855381965637,0.09542924165725708,1.3323249816894531,0.5528522388695519,-1.7978645129868203,0.8153471246986215,-0.8291847109794617,-0.5251166820526123,0.19158555567264557
1729111781384,9i,4.535142757706733,0.9s : 0.3s,-10.254191386300604,3.7033238212684276,4.412778680179399,1.5551969848020228,5.291338920593262,-0.5565370917320251,-2.1789047718048096,0.7272850275039673,0.10879337787628174,1.370349645614624,0.5631200031567635,-1.84057819110324,0.8838263844797916,-0.8150079250335693,-0.5338270664215088,0.2253686785697937
1729111781394,9i,4.535142757706733,0.9s : 0.3s,-10.254191386300604,3.7193529984952214,4.151795445253893,1.5431620732171825,4.99423885345459,-0.38558050990104675,-1.857132911682129,0.6408817768096924,-0.03585249185562134,1.4033297300338745,0.5676102829669999,-1.8803419893025792,0.949098397189952,-0.8031132221221924,-0.5376185774803162,0.2568569779396057
1729111781404,9i,4.535142757706733,0.9s : 0.3s,-10.254191386300604,3.7339155403280166,3.8810362965789102,1.4877133385530708,4.620829105377197,-0.15302367508411407,-1.6112675666809082,0.4200214147567749,-0.00842142105102539,1.4271657466888428,0.5686189298812226,-1.9156389410493657,1.0097110653311914,-0.7930377125740051,-0.5384688377380371,0.28485503792762756
1729111781414,9i,4.535142757706733,0.9s : 0.3s,-10.254191386300604,3.746987373179175,3.6282082366228012,1.3279621262644028,4.390478134155273,-0.008606036193668842,-1.3171395063400269,0.3305816054344177,-0.018406212329864502,1.286025047302246,0.5664771147321686,-1.9464480723874067,1.0656841220407915,-0.7849578261375427,-0.536662757396698,0.3095712661743164
1729111781424,9i,4.535142757706733,0.9s : 0.3s,-10.254191386300604,3.7581705807811443,3.385972270910658,1.090000836113847,4.108705997467041,0.08797745406627655,-1.0904271602630615,0.16299748420715332,-0.08362537622451782,1.0744954347610474,0.5614181282481934,-1.9737412581384655,1.1174784091226122,-0.778704822063446,-0.5323871970176697,0.33193764090538025
1729111781434,9i,4.535142757706733,0.9s : 0.3s,-10.254191386300604,3.7674744664897486,3.173287911043555,0.9971688823786822,3.944819211959839,0.19821234047412872,-0.8522180318832397,0.005293607711791992,-0.07293039560317993,0.9944842457771301,0.5540787369457981,-1.9977960671992885,1.1656319213920416,-0.7740312814712524,-0.5261601209640503,0.3521801233291626
1729111781444,9i,4.535142757706733,0.9s : 0.3s,-10.254191386300604,3.7752800017281922,2.952703144942851,0.9654202398450532,3.598040819168091,0.30833232402801514,-0.6895975470542908,-0.028133034706115723,-0.1186683177947998,0.9576860666275024,0.5449447056965298,-2.0182434865021195,1.2096147822755299,-0.7709696888923645,-0.5183708071708679,0.3699963688850403
1729111781454,9i,4.535142757706733,0.9s : 0.3s,-10.254191386300604,3.7816235752739837,2.7204869344267535,0.9150506207805915,3.2034752368927,0.41461804509162903,-0.5829275250434875,-0.12032866477966309,-0.17991375923156738,0.8890836238861084,0.5357492385259058,-2.034601804085291,1.2484342130014836,-0.7690451145172119,-0.5104854702949524,0.3846743106842041
1729111781464,9i,4.535142757706733,0.9s : 0.3s,-10.254191386300604,3.786725729960339,2.497146373220645,0.8774320449020865,2.889368772506714,0.5161718130111694,-0.5025959610939026,-0.18140417337417603,-0.15742039680480957,0.8439184427261353,0.5267784365295157,-2.04722828853957,1.282623508479649,-0.7681654691696167,-0.5027511119842529,0.39643803238868713
1729111781474,9i,4.535142757706733,0.9s : 0.3s,-10.254191386300604,3.790782872040517,2.2919725293599296,0.7840504770982193,2.625025987625122,0.5909344553947449,-0.46771708130836487,-0.20598715543746948,-0.1144854724407196,0.7477951049804688,0.5183224003598604,-2.05701210312875,1.3133093983602024,-0.7679813504219055,-0.4954235851764679,0.405906617641449
1729111781484,9i,4.535142757706733,0.9s : 0.3s,-10.254191386300604,3.7935513706298454,2.1152735401076552,0.6096888531207726,2.460599184036255,0.4981803297996521,-0.4405256509780884,-0.2799287438392639,-0.12463521957397461,0.527092456817627,0.5109570249287892,-2.064147654192982,1.3407711936219369,-0.7682584524154663,-0.4890122711658478,0.41309309005737305
1729111781494,9i,4.535142757706733,0.9s : 0.3s,-10.254191386300604,3.79543767296754,1.9298221378847014,0.7797349168600872,2.107872247695923,0.6319445371627808,-0.4834752380847931,-0.3638846278190613,-0.2470952570438385,0.6438310742378235,0.5038943462285607,-2.070010977491653,1.3660744554684738,-0.7688364386558533,-0.4828394949436188,0.4192335903644562
1729111781504,9i,4.535142757706733,0.9s : 0.3s,-10.254191386300604,3.797164876651309,1.7246184421569162,0.7636253033047982,1.7211542129516602,0.6894221901893616,-0.3640223443508148,-0.24988454580307007,-0.11610963940620422,0.7121796607971191,0.49862703560227273,-2.073502976639332,1.3871578890983562,-0.7695856690406799,-0.4782201945781708,0.4231352210044861
1729111781514,9i,4.535142757706733,0.9s : 0.3s,-10.254191386300604,3.7985106758331004,1.5056976919166334,0.695438369929009,1.3137259483337402,0.6710376143455505,-0.37439775466918945,-0.2526590824127197,-0.1677592396736145,0.6258232593536377,0.49444614672623116,-2.0748401525081093,1.404397333979693,-0.770763099193573,-0.4745441973209381,0.4251258075237274
1729111781524,9i,4.535142757706733,0.9s : 0.3s,-10.254191386300604,3.799120826890166,1.2900955419096123,0.6975773450925092,1.0003241300582886,0.6373084783554077,-0.26612234115600586,-0.32762593030929565,-0.306752473115921,0.5340209007263184,0.49151795896648054,-2.0745732166886834,1.4178568895189425,-0.7720904350280762,-0.47196468710899353,0.4255891740322113
1729111781534,9i,4.535142757706733,0.9s : 0.3s,-10.254191386300604,3.7990870431338553,1.1169792085111594,0.582424826240072,0.8937966823577881,0.5732219219207764,-0.23858578503131866,-0.313770055770874,-0.27317631244659424,0.4076048731803894,0.4893115580379531,-2.073446919404963,1.428260887991964,-0.7734798192977905,-0.47001832723617554,0.425219863653183
1729111781544,9i,4.535142757706733,0.9s : 0.3s,-10.254191386300604,3.79872304413921,0.9748231938163948,0.4556324418843421,0.8255195617675781,0.4877302646636963,-0.1483224779367447,-0.24883151054382324,-0.19720342755317688,0.32679444551467896,0.4867195188261922,-2.0725138482559977,1.4378101497390143,-0.7749418020248413,-0.4677288830280304,0.4250824749469757
1729111781554,9i,4.535142757706733,0.9s : 0.3s,-10.254191386300604,3.7981617043215823,0.8487496016864938,0.43065776733883,0.7002506256103516,0.4428669214248657,-0.11525320261716843,-0.22853970527648926,-0.193439781665802,0.30954283475875854,0.48416027675940393,-2.07160882630784,1.4460713525661828,-0.7763737440109253,-0.4654653072357178,0.4249543249607086
1729111781564,9i,4.535142757706733,0.9s : 0.3s,-10.254191386300604,3.797521682394238,0.7371827693897689,0.42291073077434177,0.599420428276062,0.3867206573486328,-0.0808921679854393,-0.21858644485473633,-0.17294511198997498,0.3180620074272156,0.4816989151876295,-2.0701513661786617,1.4527665842077213,-0.7779956459999084,-0.4632854461669922,0.4243696630001068
1729111781574,9i,4.535142757706733,0.9s : 0.3s,-10.254191386300604,3.797088501688822,0.6461308431601208,0.41203362178567254,0.5291734337806702,0.38250672817230225,-0.05635060369968414,-0.1711629033088684,-0.10182631015777588,0.36070260405540466,0.47952782738087474,-2.068741478257611,1.458558518048311,-0.7794748544692993,-0.46136030554771423,0.4237516522407532
1729111781584,9i,4.535142757706733,0.9s : 0.3s,-10.254191386300604,3.796942496726018,0.5536391307514749,0.3994918252126635,0.363512247800827,0.38512709736824036,-0.005759731400758028,-0.12767070531845093,-0.092368483543396,0.367099404335022,0.47756526364876084,-2.0668942593349167,1.4631457100963798,-0.7810511589050293,-0.4596182107925415,0.4227412939071655
1729111781594,9i,4.535142757706733,0.9s : 0.3s,-10.254191386300604,3.7970240043766994,0.4518266777539571,0.41912584517937723,0.10404500365257263,0.40769392251968384,0.009656243026256561,-0.10383051633834839,-0.13542252779006958,0.38281384110450745,0.4763870919021295,-2.063992545883472,1.4654619433560077,-0.7827507853507996,-0.45857152342796326,0.4207291007041931
1729111781604,9i,4.535142757706733,0.9s : 0.3s,-10.254191386300604,3.797403218259521,0.35229012326074444,0.365347540602912,-0.0884404182434082,0.34743446111679077,0.03078639507293701,-0.06022834777832031,-0.09090524911880493,0.3486941456794739,0.4762067020679977,-2.060107968531559,1.4652855263598021,-0.7844525575637817,-0.45841121673583984,0.4177243113517761
1729111781614,9i,4.535142757706733,0.9s : 0.3s,-10.254191386300604,3.798058076974404,0.2770924669795176,0.26528993716090876,-0.1577388048171997,0.2883591651916504,0.05033080279827118,-0.011846959590911865,-0.010559052228927612,0.2648148536682129,0.47643960543889896,-2.0561513937983413,1.4637017190214254,-0.7860046029090881,-0.4586181938648224,0.4145674407482147
1729111781624,9i,4.535142757706733,0.9s : 0.3s,-10.254191386300604,3.798895776887607,0.23153116371654875,0.22999702617865075,-0.193582683801651,0.26585832238197327,0.06153102591633797,-0.0037440061569213867,0.020189106464385986,0.22907862067222595,0.47671625431879705,-2.0524056895563434,1.4616451489700897,-0.7874394059181213,-0.4588640332221985,0.4115615785121918
1729111781634,9i,4.535142757706733,0.9s : 0.3s,-10.254191386300604,3.7998369153990446,0.22083926351132535,0.20532468326681236,-0.2598341405391693,0.22992534935474396,0.06779451668262482,0.006924927234649658,0.0006599128246307373,0.20520681142807007,0.4771308752178074,-2.0487120174298665,1.4590588065637093,-0.7887853980064392,-0.4592323899269104,0.4085628092288971
1729111781644,9i,4.535142757706733,0.9s : 0.3s,-10.254191386300604,3.8008621934871814,0.20079174342379966,0.18244683160541061,-0.3466489315032959,0.197604700922966,0.06982123851776123,0.025559425354003906,-0.0004893243312835693,0.18064695596694946,0.47793291927493664,-2.0449740082376677,1.4556450510509895,-0.789979100227356,-0.4599446952342987,0.40544313192367554
1729111781654,9i,4.535142757706733,0.9s : 0.3s,-10.254191386300604,3.801973063517176,0.20945085311246597,0.17129877527717538,-0.3983646035194397,0.18063822388648987,0.08560393750667572,0.03950929641723633,0.0130176842212677,0.16617107391357422,0.47889878011543907,-2.041151375332309,1.4515047507230325,-0.7911267280578613,-0.4608021080493927,0.40221884846687317
1729111781664,9i,4.535142757706733,0.9s : 0.3s,-10.254191386300604,3.803148558315633,0.23138337837200718,0.15361172659468472,-0.43822425603866577,0.15516522526741028,0.10926216095685959,0.05323684215545654,0.017629265785217285,0.14300912618637085,0.4799516512324313,-2.0372640682149523,1.446779528207301,-0.792250394821167,-0.4617362916469574,0.3989219665527344
1729111781674,9i,4.535142757706733,0.9s : 0.3s,-10.254191386300604,3.8043637777075223,0.26068746218051947,0.15240838579388735,-0.47690027952194214,0.15361793339252472,0.12675246596336365,0.06075429916381836,-0.008280068635940552,0.13953018188476562,0.48089817229508186,-2.0332578756781943,1.4415411122224064,-0.7934508323669434,-0.46257567405700684,0.3955497443675995
1729111781684,9i,4.535142757706733,0.9s : 0.3s,-10.254191386300604,3.8055972749231515,0.29139954635030674,0.14940440761227386,-0.5139119625091553,0.13569436967372894,0.16903825104236603,0.06795567274093628,-0.022782474756240845,0.13109028339385986,0.4817859503582022,-2.0291088708198806,1.4357783757308487,-0.7947165369987488,-0.46336257457733154,0.39207249879837036
1729111781694,9i,4.535142757706733,0.9s : 0.3s,-10.254191386300604,3.8068178385098106,0.3180048456013916,0.1261358151353539,-0.5342994928359985,0.11732468754053116,0.1820773482322693,0.0697597861289978,-0.012398302555084229,0.10435563325881958,0.4824841354423684,-2.0249542371080564,1.429577408715828,-0.7960477471351624,-0.46398115158081055,0.3886253535747528
1729111781704,9i,4.535142757706733,0.9s : 0.3s,-10.254191386300604,3.80794849457324,0.3405029859802235,0.09785865862086877,-0.533962607383728,0.12154410779476166,0.22311578691005707,0.04654061794281006,0.005869925022125244,0.08588266372680664,0.4830048011730856,-2.020751806731744,1.4231738472336923,-0.7974561452865601,-0.46444234251976013,0.38517144322395325
1729111781714,9i,4.535142757706733,0.9s : 0.3s,-10.254191386300604,3.808999763617709,0.35993413281129083,0.09466855000641922,-0.5423161387443542,0.11775869131088257,0.24817347526550293,0.05572599172592163,-0.021427243947982788,0.07346850633621216,0.48316084047039254,-2.0164437332407474,1.4165301845183764,-0.7990427613258362,-0.4645805060863495,0.38170117139816284
1729111781724,9i,4.535142757706733,0.9s : 0.3s,-10.254191386300604,3.809964787868861,0.37739843629037645,0.0828318485459591,-0.5492523312568665,0.11885005980730057,0.276300847530365,0.04720187187194824,-0.015237778425216675,0.06633934378623962,0.4831545932989594,-2.012058736058267,1.4096546223346085,-0.8007115721702576,-0.46457499265670776,0.37819498777389526
1729111781734,9i,4.535142757706733,0.9s : 0.3s,-10.254191386300604,3.8107840283604237,0.38940117612659475,0.04806020151041142,-0.5287010073661804,0.1214815303683281,0.3124580383300781,0.02758580446243286,0.002138793468475342,0.0392967164516449,0.48273727671645306,-2.0076022272549587,1.402729153863654,-0.8025643229484558,-0.46420538425445557,0.3747047185897827
1729111781744,9i,4.535142757706733,0.9s : 0.3s,-10.254191386300604,3.8114205341500944,0.3971976410687145,0.020833367088019975,-0.5126727819442749,0.11671411246061325,0.3340863883495331,0.011321783065795898,0.00409892201423645,0.017001330852508545,0.481987285466469,-2.0032071349218086,1.3958748068192033,-0.8045192956924438,-0.4635409712791443,0.37131956219673157
1729111781754,9i,4.535142757706733,0.9s : 0.3s,-10.254191386300604,3.811901019790445,0.3979267404813607,0.014428114338781776,-0.489159494638443,0.10965726524591446,0.34247270226478577,0.006210625171661377,0.012168288230895996,0.0046401917934417725,0.4810031577361744,-1.9989191864548537,1.3890934267114632,-0.8065187335014343,-0.4626687467098236,0.36805564165115356
1729111781764,9i,4.535142757706733,0.9s : 0.3s,-10.254191386300604,3.8122972270349003,0.3982107316071145,0.021122579555306744,-0.47638097405433655,0.11595151573419571,0.3491520583629608,-0.0006933212280273438,0.02097553014755249,0.0023895204067230225,0.4798192351793911,-1.9947183853557426,1.3825107309995204,-0.8085564970970154,-0.4616188406944275,0.3648894429206848
1729111781774,9i,4.535142757706733,0.9s : 0.3s,-10.254191386300604,3.812646036903103,0.38467767872512376,0.026267404430171292,-0.40839657187461853,0.11418237537145615,0.3183797597885132,-0.018105149269104004,0.017020732164382935,0.008513212203979492,0.47859526559289256,-1.990638338916491,1.3762170864238839,-0.8105539083480835,-0.4605327248573303,0.36181753873825073
1729111781784,9i,4.535142757706733,0.9s : 0.3s,-10.254191386300604,3.812974617333069,0.38691181180052364,0.041780042909173885,-0.4782375991344452,0.1024906113743782,0.343617707490921,0.005856692790985107,0.04121294617652893,-0.003572702407836914,0.47724561634337626,-1.986437418326716,1.3695099675071636,-0.8126346468925476,-0.4593343138694763,0.358659952878952
1729111781794,9i,4.535142757706733,0.9s : 0.3s,-10.254191386300604,3.8131176110380816,0.39846139373992095,0.08281672219305439,-0.5171263813972473,0.10504032671451569,0.3523382246494293,-0.047399818897247314,0.06772792339324951,-0.004979461431503296,0.47617550951253995,-1.982278812476205,1.3629640361125783,-0.8145692944526672,-0.4583835005760193,0.3554738461971283
1729111781804,9i,4.535142757706733,0.9s : 0.3s,-10.254191386300604,3.813116842529832,0.39740995401269846,0.09772071516356494,-0.46089255809783936,0.11262549459934235,0.3312945067882538,-0.03399074077606201,0.08085441589355469,-0.04308748245239258,0.47496129568856443,-1.9781242506745436,1.3564055971750397,-0.8165494203567505,-0.4573040306568146,0.3523068130016327
1729111781814,9i,4.535142757706733,0.9s : 0.3s,-10.254191386300604,3.8129634733308464,0.38412469544525313,0.10669747936771634,-0.4213688373565674,0.10133342444896698,0.29889073967933655,-0.03443264961242676,0.07266995310783386,-0.07012718915939331,0.47382263403172065,-1.974309508183078,1.350373093224117,-0.8183656930923462,-0.4562911093235016,0.3493935167789459
1729111781824,9i,4.535142757706733,0.9s : 0.3s,-10.254191386300604,3.8126794732006934,0.36886804194552,0.12460571940690693,-0.3932623863220215,0.08772174268960953,0.29104769229888916,-0.03655743598937988,0.0824798047542572,-0.08594894409179688,0.4726895456596265,-1.9708200726578984,1.3448760154325035,-0.8200557231903076,-0.4552825689315796,0.34673693776130676
1729111781834,9i,4.535142757706733,0.9s : 0.3s,-10.254191386300604,3.8122927022017064,0.35204184916778947,0.11854585217324876,-0.37251633405685425,0.08322206884622574,0.26761558651924133,-0.03949540853500366,0.07405278086662292,-0.08372226357460022,0.4715540467994384,-1.967584462423108,1.3397016511376105,-0.8216495513916016,-0.4542712867259979,0.34428131580352783
1729111781844,9i,4.535142757706733,0.9s : 0.3s,-10.254191386300604,3.8118595833106923,0.33468999808398675,0.11852622800644554,-0.3483844995498657,0.0961802527308464,0.24850749969482422,-0.05010247230529785,0.08231428265571594,-0.06901136040687561,0.4705510058871902,-1.9644567281529164,1.3347993495100599,-0.8231426477432251,-0.45337748527526855,0.3418842852115631
1729111781854,9i,4.535142757706733,0.9s : 0.3s,-10.254191386300604,3.8113690547348646,0.3179155200020486,0.12734628843957357,-0.3256765305995941,0.10818471759557724,0.23536692559719086,-0.05282437801361084,0.08596265316009521,-0.07769867777824402,0.4695601698884083,-1.9613468330657577,1.3302688177658941,-0.8246171474456787,-0.4524941146373749,0.3394937217235565
1729111781864,9i,4.535142757706733,0.9s : 0.3s,-10.254191386300604,3.810822639868311,0.30138663025180523,0.12811131119597682,-0.3108961284160614,0.0981157049536705,0.21742691099643707,-0.04865384101867676,0.062016427516937256,-0.10099145770072937,0.4686476919934825,-1.9583565146665163,1.3260233749198,-0.826010525226593,-0.45168018341064453,0.3371822237968445
1729111781874,9i,4.535142757706733,0.9s : 0.3s,-10.254191386300604,3.8102089948367173,0.2832049618778391,0.1398814888791562,-0.28549569845199585,0.0806158035993576,0.2018125355243683,-0.0371018648147583,0.06365522742271423,-0.11890456080436707,0.46781666642111,-1.9556190628240242,1.3220066448047358,-0.8272781372070312,-0.4509386122226715,0.33506059646606445
1729111781884,9i,4.535142757706733,0.9s : 0.3s,-10.254191386300604,3.8095219165539826,0.2616813381356622,0.14904833236049564,-0.23724374175071716,0.07748499512672424,0.1933593899011612,-0.04096412658691406,0.06685411930084229,-0.1267591118812561,0.46693871048919133,-1.9532055368995638,1.3184499390085977,-0.8284510374069214,-0.4501548111438751,0.33321043848991394
1729111781894,9i,4.535142757706733,0.9s : 0.3s,-10.254191386300604,3.8088137717496218,0.24272693514803884,0.12986404138406424,-0.21797123551368713,0.0858001783490181,0.1820497363805771,-0.044815897941589355,0.04772669076919556,-0.1121533215045929,0.466007095221837,-1.9509523001230489,1.3153202881901074,-0.8295889496803284,-0.44932273030281067,0.3314984142780304
1729111781904,9i,4.535142757706733,0.9s : 0.3s,-10.254191386300604,3.808090645727899,0.22863272996681286,0.11544337620696005,-0.21589957177639008,0.09237046539783478,0.17423683404922485,-0.04022485017776489,0.030010968446731567,-0.10396382212638855,0.4651360196082607,-1.9486878720128211,1.3123201648901643,-0.8307011723518372,-0.44854438304901123,0.32976341247558594
