timestamp,club,max_speed,tempo,w.rotation,l.speed,t.spped,acc,rotation.x,rotation.y,rotation.z,userAcceleration.x,userAcceleration.y,userAcceleration.z,pitch,roll,yaw,gravity.x,gravity.y,gravity.z
1729110233127,7i,4.711154386596967,1.0s : 0.3s,-9.675549549287666,0.000152901263104025,0.03493681097870939,0.023980417698566247,-0.44624143838882446,-0.05502557381987572,0.04773835092782974,-0.011174380779266357,-0.02088978886604309,-0.0037162303924560547,-0.2939971006699111,1.5200531083421855,0.27963858750014126,0.9558612108230591,0.2897801399230957,-0.048545148223638535
1729110233137,7i,4.711154386596967,1.0s : 0.3s,-9.675549549287666,0.0003026614529098397,0.12010105404210268,0.030043085425138772,-0.4688391387462616,-0.054777633398771286,0.05672252178192139,-0.014609277248382568,-0.023866236209869385,-0.010934293270111084,-0.29371119034401566,1.5209041497455282,0.2844848088770206,0.9559850096702576,0.2895064651966095,-0.0477357879281044
1729110233147,7i,4.711154386596967,1.0s : 0.3s,-9.675549549287666,0.00045820651447658103,0.17817251633524017,0.028660623390857093,-0.4608798921108246,-0.050919465720653534,0.05950409173965454,-0.014675676822662354,-0.02408057451248169,-0.005116812884807587,-0.2933612008100192,1.5217831057837747,0.2893893267807987,0.9561275243759155,0.2891714572906494,-0.04690045490860939
1729110233157,7i,4.711154386596967,1.0s : 0.3s,-9.675549549287666,0.0006020123595818413,0.2125519569782152,0.006729917667690675,-0.4358038306236267,-0.04079598933458328,0.007533038035035133,-0.005410552024841309,-0.003084719181060791,-0.0025499463081359863,-0.2930905384683562,1.5226612479003299,0.29408944381132884,0.9562466740608215,0.2889123558998108,-0.046064592897892
1729110233167,7i,4.711154386596967,1.0s : 0.3s,-9.675549549287666,0.0007264444865947817,0.2441230188901239,0.008742456097475064,-0.42263132333755493,0.015601682476699352,-0.42165789008140564,-0.00588303804397583,0.005523562431335449,-0.0033631324768066406,-0.29267372349503024,1.523358011104333,0.2984812936486377,0.9563987851142883,0.28851327300071716,-0.04540400952100754
1729110233177,7i,4.711154386596967,1.0s : 0.3s,-9.675549549287666,0.0007742575246965499,0.27490784749369274,0.04629203613681893,-0.415423721075058,0.050252337008714676,-0.35098183155059814,0.044755399227142334,0.011789530515670776,-0.0009559392929077148,-0.29178701087745446,1.524251787379988,0.3022094243400445,0.9566941261291504,0.28766414523124695,-0.04456106945872307
1729110233187,7i,4.711154386596967,1.0s : 0.3s,-9.675549549287666,0.0008084163959044025,0.24245892564261357,0.01869504789333358,-0.3193404972553253,-0.020931074395775795,0.16513967514038086,-0.0005962252616882324,0.018253564834594727,-0.003994584083557129,-0.29160177889956523,1.524830756389239,0.3055325586400562,0.9567729234695435,0.2874867618083954,-0.04400961473584175
1729110233197,7i,4.711154386596967,1.0s : 0.3s,-9.675549549287666,0.0008358669146912365,0.2166149499690282,0.018103442511748353,-0.2516562342643738,-0.029607385396957397,0.15908896923065186,-0.012969970703125,0.012111783027648926,0.0035803914070129395,-0.29116383599152396,1.5254199068605154,0.30852809627749594,0.9569243788719177,0.2870672643184662,-0.04345162957906723
1729110233207,7i,4.711154386596967,1.0s : 0.3s,-9.675549549287666,0.0008757813426738508,0.20644400715913713,0.024026170170120008,-0.2704247534275055,-0.038862891495227814,0.04012586921453476,0.023116350173950195,-0.0064810216426849365,0.0009421072900295258,-0.2903754382491375,1.5258594884318892,0.3113412912500507,0.9571693539619446,0.28631195425987244,-0.04304113984107971
1729110233217,7i,4.711154386596967,1.0s : 0.3s,-9.675549549287666,0.0009351209886167963,0.20521270560781563,0.026263206058373432,-0.28612273931503296,-0.021230900660157204,0.07274053245782852,-0.00895005464553833,-0.024651825428009033,-0.0013928450644016266,-0.28983150919007905,1.5263293791952934,0.314322566316044,0.9573449492454529,0.2857907712459564,-0.042598288506269455
1729110233227,7i,4.711154386596967,1.0s : 0.3s,-9.675549549287666,0.0010014803056455797,0.20438818189439234,0.017240810661504857,-0.2892201244831085,-0.025011658668518066,0.06743508577346802,0.015500366687774658,-0.007360130548477173,-0.0016770996153354645,-0.28930243344587764,1.5269519908781741,0.3173495996139916,0.9575221538543701,0.2852837145328522,-0.04200884699821472
1729110233237,7i,4.711154386596967,1.0s : 0.3s,-9.675549549287666,0.0010669448680944759,0.20813149827974692,0.010095779920301797,-0.3304687738418579,-0.026099292561411858,0.03978721424937248,0.004860520362854004,-0.005775332450866699,-0.006704151630401611,-0.28890662913441184,1.5276495085032822,0.32060684301231573,0.9576638340950012,0.2849043309688568,-0.041345808655023575
1729110233247,7i,4.711154386596967,1.0s : 0.3s,-9.675549549287666,0.0011253752181764327,0.21235882277682366,0.005896952353857019,-0.3351159989833832,-0.03245750069618225,0.055205848067998886,0.000311434268951416,-0.000310361385345459,-0.005880538374185562,-0.2885699752764515,1.5283392270264915,0.3240883652795519,0.9577879905700684,0.28458163142204285,-0.04068935289978981
1729110233257,7i,4.711154386596967,1.0s : 0.3s,-9.675549549287666,0.001168508604151916,0.22737086970865508,0.023528445529796084,-0.38892701268196106,-0.04455384612083435,0.012805131264030933,0.005107879638671875,0.002293229103088379,-0.022852536290884018,-0.2883688786616752,1.5290630489596877,0.3279368387561782,0.9578742384910583,0.28438884019851685,-0.03999845311045647
1729110233267,7i,4.711154386596967,1.0s : 0.3s,-9.675549549287666,0.0011942795646959251,0.2271066960374128,0.01967379606952106,-0.3316730558872223,-0.03836474567651749,0.02708526700735092,-0.009448468685150146,0.0034955739974975586,-0.016898687928915024,-0.2882448051711232,1.5296986772809937,0.3317386063419245,0.9579346776008606,0.28426986932754517,-0.03939104452729225
1729110233277,7i,4.711154386596967,1.0s : 0.3s,-9.675549549287666,0.0010486634600528559,0.2174385984747461,0.056350474454471805,-0.28737348318099976,-0.036968715488910675,0.021397287026047707,-0.00404965877532959,0.046374380588531494,-0.03175520524382591,-0.28814762548555095,1.530235627504905,0.3349619243975374,0.9579832553863525,0.28417670726776123,-0.03887779265642166
1729110233287,7i,4.711154386596967,1.0s : 0.3s,-9.675549549287666,0.0009068160533013665,0.20301635019720135,0.028614729682559667,-0.24749745428562164,-0.05558253079652786,0.009559203870594501,-0.008961677551269531,0.01614287495613098,-0.021860893815755844,-0.28804023753915753,1.5305963506900924,0.33775735018367375,0.958027720451355,0.28407374024391174,-0.03853344917297363
1729110233307,7i,4.711154386596967,1.0s : 0.3s,-9.675549549287666,0.0007699216085983486,0.17373349458459103,0.04908487243692137,-0.1576911211013794,-0.016372451558709145,-0.03468894958496094,0.0008870959281921387,0.025662511587142944,-0.041832681745290756,-0.28773980185270714,1.530980118644407,0.34127608938580434,0.9581276774406433,0.2837856709957123,-0.03816918283700943
1729110233297,7i,4.711154386596967,1.0s : 0.3s,-9.675549549287666,0.0007042323338194205,0.1513270742458712,0.04097759349075201,-0.14442965388298035,-0.022068776190280914,0.040793292224407196,-0.005381643772125244,0.032388150691986084,-0.024519558995962143,-0.2879344278793958,1.5307606931138613,0.3398092154491824,0.9580639600753784,0.28397229313850403,-0.03837720677256584
1729110233317,7i,4.711154386596967,1.0s : 0.3s,-9.675549549287666,0.0007385791689836479,0.21464160218779135,0.040314541362600355,-0.21587321162223816,0.13880380988121033,-0.8017885088920593,-0.009924232959747314,-0.03845012187957764,0.0069541335105896,-0.28795760984884633,1.5312117829329988,0.343234153946342,0.9580748081207275,0.28399452567100525,-0.03794477507472038
1729110233327,7i,4.711154386596967,1.0s : 0.3s,-9.675549549287666,0.0006108853502785549,0.36452781522620736,0.1788030885776098,-0.15113696455955505,0.3638753294944763,-1.0946123600006104,-0.177665114402771,-0.010296851396560669,-0.017309721559286118,-0.2868111274971197,1.5315302127330372,0.34487732057412407,0.958411455154419,0.2828950583934784,-0.03765244781970978
1729110233337,7i,4.711154386596967,1.0s : 0.3s,-9.675549549287666,0.0010848848022141423,0.3070064521123927,0.09892130376975605,-0.09963248670101166,0.10717563331127167,-0.21690073609352112,-0.0925636887550354,0.030940115451812744,-0.01612752676010132,-0.287121304750197,1.5313438397014387,0.3459832829255596,0.9583168029785156,0.28319254517555237,-0.03782761096954346
1729110233347,7i,4.711154386596967,1.0s : 0.3s,-9.675549549287666,0.0015086521636294096,0.20996535140925965,0.028554910308006234,-0.08659111708402634,-0.038979582488536835,0.05845031514763832,0.024615168571472168,0.014213472604751587,-0.0027301236987113953,-0.2875380853054273,1.5314662207976164,0.34685774805530944,0.9582032561302185,0.28359225392341614,-0.0377056784927845
1729110233357,7i,4.711154386596967,1.0s : 0.3s,-9.675549549287666,0.0018490260852953102,0.15079178436309196,0.006030959530275161,-0.06593484431505203,-0.03941766917705536,0.007480074185878038,-0.0010262131690979004,0.0005325675010681152,-0.005919098854064941,-0.28749981165313077,1.5313550855857812,0.3475233469507741,0.9582099914550781,0.2835555374622345,-0.037812601774930954
1729110233367,7i,4.711154386596967,1.0s : 0.3s,-9.675549549287666,0.002150682663873291,0.10901658360679094,0.01033601906260079,-0.03900323063135147,-0.025007974356412888,0.0016421917825937271,-0.001460433006286621,-0.009191542863845825,0.004496216773986816,-0.287504254765481,1.5311706275483004,0.34807736084620206,0.9582017064094543,0.28355979919433594,-0.0379892997443676
1729110233377,7i,4.711154386596967,1.0s : 0.3s,-9.675549549287666,0.0024402461930540685,0.0746618263170635,0.020133981766771822,-0.028528481721878052,-0.04651832580566406,0.031116727739572525,-0.008275747299194336,0.016718685626983643,-0.0075746141374111176,-0.2874397244087048,1.530949602452419,0.34841265395383064,0.9582115411758423,0.2834979295730591,-0.03820181265473366
1729110233387,7i,4.711154386596967,1.0s : 0.3s,-9.675549549287666,0.0027118215969175736,0.06462790475100585,0.010285562897993988,-0.010406604036688805,-0.07775866985321045,0.06919316947460175,-0.004392027854919434,0.006402879953384399,-0.006745815277099609,-0.28737702737713605,1.530674621691025,0.3485689717695827,0.9582188725471497,0.2834377884864807,-0.038466017693281174
1729110233407,7i,4.711154386596967,1.0s : 0.3s,-9.675549549287666,0.0029695314123892825,0.035978684826328246,0.015262332663462542,0.05432046204805374,-0.12059330195188522,0.18152670562267303,-0.010199129581451416,-0.007669031620025635,-0.008372724056243896,-0.28675998367183214,1.5299435157178278,0.3474963700228303,0.9583650231361389,0.28284600377082825,-0.03917369991540909
1729110233417,7i,4.711154386596967,1.0s : 0.3s,-9.675549549287666,0.0032149244464443187,0.06820133766037298,0.024513120794304257,0.048212237656116486,-0.14879031479358673,0.2115170955657959,-0.012132465839385986,-0.018182814121246338,-0.011094216257333755,-0.2864900692478637,1.5294429851342357,0.3466351356285938,0.9584216475486755,0.28258711099624634,-0.03965654596686363
1729110233427,7i,4.711154386596967,1.0s : 0.3s,-9.675549549287666,0.003450712022556145,0.10475967247044284,0.016841470508788602,0.04593869298696518,-0.16264088451862335,0.23559866845607758,-0.007657647132873535,-0.0018721222877502441,-0.014882564544677734,-0.2863160692040913,1.5288763466392676,0.34575728828766195,0.9584479928016663,0.28242018818855286,-0.04020167142152786
1729110233437,7i,4.711154386596967,1.0s : 0.3s,-9.675549549287666,0.003686757547566746,0.13546681631019383,0.023882689099022292,0.02715888060629368,-0.17352469265460968,0.25500378012657166,-0.01743018627166748,-0.004976600408554077,-0.015550076961517334,-0.28616426028113445,1.5283647202939334,0.34487432024883746,0.9584701657295227,0.2822745442390442,-0.04069385305047035
1729110233447,7i,4.711154386596967,1.0s : 0.3s,-9.675549549287666,0.003922435282202375,0.16008159907718034,0.023965811702143257,0.004732401110231876,-0.1915857344865799,0.26180216670036316,-0.023607194423675537,-0.003326416015625,-0.0024485625326633453,-0.2861619599175782,1.5279091004104113,0.3441796816540715,0.9584522843360901,0.2822723388671875,-0.04113058000802994
1729110233457,7i,4.711154386596967,1.0s : 0.3s,-9.675549549287666,0.004164998037434099,0.17811297527020972,0.0298402886537137,0.026966601610183716,-0.20079627633094788,0.25828680396080017,-0.02476036548614502,0.015593200922012329,-0.005849719047546387,-0.28627461968478896,1.5274124785771643,0.3433963071512826,0.9583998918533325,0.28238043189048767,-0.04160517826676369
1729110233467,7i,4.711154386596967,1.0s : 0.3s,-9.675549549287666,0.004448952438321416,0.19087045325881802,0.050713015007046745,0.054513804614543915,-0.20216788351535797,0.2551063299179077,-0.033037006855010986,0.03676062822341919,-0.011358797550201416,-0.28649365064301696,1.5268531156723333,0.34227369798140417,0.9583147168159485,0.2825905382633209,-0.04213855043053627
1729110233477,7i,4.711154386596967,1.0s : 0.3s,-9.675549549287666,0.004776927597593584,0.19459000524872969,0.05700631605384221,0.10472051799297333,-0.19281113147735596,0.22822090983390808,-0.04078865051269531,0.03982079029083252,0.0005574226379394531,-0.28672350467230723,1.5262300546862317,0.3407151008680556,0.958223283290863,0.2828110158443451,-0.042732734233140945
1729110233487,7i,4.711154386596967,1.0s : 0.3s,-9.675549549287666,0.005128083355750778,0.19607519590448486,0.05550052169778066,0.19929896295070648,-0.17130841314792633,0.19471041858196259,-0.034942805767059326,0.04301092028617859,-0.0030608773231506348,-0.28686558663281336,1.525354359825626,0.33842372621586314,0.9581453204154968,0.282947301864624,-0.04357000067830086
1729110233497,7i,4.711154386596967,1.0s : 0.3s,-9.675549549287666,0.0055315477615489285,0.19951022860333464,0.06438775090169907,0.2753734886646271,-0.1490052342414856,0.15879103541374207,-0.03566551208496094,0.049777597188949585,-0.01989835500717163,-0.2867151028381749,1.5241693363892712,0.33522779249764223,0.9581355452537537,0.2828029692173004,-0.04470738023519516
1729110233507,7i,4.711154386596967,1.0s : 0.3s,-9.675549549287666,0.00595553780516529,0.20426816580049895,0.05403227914359884,0.29664522409439087,-0.1367742270231247,0.12867628037929535,-0.036501944065093994,0.036080121994018555,-0.016891419887542725,-0.2865668193113002,1.5228485579921205,0.3315806878246864,0.9581174850463867,0.28266072273254395,-0.04597483202815056
1729110233517,7i,4.711154386596967,1.0s : 0.3s,-9.675549549287666,0.006380068070243365,0.20805389830609225,0.03655898292438487,0.30430206656455994,-0.12540066242218018,0.10089311003684998,-0.035559117794036865,0.00262567400932312,-0.0080755315721035,-0.2863197231428916,1.5214226272890985,0.32783478661625337,0.9581206440925598,0.2824237048625946,-0.04734443873167038
1729110233527,7i,4.711154386596967,1.0s : 0.3s,-9.675549549287666,0.006796623062681679,0.20740884986492783,0.04166198968057649,0.28504157066345215,-0.11062891036272049,0.0801718533039093,-0.03576701879501343,-0.01796439290046692,-0.01156383752822876,-0.2859442638228361,1.5200523814118199,0.32417575474522076,0.9581607580184937,0.2820635139942169,-0.04866263270378113
1729110233537,7i,4.711154386596967,1.0s : 0.3s,-9.675549549287666,0.007197350786601653,0.19873627241869973,0.05404451271235222,0.24705928564071655,-0.10263596475124359,0.05201238766312599,-0.03792458772659302,-0.037413328886032104,-0.009098231792449951,-0.28547675510696835,1.5187442968216995,0.3208734584674621,0.9582278728485107,0.28161492943763733,-0.04992280155420303
1729110233547,7i,4.711154386596967,1.0s : 0.3s,-9.675549549287666,0.007579205080851831,0.1847052529527853,0.05363035943838397,0.21227413415908813,-0.09881193190813065,0.026275599375367165,-0.030195295810699463,-0.04000568389892578,-0.01907891035079956,-0.2849503407284371,1.517464146392502,0.31794184698744926,0.9583110809326172,0.2811097800731659,-0.051157329231500626
1729110233557,7i,4.711154386596967,1.0s : 0.3s,-9.675549549287666,0.007943534724068444,0.16858841996260893,0.04907123205145848,0.18486301600933075,-0.09155534952878952,-0.006586476229131222,-0.02250736951828003,-0.033576518297195435,-0.027821242809295654,-0.28448382998189103,1.5161649001701463,0.31534641866711643,0.9583746194839478,0.28066205978393555,-0.052409522235393524
1729110233567,7i,4.711154386596967,1.0s : 0.3s,-9.675549549287666,0.008301159710597292,0.1559938199461692,0.05222604078901146,0.18384408950805664,-0.0806446522474289,-0.0418897420167923,-0.03121739625930786,-0.032704710960388184,-0.026142597198486328,-0.2840842723047591,1.514865650488269,0.3129739729728036,0.9584177136421204,0.2802785336971283,-0.05366091802716255
1729110233577,7i,4.711154386596967,1.0s : 0.3s,-9.675549549287666,0.008675913011054604,0.154734947131057,0.05553428012289155,0.2190641313791275,-0.06104804202914238,-0.07293473929166794,-0.04338866472244263,-0.016993671655654907,-0.030210845172405243,-0.28374028134953067,1.5135597240169865,0.31042166623222417,0.9584428071975708,0.27994832396507263,-0.054917994886636734
1729110233587,7i,4.711154386596967,1.0s : 0.3s,-9.675549549287666,0.009070551561428455,0.16114658844464083,0.05414213758858921,0.2640931308269501,-0.05148480832576752,-0.09912127256393433,-0.04542648792266846,-0.0044588446617126465,-0.029119133949279785,-0.28343067413504924,1.5121553277485735,0.30745602389196947,0.9584513306617737,0.27965107560157776,-0.05626905709505081
1729110233597,7i,4.711154386596967,1.0s : 0.3s,-9.675549549287666,0.009477866035561082,0.17782353271189974,0.04967310621221682,0.30976980924606323,-0.050692517310380936,-0.12317227572202682,-0.04006081819534302,-0.005356639623641968,-0.028876543045043945,-0.2831420607269983,1.5105698622258479,0.30404277137183755,0.9584414958953857,0.27937397360801697,-0.05779343843460083
1729110233607,7i,4.711154386596967,1.0s : 0.3s,-9.675549549287666,0.009893365994550036,0.1992175603441583,0.04551713932769659,0.35188743472099304,-0.03860878199338913,-0.13484904170036316,-0.03699135780334473,-0.0033881664276123047,-0.026305317878723145,-0.28284000670917786,1.5088318553041746,0.3001938223645808,0.9584238529205322,0.2790839374065399,-0.05946435034275055
1729110233617,7i,4.711154386596967,1.0s : 0.3s,-9.675549549287666,0.010310421588712638,0.21506401765981878,0.0385619340785616,0.3529244661331177,-0.02596116252243519,-0.13821367919445038,-0.03463476896286011,-0.0012051761150360107,-0.016911625862121582,-0.2824258906552267,1.5070622653617158,0.29612178911835224,0.9584323763847351,0.2786862552165985,-0.061167631298303604
1729110233627,7i,4.711154386596967,1.0s : 0.3s,-9.675549549287666,0.010722859507387205,0.21797488450914576,0.04012756489975107,0.31931376457214355,-0.019459586590528488,-0.13753050565719604,-0.03555399179458618,-0.015361964702606201,-0.010495007038116455,-0.28192988077103615,1.5053916806323333,0.29226200121608714,0.9584665298461914,0.2782098650932312,-0.06277770549058914
1729110233637,7i,4.711154386596967,1.0s : 0.3s,-9.675549549287666,0.011124449367458818,0.21918972795407815,0.03789801748142351,0.31427374482154846,-0.023942220956087112,-0.14027754962444305,-0.02775806188583374,-0.021085023880004883,-0.014871835708618164,-0.2813749698959226,1.5037122589374423,0.2886397985310339,0.9585136771202087,0.2776768207550049,-0.06439762562513351
1729110233647,7i,4.711154386596967,1.0s : 0.3s,-9.675549549287666,0.011512889965160424,0.22926425752797094,0.027669531099002657,0.3478753864765167,-0.023859485983848572,-0.14564530551433563,-0.017052412033081055,-0.0059125423431396484,-0.020972840487957,-0.28076595437693797,1.5019228066067887,0.28488234634011445,0.958565354347229,0.2770916819572449,-0.06612435728311539
1729110233657,7i,4.711154386596967,1.0s : 0.3s,-9.675549549287666,0.011901077043893796,0.24947829311398362,0.0352984583257713,0.4211871325969696,-0.00660513062030077,-0.13888727128505707,-0.02385157346725464,0.01585981249809265,-0.02062886208295822,-0.2801010457494869,1.5000014820783194,0.2805657223750421,0.9586201310157776,0.2764527499675751,-0.06797897070646286
1729110233667,7i,4.711154386596967,1.0s : 0.3s,-9.675549549287666,0.012292573753119177,0.2694182264775348,0.0395648397117227,0.45316264033317566,0.00825450848788023,-0.13388778269290924,-0.028805017471313477,0.021640479564666748,-0.01635044813156128,-0.27930978187613825,1.4980856845521675,0.27571283518444867,0.9587060809135437,0.27569225430488586,-0.0698312371969223
1729110233677,7i,4.711154386596967,1.0s : 0.3s,-9.675549549287666,0.01267613578270312,0.28182363896278584,0.02809385098135972,0.44460031390190125,0.01289133820682764,-0.1322997361421585,-0.02689570188522339,0.005507528781890869,-0.0059626176953315735,-0.27850492956607986,1.496228227390153,0.27078988768372453,0.9587957859039307,0.27491849660873413,-0.0716283917427063
1729110233687,7i,4.711154386596967,1.0s : 0.3s,-9.675549549287666,0.013039627284442811,0.2821831199968151,0.026301590405377082,0.40764671564102173,0.01353444717824459,-0.12258381396532059,-0.020929574966430664,-0.01589137315750122,-0.0010912418365478516,-0.277701944391276,1.4944592704648008,0.26613072916551384,0.9588872790336609,0.27414634823799133,-0.07334114611148834
1729110233697,7i,4.711154386596967,1.0s : 0.3s,-9.675549549287666,0.01337729125704648,0.2735452773497007,0.041025319283583835,0.3621971905231476,0.006655768491327763,-0.1072101891040802,-0.018804430961608887,-0.03636464476585388,0.0026613548398017883,-0.27687276120902404,1.492791956160325,0.261949197718545,0.9589899182319641,0.2733488380908966,-0.07495749741792679
1729110233707,7i,4.711154386596967,1.0s : 0.3s,-9.675549549287666,0.01368771764678152,0.260465664732619,0.03556919100584791,0.3289460241794586,-0.001647257013246417,-0.09608250856399536,-0.010866343975067139,-0.03376874327659607,-0.00260036438703537,-0.27604599051595546,1.4911849055847515,0.2582195307385902,0.9590931534767151,0.2725534737110138,-0.07651648670434952
1729110233717,7i,4.711154386596967,1.0s : 0.3s,-9.675549549287666,0.013976487674980689,0.24659373360169573,0.03318452694226454,0.30665138363838196,-0.0013774789404124022,-0.08880941569805145,-0.011029660701751709,-0.03083297610282898,-0.0053746625781059265,-0.27529438130653067,1.4896718636851154,0.25480936248255487,0.9591802358627319,0.2718302309513092,-0.07798413187265396
1729110233727,7i,4.711154386596967,1.0s : 0.3s,-9.675549549287666,0.014256411094698088,0.23247207872578982,0.026350422422297116,0.28935307264328003,-7.217517122626305e-05,-0.06988518685102463,-0.01859945058822632,-0.017744988203048706,-0.005789697170257568,-0.27460105255263484,1.4882752965834034,0.2516086385745826,0.9592580199241638,0.2711629569530487,-0.07933913171291351
1729110233737,7i,4.711154386596967,1.0s : 0.3s,-9.675549549287666,0.014525649055350445,0.21924151792416655,0.02167780304634736,0.2766322195529938,-0.006464826874434948,-0.052365582436323166,-0.01808375120162964,-0.01188582181930542,0.001277625560760498,-0.27391964927731677,1.4869684378194874,0.2486233786149383,0.9593374133110046,0.27050700783729553,-0.08060812950134277
1729110233747,7i,4.711154386596967,1.0s : 0.3s,-9.675549549287666,0.014778988851995516,0.20791641673958228,0.015416030688496625,0.27017754316329956,-0.014263005927205086,-0.03241244703531265,-0.011642515659332275,-0.009965747594833374,0.001670241355895996,-0.2732566370044277,1.4856843215783648,0.24574028049092014,0.95941162109375,0.2698686718940735,-0.08185520023107529
1729110233757,7i,4.711154386596967,1.0s : 0.3s,-9.675549549287666,0.015016959314360215,0.19520894566307664,0.010464967734534954,0.24860085546970367,-0.02554761804640293,-0.011104762554168701,-0.009436845779418945,-0.004463493824005127,0.0007339715957641602,-0.27262924463282656,1.4844646155554337,0.24301451498306578,0.9594795107841492,0.26926448941230774,-0.08303991705179214
1729110233767,7i,4.711154386596967,1.0s : 0.3s,-9.675549549287666,0.015236456188855841,0.18513196330152643,0.018346952560474413,0.24390609562397003,-0.0375903882086277,0.01767425425350666,-0.0084381103515625,-0.01537930965423584,0.005374550819396973,-0.2720490794110079,1.4832522598892637,0.240472814073862,0.9595336318016052,0.26870572566986084,-0.08421672880649567
1729110233777,7i,4.711154386596967,1.0s : 0.3s,-9.675549549287666,0.015432241000897618,0.17592190961337875,0.009154931459358926,0.22898787260055542,-0.04568906128406525,0.03884878009557724,-0.0008893609046936035,-0.006032168865203857,0.006828963756561279,-0.2715013973820916,1.4821157737550685,0.23804012236959712,0.9595837593078613,0.26817813515663147,-0.08532019704580307
1729110233787,7i,4.711154386596967,1.0s : 0.3s,-9.675549549287666,0.01561017317123599,0.16300184229686418,0.008777371005613616,0.19483336806297302,-0.041408829391002655,0.033094290643930435,-0.004275679588317871,-0.002571582794189453,0.007221341133117676,-0.27095038477613226,1.481100447333351,0.2358691761766611,0.9596437215805054,0.26764726638793945,-0.08630766719579697
1729110233797,7i,4.711154386596967,1.0s : 0.3s,-9.675549549287666,0.01577184757522288,0.14610356848628603,0.012874454063671542,0.1537274867296219,-0.040400825440883636,0.03217310458421707,-0.005440413951873779,-0.0074655115604400635,0.008967697620391846,-0.2704709952105066,1.4802148963927528,0.234093179612039,0.959694504737854,0.2671853303909302,-0.08716904371976852
1729110233807,7i,4.711154386596967,1.0s : 0.3s,-9.675549549287666,0.01591002531950246,0.12656314543448322,0.01842608896334852,0.11284036189317703,-0.04210049659013748,0.032768018543720245,0.0005488991737365723,-0.011498987674713135,0.014387242496013641,-0.27001720314699723,1.479444535835269,0.23274661098689206,0.9597477912902832,0.26674801111221313,-0.08791938424110413
1729110233817,7i,4.711154386596967,1.0s : 0.3s,-9.675549549287666,0.01602790383391986,0.10909816108807967,0.016916285368062868,0.09278782457113266,-0.04225682467222214,0.02455882728099823,-0.00031679868698120117,-0.006383150815963745,0.015662558376789093,-0.2696328607284196,1.478761458499251,0.23173795759017596,0.9597893953323364,0.2663775682449341,-0.08858434855937958
1729110233827,7i,4.711154386596967,1.0s : 0.3s,-9.675549549287666,0.016134040870315343,0.10785729306426042,0.015124552510703625,0.13626977801322937,-0.04119573161005974,0.024192042648792267,-0.0024771690368652344,0.011839866638183594,0.009079277515411377,-0.26929629953956274,1.4780299283137164,0.23061566486689886,0.9598135352134705,0.266053169965744,-0.08929473906755447
1729110233837,7i,4.711154386596967,1.0s : 0.3s,-9.675549549287666,0.016233453613776743,0.10911456903300248,0.03484455992828768,0.17501957714557648,-0.031599827110767365,0.02662643790245056,0.0008805394172668457,0.03431779146194458,-0.005971364676952362,-0.26891462654929266,1.4772346540668955,0.22901092302291373,0.9598432183265686,0.26568523049354553,-0.09006749838590622
1729110233847,7i,4.711154386596967,1.0s : 0.3s,-9.675549549287666,0.016327427068315564,0.11151370112081266,0.021371505020255702,0.18302065134048462,-0.03324570879340172,0.021496890112757683,-0.0020104050636291504,0.02118527889251709,-0.001970648765563965,-0.2684976404770721,1.476431706742072,0.22717914224121927,0.9598808288574219,0.2652831971645355,-0.09084860980510712
1729110233857,7i,4.711154386596967,1.0s : 0.3s,-9.675549549287666,0.016412454034384627,0.11248912203555249,0.009126991883245885,0.17653346061706543,-0.03164674714207649,0.02369746007025242,-0.0019510984420776367,0.0075234174728393555,0.004784703254699707,-0.26807580372324374,1.4757318700532227,0.22535925161612086,0.9599283337593079,0.26487645506858826,-0.09153096377849579
1729110233867,7i,4.711154386596967,1.0s : 0.3s,-9.675549549287666,0.016489111872744065,0.11257242349729585,0.00959087669031893,0.16514816880226135,-0.027554089203476906,0.023845264688134193,-0.001821756362915039,0.007789313793182373,0.005290813744068146,-0.26770512878360475,1.4750872518259974,0.2236557327386224,0.9599668383598328,0.26451900601387024,-0.09215910732746124
1729110233877,7i,4.711154386596967,1.0s : 0.3s,-9.675549549287666,0.01656183136587747,0.10887158681751895,0.009117343525498466,0.13405416905879974,-0.02858952432870865,0.021567730233073235,-0.004408419132232666,0.007319986820220947,0.0031795576214790344,-0.26730571668133757,1.4745313320038518,0.22216996298590988,0.9600205421447754,0.2641338109970093,-0.09270290285348892
1729110233887,7i,4.711154386596967,1.0s : 0.3s,-9.675549549287666,0.016631140175420157,0.09907973524381708,0.007701618752810698,0.10860380530357361,-0.027141433209180832,0.019987110048532486,-0.0058043599128723145,-0.0012584030628204346,0.004903137683868408,-0.26689750074684926,1.4741136927642664,0.22100322159366614,0.9600890278816223,0.26374006271362305,-0.09311424195766449
1729110233897,7i,4.711154386596967,1.0s : 0.3s,-9.675549549287666,0.01669829076401338,0.08989679901344899,0.006954326214290566,0.0961679071187973,-0.029376089572906494,0.01887311041355133,-0.005916118621826172,-0.0020603537559509277,0.003019459545612335,-0.26657409080379735,1.4737480304650172,0.2200294448758668,0.9601396322250366,0.26342809200286865,-0.09347356110811234
1729110233907,7i,4.711154386596967,1.0s : 0.3s,-9.675549549287666,0.016763246805589237,0.08518394435576586,0.003922157242740149,0.09569386392831802,-0.03188682720065117,0.015845095738768578,-0.0035823583602905273,-2.047419548034668e-05,-0.0015967488288879395,-0.266468383111169,1.4732983422763506,0.2190985272267388,0.9601253271102905,0.26332610845565796,-0.09390802681446075
1729110233917,7i,4.711154386596967,1.0s : 0.3s,-9.675549549287666,0.01683556523400843,0.08321075395917657,0.015132005431502834,0.0992523804306984,-0.029658829793334007,0.010690281167626381,-0.009101271629333496,0.008265942335128784,-0.008821487426757812,-0.26662561994087935,1.4727136732308759,0.2180935944300366,0.9600289463996887,0.26347780227661133,-0.09446530789136887
1729110233927,7i,4.711154386596967,1.0s : 0.3s,-9.675549549287666,0.016919599472763752,0.08201723149443138,0.018839237045607367,0.10365631431341171,-0.02370085008442402,0.007221347652375698,-0.013473093509674072,0.008258044719696045,-0.010256573557853699,-0.26669708551295523,1.472188045155956,0.21706201658929872,0.9599603414535522,0.26354673504829407,-0.0949680507183075
1729110233937,7i,4.711154386596967,1.0s : 0.3s,-9.675549549287666,0.017010805312544362,0.08086538717407264,0.013953476637787518,0.10381051152944565,-0.02118309773504734,0.001566391671076417,-0.012255609035491943,0.0018372535705566406,-0.006412804126739502,-0.26664637477500286,1.4717617511888867,0.21601513848561044,0.9599332213401794,0.26349782943725586,-0.09537860006093979
1729110233947,7i,4.711154386596967,1.0s : 0.3s,-9.675549549287666,0.017103907032044476,0.0794919254168157,0.011231245392008564,0.09868712723255157,-0.02094447799026966,5.2251387387514114e-05,-0.009885251522064209,-0.004651784896850586,-0.0026045292615890503,-0.26663473593968756,1.4713554539681992,0.21499547372859715,0.9598972797393799,0.2634865939617157,-0.09576889872550964
1729110233957,7i,4.711154386596967,1.0s : 0.3s,-9.675549549287666,0.0171953240086039,0.07660537206886259,0.00792344798752375,0.08924195915460587,-0.02335011214017868,0.001964400988072157,-0.006781518459320068,-0.0035689473152160645,-0.0020136162638664246,-0.266619442458868,1.4709310140866223,0.21402451491926905,0.9598606824874878,0.2634718418121338,-0.09617672115564346
1729110233967,7i,4.711154386596967,1.0s : 0.3s,-9.675549549287666,0.017281449345328506,0.0732471259730817,0.007117683825639889,0.08275995403528214,-0.023452775552868843,0.006398331373929977,-0.005006134510040283,-0.004454940557479858,0.002398654818534851,-0.2664940140069855,1.470534452684471,0.2131542910448873,0.9598554968833923,0.26335084438323975,-0.09656068682670593
1729110233977,7i,4.711154386596967,1.0s : 0.3s,-9.675549549287666,0.01736652539987904,0.07004025948704189,0.008713095584279011,0.07835535705089569,-0.021483635529875755,0.008844178169965744,-0.00782865285873413,-0.0037685036659240723,0.0006546825170516968,-0.26635185564395086,1.4701455703136723,0.21234993892759205,0.9598551392555237,0.2632136940956116,-0.09693770855665207
1729110233987,7i,4.711154386596967,1.0s : 0.3s,-9.675549549287666,0.017451390731466412,0.06507035734432104,0.013187835565470565,0.06867130100727081,-0.01936952769756317,0.007124109193682671,-0.0074307918548583984,-0.010417014360427856,-0.0031918883323669434,-0.26620501712747957,1.4697377099575608,0.21158107427419345,0.9598538279533386,0.26307204365730286,-0.09733308106660843
1729110233997,7i,4.711154386596967,1.0s : 0.3s,-9.675549549287666,0.017530648860868952,0.05808800216335313,0.011820896868952335,0.055157627910375595,-0.020820152014493942,0.007535034790635109,-0.005320906639099121,-0.009426891803741455,0.00474923849105835,-0.2661751392673235,1.4693025277540468,0.21094185230818358,0.9598191976547241,0.26304319500923157,-0.09775157272815704
1729110234007,7i,4.711154386596967,1.0s : 0.3s,-9.675549549287666,0.01759735785463262,0.05242110431293029,0.008676775405462472,0.045038942247629166,-0.026283184066414833,0.007201673928648233,0.0011928677558898926,-0.003981500864028931,0.007616505026817322,-0.2661772240773747,1.4688587546141316,0.2104062570700619,0.9597752094268799,0.26304522156715393,-0.0981774553656578
1729110234017,7i,4.711154386596967,1.0s : 0.3s,-9.675549549287666,0.01765012155170338,0.04890589596528165,0.011132740333284612,0.042147018015384674,-0.026359615847468376,0.006857327185571194,0.0034467577934265137,-0.006948500871658325,0.007985994219779968,-0.26612103973142015,1.4684435624402397,0.20996080188850133,0.9597491025924683,0.2629910111427307,-0.09857745468616486
1729110234027,7i,4.711154386596967,1.0s : 0.3s,-9.675549549287666,0.017697418569871375,0.048837511094591154,0.0021965184754028405,0.06760590523481369,-0.023510077968239784,0.0065924422815442085,-0.0002231597900390625,-0.0019592642784118652,0.000967562198638916,-0.26599485535509226,1.468033118365986,0.2094210637273238,0.9597415924072266,0.262869268655777,-0.09897477179765701
1729110234037,7i,4.711154386596967,1.0s : 0.3s,-9.675549549287666,0.01774425432369053,0.053026225975454956,0.014678542607043554,0.10158677399158478,-0.017863111570477486,0.010692644864320755,-0.000885009765625,0.013450026512145996,-0.00581146776676178,-0.2658072902519626,1.4675974633236237,0.20853930911632124,0.9597473740577698,0.2626882791519165,-0.09939794987440109
1729110234047,7i,4.711154386596967,1.0s : 0.3s,-9.675549549287666,0.017787801097385394,0.05611791917089352,0.01155246825421595,0.1032794862985611,-0.020420989021658897,0.014202425256371498,0.0019615888595581055,0.009093940258026123,-0.006849229335784912,-0.26556181917295424,1.4671753110171515,0.20748043364284266,0.9597693085670471,0.2624514400959015,-0.09980975836515427
1729110234057,7i,4.711154386596967,1.0s : 0.3s,-9.675549549287666,0.017820334920045488,0.05634973969981939,0.009298425752071456,0.08420965075492859,-0.0190446674823761,0.012338745407760143,0.006305575370788574,-0.006789475679397583,-0.000776827335357666,-0.26532361639910323,1.4667534439689842,0.20652373364866225,0.9597893357276917,0.2622215747833252,-0.10022114217281342
1729110234067,7i,4.711154386596967,1.0s : 0.3s,-9.675549549287666,0.01784257973067734,0.055959071019632926,0.008679789139070164,0.07556769251823425,-0.016710761934518814,0.011747656390070915,0.0054953694343566895,-0.006321698427200317,0.002275034785270691,-0.2650444839445885,1.4663479248994318,0.2057084051466772,0.9598214626312256,0.2619521915912628,-0.10061798244714737
1729110234077,7i,4.711154386596967,1.0s : 0.3s,-9.675549549287666,0.017857694021064165,0.0553382644578542,0.006802647860752572,0.07179559022188187,-0.016535526141524315,0.008699135854840279,0.002362847328186035,0.00138014554977417,0.006228014826774597,-0.26479551146816965,1.466051994224449,0.20497387306910114,0.9598564505577087,0.2617119252681732,-0.10090883076190948
1729110234087,7i,4.711154386596967,1.0s : 0.3s,-9.675549549287666,0.017869438803809118,0.054901530831565105,0.006166183461456386,0.07433731108903885,-0.01499186921864748,0.006678329315036535,0.0002689957618713379,0.004172474145889282,0.0045320987701416016,-0.26462159008574665,1.4657889776577742,0.2042520013914244,0.9598750472068787,0.26154404878616333,-0.10116604715585709
1729110234097,7i,4.711154386596967,1.0s : 0.3s,-9.675549549287666,0.017880304181578596,0.0549221202884368,0.004189533819615593,0.08127564191818237,-0.014258700422942638,0.003411696059629321,-0.0008966922760009766,0.0034941434860229492,0.0021305158734321594,-0.2644390635177484,1.4655301486190577,0.2034822558520055,0.9598962068557739,0.2613678574562073,-0.10141949355602264
1729110234107,7i,4.711154386596967,1.0s : 0.3s,-9.675549549287666,0.017893200384527384,0.05504686227400094,0.007184177758504679,0.08324159681797028,-0.012824233621358871,0.002739980351179838,-0.0027396678924560547,0.006629496812820435,0.0003954768180847168,-0.26432087484217615,1.4651950725631575,0.20263926372354424,0.9598929286003113,0.26125380396842957,-0.1017443835735321
1729110234117,7i,4.711154386596967,1.0s : 0.3s,-9.675549549287666,0.017912784363079824,0.05532691172629836,0.007959288431201885,0.08577132970094681,-0.01239440031349659,0.0030976426787674427,-0.006872057914733887,0.0037581920623779297,-0.0014145970344543457,-0.2643552099067855,1.4648066130666237,0.2017725652689707,0.9598444104194641,0.2612869441509247,-0.10211630910634995
1729110234127,7i,4.711154386596967,1.0s : 0.3s,-9.675549549287666,0.017939582444347495,0.055923703217366186,0.008544402489355271,0.09095130860805511,-0.011564691551029682,0.0050536347553133965,-0.0075144171714782715,0.0029148757457733154,-0.002836167812347412,-0.26431204381476714,1.4644130138101994,0.20086752183190748,0.9598153829574585,0.2612452507019043,-0.10249529778957367
1729110234137,7i,4.711154386596967,1.0s : 0.3s,-9.675549549287666,0.01797069602283481,0.05578674773922871,0.006386671275289295,0.08024939149618149,-0.012515706941485405,0.006041933782398701,-0.005311250686645508,0.00041538476943969727,-0.003522448241710663,-0.2640876465140132,1.4640853070840025,0.19998461879225313,0.9598399996757507,0.2610286474227905,-0.10281606018543243
1729110234147,7i,4.711154386596967,1.0s : 0.3s,-9.675549549287666,0.01800142058524786,0.05484757518720463,0.008843451214047811,0.06783387064933777,-0.010851098224520683,0.008878765627741814,-0.005355119705200195,-0.0015716850757598877,0.006859965622425079,-0.26386991347956856,1.4638146717311902,0.19924764176102408,0.9598686099052429,0.2608184516429901,-0.10308188945055008
1729110234157,7i,4.711154386596967,1.0s : 0.3s,-9.675549549287666,0.01802807997731932,0.05365024268473127,0.011221311181151388,0.06261913478374481,-0.01076561026275158,0.007129069417715073,-0.0031269192695617676,-0.004048049449920654,0.009987667202949524,-0.2637322211778064,1.463612322091021,0.19860042103559705,0.9598833322525024,0.260685533285141,-0.1032799482345581
1729110234167,7i,4.711154386596967,1.0s : 0.3s,-9.675549549287666,0.018054425401156607,0.05050604483166514,0.011313827852236304,0.051620546728372574,-0.008425135165452957,0.006910091266036034,-0.005630373954772949,-0.005694568157196045,0.007992088794708252,-0.26365177665825823,1.463420468182525,0.19804022701807145,0.959884524345398,0.26060786843299866,-0.10346636921167374
1729110234177,7i,4.711154386596967,1.0s : 0.3s,-9.675549549287666,0.01808567228460789,0.04750413547427566,0.015652604734929906,0.04738505557179451,-0.007113794796168804,0.008033146150410175,-0.010719239711761475,-0.00806233286857605,0.008068501949310303,-0.26355969718520084,1.4632640906400713,0.1975697376613197,0.959892213344574,0.26051896810531616,-0.1036190539598465
1729110234187,7i,4.711154386596967,1.0s : 0.3s,-9.675549549287666,0.01811840248588397,0.046806000084349424,0.010316283518411096,0.0601879358291626,-0.0026829163543879986,0.010053286328911781,-0.007069647312164307,0.000788956880569458,0.00747150182723999,-0.2634952247715783,1.4630771418575095,0.19702138450578646,0.9598894715309143,0.26045671105384827,-0.10380029678344727
1729110234197,7i,4.711154386596967,1.0s : 0.3s,-9.675549549287666,0.01815457211090913,0.046629203565142156,0.008891360501383984,0.06698299944400787,-0.002356146462261677,0.010140638798475266,-0.007121622562408447,0.004429727792739868,0.0029523372650146484,-0.26339090376043817,1.4628762207856028,0.19637302803808313,0.9598956108093262,0.26035600900650024,-0.10399609059095383
1729110234207,7i,4.711154386596967,1.0s : 0.3s,-9.675549549287666,0.018195391634289508,0.047324125824473484,0.008801378268576058,0.08025259524583817,-0.0013631866313517094,0.0077287135645747185,-0.008441269397735596,-0.001988649368286133,0.0015015006065368652,-0.2632745111208116,1.4626584087695889,0.19563822440332473,0.9599030017852783,0.26024362444877625,-0.10420843213796616
1729110234217,7i,4.711154386596967,1.0s : 0.3s,-9.675549549287666,0.018235051567754765,0.047887215955760835,0.007905444442706848,0.079564169049263,0.002180148847401142,0.008101290091872215,-0.0018793940544128418,0.007626444101333618,-0.0008951425552368164,-0.2631301798118952,1.462441154169135,0.19480027153605467,0.9599176645278931,0.2601042687892914,-0.10442102700471878
1729110234227,7i,4.711154386596967,1.0s : 0.3s,-9.675549549287666,0.018263006047332393,0.04685658192517984,0.010729501745645827,0.05604339390993118,3.6925775930285454e-05,0.006617442704737186,0.005313575267791748,0.006201624870300293,0.006959021091461182,-0.26299389799637285,1.4623381572316168,0.1941167618929665,0.9599421620368958,0.2599726617336273,-0.10452373325824738
1729110234237,7i,4.711154386596967,1.0s : 0.3s,-9.675549549287666,0.018274216188415016,0.0385957172487572,0.014470713627030323,0.027663683518767357,-0.007145353592932224,0.005367621313780546,0.010171175003051758,-0.006759911775588989,0.007762238383293152,-0.2628745816353871,1.4622838139063632,0.19372239344722605,0.9599674344062805,0.2598574459552765,-0.10457926988601685
1729110234247,7i,4.711154386596967,1.0s : 0.3s,-9.675549549287666,0.01827271286023643,0.02944220632945994,0.018613369619337763,0.00977562926709652,-0.010139234364032745,0.0058314441703259945,0.0072397589683532715,-0.01498401165008545,0.00833803415298462,-0.26277933376586726,1.4622113106246493,0.19356257426351395,0.959984302520752,0.25976547598838806,-0.104651540517807
1729110234257,7i,4.711154386596967,1.0s : 0.3s,-9.675549549287666,0.018270305732927063,0.023244064615382146,0.008533228737067198,-0.0005973828956484795,-0.008256645873188972,0.007928150705993176,-0.00017070770263671875,-0.008224695920944214,0.0022674277424812317,-0.2626690622012667,1.4621802800985024,0.19353960031407558,0.9600094556808472,0.2596589922904968,-0.10468442738056183
1729110234267,7i,4.711154386596967,1.0s : 0.3s,-9.675549549287666,0.01827161396344336,0.020336904889447113,0.0037432422024411215,-0.005482418928295374,-0.009733901359140873,0.005806943401694298,-0.0022066235542297363,-0.0008396506309509277,-0.00290476530790329,-0.2626376499410198,1.4621647124652675,0.19359929189904632,0.9600159525871277,0.25962865352630615,-0.10470025986433029
1729110234277,7i,4.711154386596967,1.0s : 0.3s,-9.675549549287666,0.01827448014823615,0.018562448471810607,0.005573243745257305,-0.0002759393828455359,-0.00742840301245451,0.007996328175067902,0.0003788471221923828,0.0023911595344543457,-0.00501994788646698,-0.2626418462547769,1.4621108747535085,0.19363743640058145,0.9600091576576233,0.2596327066421509,-0.104751817882061
1729110234287,7i,4.711154386596967,1.0s : 0.3s,-9.675549549287666,0.018277925656812372,0.01725718931254397,0.001912748239594503,0.004485392943024635,-0.0050311582162976265,0.009549583308398724,-0.0010698437690734863,0.001190871000289917,0.0010468363761901855,-0.2625575365063396,1.4620403759155896,0.1936196417594374,0.9600236415863037,0.2595512866973877,-0.10482188314199448
1729110234297,7i,4.711154386596967,1.0s : 0.3s,-9.675549549287666,0.018284635163078287,0.015965632071126317,0.006509151221226468,0.0009029088541865349,-0.009662128984928131,0.008252889849245548,-0.0021228790283203125,0.005506366491317749,-0.0027463361620903015,-0.26252876205582915,1.4619710982728722,0.19362160781784432,0.960023820400238,0.25952351093292236,-0.10488920658826828
1729110234307,7i,4.711154386596967,1.0s : 0.3s,-9.675549549287666,0.018294119842578043,0.015770239354232368,0.012886481794506705,0.014962801709771156,-0.013785058632493019,0.00873578805476427,-0.0001259446144104004,0.010607510805130005,-0.007316164672374725,-0.2624922811752017,1.4619004499478172,0.19357890410519954,0.9600257873535156,0.2594882547855377,-0.10495804995298386
1729110234317,7i,4.711154386596967,1.0s : 0.3s,-9.675549549287666,0.018309439988347418,0.016829184481794844,0.023614034240362045,0.03750193119049072,-0.013202624395489693,0.004825734533369541,-0.00012415647506713867,0.020243048667907715,-0.012158378958702087,-0.2623267819943217,1.4617676885293824,0.1933273819947646,0.9600544571876526,0.2593284249305725,-0.1050901710987091
1729110234327,7i,4.711154386596967,1.0s : 0.3s,-9.675549549287666,0.018336994145307903,0.024230436252154954,0.024118486193313856,0.06276587396860123,-0.01307288371026516,0.00414999108761549,-0.006223082542419434,0.019007712602615356,-0.013478927314281464,-0.26208914457524074,1.4615766761813958,0.19282359141832076,0.9600956439971924,0.25909891724586487,-0.10528027266263962
1729110234337,7i,4.711154386596967,1.0s : 0.3s,-9.675549549287666,0.01837421651676351,0.027526383899301687,0.022658446095567594,0.06235282123088837,-0.012309888377785683,0.007126606069505215,-0.005726754665374756,0.016923636198043823,-0.013935565948486328,-0.2618930181051336,1.4613111384546924,0.19218138665339213,0.9601181745529175,0.2589094936847687,-0.10554076731204987
1729110234347,7i,4.711154386596967,1.0s : 0.3s,-9.675549549287666,0.018416268640323964,0.028486116232999167,0.012887600956413264,0.05242748558521271,-0.01799449510872364,0.004111175425350666,-0.004074215888977051,0.007801264524459839,-0.009414419531822205,-0.2617799156748738,1.4609918787715603,0.19159649321082453,0.960113525390625,0.2588002383708954,-0.10585048794746399
1729110234357,7i,4.711154386596967,1.0s : 0.3s,-9.675549549287666,0.018457207526436207,0.029524332251829235,0.009619582850768313,0.05352284386754036,-0.02334212325513363,0.004009708762168884,0.0007355213165283203,0.0007123053073883057,-0.00956493616104126,-0.26169438368717524,1.4606108075396877,0.19104899883456647,0.9600951671600342,0.2587176263332367,-0.10621879249811172
1729110234367,7i,4.711154386596967,1.0s : 0.3s,-9.675549549287666,0.018499613438154944,0.02937480618549825,0.012207716641281728,0.03737809509038925,-0.017749350517988205,0.0086126159876585,-0.0008581876754760742,0.006146222352981567,-0.01051265001296997,-0.26159772741782167,1.4602975799653108,0.19056444545834267,0.9600866436958313,0.25862425565719604,-0.10652226954698563
1729110234377,7i,4.711154386596967,1.0s : 0.3s,-9.675549549287666,0.01854426301877483,0.028148390242198208,0.008422765746307993,0.018677379935979843,-0.02277553454041481,0.005080732516944408,-0.003599226474761963,-0.0028367936611175537,-0.007066905498504639,-0.26156158129275364,1.4600154306566913,0.1902971496037713,0.9600659012794495,0.25858932733535767,-0.10679418593645096
1729110234387,7i,4.711154386596967,1.0s : 0.3s,-9.675549549287666,0.018588319874346344,0.027468752082254452,0.008776276880977313,0.023759089410305023,-0.02760167047381401,4.585995338857174e-05,-0.0008452534675598145,-0.0034573376178741455,-0.008022181689739227,-0.26161950625518965,1.4596577520190024,0.1900799576226583,0.960012674331665,0.25864529609680176,-0.10713590681552887
1729110234397,7i,4.711154386596967,1.0s : 0.3s,-9.675549549287666,0.018628672625457567,0.02732865345683421,0.00967794948005676,0.031648170202970505,-0.024797361344099045,0.0024435040540993214,0.0029404163360595703,0.0006290674209594727,-0.009198963642120361,-0.2617489494770591,1.459242514318564,0.1897616669445039,0.9599348902702332,0.25877031683921814,-0.10753081738948822
1729110234407,7i,4.711154386596967,1.0s : 0.3s,-9.675549549287666,0.01866906191086861,0.0276975098858621,0.007214452844784476,0.03985976055264473,-0.023740798234939575,0.003830677829682827,-0.002556145191192627,-0.005236953496932983,-0.004253089427947998,-0.26185061980217816,1.4588081459341262,0.18937976662833725,0.9598619937896729,0.258868545293808,-0.10794483870267868
1729110234417,7i,4.711154386596967,1.0s : 0.3s,-9.675549549287666,0.018707545097080513,0.03020015615829457,0.007445433415606522,0.06074879691004753,-0.025366391986608505,0.007296249270439148,0.0009390115737915039,0.0010389089584350586,-0.007312551140785217,-0.26189337915413335,1.4583379811517465,0.18884143318542482,0.9598001837730408,0.25890982151031494,-0.10839488357305527
1729110234427,7i,4.711154386596967,1.0s : 0.3s,-9.675549549287666,0.018744991835763204,0.032387115048130626,0.009176913461311907,0.0635037049651146,-0.025005841627717018,0.008343970403075218,0.0009710788726806641,0.0008040070533752441,-0.00908990204334259,-0.26182061240959,1.457870860702494,0.1882002320732954,0.9597681164741516,0.25883954763412476,-0.10884533077478409
1729110234437,7i,4.711154386596967,1.0s : 0.3s,-9.675549549287666,0.01878623251781536,0.036585510981747144,0.011741894933804996,0.07224100083112717,-0.029380351305007935,0.011162925511598587,-0.004097878932952881,-0.006102770566940308,-0.009156182408332825,-0.2616569929919009,1.4573725370918083,0.1875163245742516,0.9597558975219727,0.2586815059185028,-0.10932838916778564
1729110234447,7i,4.711154386596967,1.0s : 0.3s,-9.675549549287666,0.01883180487438042,0.04242496503164709,0.014466543544281016,0.08399366587400436,-0.028197508305311203,0.012793546542525291,-0.0031766891479492188,-0.004409998655319214,-0.013406768441200256,-0.2615000370277121,1.4568139867389167,0.18669842146565035,0.9597349762916565,0.2585298717021942,-0.10986905544996262
1729110234457,7i,4.711154386596967,1.0s : 0.3s,-9.675549549287666,0.018879828726210662,0.04431915055947579,0.015230591057721224,0.07851075381040573,-0.031082242727279663,0.015058298595249653,-0.003959536552429199,-0.011461049318313599,-0.009216144680976868,-0.2612488598440411,1.456270995781208,0.1858715706107429,0.959739625453949,0.258287250995636,-0.1103975772857666
1729110234467,7i,4.711154386596967,1.0s : 0.3s,-9.675549549287666,0.018927892213921493,0.045278819290654575,0.02412354256178144,0.07234899699687958,-0.03204675391316414,0.01457154005765915,-0.0040569305419921875,-0.022991150617599487,-0.006074011325836182,-0.2609903862383748,1.4557237828391996,0.18509626381119718,0.9597453474998474,0.2580375373363495,-0.1109304130077362
1729110234477,7i,4.711154386596967,1.0s : 0.3s,-9.675549549287666,0.018973889839873657,0.04658560240326197,0.02439847323073662,0.07854830473661423,-0.03281986713409424,0.01860303245484829,-0.0030664801597595215,-0.023969024419784546,-0.0033716559410095215,-0.2607390445014201,1.4551575888736863,0.1843286925655339,0.959746778011322,0.25779467821121216,-0.11148126423358917
1729110234487,7i,4.711154386596967,1.0s : 0.3s,-9.675549549287666,0.019020758159548692,0.047146094954486246,0.02538401528026323,0.06585261225700378,-0.03898734971880913,0.018783096224069595,-0.0038915276527404785,-0.023955225944519043,-0.007439851760864258,-0.26044050004307656,1.4546201641904024,0.1835910935447754,0.9597630500793457,0.25750622153282166,-0.11200595647096634
1729110234497,7i,4.711154386596967,1.0s : 0.3s,-9.675549549287666,0.019066364559030227,0.047567776446559656,0.0329755154905613,0.06387601792812347,-0.038535408675670624,0.021727485582232475,-0.004302561283111572,-0.03251674771308899,-0.0033961310982704163,-0.2601891820775689,1.4540395504064856,0.18295382024027185,0.9597619771957397,0.2572633624076843,-0.11257070302963257
1729110234507,7i,4.711154386596967,1.0s : 0.3s,-9.675549549287666,0.019113203302028668,0.0545839366529842,0.02865223331791314,0.10022776573896408,-0.03805439919233322,0.017590632662177086,-0.004575550556182861,-0.027797996997833252,-0.00522361695766449,-0.2599168576526241,1.4534084094724438,0.18213755460494144,0.959760308265686,0.257000207901001,-0.11318463087081909
1729110234517,7i,4.711154386596967,1.0s : 0.3s,-9.675549549287666,0.01916470261934709,0.06569521844505873,0.016020037489427954,0.1304304152727127,-0.03497285395860672,0.024383291602134705,-0.004927873611450195,-0.011959940195083618,-0.009450793266296387,-0.25953856400074715,1.4527054401599298,0.1809604489916859,0.9597770571708679,0.25663459300994873,-0.11387073993682861
1729110234527,7i,4.711154386596967,1.0s : 0.3s,-9.675549549287666,0.019219236151391008,0.07854679233765198,0.015485903850150508,0.1548505276441574,-0.03974071517586708,0.026766885071992874,-0.002520143985748291,-0.009521812200546265,-0.011949777603149414,-0.2590999108988338,1.4518889394788963,0.17949829116699395,0.9597954750061035,0.2562106251716614,-0.11466771364212036
1729110234537,7i,4.711154386596967,1.0s : 0.3s,-9.675549549287666,0.019275640647714268,0.09241099817671043,0.022374672835764723,0.17776863276958466,-0.045733626931905746,0.030376266688108444,-0.0016233325004577637,-0.01832371950149536,-0.012737035751342773,-0.2585607732739294,1.4509934545756469,0.17782419041923025,0.9598294496536255,0.25568944215774536,-0.11554364114999771
1729110234547,7i,4.711154386596967,1.0s : 0.3s,-9.675549549287666,0.019333576637697743,0.10703516948558624,0.021778937572577227,0.20157276093959808,-0.0463804192841053,0.039421092718839645,-0.00015658140182495117,-0.015871673822402954,-0.014912664890289307,-0.2578238008820085,1.450024726071105,0.1758970091936413,0.9599038362503052,0.25497689843177795,-0.11649607121944427
1729110234557,7i,4.711154386596967,1.0s : 0.3s,-9.675549549287666,0.019395358436676762,0.11742100821585187,0.025518570250213906,0.19831837713718414,-0.05382075533270836,0.049289170652627945,-0.001010894775390625,-0.01808488368988037,-0.017975330352783203,-0.25695668573152475,1.4490625051510027,0.1738971991920556,0.9600104689598083,0.25413835048675537,-0.11744646728038788
1729110234567,7i,4.711154386596967,1.0s : 0.3s,-9.675549549287666,0.019461920524746528,0.13130284141052137,0.02148557635161461,0.232791930437088,-0.05367685854434967,0.0497257299721241,-0.003928124904632568,-0.016425907611846924,-0.013281166553497314,-0.256061865612146,1.4479527930725589,0.1717694152343275,0.9601048231124878,0.25327280163764954,-0.11853954195976257
1729110234577,7i,4.711154386596967,1.0s : 0.3s,-9.675549549287666,0.019538578057131856,0.14647538411803865,0.018972035225641348,0.2618803083896637,-0.05066908150911331,0.049641042947769165,-0.007438838481903076,0.003063499927520752,-0.017181873321533203,-0.25503269987113064,1.4468202645676729,0.16928584512765077,0.9602280855178833,0.25227704644203186,-0.11965898424386978
1729110234587,7i,4.711154386596967,1.0s : 0.3s,-9.675549549287666,0.019624792763868252,0.1651552822949355,0.014936134446861407,0.3045617341995239,-0.04635760188102722,0.047793541103601456,-0.011438608169555664,-0.00012868642807006836,-0.009603634476661682,-0.2540268591756545,1.4456351379512222,0.1664695453470765,0.9603369832038879,0.25130361318588257,-0.12082851678133011
1729110234597,7i,4.711154386596967,1.0s : 0.3s,-9.675549549287666,0.019716139209748407,0.1944625797206165,0.020994015509536636,0.3866768479347229,-0.05108258128166199,0.04528031498193741,-0.005094587802886963,0.011843204498291016,-0.016569018363952637,-0.2530875220249739,1.444243662551865,0.16297251843165067,0.9604015946388245,0.2503943145275116,-0.12219440937042236
1729110234607,7i,4.711154386596967,1.0s : 0.3s,-9.675549549287666,0.01980783083733001,0.23017944897582204,0.02326449767862211,0.4620338976383209,-0.053840555250644684,0.05037501081824303,-0.001612544059753418,0.017322391271591187,-0.015445753931999207,-0.2520461172381185,1.44261601091217,0.15866237777055558,0.9604594707489014,0.24938595294952393,-0.12379071116447449
1729110234617,7i,4.711154386596967,1.0s : 0.3s,-9.675549549287666,0.01990126705911323,0.26288020957084224,0.013765416051602024,0.4997216463088989,-0.052391793578863144,0.0578736737370491,-0.004307448863983154,0.0032013356685638428,-0.012676119804382324,-0.2507926939080937,1.440822745335111,0.15376822647328114,0.9605451822280884,0.24817192554473877,-0.12555329501628876
1729110234627,7i,4.711154386596967,1.0s : 0.3s,-9.675549549287666,0.019997552589419633,0.284949315031117,0.014631174901929521,0.4941582977771759,-0.05593939125537872,0.06388262659311295,-0.0055806636810302734,-0.005274474620819092,-0.012454211711883545,-0.24946146094406269,1.439016264687719,0.14875737828043337,0.960643470287323,0.2468821257352829,-0.12733158469200134
1729110234637,7i,4.711154386596967,1.0s : 0.3s,-9.675549549287666,0.02009214414731047,0.29703678464400973,0.017117554971035866,0.47814682126045227,-0.05333349108695984,0.05875764414668083,-0.004389345645904541,-0.015553981065750122,-0.005640745162963867,-0.24813392187150332,1.4371946069038912,0.14383839007063962,0.9607338905334473,0.24559547007083893,-0.12912487983703613
1729110234647,7i,4.711154386596967,1.0s : 0.3s,-9.675549549287666,0.020179783759419395,0.297830979840715,0.003932972598753882,0.4471167325973511,-0.049942485988140106,0.06478311121463776,-0.0023092031478881836,-0.003056928515434265,0.0008894056081771851,-0.24689051405466048,1.4355383607509855,0.1391728405097384,0.9608206748962402,0.24438995122909546,-0.13075700402259827
1729110234657,7i,4.711154386596967,1.0s : 0.3s,-9.675549549287666,0.02026068642465878,0.29240451450920596,0.004727860949738682,0.40021365880966187,-0.05568399280309677,0.06999438256025314,-0.0015486478805541992,-0.004464238882064819,0.00015789270401000977,-0.24565114787443634,1.433976176234366,0.13493092426573128,0.9609144926071167,0.24318797886371613,-0.1322990357875824
1729110234667,7i,4.711154386596967,1.0s : 0.3s,-9.675549549287666,0.020326294421635024,0.2731328830378565,0.013783176409978377,0.3278374969959259,-0.06318940222263336,0.07024439424276352,0.0068441033363342285,-0.011784464120864868,0.002064123749732971,-0.24445161896608825,1.4324945198351615,0.13129929382945224,0.9610055685043335,0.2420242875814438,-0.13376273214817047
1729110234677,7i,4.711154386596967,1.0s : 0.3s,-9.675549549287666,0.020376191514466936,0.2472622996590286,0.018918396256080612,0.2648704946041107,-0.06787150353193283,0.061483919620513916,0.006252169609069824,-0.01616363227367401,0.007586374878883362,-0.24338225532560312,1.4311360215388154,0.1283949386159592,0.9610785841941833,0.24098657071590424,-0.13510407507419586
1729110234687,7i,4.711154386596967,1.0s : 0.3s,-9.675549549287666,0.020418725814278782,0.22314972901236885,0.014275261175448715,0.23149430751800537,-0.07330910116434097,0.06488194316625595,-0.0012224912643432617,-0.011151894927024841,0.008827447891235352,-0.24240058757293417,1.429847315166968,0.1259608138164227,0.961137592792511,0.24003371596336365,-0.13637569546699524
1729110234697,7i,4.711154386596967,1.0s : 0.3s,-9.675549549287666,0.020453628854825493,0.2009688224849282,0.009483240473180051,0.20347625017166138,-0.0703125149011612,0.06450457870960236,-0.0008077025413513184,-0.0017686784267425537,0.009281769394874573,-0.2414428297247606,1.4286145361321754,0.12382354543581271,0.9611957669258118,0.23910385370254517,-0.13759297132492065
1729110234707,7i,4.711154386596967,1.0s : 0.3s,-9.675549549287666,0.02048231680579572,0.17959233355903825,0.012733033579443739,0.17246253788471222,-0.06794846802949905,0.0632852166891098,-0.002942502498626709,0.004463493824005127,0.011556342244148254,-0.2405403735151122,1.4275024363734776,0.122008054409104,0.9612553715705872,0.2382274717092514,-0.13869258761405945
1729110234717,7i,4.711154386596967,1.0s : 0.3s,-9.675549549287666,0.020504557365549892,0.1584664659055299,0.01391453331711223,0.14074242115020752,-0.06250656396150589,0.06021032854914665,-0.0028446316719055176,0.004510670900344849,0.012852087616920471,-0.23970634350612155,1.4264856360719287,0.12049425435480395,0.961310088634491,0.23741737008094788,-0.13969843089580536
1729110234727,7i,4.711154386596967,1.0s : 0.3s,-9.675549549287666,0.020517377225218732,0.1358228065347616,0.019947502759952784,0.0988321378827095,-0.057805243879556656,0.057889219373464584,-0.0025488734245300293,0.002204984426498413,0.019660726189613342,-0.2389541052582044,1.4256201913831128,0.11937303622078439,0.961365282535553,0.236686572432518,-0.14055614173412323
1729110234737,7i,4.711154386596967,1.0s : 0.3s,-9.675549549287666,0.020514486297420607,0.11592618842865678,0.02539915943233472,0.0717344731092453,-0.06419443339109421,0.056617558002471924,0.0011385083198547363,0.0001182258129119873,0.02537335455417633,-0.23825934286540623,1.424829471170684,0.11860509637892304,0.9614163041114807,0.23601150512695312,-0.14134016633033752
1729110234747,7i,4.711154386596967,1.0s : 0.3s,-9.675549549287666,0.02049696186271549,0.1013621938292359,0.022647814708289745,0.06832616031169891,-0.0663372129201889,0.04552895575761795,0.004253804683685303,0.006050050258636475,0.021406203508377075,-0.2376509122489951,1.4240258052817034,0.11799402904403151,0.9614442586898804,0.23542021214962006,-0.14213374257087708
1729110234757,7i,4.711154386596967,1.0s : 0.3s,-9.675549549287666,0.02048042026103963,0.09166046191323132,0.02284488056535553,0.07733269780874252,-0.05770377814769745,0.03828702121973038,-0.005235731601715088,0.019510820508003235,0.010667875409126282,-0.2371145865863656,1.4232474600849137,0.11733368170026522,0.9614580869674683,0.23489892482757568,-0.14290057122707367
1729110234767,7i,4.711154386596967,1.0s : 0.3s,-9.675549549287666,0.020474113983395673,0.09010269726419842,0.02847253084931151,0.10120421648025513,-0.045405033975839615,0.03329718858003616,-0.011974692344665527,0.02443861961364746,0.0083693265914917,-0.23662881996952756,1.422529164600621,0.11646624132574616,0.9614680409431458,0.23442672193050385,-0.1436080038547516
1729110234777,7i,4.711154386596967,1.0s : 0.3s,-9.675549549287666,0.020474987300007633,0.08806282645817232,0.028030642163183607,0.10087504982948303,-0.040102146565914154,0.026261385530233383,-0.010550260543823242,0.024926990270614624,0.007283821702003479,-0.23617352131458283,1.4218653870803508,0.11547370117687784,0.9614778757095337,0.2339840978384018,-0.14426198601722717
1729110234787,7i,4.711154386596967,1.0s : 0.3s,-9.675549549287666,0.020476533399190325,0.08441774620600628,0.01852287662257374,0.09125970304012299,-0.038248054683208466,0.027310404926538467,-0.006453156471252441,0.012728020548820496,0.01180894672870636,-0.23583566226053268,1.421376734944732,0.11456306899006143,0.9614853262901306,0.23365560173988342,-0.14474354684352875
1729110234797,7i,4.711154386596967,1.0s : 0.3s,-9.675549549287666,0.02046710139292511,0.08001286847970296,0.017664000926927475,0.08355970680713654,-0.041308823972940445,0.018521972000598907,0.004108011722564697,0.009345382452011108,0.014415442943572998,-0.23556398166356302,1.4209292140163805,0.1137582290536511,0.961483359336853,0.2333914339542389,-0.14518330991268158
1729110234807,7i,4.711154386596967,1.0s : 0.3s,-9.675549549287666,0.020453014419189446,0.07852580596709444,0.015989168467158314,0.091278076171875,-0.034993406385183334,0.01596873253583908,0.0017785429954528809,0.013586923480033875,0.00823928415775299,-0.23532898032882998,1.4205213349440684,0.1129326715971846,0.9614781141281128,0.23316290974617004,-0.14558365941047668
1729110234817,7i,4.711154386596967,1.0s : 0.3s,-9.675549549287666,0.020436442003699224,0.07453521942914114,0.01720252689525202,0.08249630779027939,-0.02757623791694641,0.011993699707090855,-0.002018570899963379,0.010551705956459045,0.013435542583465576,-0.2350923116150578,1.4202356507962408,0.11212988525766743,0.9614911675453186,0.23293276131153107,-0.14586661756038666
1729110234827,7i,4.711154386596967,1.0s : 0.3s,-9.675549549287666,0.020419166600871088,0.06862240755430798,0.01709824914850174,0.07187189161777496,-0.022993823513388634,0.011810273863375187,-0.0038673877716064453,0.007599875330924988,0.014820098876953125,-0.23492680949981484,1.419991916029795,0.11140268069863246,0.961493730545044,0.23277179896831512,-0.1461067646741867
1729110234837,7i,4.711154386596967,1.0s : 0.3s,-9.675549549287666,0.02040037135804469,0.058579412809152756,0.010679007549653797,0.04566212370991707,-0.024262286722660065,0.009616894647479057,-0.0007737278938293457,-0.0006927698850631714,0.010628387331962585,-0.23493415346625185,1.4197172196806362,0.11084036007146555,0.9614518880844116,0.23277895152568817,-0.14637061953544617
1729110234847,7i,4.711154386596967,1.0s : 0.3s,-9.675549549287666,0.020384680615697388,0.05158868576934389,0.012523146282420539,0.04561857879161835,-0.01899646408855915,0.005962338298559189,-0.004679441452026367,-0.006135523319244385,0.009863436222076416,-0.2350391913494475,1.4194615319301693,0.11039650912810206,0.9613901972770691,0.232881098985672,-0.146612748503685
1729110234857,7i,4.711154386596967,1.0s : 0.3s,-9.675549549287666,0.0203744721951549,0.04569456346585358,0.0065220402334586446,0.04084379971027374,-0.01038353517651558,0.0026445724070072174,-0.00431513786315918,0.004245847463607788,0.0024268031120300293,-0.2351748699017728,1.4192719356720043,0.10995717210863822,0.9613310694694519,0.23301304876804352,-0.14679023623466492
1729110234867,7i,4.711154386596967,1.0s : 0.3s,-9.675549549287666,0.020364561852393392,0.039421222148886596,0.009814369161071411,0.030001671984791756,-0.012018050998449326,0.0002685333602130413,-0.0027017593383789062,0.0015529245138168335,0.009306490421295166,-0.23522954341570904,1.4191768150281368,0.10963130792587372,0.9613046050071716,0.23306621611118317,-0.14687977731227875
1729110234877,7i,4.711154386596967,1.0s : 0.3s,-9.675549549287666,0.0203477395703709,0.0355976076191849,0.012794185376448284,0.027651164680719376,-0.010521620512008667,-0.0017719806637614965,0.003251016139984131,0.003878191113471985,0.01175081729888916,-0.23527049436963793,1.4191246667728072,0.10934629524351386,0.9612875580787659,0.23310603201389313,-0.14692847430706024
1729110234887,7i,4.711154386596967,1.0s : 0.3s,-9.675549549287666,0.020326297625882103,0.030599629676485808,0.011066268664352357,0.016323145478963852,-0.011140095070004463,-0.008930024690926075,0.0028361082077026367,0.005616441369056702,0.009103536605834961,-0.23539732689036272,1.4190325971184228,0.10911615114637972,0.9612447023391724,0.2332293689250946,-0.14701248705387115
1729110234897,7i,4.711154386596967,1.0s : 0.3s,-9.675549549287666,0.020309568154702876,0.02790803636860838,0.008510302867859471,0.011611212976276875,-0.01211134996265173,-0.015293115749955177,-0.004652142524719238,-0.00239408016204834,0.006712019443511963,-0.23558527418358272,1.418989642351031,0.10899323898259004,0.9611951112747192,0.23341213166713715,-0.14704716205596924
1729110234907,7i,4.711154386596967,1.0s : 0.3s,-9.675549549287666,0.020302705336988466,0.02719882294253815,0.007602782183967898,0.031322069466114044,-0.006692794151604176,-0.018077915534377098,-0.006858348846435547,0.002963736653327942,-0.0014076977968215942,-0.23578725648575646,1.4189526030636004,0.10877914905574716,0.9611430764198303,0.23360852897167206,-0.14707563817501068
1729110234917,7i,4.711154386596967,1.0s : 0.3s,-9.675549549287666,0.02031003412097537,0.027621070407191087,0.018889502001076933,0.04874633252620697,-0.003195530502125621,-0.018976999446749687,-0.008106470108032227,0.012706249952316284,-0.011386379599571228,-0.23588943790633113,1.4188847424542315,0.10834642685203452,0.9611092209815979,0.23370788991451263,-0.14713720977306366
1729110234927,7i,4.711154386596967,1.0s : 0.3s,-9.675549549287666,0.020326832940404996,0.027581526351360054,0.01254903511234541,0.041913192719221115,-0.0006002797745168209,-0.016351189464330673,-0.005888998508453369,0.006293535232543945,-0.009120821952819824,-0.23594070342397472,1.418827680951154,0.10786102183407217,0.9610891938209534,0.23375773429870605,-0.14719025790691376
1729110234937,7i,4.711154386596967,1.0s : 0.3s,-9.675549549287666,0.020344995899438986,0.025513597148536002,0.010756601637075399,0.014538293704390526,-0.002423479687422514,-0.01194259338080883,-0.0023974180221557617,-0.010458901524543762,-0.0007538199424743652,-0.2360801721296669,1.4187536833122971,0.10754465770659978,0.961046040058136,0.23389333486557007,-0.14725643396377563
1729110234947,7i,4.711154386596967,1.0s : 0.3s,-9.675549549287666,0.020366660832002486,0.02219832380927161,0.021835261969472965,-0.006177504081279039,-0.00980287790298462,-0.010079878382384777,-0.0045983195304870605,-0.021318718791007996,-0.0010706782341003418,-0.23620115213676102,1.418761380382165,0.10752680584449482,0.9610192179679871,0.2340109497308731,-0.14724475145339966
1729110234957,7i,4.711154386596967,1.0s : 0.3s,-9.675549549287666,0.020393916729118767,0.020592888070771174,0.015910197526835184,0.004826411139219999,-0.007977280765771866,-0.01042768731713295,-0.002783656120300293,-0.01013098657131195,-0.01194775104522705,-0.2363236054332448,1.4187542909963402,0.1075498683466842,0.960989773273468,0.23413001000881195,-0.14724722504615784
1729110234967,7i,4.711154386596967,1.0s : 0.3s,-9.675549549287666,0.0204250175346671,0.01868784948012876,0.015050244124182773,-0.002282897476106882,-0.0054131001234054565,-0.010977695696055889,-0.0004926323890686035,0.00042159855365753174,-0.015036270022392273,-0.23645581598521584,1.4187400365437481,0.10751369228518795,0.9609570503234863,0.23425854742527008,-0.14725622534751892
1729110234977,7i,4.711154386596967,1.0s : 0.3s,-9.675549549287666,0.020460611030983625,0.016048231010392117,0.019730170991428996,-0.020649122074246407,-0.00883472990244627,-0.011021105572581291,-0.004937648773193359,-0.018060103058815002,-0.006223499774932861,-0.23656909401382975,1.4187429337053894,0.1076222310575821,0.9609313011169434,0.23436866700649261,-0.14724943041801453
1729110234987,7i,4.711154386596967,1.0s : 0.3s,-9.675549549287666,0.020495761278126842,0.014047815983976903,0.026119964844084697,-0.01993725821375847,-0.010622953996062279,-0.01612299121916294,-0.0007011294364929199,-0.0253763347864151,-0.006148383021354675,-0.23676491000497113,1.4186734093605027,0.10782000691985402,0.9608755111694336,0.23455902934074402,-0.14730925858020782
1729110234997,7i,4.711154386596967,1.0s : 0.3s,-9.675549549287666,0.020528528292539792,0.013360857327343881,0.01966194826407553,0.001236469834111631,-0.007798671256750822,-0.014485678635537624,0.004072427749633789,-0.014159038662910461,-0.013020336627960205,-0.23704532773007705,1.4185099393230323,0.10787663730432687,0.9607865214347839,0.23483160138130188,-0.1474563628435135
1729110235007,7i,4.711154386596967,1.0s : 0.3s,-9.675549549287666,0.020558701735967428,0.013093339617600357,0.02036166756531344,0.007016860879957676,-0.010279139503836632,-0.012348824180662632,0.006809413433074951,-0.00350344181060791,-0.018866777420043945,-0.23722862971436584,1.4183467458703491,0.10780005821002132,0.9607198238372803,0.23500977456569672,-0.14760661125183105
1729110235017,7i,4.711154386596967,1.0s : 0.3s,-9.675549549287666,0.020585297913427517,0.012768787986612172,0.025650272213023698,0.0002638833539094776,-0.015027821995317936,-0.0132431136444211,0.008609592914581299,-0.013711988925933838,-0.019894540309906006,-0.23726046228967976,1.418192351141888,0.10773100667371047,0.9606896638870239,0.23504072427749634,-0.14775381982326508
1729110235027,7i,4.711154386596967,1.0s : 0.3s,-9.675549549287666,0.020604747574579838,0.0120202834358341,0.02514093596346475,-0.015063674189150333,-0.01777913235127926,-0.012158607132732868,0.009764373302459717,-0.01961742341518402,-0.012323975563049316,-0.23721363844443197,1.4180488573299515,0.10777771467931106,0.960679292678833,0.23499520123004913,-0.14789333939552307
1729110235037,7i,4.711154386596967,1.0s : 0.3s,-9.675549549287666,0.02062150117424789,0.011124500891204935,0.023850083324694814,-0.02956352010369301,-0.020162129774689674,-0.007105792872607708,0.0068329572677612305,-0.01860654354095459,-0.013264000415802002,-0.23725681206169516,1.4178185839246469,0.10797171300898796,0.960635244846344,0.2350371778011322,-0.14811301231384277
1729110235047,7i,4.711154386596967,1.0s : 0.3s,-9.675549549287666,0.020639994044814012,0.010962545508948842,0.02270326716962366,-0.03563020005822182,-0.020747315138578415,-0.006993208080530167,0.004147350788116455,-0.01558975875377655,-0.015974894165992737,-0.237371323577165,1.4175865861256032,0.10828348192909976,0.9605743885040283,0.23514847457408905,-0.14833177626132965
1729110235057,7i,4.711154386596967,1.0s : 0.3s,-9.675549549287666,0.02066388846599345,0.012273260994541757,0.025346683821911135,-0.03703128919005394,-0.020068209618330002,-0.00764621514827013,0.003555893898010254,-0.009155839681625366,-0.023366227746009827,-0.23734538261943033,1.4174191376707679,0.10861774246581996,0.9605554938316345,0.23512326180934906,-0.14849354326725006
1729110235067,7i,4.711154386596967,1.0s : 0.3s,-9.675549549287666,0.020694647970463786,0.015532495875225271,0.021867197381294078,-0.04583743214607239,-0.01960016041994095,-0.004484410397708416,0.0006573200225830078,-0.007830247282981873,-0.020406603813171387,-0.2372688349924533,1.4172955160514367,0.10901252435191795,0.960554838180542,0.23504886031150818,-0.1486150324344635
1729110235077,7i,4.711154386596967,1.0s : 0.3s,-9.675549549287666,0.020732374700325747,0.021178666018055223,0.023610992838327544,-0.053407467901706696,-0.023068126291036606,-0.008803258650004864,-0.00032007694244384766,-0.014463230967521667,-0.018659889698028564,-0.2372798102706471,1.417112881552699,0.10949739091827002,0.9605251550674438,0.23505952954292297,-0.14879006147384644
1729110235087,7i,4.711154386596967,1.0s : 0.3s,-9.675549549287666,0.020778344484980293,0.02432519135182915,0.023148312029596666,-0.052864715456962585,-0.02604447677731514,-0.005667719058692455,-0.0009039640426635742,-0.007704317569732666,-0.021809875965118408,-0.23737473252494165,1.4168779780409066,0.10999078173372494,0.9604681730270386,0.23515178263187408,-0.14901228249073029
1729110235097,7i,4.711154386596967,1.0s : 0.3s,-9.675549549287666,0.02083547375708683,0.026877247999499886,0.024209192650840834,-0.053101204335689545,-0.030387822538614273,-0.0063292477279901505,-0.0037430524826049805,-0.004585862159729004,-0.02347433567047119,-0.23738462174531347,1.4165929308571181,0.11049065195159515,0.9604233503341675,0.23516139388084412,-0.149285688996315
1729110235107,7i,4.711154386596967,1.0s : 0.3s,-9.675549549287666,0.02090387924062694,0.030468990067514207,0.026253797799870658,-0.058334846049547195,-0.035123370587825775,-0.009450606070458889,-0.0037851333618164062,-0.003462180495262146,-0.02574777603149414,-0.23735884595720436,1.4163236778017094,0.11103238896475037,0.9603890776634216,0.23513634502887726,-0.14954520761966705
1729110235117,7i,4.711154386596967,1.0s : 0.3s,-9.675549549287666,0.02098114258421993,0.03282574466223107,0.024977292848108134,-0.057308997958898544,-0.03755723312497139,-0.013358794152736664,-0.002891838550567627,-0.00019678473472595215,-0.02480854094028473,-0.23739026127244747,1.416011814165246,0.111589190899911,0.9603351354598999,0.23516687750816345,-0.14984358847141266
1729110235127,7i,4.711154386596967,1.0s : 0.3s,-9.675549549287666,0.021066638910883916,0.033887053941131305,0.022876676447570684,-0.0519975908100605,-0.035507310181856155,-0.015747252851724625,-0.004394888877868652,0.003417104482650757,-0.022188976407051086,-0.2374712840977791,1.4156801870698168,0.11209817310601557,0.9602665305137634,0.23524563014507294,-0.1501591056585312
1729110235137,7i,4.711154386596967,1.0s : 0.3s,-9.675549549287666,0.021158689241313335,0.03445130240670647,0.017844521677343145,-0.04788779839873314,-0.032248131930828094,-0.011820153333246708,-0.006217837333679199,0.0035812407732009888,-0.016338303685188293,-0.23760068789363586,1.4153188491711437,0.11254947068275092,0.9601821899414062,0.235371395945549,-0.15050137042999268
1729110235147,7i,4.711154386596967,1.0s : 0.3s,-9.675549549287666,0.021251287100974656,0.033955624768124755,0.011695923880805512,-0.02801143005490303,-0.03291769325733185,-0.016759151592850685,-0.003569483757019043,0.0029373615980148315,-0.01074361801147461,-0.23772935049099028,1.4149539330477834,0.11290505292588941,0.9600971341133118,0.23549644649028778,-0.15084701776504517
1729110235157,7i,4.711154386596967,1.0s : 0.3s,-9.675549549287666,0.021342856594631854,0.032020309945838425,0.013835540428438818,-1.3351698726182804e-05,-0.03225856274366379,-0.015730639919638634,-0.002315998077392578,0.007880926132202148,-0.011133253574371338,-0.23779244787881998,1.4145309332639247,0.11300045453607445,0.9600186347961426,0.23555776476860046,-0.15125082433223724
1729110235167,7i,4.711154386596967,1.0s : 0.3s,-9.675549549287666,0.02143464592298394,0.029471966939986778,0.0172820047869604,0.013489007949829102,-0.0282149538397789,-0.010527122765779495,-0.004891037940979004,0.013727366924285889,-0.009290039539337158,-0.237837175979761,1.4140714950213653,0.11285202753466912,0.9599385857582092,0.2356012463569641,-0.15169022977352142
1729110235177,7i,4.711154386596967,1.0s : 0.3s,-9.675549549287666,0.021527442858556654,0.027981366977072358,0.00883234129734916,-0.004090251866728067,-0.025305181741714478,-0.00883921142667532,-0.006798207759857178,-0.002969011664390564,-0.004793703556060791,-0.23788763048287634,1.4136455665613314,0.11275971453956406,0.9598621726036072,0.23565027117729187,-0.1520972102880478
1729110235187,7i,4.711154386596967,1.0s : 0.3s,-9.675549549287666,0.021615409314252487,0.02731728879614342,0.018415354605589254,-0.024093786254525185,-0.020081304013729095,-0.006000480614602566,-0.006423234939575195,-0.015587940812110901,0.00740833580493927,-0.2379503137992203,1.4132827406106363,0.11284766942932212,0.9597923159599304,0.23571118712425232,-0.15244315564632416
1729110235197,7i,4.711154386596967,1.0s : 0.3s,-9.675549549287666,0.02169566332465055,0.02709192334931166,0.017705188827493806,-0.03597068414092064,-0.017081785947084427,-0.001644348492845893,-0.005858719348907471,-0.01172812283039093,0.011899590492248535,-0.2380294980924744,1.413004006720367,0.11310155852081517,0.9597313404083252,0.23578813672065735,-0.15270774066448212
1729110235207,7i,4.711154386596967,1.0s : 0.3s,-9.675549549287666,0.021769921795020995,0.027239278401545598,0.013559458694529554,-0.04408973455429077,-0.014502203091979027,-0.0027609122917056084,-0.005847752094268799,-0.008117437362670898,0.009152591228485107,-0.23814523145509892,1.4128091803971683,0.11348539799094406,0.959674596786499,0.2359006106853485,-0.1528904289007187
1729110235217,7i,4.711154386596967,1.0s : 0.3s,-9.675549549287666,0.02183651977238522,0.02715103687506599,0.01003671601268875,-0.04172138497233391,-0.010346872732043266,-0.003669582773000002,-0.0025678277015686035,-0.006843939423561096,0.006877675652503967,-0.2382636261026747,1.4126947018485179,0.11389816501725122,0.959629476070404,0.2360156625509262,-0.15299588441848755
1729110235227,7i,4.711154386596967,1.0s : 0.3s,-9.675549549287666,0.021899541774646383,0.026348483733581136,0.007172704257515417,-0.031017741188406944,-0.005339996889233589,-0.003287252504378557,-0.0035967230796813965,-0.005806967616081238,0.0021886974573135376,-0.23838987781605214,1.412630921036753,0.11424734591456542,0.9595902562141418,0.23613834381103516,-0.15305238962173462
1729110235237,7i,4.711154386596967,1.0s : 0.3s,-9.675549549287666,0.021962229610973032,0.024943820558422845,0.007692010562265466,-0.020295055583119392,-0.0007622886914759874,-0.006578386761248112,-0.006346642971038818,-0.004065841436386108,0.0015349537134170532,-0.23854523468092664,1.4125906237411192,0.11448534541513239,0.9595478773117065,0.23628930747509003,-0.15308527648448944
1729110235247,7i,4.711154386596967,1.0s : 0.3s,-9.675549549287666,0.022025157898897557,0.02330956394281655,0.00773056242426427,-0.014106400310993195,0.002274957485496998,-0.010548493824899197,-0.00618743896484375,-0.004627242684364319,0.0002565532922744751,-0.23876184545933982,1.4125787329301969,0.11463178099342938,0.959495484828949,0.23649977147579193,-0.15308861434459686
1729110235257,7i,4.711154386596967,1.0s : 0.3s,-9.675549549287666,0.022084908347316915,0.021664481792682516,0.007094405252692814,-0.010089554823935032,0.002278153318911791,-0.011930941604077816,-0.004897058010101318,-0.0031483322381973267,0.00405430793762207,-0.23887300060066077,1.4125920615232497,0.11471718095566902,0.959471583366394,0.23660777509212494,-0.15307168662548065
1729110235267,7i,4.711154386596967,1.0s : 0.3s,-9.675549549287666,0.022136738778310173,0.020226606091910005,0.006477395662230189,-0.011430056765675545,0.004124656319618225,-0.0114950155839324,-0.0004488825798034668,-0.0035369396209716797,0.00540788471698761,-0.23889603580573815,1.4126753725889167,0.11481442464756893,0.9594789147377014,0.2366301566362381,-0.1529908925294876
1729110235277,7i,4.711154386596967,1.0s : 0.3s,-9.675549549287666,0.02217941608073377,0.018993169364256605,0.005169348344363184,-0.01059142779558897,0.00394063163548708,-0.0146194351837039,0.0015143156051635742,0.001939535140991211,0.004546120762825012,-0.23896033978823586,1.4128076746696365,0.11492627423702408,0.9594841003417969,0.2366926372051239,-0.152861550450325
1729110235287,7i,4.711154386596967,1.0s : 0.3s,-9.675549549287666,0.02221228499427772,0.017809935269986497,0.0066565293908774645,-0.008651580661535263,0.002836307743564248,-0.012994707562029362,0.0024813413619995117,-0.0004914551973342896,0.006157174706459045,-0.2390595249223091,1.4129217705513368,0.11501730894458688,0.9594783186912537,0.23678900301456451,-0.15274839103221893
1729110235297,7i,4.711154386596967,1.0s : 0.3s,-9.675549549287666,0.022236974586375354,0.01702604783051159,0.0064524782531993116,-0.017645075917243958,0.010238030925393105,-0.009050566703081131,0.0022011995315551758,-0.0019925087690353394,0.005728796124458313,-0.2391282194085008,1.4130633983278522,0.11512351188335246,0.9594838619232178,0.23685574531555176,-0.1526099294424057
1729110235307,7i,4.711154386596967,1.0s : 0.3s,-9.675549549287666,0.022259269677947127,0.017144585011777423,0.010163064239621721,-0.029919052496552467,0.010169055312871933,-0.009762229397892952,-0.001662611961364746,-0.008765533566474915,0.004867136478424072,-0.23922055482254326,1.4132263354148242,0.11535614106023415,0.95948725938797,0.23694545030593872,-0.15245018899440765
1729110235317,7i,4.711154386596967,1.0s : 0.3s,-9.675549549287666,0.022278981493108477,0.018247376602192066,0.006560158843923058,-0.04415418207645416,0.014679385349154472,-0.006746198982000351,0.00020772218704223633,-0.006324678659439087,0.0017294436693191528,-0.23933104753486245,1.4134388673619467,0.11570941570633729,0.9594937562942505,0.2370527982711792,-0.15224215388298035
1729110235327,7i,4.711154386596967,1.0s : 0.3s,-9.675549549287666,0.022298626420790252,0.020330965284629743,0.005230176829884395,-0.050213538110256195,0.011248122900724411,-0.0064980266615748405,-7.975101470947266e-05,-0.0046548545360565186,-0.0023834258317947388,-0.23943422572114437,1.4136820051862007,0.11617837563288701,0.9595066905021667,0.23715302348136902,-0.15200504660606384
1729110235337,7i,4.711154386596967,1.0s : 0.3s,-9.675549549287666,0.02232261519372542,0.0217981674887049,0.0071972132039917515,-0.048581287264823914,0.015551526099443436,-0.009908470325171947,-0.0028028488159179688,-0.0024158507585525513,-0.006173133850097656,-0.23957970434296044,1.413952483142869,0.11668611238138095,0.9595136642456055,0.23729436099529266,-0.15174011886119843
1729110235347,7i,4.711154386596967,1.0s : 0.3s,-9.675549549287666,0.022353443414251817,0.02242482250369637,0.01738312282081641,-0.04040391743183136,0.020537806674838066,-0.007884833961725235,-0.0036134719848632812,0.010752275586128235,-0.013172104954719543,-0.2397056360408855,1.4142606923318044,0.11712311516105654,0.9595308899879456,0.23741668462753296,-0.15143974125385284
1729110235357,7i,4.711154386596967,1.0s : 0.3s,-9.675549549287666,0.022391638233248266,0.02327097048478124,0.020791561671886283,-0.04438028484582901,0.017029358074069023,-0.006965510547161102,-0.003623366355895996,0.012768879532814026,-0.016003623604774475,-0.23986019865618013,1.4145658495900926,0.11755355923396177,0.9595407843589783,0.23756682872772217,-0.1511412113904953
1729110235367,7i,4.711154386596967,1.0s : 0.3s,-9.675549549287666,0.022435675843160256,0.023987158489539875,0.015406727080491955,-0.043870553374290466,0.011317410506308079,-0.007304797880351543,-0.0021409988403320312,0.0025448203086853027,-0.015043511986732483,-0.23998654829084062,1.4148485012025795,0.11799341257544686,0.9595537781715393,0.2376895546913147,-0.1508653163909912
1729110235377,7i,4.711154386596967,1.0s : 0.3s,-9.675549549287666,0.02248420685504543,0.023415912511173937,0.013116785520734706,-0.02577437460422516,0.013146469369530678,-0.0024684970267117023,-0.00264739990234375,0.002681165933609009,-0.012563943862915039,-0.2400660841629631,1.4150918738580862,0.11835075033771901,0.9595717787742615,0.2377668172121048,-0.15062884986400604
1729110235387,7i,4.711154386596967,1.0s : 0.3s,-9.675549549287666,0.022541224741277316,0.022212688486133992,0.02226143407723427,-0.014312795363366604,0.013735605403780937,-0.0038939870428293943,-0.005623519420623779,0.01256011426448822,-0.017498314380645752,-0.2400593804186352,1.4152890005557885,0.11854443430120198,0.959602952003479,0.23776030540466309,-0.15043991804122925
1729110235397,7i,4.711154386596967,1.0s : 0.3s,-9.675549549287666,0.022608988080632286,0.02050560114891588,0.025856478755967437,-0.003937652800232172,0.012764615938067436,-0.005486025474965572,-0.006804704666137695,0.01323939859867096,-0.02114170789718628,-0.24006695011706627,1.4154441013287513,0.11863207571859867,0.9596244692802429,0.23776765167713165,-0.15029080212116241
1729110235407,7i,4.711154386596967,1.0s : 0.3s,-9.675549549287666,0.022684178132147702,0.019072594119399176,0.027882419278760524,-0.00429877731949091,0.013309499248862267,-0.007671015802770853,-0.0032729506492614746,0.014765739440917969,-0.02342413365840912,-0.24009787489452783,1.4155475727146367,0.1186419169890083,0.9596327543258667,0.23779769241809845,-0.15019036829471588
1729110235417,7i,4.711154386596967,1.0s : 0.3s,-9.675549549287666,0.022762403393500996,0.01870145383345762,0.013763284050934105,-0.018444424495100975,0.013366490602493286,-0.008111769333481789,-0.003057122230529785,-0.001150175929069519,-0.013370081782341003,-0.24017744960886964,1.415657371377898,0.11873981038269418,0.9596304893493652,0.23787498474121094,-0.150082066655159
1729110235427,7i,4.711154386596967,1.0s : 0.3s,-9.675549549287666,0.022845937954242616,0.01868683410016961,0.01855466870791522,-0.02378872223198414,0.013695080764591694,-0.006538606248795986,-0.0049934983253479,-0.013002097606658936,-0.012259125709533691,-0.2403617196315781,1.4157328756102585,0.11891578365332908,0.9595986008644104,0.23805396258831024,-0.1500028520822525
1729110235437,7i,4.711154386596967,1.0s : 0.3s,-9.675549549287666,0.022935966367747716,0.018070543266440885,0.020603655875023132,-0.014954484067857265,0.008420956321060658,-0.008870470337569714,-0.0034723281860351562,-0.003888159990310669,-0.01993328332901001,-0.24056138168957122,1.4157718801339805,0.11908295785827314,0.9595575332641602,0.23824788630008698,-0.14995808899402618
1729110235447,7i,4.711154386596967,1.0s : 0.3s,-9.675549549287666,0.023024890571996585,0.01733106165996091,0.0198958159695384,-0.013923974707722664,0.0037590484134852886,-0.0074583617970347404,0.0028118491172790527,0.003026619553565979,-0.019462183117866516,-0.2406687723716871,1.4157538257974827,0.11918331061000573,0.9595295190811157,0.23835217952728271,-0.14997147023677826
1729110235457,7i,4.711154386596967,1.0s : 0.3s,-9.675549549287666,0.02310834258338446,0.015890198135198604,0.012860845602955593,-0.001890480751171708,-0.0031819480936974287,-0.0116344653069973,0.00394970178604126,-0.002816319465637207,-0.011910900473594666,-0.2407931962366745,1.4156873642612038,0.11923388688928686,0.9594901204109192,0.23847301304340363,-0.15003064274787903
1729110235467,7i,4.711154386596967,1.0s : 0.3s,-9.675549549287666,0.023186189010019235,0.013440246954572094,0.011760319356506945,0.018364589661359787,-0.001755603589117527,-0.010372293181717396,0.00400543212890625,-0.0006389617919921875,-0.011038720607757568,-0.24098655977955713,1.4155183657975385,0.11909357933510686,0.9594192504882812,0.2386607974767685,-0.15018565952777863
1729110235477,7i,4.711154386596967,1.0s : 0.3s,-9.675549549287666,0.023258141674872005,0.011670172846346093,0.01282858285406828,0.011098421178758144,-0.003400904592126608,-0.009211953729391098,0.004763424396514893,0.00337885320186615,-0.011422157287597656,-0.2411544975320138,1.4153071883824149,0.11887946788701878,0.9593478441238403,0.23882387578487396,-0.15038205683231354
1729110235487,7i,4.711154386596967,1.0s : 0.3s,-9.675549549287666,0.02332746788055329,0.010383900819971157,0.013736631757870056,0.004450239706784487,-0.0058708530850708485,-0.0070347860455513,0.0022419095039367676,-0.009795501828193665,-0.009365737438201904,-0.2413178437848177,1.4150818214603536,0.11874958412456911,0.9592754244804382,0.23898249864578247,-0.15059220790863037
1729110235497,7i,4.711154386596967,1.0s : 0.3s,-9.675549549287666,0.023390201844273616,0.009150407026444068,0.014177942778560524,0.004354099277406931,-0.005315850023180246,-0.0034906514920294285,0.004728972911834717,-0.012113913893699646,-0.005648359656333923,-0.24134832514709992,1.41492762940663,0.11868506527067352,0.9592449069023132,0.23901209235191345,-0.15073896944522858
1729110235507,7i,4.711154386596967,1.0s : 0.3s,-9.675549549287666,0.023446171913895763,0.008083491649284062,0.009728571781687163,-0.0013888743706047535,-0.009550587274134159,0.002763282973319292,0.0024240612983703613,-0.009388253092765808,-0.0007935613393783569,-0.24124410583592498,1.4147699503793605,0.11864858378478906,0.9592456817626953,0.23891088366508484,-0.15089409053325653
1729110235517,7i,4.711154386596967,1.0s : 0.3s,-9.675549549287666,0.02349491657572595,0.006994977283303376,0.010173153647169175,0.00029264550539664924,-0.008147100917994976,0.00551592605188489,0.00289839506149292,-0.009743228554725647,0.00040231645107269287,-0.2411697777740035,1.414544206483133,0.11863322808192221,0.9592293500900269,0.23883871734142303,-0.15111342072486877
1729110235527,7i,4.711154386596967,1.0s : 0.3s,-9.675549549287666,0.023536058916510845,0.005881240994173104,0.005184680276570519,0.005983021575957537,-0.007385703735053539,0.001454672310501337,0.0042035579681396484,-0.0028139054775238037,-0.001137077808380127,-0.2411364032729754,1.414336901060387,0.11859121593611396,0.9592058062553406,0.23880630731582642,-0.15131351351737976
1729110235537,7i,4.711154386596967,1.0s : 0.3s,-9.675549549287666,0.0235740121161479,0.004687085112476624,0.0019586760852017726,0.011238236911594868,-0.004174463916569948,-0.00011685909703373909,0.0001977086067199707,-0.0015815794467926025,-0.0011383891105651855,-0.24107731361368104,1.4141973877589276,0.11849508003801781,0.9591985940933228,0.2387489229440689,-0.151449516415596
1729110235547,7i,4.711154386596967,1.0s : 0.3s,-9.675549549287666,0.023612511412670786,0.0037815556874999934,0.00394958450354314,0.013194728642702103,-0.0049141570925712585,-0.0037698838859796524,-0.003142833709716797,-0.0017771720886230469,-0.0016010850667953491,-0.24105871812387203,1.414060083136707,0.11834781912545556,0.95918208360672,0.23873086273670197,-0.15158189833164215
1729110235557,7i,4.711154386596967,1.0s : 0.3s,-9.675549549287666,0.023649323836477946,0.003629301032674323,0.0020481980960854822,0.00857813935726881,-0.005230540409684181,-0.008715640753507614,-0.002012491226196289,-0.00037801265716552734,-4.583597183227539e-05,-0.2411106678060973,1.413931967899709,0.11821764365156463,0.959150493144989,0.23878131806850433,-0.1517028659582138
1729110235567,7i,4.711154386596967,1.0s : 0.3s,-9.675549549287666,0.0236857740131236,0.003888695931490062,0.005768675962485814,0.017338206991553307,-0.0022395001724362373,-0.014156912453472614,-0.004810929298400879,0.002592533826828003,0.0018469840288162231,-0.24113143881229435,1.4138031209155004,0.11805906243594692,0.9591260552406311,0.2388014793395996,-0.1518256664276123
1729110235577,7i,4.711154386596967,1.0s : 0.3s,-9.675549549287666,0.023725528697539463,0.004532366541862178,0.014054564299782406,0.019680723547935486,0.0007115488406270742,-0.014153449796140194,-0.009113967418670654,0.010655120015144348,0.0009668469429016113,-0.2411410388410578,1.4137181613883887,0.11783411272716003,0.9591108560562134,0.23881080746650696,-0.1519067883491516
1729110235587,7i,4.711154386596967,1.0s : 0.3s,-9.675549549287666,0.023768437022729905,0.005389066167079714,0.013094539845439427,0.01706789620220661,0.002328620059415698,-0.015369582921266556,-0.010522127151489258,0.006962031126022339,0.0035045593976974487,-0.24117296023288165,1.4136960317516722,0.11762776732228734,0.959100067615509,0.23884180188179016,-0.15192684531211853
1729110235597,7i,4.711154386596967,1.0s : 0.3s,-9.675549549287666,0.023812930911892537,0.0060974328125650975,0.01016708597627637,0.0175363477319479,0.0041792504489421844,-0.01232985034584999,-0.00898510217666626,0.0027177631855010986,0.0039052963256835938,-0.24120677035993185,1.413674610127558,0.11743859646138663,0.9590888023376465,0.2388746291399002,-0.15194612741470337
1729110235607,7i,4.711154386596967,1.0s : 0.3s,-9.675549549287666,0.02385817218529583,0.006755125456931265,0.009528541117764598,0.01720545068383217,0.006620614789426327,-0.01133832149207592,-0.007967114448547363,0.0041757673025131226,0.0031434297561645508,-0.2412609420977263,1.4136872725717304,0.1172423227175159,0.9590778946876526,0.23892724514007568,-0.15193194150924683
1729110235617,7i,4.711154386596967,1.0s : 0.3s,-9.675549549287666,0.02390144863843545,0.006979478158962396,0.009055109204728354,0.01417530421167612,0.010623612441122532,-0.004834349267184734,-0.006161868572235107,0.004761561751365662,0.004621028900146484,-0.2413019572722943,1.413720104857242,0.11704868917882992,0.9590731859207153,0.23896706104278564,-0.15189892053604126
1729110235627,7i,4.711154386596967,1.0s : 0.3s,-9.675549549287666,0.02393899124279171,0.006541168813494146,0.007363374170275861,-0.002682638121768832,0.006514665670692921,-0.005743119865655899,-0.0027778148651123047,0.002417430281639099,0.006376445293426514,-0.24132747899499205,1.4137821075360186,0.11697538718617558,0.9590765833854675,0.238991841673851,-0.1518384963274002
1729110235637,7i,4.711154386596967,1.0s : 0.3s,-9.675549549287666,0.023970138715841274,0.006055097890503015,0.008078791167359786,-0.006636633537709713,0.004399316851049662,-0.006342597305774689,-0.0013508796691894531,-0.0033165663480758667,0.0072417110204696655,-0.24140266288542916,1.4138474816445497,0.1170193476680426,0.9590688347816467,0.23906485736370087,-0.15177300572395325
1729110235647,7i,4.711154386596967,1.0s : 0.3s,-9.675549549287666,0.02399691735841144,0.006166554945830792,0.007552467304796556,-0.0001439797633793205,0.0054780300706624985,-0.011043775826692581,7.361173629760742e-05,0.007520884275436401,0.0006860345602035522,-0.2415245770436685,1.4139005332722838,0.11704672242409202,0.9590481519699097,0.2391832321882248,-0.15171757340431213
1729110235657,7i,4.711154386596967,1.0s : 0.3s,-9.675549549287666,0.024024581144472448,0.0065229668974322,0.014694535594286304,0.00848732516169548,0.005333154462277889,-0.010837913490831852,-0.002678990364074707,0.01383616030216217,-0.004160895943641663,-0.2417150808395025,1.4139352697652419,0.11699355164613476,0.9590084552764893,0.23936820030212402,-0.15167714655399323
1729110235667,7i,4.711154386596967,1.0s : 0.3s,-9.675549549287666,0.024058042375168273,0.0066804666073589335,0.012067100621660226,0.004827476106584072,0.00407938240095973,-0.010319828987121582,-0.006034672260284424,0.008386209607124329,-0.006234511733055115,-0.24187482375781322,1.4139751193391044,0.11691028699266869,0.9589764475822449,0.2395232915878296,-0.15163291990756989
1729110235677,7i,4.711154386596967,1.0s : 0.3s,-9.675549549287666,0.02409982960503207,0.007118945381907536,0.010591158153941233,0.011478188447654247,0.0056005800142884254,-0.01133209653198719,-0.008756756782531738,-0.0029994845390319824,-0.00514732301235199,-0.24200329310151286,1.4140138816849528,0.11682099993752504,0.958952009677887,0.2396480292081833,-0.151590958237648
1729110235687,7i,4.711154386596967,1.0s : 0.3s,-9.675549549287666,0.024152232947163614,0.0074101798703242495,0.013191709784323,0.01363321766257286,0.008986878208816051,-0.006275685038417578,-0.01116400957107544,-0.001381993293762207,-0.006890296936035156,-0.24211324360512287,1.4140608902007863,0.11667255518628465,0.9589331150054932,0.23975476622581482,-0.15154175460338593
1729110235697,7i,4.711154386596967,1.0s : 0.3s,-9.675549549287666,0.0242156264103647,0.007959453870825023,0.014481581994803606,0.02049325406551361,0.006595359183847904,-0.0066293529234826565,-0.01223897933959961,-0.0013749301433563232,-0.007617950439453125,-0.2421845704367205,1.4141168032709732,0.11651168585782541,0.9589247107505798,0.23982401192188263,-0.15148547291755676
1729110235707,7i,4.711154386596967,1.0s : 0.3s,-9.675549549287666,0.02428245684847478,0.009180635316865773,0.011387579329395325,0.031589582562446594,0.005730187054723501,-0.007167911157011986,-0.00593191385269165,0.00559978187084198,-0.007945552468299866,-0.2422302452273274,1.4141543221960489,0.1162415635635318,0.9589196443557739,0.23986835777759552,-0.15144780278205872
1729110235717,7i,4.711154386596967,1.0s : 0.3s,-9.675549549287666,0.024351980299000254,0.010772013510537163,0.01787170817365407,0.03401732072234154,-0.0008893662597984076,-0.011670517735183239,-0.002323627471923828,0.010999605059623718,-0.013892710208892822,-0.2422477834015758,1.414133808062446,0.11590656536003005,0.9589123129844666,0.2398853749036789,-0.15146681666374207
1729110235727,7i,4.711154386596967,1.0s : 0.3s,-9.675549549287666,0.024421501073332363,0.015893612966152416,0.015891593094582157,0.04813433811068535,-0.0056375605054199696,-0.013239484280347824,0.0017343759536743164,0.004487365484237671,-0.01514589786529541,-0.24235443799274067,1.4140043898796653,0.11547411676034304,0.9588673710823059,0.23998892307281494,-0.15158690512180328
1729110235737,7i,4.711154386596967,1.0s : 0.3s,-9.675549549287666,0.024489468284125418,0.018663178453357458,0.01810150689275491,0.04839692637324333,-0.0023429635912179947,-0.011937199160456657,0.004194498062133789,0.005933001637458801,-0.01657921075820923,-0.2424999763251919,1.4138066360129622,0.11493171508622824,0.9588028788566589,0.2401302009820938,-0.15177105367183685
1729110235747,7i,4.711154386596967,1.0s : 0.3s,-9.675549549287666,0.024561869546005845,0.01933213916190448,0.018583790206335705,0.03664679080247879,-0.006139921955764294,-0.010183974169194698,-0.002998828887939453,-0.014022380113601685,-0.011821046471595764,-0.2426068510626232,1.413614177066216,0.11447633569578174,0.9587484002113342,0.24023394286632538,-0.15195158123970032
1729110235757,7i,4.711154386596967,1.0s : 0.3s,-9.675549549287666,0.02463511592443486,0.02038523427455462,0.022163384519749873,0.04259043186903,-0.01032960694283247,-0.012670301832258701,4.976987838745117e-05,-0.01947757601737976,-0.0105753093957901,-0.24264631354851313,1.4133955047413314,0.11405906561578422,0.9587057828903198,0.24027225375175476,-0.15215975046157837
1729110235767,7i,4.711154386596967,1.0s : 0.3s,-9.675549549287666,0.024710532274633976,0.026544326022490107,0.021697680719412468,0.06490279734134674,-0.011646050959825516,-0.009204363450407982,0.0013391971588134766,-0.015054017305374146,-0.015568315982818604,-0.24267926519678684,1.4130953467704177,0.11348625050564679,0.9586521983146667,0.24030424654483795,-0.15244625508785248
1729110235777,7i,4.711154386596967,1.0s : 0.3s,-9.675549549287666,0.024784783377743303,0.035066184409636506,0.017200571815270575,0.08249510824680328,-0.0048483326099812984,-0.0048010931350290775,0.0012869834899902344,-0.013697654008865356,-0.010323643684387207,-0.24263383703652272,1.4127674061418438,0.11269515881929515,0.9586129188537598,0.24026013910770416,-0.15276233851909637
1729110235787,7i,4.711154386596967,1.0s : 0.3s,-9.675549549287666,0.024856502886757573,0.043344185785580094,0.013801906357894241,0.09353617578744888,-0.005252644419670105,-0.003985000774264336,0.0001767873764038086,-0.012327805161476135,-0.006203755736351013,-0.2425744979138173,1.4124513785431843,0.11177289225878854,0.9585785865783691,0.24020254611968994,-0.15306751430034637
1729110235797,7i,4.711154386596967,1.0s : 0.3s,-9.675549549287666,0.02492482369573116,0.046276856264527794,0.012939457754541707,0.09092307835817337,-0.006905402988195419,-0.0016645886935293674,0.001168668270111084,-0.011444181203842163,-0.005924060940742493,-0.24252880228176743,1.4120818115020672,0.11079178718117555,0.958532989025116,0.24015818536281586,-0.15342353284358978
1729110235807,7i,4.711154386596967,1.0s : 0.3s,-9.675549549287666,0.02498578357364022,0.04696562046175955,0.010474466364594497,0.07921062409877777,-0.010499648749828339,0.003372214501723647,0.002783656120300293,-0.009993001818656921,-0.0014510750770568848,-0.24240136454881894,1.4117025415384477,0.10989975180920113,0.9585047960281372,0.24003447592258453,-0.1537918746471405
1729110235817,7i,4.711154386596967,1.0s : 0.3s,-9.675549549287666,0.02503883116390313,0.04700204273972384,0.01693978868260716,0.06962405145168304,-0.01953095942735672,0.005716861691325903,0.005225121974945068,-0.015986904501914978,-0.002018272876739502,-0.24225702166832883,1.4112812137276514,0.1091231198523769,0.9584741592407227,0.2398943454027176,-0.1542012244462967
1729110235827,7i,4.711154386596967,1.0s : 0.3s,-9.675549549287666,0.025085484964619657,0.04645124499398534,0.019266627042691616,0.059471145272254944,-0.0292657483369112,0.010948341339826584,0.006771504878997803,-0.017286717891693115,-0.005149662494659424,-0.24197702531986862,1.4108182055118421,0.10845596202305549,0.9584689140319824,0.23962251842021942,-0.15465568006038666
1729110235837,7i,4.711154386596967,1.0s : 0.3s,-9.675549549287666,0.025128566514370676,0.04602693834933658,0.015362940485298567,0.058754488825798035,-0.03419525548815727,0.010978702455759048,0.002892732620239258,-0.01478596031665802,-0.0030045658349990845,-0.24163303495994462,1.4103132626096209,0.10786147957719217,0.9584721326828003,0.2392885386943817,-0.1551528126001358
1729110235847,7i,4.711154386596967,1.0s : 0.3s,-9.675549549287666,0.025169757510142506,0.045207854420081905,0.011667390727087267,0.05209032818675041,-0.028711142018437386,0.01619027554988861,-1.7762184143066406e-05,-0.011608615517616272,-0.0011695027351379395,-0.2412993583511215,1.4097811211474183,0.10728283047072698,0.9584680199623108,0.23896454274654388,-0.15567560493946075
1729110235857,7i,4.711154386596967,1.0s : 0.3s,-9.675549549287666,0.025210477834291024,0.04372041660613658,0.011794481252222055,0.038873594254255295,-0.03221533074975014,0.015911176800727844,-0.0026074647903442383,-0.011476144194602966,0.0007804036140441895,-0.24095865829424518,1.409336438019647,0.10684147660782417,0.9584790468215942,0.23863369226455688,-0.1561148762702942
1729110235867,7i,4.711154386596967,1.0s : 0.3s,-9.675549549287666,0.02524728485774168,0.04259764261671238,0.010403122184597963,0.04096191003918648,-0.03275581821799278,0.014441210776567459,0.001129448413848877,-0.010319575667381287,0.0006750226020812988,-0.24066334074101883,1.4089009845051113,0.10646405782115187,0.9584804773330688,0.2383469045162201,-0.15654359757900238
1729110235877,7i,4.711154386596967,1.0s : 0.3s,-9.675549549287666,0.02528074051167856,0.0427680530722854,0.0007608856289800011,0.059970222413539886,-0.026981553062796593,0.017082268372178078,0.0004088878631591797,-0.0004708021879196167,-0.0004360079765319824,-0.2403577741584179,1.4084645117877546,0.10597591029864468,0.958483874797821,0.23805013298988342,-0.1569736897945404
1729110235887,7i,4.711154386596967,1.0s : 0.3s,-9.675549549287666,0.025314179143703736,0.0432372736666839,0.003087072305946749,0.06503928452730179,-0.023525036871433258,0.022342942655086517,-0.0019025206565856934,0.0009565353393554688,-0.0022350549697875977,-0.2400036442040204,1.4080791892570197,0.10535394056039046,0.9585065245628357,0.23770616948604584,-0.15735666453838348
1729110235897,7i,4.711154386596967,1.0s : 0.3s,-9.675549549287666,0.0253445494228905,0.04283293298884663,0.004710205145877095,0.05067259445786476,-0.025331193581223488,0.025020752102136612,-0.00048792362213134766,-0.004403799772262573,0.0015982836484909058,-0.23955278410571984,1.407727658275287,0.10481764239331665,0.9585568308830261,0.23726820945739746,-0.1577109843492508
1729110235907,7i,4.711154386596967,1.0s : 0.3s,-9.675549549287666,0.02537205736782852,0.04244529646649749,0.0076461900970888974,0.05007924139499664,-0.024735353887081146,0.023427516222000122,0.0016021132469177246,-0.0074441879987716675,-0.0006939172744750977,-0.23910124149452186,1.407351345272135,0.10435918883428769,0.9586029052734375,0.23682953417301178,-0.15808908641338348
1729110235917,7i,4.711154386596967,1.0s : 0.3s,-9.675549549287666,0.025396997018770462,0.04260978796084752,0.0033442347458383552,0.05820348113775253,-0.022789916023612022,0.02486402541399002,0.0014210343360900879,0.0018043220043182373,-0.002430841326713562,-0.23867546498156864,1.4069996968677667,0.10384795783692718,0.9586465358734131,0.23641584813594818,-0.15844258666038513
1729110235927,7i,4.711154386596967,1.0s : 0.3s,-9.675549549287666,0.025420121874141128,0.0438945604644995,0.004293402547144963,0.07629206776618958,-0.025921925902366638,0.01875230297446251,1.7762184143066406e-05,0.003935858607292175,-0.0017152279615402222,-0.23828771654956296,1.4066189937643947,0.10321826420893855,0.9586766362190247,0.23603907227516174,-0.15882252156734467
1729110235937,7i,4.711154386596967,1.0s : 0.3s,-9.675549549287666,0.025437612283109735,0.050482898231659135,0.018313428733709537,0.09747325628995895,-0.024233482778072357,0.019040722399950027,0.003944516181945801,0.017385587096214294,-0.004190921783447266,-0.23788826046512893,1.406193337220179,0.10237178348529881,0.9587019085884094,0.23565088212490082,-0.15924601256847382
1729110235947,7i,4.711154386596967,1.0s : 0.3s,-9.675549549287666,0.025452520744126,0.052679008567067635,0.016845932905410733,0.0941496342420578,-0.025956280529499054,0.016293272376060486,0.002171933650970459,0.015835866332054138,-0.005319163203239441,-0.2375045501146592,1.4057463306580205,0.1014335894243973,0.9587196111679077,0.2352779656648636,-0.15968936681747437
1729110235957,7i,4.711154386596967,1.0s : 0.3s,-9.675549549287666,0.02547041344306509,0.05314475769482528,0.005746924220448554,0.07990758121013641,-0.026524599641561508,0.01472493726760149,-0.001488029956817627,0.0017213672399520874,-0.005277290940284729,-0.23720645070658178,1.4053008549193897,0.1005723629917265,0.9587177634239197,0.2349882274866104,-0.16012802720069885
1729110235967,7i,4.711154386596967,1.0s : 0.3s,-9.675549549287666,0.025494484647763944,0.05016730798469832,0.015063498991161859,0.04047654941678047,-0.03077642433345318,0.017458871006965637,-0.0021900534629821777,-0.013470754027366638,-0.00637584924697876,-0.23698087194413045,1.4048801631839771,0.09997777095808641,0.9587025046348572,0.23476895689964294,-0.16054007411003113
1729110235977,7i,4.711154386596967,1.0s : 0.3s,-9.675549549287666,0.025524182823168703,0.04486095328229723,0.02467641937561331,0.017704391852021217,-0.03760450333356857,0.01861095428466797,-0.0031418800354003906,-0.024377554655075073,-0.0021883994340896606,-0.23675782231108078,1.4045003919009795,0.09973857667523629,0.9586930871009827,0.23455213010311127,-0.16091281175613403
1729110235987,7i,4.711154386596967,1.0s : 0.3s,-9.675549549287666,0.025561391110200473,0.04241282051302685,0.017478344241399033,0.018275508657097816,-0.03229864314198494,0.025657711550593376,-0.007068753242492676,-0.015776365995407104,-0.0025751739740371704,-0.2364801896228896,1.4041351737015377,0.09961552627396605,0.9586985111236572,0.2342822402715683,-0.1612737476825714
1729110235997,7i,4.711154386596967,1.0s : 0.3s,-9.675549549287666,0.025606652283446663,0.04128790540721085,0.011319925353208938,0.03311410918831825,-0.02694861963391304,0.02302677556872368,-0.010889291763305664,-0.002152279019355774,-0.002220749855041504,-0.23621540795307205,1.4037921694547446,0.09941597845993044,0.9587042331695557,0.2340248078107834,-0.161612868309021
1729110236007,7i,4.711154386596967,1.0s : 0.3s,-9.675549549287666,0.0256567949921571,0.04125326230708779,0.011150049297240797,0.05061839893460274,-0.025430483743548393,0.023509973660111427,-0.007903575897216797,0.006214052438735962,-0.004821062088012695,-0.235959659527628,1.4034589300884033,0.09902552175940753,0.9587092399597168,0.23377616703510284,-0.1619422882795334
1729110236017,7i,4.711154386596967,1.0s : 0.3s,-9.675549549287666,0.025705024542948686,0.04145779764879433,0.007578085306962796,0.056142330169677734,-0.02162828855216503,0.02484661340713501,-0.0015287399291992188,0.00618898868560791,-0.004097163677215576,-0.23576574346332863,1.4031096825256615,0.09852047972558792,0.9586972594261169,0.2335876077413559,-0.16228467226028442
1729110236027,7i,4.711154386596967,1.0s : 0.3s,-9.675549549287666,0.025749260900312914,0.04200452718552512,0.0034124235032578026,0.060694605112075806,-0.025787658989429474,0.023734644055366516,8.45193862915039e-05,0.0027367621660232544,-0.002036571502685547,-0.23554988338450053,1.4027357470971227,0.09797548992664347,0.9586862325668335,0.23337772488594055,-0.16265158355236053
1729110236037,7i,4.711154386596967,1.0s : 0.3s,-9.675549549287666,0.02579245151416201,0.04278113069748678,0.007300824044519984,0.06532024592161179,-0.029042042791843414,0.020103955641388893,0.000713348388671875,0.0023430585861206055,-0.006877735257148743,-0.23524866835824385,1.4022907458490872,0.09736231315148229,0.9586830735206604,0.2330848127603531,-0.16308997571468353
1729110236047,7i,4.711154386596967,1.0s : 0.3s,-9.675549549287666,0.02583545139351304,0.04363204374945814,0.004826459855588718,0.06903402507305145,-0.03259532153606415,0.011748755350708961,-0.0021762847900390625,0.0019743740558624268,-0.003828883171081543,-0.23487460877773644,1.401799761721603,0.09671380555893902,0.9586887359619141,0.23272104561328888,-0.16357530653476715
1729110236057,7i,4.711154386596967,1.0s : 0.3s,-9.675549549287666,0.025885633989532895,0.04654821933116781,0.011025957528429694,0.08768680691719055,-0.024912364780902863,0.013468625023961067,-0.01068943738937378,-0.00041718780994415283,-0.002670884132385254,-0.2344625029183085,1.4013089785277473,0.09593979326521282,0.9587026834487915,0.23232023417949677,-0.16406194865703583
1729110236067,7i,4.711154386596967,1.0s : 0.3s,-9.675549549287666,0.025940236698584793,0.04778723113070292,0.00945111150804931,0.08461271971464157,-0.020359959453344345,0.018809661269187927,-0.008742332458496094,0.0021497756242752075,-0.002876386046409607,-0.23406673094414424,1.4008869558162678,0.0950922915272554,0.9587239623069763,0.2319352626800537,-0.16448205709457397
1729110236077,7i,4.711154386596967,1.0s : 0.3s,-9.675549549287666,0.025994611134267067,0.04833174509285174,0.013944204072313277,0.07605677843093872,-0.017060033977031708,0.01923390105366707,-0.0067948102951049805,-0.01141117513179779,0.004249289631843567,-0.23376445855827777,1.4005016470222063,0.09430067550930567,0.9587295055389404,0.2316412329673767,-0.16486331820487976
1729110236087,7i,4.711154386596967,1.0s : 0.3s,-9.675549549287666,0.02604855484878234,0.048387566378084966,0.017067478711365477,0.06812668591737747,-0.01942652091383934,0.01810844987630844,-0.004073143005371094,-0.01645459234714508,0.001988649368286133,-0.2335217786522899,1.4001320457825506,0.09360311890096465,0.9587240219116211,0.2314051389694214,-0.16522721946239471
1729110236097,7i,4.711154386596967,1.0s : 0.3s,-9.675549549287666,0.026100418560820925,0.0472778817261655,0.020038827590326814,0.048838477581739426,-0.017028875648975372,0.021868033334612846,-0.003476083278656006,-0.019196614623069763,0.0045783668756484985,-0.23329747312255436,1.3998114531812833,0.0930427329552594,0.9587219953536987,0.2311869114637375,-0.16554337739944458
1729110236107,7i,4.711154386596967,1.0s : 0.3s,-9.675549549287666,0.026149247082617903,0.038590258758002684,0.016167176736372416,0.01848509907722473,-0.01559955719858408,0.018300730735063553,-0.001810908317565918,-0.015719175338745117,0.0033174902200698853,-0.23307950380225986,1.399591742164346,0.09273890281986613,0.9587352275848389,0.23097485303878784,-0.16576258838176727
1729110236117,7i,4.711154386596967,1.0s : 0.3s,-9.675549549287666,0.026191165540229277,0.03419454389742969,0.013311699648924499,0.01549756433814764,-0.012083652429282665,0.0194243174046278,-0.00023484230041503906,-0.011490672826766968,0.006716445088386536,-0.2328894783448523,1.3993965865822715,0.09260296413340745,0.958746075630188,0.23078995943069458,-0.16595718264579773
1729110236127,7i,4.711154386596967,1.0s : 0.3s,-9.675549549287666,0.026227882559789764,0.03297477405584185,0.005144024999197381,0.02811562269926071,-0.007912876084446907,0.016055619344115257,-0.00010955333709716797,0.005098521709442139,0.0006738454103469849,-0.23271400929458413,1.3992288483899216,0.09240078539910677,0.9587581157684326,0.23061922192573547,-0.16612491011619568
1729110236137,7i,4.711154386596967,1.0s : 0.3s,-9.675549549287666,0.02626771954573674,0.03336316129617689,0.012794137687487182,0.055454034358263016,-0.008698242716491222,0.011482705362141132,-0.0048645734786987305,0.010042592883110046,-0.006258770823478699,-0.23254128160984708,1.3990502828437321,0.09201015330508606,0.9587675929069519,0.23045115172863007,-0.1663029044866562
1729110236147,7i,4.711154386596967,1.0s : 0.3s,-9.675549549287666,0.02631389438299261,0.039404574622418205,0.016808756660423075,0.08644164353609085,-0.005701165646314621,0.008322298526763916,-0.007943987846374512,0.012363865971565247,-0.008158564567565918,-0.23236683322563073,1.3987949321960162,0.09129561008335996,0.958764910697937,0.23028138279914856,-0.16655462980270386
1729110236157,7i,4.711154386596967,1.0s : 0.3s,-9.675549549287666,0.026366010774787847,0.05128740415721455,0.018864780568303954,0.12012157589197159,-0.007745674811303616,0.004368836060166359,-0.007463991641998291,0.01428559422492981,-0.009802579879760742,-0.2320698254666654,1.3985324793661325,0.09027797525903915,0.9587884545326233,0.2299923598766327,-0.16681796312332153
1729110236167,7i,4.711154386596967,1.0s : 0.3s,-9.675549549287666,0.026427549618750514,0.06229592314818132,0.020591543364098863,0.1312425434589386,-0.010534137487411499,0.006229553371667862,-0.008511245250701904,0.012239053845405579,-0.014204785227775574,-0.2316954135218855,1.3981739305567624,0.08903766709167121,0.9588131904602051,0.22962796688079834,-0.16717647016048431
1729110236177,7i,4.711154386596967,1.0s : 0.3s,-9.675549549287666,0.02650105902766212,0.07166428701221995,0.018509700701578116,0.1395481377840042,-0.01237438153475523,-0.002450220985338092,-0.01066124439239502,0.0043281614780426025,-0.0144987553358078,-0.23134188014167556,1.3977789557191769,0.08769521674391598,0.958827018737793,0.22928385436534882,-0.1675691455602646
1729110236187,7i,4.711154386596967,1.0s : 0.3s,-9.675549549287666,0.0265836202719236,0.07638604171392425,0.018663299517763254,0.13806383311748505,-0.013877158984541893,0.003666893346235156,-0.009618639945983887,0.007570430636405945,-0.014088615775108337,-0.230989418843721,1.3973657638440962,0.08629661347498051,0.9588373303413391,0.22894077003002167,-0.16797925531864166
1729110236197,7i,4.711154386596967,1.0s : 0.3s,-9.675549549287666,0.026671994028817658,0.0773002482529948,0.01315586140595289,0.12641382217407227,-0.01830146834254265,-0.0015355916693806648,-0.007896065711975098,-0.0018330216407775879,-0.010361894965171814,-0.23068007923986494,1.396961028471479,0.08498304080828362,0.9588389992713928,0.2286396473646164,-0.16837956011295319
1729110236207,7i,4.711154386596967,1.0s : 0.3s,-9.675549549287666,0.026766959479071584,0.07919280975085413,0.014198049288933019,0.13689669966697693,-0.014750276692211628,0.002948938636109233,-0.009110808372497559,-0.002468004822731018,-0.010605975985527039,-0.23050161571112784,1.3965068075367681,0.08365610444177295,0.9588025212287903,0.22846589982509613,-0.16882212460041046
1729110236217,7i,4.711154386596967,1.0s : 0.3s,-9.675549549287666,0.02686459084009109,0.08051065937689035,0.013915499172923531,0.13653211295604706,-0.018534895032644272,-0.00018959678709506989,-0.005031406879425049,0.002878129482269287,-0.012650787830352783,-0.23033919259432573,1.3959884843273922,0.0822371660798412,0.9587514400482178,0.22830776870250702,-0.16932553052902222
1729110236227,7i,4.711154386596967,1.0s : 0.3s,-9.675549549287666,0.02696060212613754,0.08140653541497465,0.008636611910488704,0.13169381022453308,-0.020428091287612915,0.006363144144415855,-0.003610670566558838,-0.004473090171813965,-0.006445586681365967,-0.23019454089673347,1.395426868255345,0.0808504890462515,0.9586887955665588,0.22816693782806396,-0.16986973583698273
1729110236238,7i,4.711154386596967,1.0s : 0.3s,-9.675549549287666,0.027050095460907968,0.08214808860182825,0.007289342291085812,0.12982746958732605,-0.02797655574977398,0.004152188077569008,-0.0011052489280700684,-0.007063686847686768,-0.0014203041791915894,-0.2300342786937805,1.394839219650016,0.07953193281336515,0.9586247205734253,0.228010892868042,-0.1704394519329071
1729110236248,7i,4.711154386596967,1.0s : 0.3s,-9.675549549287666,0.02713277360374628,0.08611618279037069,0.004583757134350108,0.1498483121395111,-0.02609831467270851,0.007395785301923752,0.000523984432220459,-0.0032021701335906982,-0.0032376497983932495,-0.2298451492284945,1.3941642474555729,0.07809978383915199,0.958551824092865,0.22782674431800842,-0.17109403014183044
1729110236258,7i,4.711154386596967,1.0s : 0.3s,-9.675549549287666,0.027209559937624223,0.08873258207243785,0.005500152525916544,0.15128561854362488,-0.02308468148112297,0.015095783397555351,-0.0012193918228149414,0.004401504993438721,-0.003064557909965515,-0.22952681519221582,1.3935035239472826,0.07658574152337345,0.9585099816322327,0.227516770362854,-0.1717401146888733
1729110236268,7i,4.711154386596967,1.0s : 0.3s,-9.675549549287666,0.02727619676647554,0.08986954615742844,0.006637906377898127,0.14608420431613922,-0.03054765798151493,0.007695856504142284,0.0011344552040100098,-0.0054222047328948975,0.003657117486000061,-0.22922608379592485,1.3928233801855723,0.07508873390782562,0.9584601521492004,0.22722391784191132,-0.17240409553050995
1729110236278,7i,4.711154386596967,1.0s : 0.3s,-9.675549549287666,0.02732492301737411,0.0901900458379977,0.010139995956440112,0.13577084243297577,-0.027321770787239075,0.01046394556760788,0.008311331272125244,0.0002506077289581299,0.005803316831588745,-0.2288848996776568,1.3921745840184954,0.07367361810336007,0.9584243297576904,0.2268916517496109,-0.17303965985774994
1729110236288,7i,4.711154386596967,1.0s : 0.3s,-9.675549549287666,0.02736000360427128,0.08922975634803733,0.010684831337138618,0.1163749098777771,-0.03150715306401253,0.006769043393433094,0.004872918128967285,-0.004992648959159851,0.008092820644378662,-0.22858137515889554,1.3915498289042194,0.07241736938352801,0.9583838582038879,0.22659602761268616,-0.17365071177482605
1729110236298,7i,4.711154386596967,1.0s : 0.3s,-9.675549549287666,0.02738584919985194,0.08797305900893304,0.010899678663282132,0.11060277372598648,-0.029731888324022293,0.00711818365380168,0.0008376836776733398,-0.005769580602645874,0.009209409356117249,-0.2283450610621664,1.390936029031976,0.07128916527035975,0.9583296775817871,0.2263658493757248,-0.17424848675727844
1729110236308,7i,4.711154386596967,1.0s : 0.3s,-9.675549549287666,0.027407535333634745,0.08710669651622363,0.005080079626608706,0.1146547719836235,-0.029465483501553535,0.00572242122143507,-0.00034630298614501953,0.00475582480430603,0.0017519742250442505,-0.22806634541378837,1.3903703032171633,0.07015354529020709,0.9582930207252502,0.22609436511993408,-0.17480193078517914
1729110236318,7i,4.711154386596967,1.0s : 0.3s,-9.675549549287666,0.02743371133173639,0.08605440065067736,0.008414192964667567,0.11124033480882645,-0.02529071271419525,0.005677146837115288,-0.00826936960220337,-0.0006455779075622559,0.0014140009880065918,-0.22778417685880142,1.3898591557513005,0.06902820403172777,0.9582662582397461,0.22581949830055237,-0.17530322074890137
