timestamp,club,max_speed,tempo,w.rotation,l.speed,t.spped,acc,rotation.x,rotation.y,rotation.z,userAcceleration.x,userAcceleration.y,userAcceleration.z,pitch,roll,yaw,gravity.x,gravity.y,gravity.z
1729111312891,9i,4.82030552124028,1.2s : 0.4s,-46.7710859091408,0.0002438423641440617,0.030217444862299297,0.018886958267933268,0.02852601557970047,0.011618053540587425,-0.006858418695628643,-0.0003803372383117676,0.004991322755813599,0.01821151375770569,-0.3719330089037496,1.8774980157103804,2.8677828166541666,0.8881521821022034,0.3634169399738312,0.2812729775905609
1729111312901,9i,4.82030552124028,1.2s : 0.4s,-46.7710859091408,0.00048073394954374404,0.02849005767850787,0.01584143524923766,0.02660081721842289,0.007435559295117855,-0.01120389811694622,-0.0014556646347045898,-0.0007937252521514893,0.01575443148612976,-0.3723118072843945,1.877493811587356,2.8675213669939277,0.8880217671394348,0.3637698292732239,0.28122758865356445
1729111312911,9i,4.82030552124028,1.2s : 0.4s,-46.7710859091408,0.0007064505633270539,0.027371657643644094,0.01293907789434104,0.03118278458714485,0.004695788025856018,-0.010141363367438316,-0.0026431679725646973,-0.005146682262420654,0.011573463678359985,-0.3726112466185664,1.8775138048929687,2.8672953457195183,0.8879125714302063,0.36404871940612793,0.28121253848075867
1729111312921,9i,4.82030552124028,1.2s : 0.4s,-46.7710859091408,0.0009178839591615386,0.025748605676965575,0.015023907806665234,0.020495254546403885,0.006057195831090212,-0.011835932731628418,-0.0053078532218933105,-0.011606097221374512,0.007927358150482178,-0.37287876724561014,1.8775288253326872,2.8670856712594617,0.8878154754638672,0.36429789662361145,0.2811964452266693
1729111312931,9i,4.82030552124028,1.2s : 0.4s,-46.7710859091408,0.0011133324462254278,0.1279338514623254,0.023496292315920687,-0.042142827063798904,-0.41310587525367737,0.4533301591873169,-0.015931010246276855,-0.01659587025642395,0.004780769348144531,-0.3724692504617401,1.8771554215790605,2.8667138985710268,0.8880624771118164,0.3639164865016937,0.28090983629226685
1729111312941,9i,4.82030552124028,1.2s : 0.4s,-46.7710859091408,0.0012973948094688647,0.35543415912187365,0.04325305900411826,0.054305147379636765,-0.5872859954833984,1.2021511793136597,0.03845089673995972,-0.017682939767837524,0.008925765752792358,-0.37345630528488494,1.877833831636314,2.866766143174443,0.887528657913208,0.3648356795310974,0.28140348196029663
1729111312951,9i,4.82030552124028,1.2s : 0.4s,-46.7710859091408,0.0014281168403607743,0.35516575415446466,0.04686204292975106,0.0034970950800925493,-0.20773622393608093,0.4879117012023926,-0.03877723217010498,-0.024466335773468018,-0.009683787822723389,-0.373170419429675,1.8780663260047632,2.8666950540867986,0.8875625729560852,0.3645694851875305,0.2816413640975952
1729111312961,9i,4.82030552124028,1.2s : 0.4s,-46.7710859091408,0.0015690277941228731,0.23917373764942904,0.020692847116470306,0.010043411515653133,0.0728970319032669,-0.014236372895538807,-0.010271012783050537,-0.010673075914382935,0.01444941759109497,-0.37302368481044057,1.8779863180324943,2.866651027865454,0.8876360058784485,0.36443284153938293,0.28158649802207947
1729111312971,9i,4.82030552124028,1.2s : 0.4s,-46.7710859091408,0.0017003594348652179,0.1713237383219449,0.018861706671415526,-0.013064837083220482,-0.016949675977230072,0.013691331259906292,-0.004287004470825195,-0.017947494983673096,-0.003908067941665649,-0.3728063914674844,1.8780466799823328,2.8665322268511004,0.8876945972442627,0.3642304837703705,0.28166404366493225
1729111312981,9i,4.82030552124028,1.2s : 0.4s,-46.7710859091408,0.001819533404452642,0.11744187831506765,0.02715978523702025,0.015454689040780067,0.010657452046871185,-0.009238485246896744,-0.017370104789733887,-0.01862114667892456,-0.009443849325180054,-0.3728908228267325,1.8781911079736697,2.8665558352642533,0.8876248002052307,0.3643091022968292,0.2817830443382263
1729111312991,9i,4.82030552124028,1.2s : 0.4s,-46.7710859091408,0.0019431191013059939,0.08400241596658123,0.017290297959328075,0.00014417519560083747,0.011741358786821365,0.015693163499236107,0.007754087448120117,-0.013908207416534424,0.006737232208251953,-0.3728274264632115,1.8782443996601377,2.8664679167806035,0.8876317739486694,0.3642500638961792,0.2818372845649719
1729111313001,9i,4.82030552124028,1.2s : 0.4s,-46.7710859091408,0.0020720312335547946,0.05869935833314763,0.018527699819126817,0.0019471351988613605,0.01278984546661377,0.004888718482106924,-0.0022583603858947754,-0.017269611358642578,0.006319493055343628,-0.3727666382866959,1.8783636577999305,2.8664096248753697,0.8876190781593323,0.36419346928596497,0.28194981813430786
1729111313011,9i,4.82030552124028,1.2s : 0.4s,-46.7710859091408,0.0022022363463911525,0.042911871170651206,0.013379261259358422,-0.006970859132707119,0.006971503607928753,0.012706859968602657,0.00012743473052978516,-0.01245260238647461,0.004890918731689453,-0.37265710357968684,1.878463786290618,2.866418016671482,0.8876290321350098,0.3640914559364319,0.28205081820487976
1729111313021,9i,4.82030552124028,1.2s : 0.4s,-46.7710859091408,0.0023323056121136174,0.03107999918817926,0.011558778034517036,-0.012338726781308651,0.008494831621646881,0.007954183034598827,-0.002144157886505127,-0.010472148656845093,0.004397958517074585,-0.37252944086085277,1.8785735873475768,2.8664857589726234,0.8876422047615051,0.363972544670105,0.28216230869293213
1729111313031,9i,4.82030552124028,1.2s : 0.4s,-46.7710859091408,0.0024576631295967896,0.02851133037238289,0.009576532187828975,-0.018059996888041496,0.005417193751782179,0.0152114974334836,-0.005301952362060547,-0.00793948769569397,0.0007508695125579834,-0.37234954315991503,1.8786889930581676,2.866607915994133,0.8876720070838928,0.36380496621131897,0.28228458762168884
1729111313041,9i,4.82030552124028,1.2s : 0.4s,-46.7710859091408,0.0025756941998212493,0.02674138913325813,0.012575178988803937,-0.021300796419382095,0.008556794375181198,0.015917234122753143,-0.00657045841217041,-0.010047197341918945,-0.003744065761566162,-0.37215510617243364,1.8788124167653861,2.866761630076598,0.8877044320106506,0.36362385749816895,0.2824155390262604
1729111313051,9i,4.82030552124028,1.2s : 0.4s,-46.7710859091408,0.002680098095988422,0.025329727414515585,0.009194664724054743,-0.020809976384043694,0.005062106065452099,0.016808127984404564,-0.005103468894958496,-0.0029244422912597656,-0.0070671141147613525,-0.3719291667970441,1.878935271722661,2.866923773410799,0.8877480626106262,0.36341336369514465,0.28254953026771545
1729111313061,9i,4.82030552124028,1.2s : 0.4s,-46.7710859091408,0.0027663326246906064,0.023896289763010125,0.011091439845420884,-0.019075192511081696,0.006757740397006273,0.013915402814745903,-0.005157649517059326,0.004793763160705566,-0.0085696280002594,-0.3717191774426186,1.8790547923511671,2.8670784313300834,0.8877869844436646,0.3632177412509918,0.2826787829399109
1729111313081,9i,4.82030552124028,1.2s : 0.4s,-46.7710859091408,0.0028310676175633868,0.15126029468782057,0.023312621462289754,-0.08583291620016098,-0.48784399032592773,0.47047868371009827,-0.016487300395965576,0.009086191654205322,-0.013750940561294556,-0.37069892526482906,1.8788177640178174,2.867123765321422,0.8882066607475281,0.3622669577598572,0.28258055448532104
1729111313091,9i,4.82030552124028,1.2s : 0.4s,-46.7710859091408,0.003087077958854867,0.3407294641472066,0.20666911594618523,-0.02566891349852085,-0.7703015208244324,0.8791399002075195,-0.20593684911727905,-0.01223522424697876,-0.012346535921096802,-0.37185039909476036,1.8795269538730297,2.8674971867042425,0.887607991695404,0.36333999037742615,0.283083438873291
1729111313101,9i,4.82030552124028,1.2s : 0.4s,-46.7710859091408,0.003483347150762539,0.32103470544235385,0.0650430971897603,-0.061731573194265366,-0.29617708921432495,0.2801755964756012,-0.06335079669952393,0.009570598602294922,0.011210918426513672,-0.3713416849599565,1.8796380241203265,2.867524973366456,0.8877527713775635,0.36286598443984985,0.2832382321357727
1729111313111,9i,4.82030552124028,1.2s : 0.4s,-46.7710859091408,0.003813233003786897,0.22066279593739677,0.005918051185151667,0.006737496238201857,0.056696537882089615,0.0236471276730299,0.0053070783615112305,-0.002618759870529175,1.8596649169921875e-05,-0.3711753278316684,1.8797633633437731,2.8676506440917313,0.8877747058868408,0.36271098256111145,0.2833678424358368
1729111313071,9i,4.82030552124028,1.2s : 0.4s,-46.7710859091408,0.004079071168496163,0.15587607318270588,0.008725771921681304,-0.018247749656438828,0.011502960696816444,0.016316775232553482,-0.005875110626220703,0.003557920455932617,-0.005381762981414795,-0.37152250033719025,1.8791864059128736,2.8672177864475445,0.8878178000450134,0.3630344867706299,0.2828173041343689
1729111313121,9i,4.82030552124028,1.2s : 0.4s,-46.7710859091408,0.004317609775319557,0.10991903361361105,0.015584832872838905,-0.035042040050029755,0.004574170336127281,0.0027643146459013224,0.01361703872680664,0.007178813219070435,-0.0024347305297851562,-0.3708463599447632,1.8798735005791163,2.8677623170867217,0.8878570795059204,0.36240437626838684,0.28350189328193665
1729111313131,9i,4.82030552124028,1.2s : 0.4s,-46.7710859091408,0.004534822840706657,0.07615601619572963,0.004301280951475332,-0.01980103738605976,0.003990760538727045,-0.006829390302300453,-0.0014392733573913574,-0.001592397689819336,0.003727436065673828,-0.37087629447962905,1.8801205253426514,2.8680281793204907,0.8877766728401184,0.3624323010444641,0.28371790051460266
1729111313141,9i,4.82030552124028,1.2s : 0.4s,-46.7710859091408,0.004736899350830944,0.05836962203285245,0.004054251664645892,-0.024225080385804176,0.010914446786046028,0.03168338164687157,-0.0025364160537719727,-0.00301361083984375,-0.0009600520133972168,-0.3706820966919914,1.8802545121659093,2.8682440602905945,0.8878055214881897,0.36225128173828125,0.2838582396507263
1729111313151,9i,4.82030552124028,1.2s : 0.4s,-46.7710859091408,0.004940890496928769,0.06106372134531422,0.019528385270225577,-0.012561766430735588,0.008091851137578487,0.11996950209140778,-0.017741680145263672,-0.0076177120208740234,-0.0029259324073791504,-0.37057952931045485,1.8805139119066647,2.868464844056007,0.8877672553062439,0.3621556758880615,0.28409984707832336
1729111313161,9i,4.82030552124028,1.2s : 0.4s,-46.7710859091408,0.005142425830163401,0.08465001281886345,0.014730369090448699,-0.015833726152777672,-0.010770786553621292,0.2140483260154724,-0.007297158241271973,-0.010957837104797363,0.006607651710510254,-0.370365115483776,1.880800234009768,2.8687254885275326,0.8877599239349365,0.36195582151412964,0.28437772393226624
1729111313171,9i,4.82030552124028,1.2s : 0.4s,-46.7710859091408,0.005343396345842337,0.120380417464276,0.019276957550614447,-0.02664988860487938,-0.03542420268058777,0.3013433516025543,-0.007052719593048096,-0.015007495880126953,0.009830325841903687,-0.3701097391052786,1.881057198221253,2.8691216012882794,0.8877748250961304,0.36171773076057434,0.2846340537071228
1729111313181,9i,4.82030552124028,1.2s : 0.4s,-46.7710859091408,0.005542548260510553,0.16520769255866444,0.018567890686055553,-0.031870752573013306,-0.058215267956256866,0.3967481553554535,-0.007610499858856201,-0.014837712049484253,0.008166342973709106,-0.3698131332089009,1.881278956957632,2.869637540099224,0.8878139853477478,0.3614411950111389,0.28486377000808716
1729111313191,9i,4.82030552124028,1.2s : 0.4s,-46.7710859091408,0.0057391375014531395,0.21547826297338674,0.014780818792072286,-0.023994050920009613,-0.07912307977676392,0.489325612783432,-0.012481629848480225,-0.004752397537231445,0.0063321590423583984,-0.36948660923204535,1.8814996672255218,2.8702012857656345,0.8878631591796875,0.3611367344856262,0.2850956916809082
1729111313201,9i,4.82030552124028,1.2s : 0.4s,-46.7710859091408,0.0059359508425648275,0.26941486737816583,0.02003308483398106,-0.00941217876970768,-0.10132718831300735,0.5808062553405762,-0.01995795965194702,0.0009051859378814697,0.0014781653881072998,-0.36921210165660695,1.8817252854246145,2.870686678693679,0.8878931403160095,0.3608807325363159,0.2853263020515442
1729111313211,9i,4.82030552124028,1.2s : 0.4s,-46.7710859091408,0.0061357295387774865,0.3265541161563952,0.023733810328512437,-0.004339256323873997,-0.1242976188659668,0.6743528842926025,-0.023692429065704346,0.0003333091735839844,-0.0013606846332550049,-0.3689745166017877,1.8819714405905366,2.8711044662916647,0.8879044651985168,0.3606591522693634,0.2855710983276367
1729111313221,9i,4.82030552124028,1.2s : 0.4s,-46.7710859091408,0.006346823818114718,0.3864395937924196,0.02898565197485713,0.0001787962974049151,-0.1603221893310547,0.7680168151855469,-0.028427302837371826,-0.0046434104442596436,0.0032396316528320312,-0.3687480319862483,1.8822270431741421,2.871504766348499,0.8879091739654541,0.3604479134082794,0.2858230769634247
1729111313231,9i,4.82030552124028,1.2s : 0.4s,-46.7710859091408,0.0065723453910072685,0.44967236988181375,0.03235922750227274,0.008823816664516926,-0.19389164447784424,0.8690447807312012,-0.03134965896606445,-0.006598085165023804,0.004558920860290527,-0.3685370473880034,1.8823990900788246,2.8718255952016793,0.8879324197769165,0.3602510988712311,0.2859991490840912
1729111313241,9i,4.82030552124028,1.2s : 0.4s,-46.7710859091408,0.006814480000460737,0.5075337484319353,0.037640547446479565,0.011874201707541943,-0.22158479690551758,0.9318831562995911,-0.03747016191482544,-0.0032181143760681152,0.0015625357627868652,-0.36839780744751516,1.8825600668060234,2.872112716620577,0.8879339098930359,0.3601211905479431,0.28615742921829224
1729111313251,9i,4.82030552124028,1.2s : 0.4s,-46.7710859091408,0.00706932010409285,0.5441876561201768,0.036872889070862,0.0032912325114011765,-0.23149755597114563,0.9097821116447449,-0.03643953800201416,0.0035397112369537354,0.004386395215988159,-0.36817079457617014,1.8827541578447633,2.872365196046136,0.8879562020301819,0.35990941524505615,0.2863548696041107
1729111313261,9i,4.82030552124028,1.2s : 0.4s,-46.7710859091408,0.007343620579202664,0.5668452820621078,0.0424464198988639,0.006894223392009735,-0.2464490830898285,0.8905969262123108,-0.04222339391708374,-0.0024095475673675537,0.0036163032054901123,-0.36794006497082876,1.8829740404604802,2.8725775247577174,0.887972354888916,0.35969412326812744,0.2865756154060364
1729111313271,9i,4.82030552124028,1.2s : 0.4s,-46.7710859091408,0.007634884962718829,0.5781868592442819,0.04086237742030553,0.003680853173136711,-0.25570961833000183,0.8646897077560425,-0.040362656116485596,-0.005481153726577759,0.003247588872909546,-0.3676996691300241,1.8832046143596277,2.8727581914115015,0.8879884481430054,0.35946980118751526,0.2868069112300873
1729111313281,9i,4.82030552124028,1.2s : 0.4s,-46.7710859091408,0.007938619566503803,0.5797050315059119,0.03845940312099254,-0.00030296953627839684,-0.26996898651123047,0.8405667543411255,-0.038140952587127686,-0.004453539848327637,0.0021352767944335938,-0.36744879533172264,1.8834294862885372,2.8729303183001558,0.888009786605835,0.3592357039451599,0.2870343327522278
1729111313291,9i,4.82030552124028,1.2s : 0.4s,-46.7710859091408,0.00825326831307623,0.5794994537448501,0.03697141105890483,-0.015605092979967594,-0.2844538390636444,0.8147444725036621,-0.03541785478591919,-0.010180234909057617,0.002970457077026367,-0.3671594864591524,1.8836385555144368,2.873174546809272,0.888048529624939,0.3589656949043274,0.28725194931030273
1729111313301,9i,4.82030552124028,1.2s : 0.4s,-46.7710859091408,0.008582132901691032,0.5770633426094244,0.040575704634213054,-0.028993338346481323,-0.2978365123271942,0.7850260138511658,-0.035926103591918945,-0.017285943031311035,0.00754314661026001,-0.3668108860302238,1.8838240637636738,2.873527130271162,0.8881141543388367,0.35864031314849854,0.28745517134666443
1729111313311,9i,4.82030552124028,1.2s : 0.4s,-46.7710859091408,0.008923770325335199,0.5679506311796236,0.04040581245568308,-0.04140114039182663,-0.31116247177124023,0.7561886310577393,-0.03609895706176758,-0.015279203653335571,0.009800046682357788,-0.3664102612517044,1.8840163758926947,2.8739999833960397,0.8881955146789551,0.35826629400253296,0.28767022490501404
1729111313321,9i,4.82030552124028,1.2s : 0.4s,-46.7710859091408,0.009272321194563029,0.5561618704803307,0.03794472711445185,-0.0429508313536644,-0.31558653712272644,0.7239217758178711,-0.03731316328048706,-0.0013363361358642578,0.006763458251953125,-0.36597296911467253,1.8841855336833797,2.874486443632387,0.8882958889007568,0.35785800218582153,0.28786876797676086
1729111313331,9i,4.82030552124028,1.2s : 0.4s,-46.7710859091408,0.009625356096201205,0.5421614193542439,0.039627898227591975,-0.04327999800443649,-0.3192359507083893,0.6902972459793091,-0.03880274295806885,0.006669878959655762,0.004497796297073364,-0.36555314471378725,1.884330577329094,2.8749481968201227,0.8883970975875854,0.3574659526348114,0.28804394602775574
1729111313341,9i,4.82030552124028,1.2s : 0.4s,-46.7710859091408,0.009984722739249968,0.5250543712778158,0.04107998540947515,-0.05439150333404541,-0.31488725543022156,0.6509413123130798,-0.04098325967788696,0.0027607977390289307,-0.0005618035793304443,-0.3651477530999648,1.8844964648966098,2.875434537116108,0.8884871006011963,0.35708731412887573,0.28823602199554443
1729111313351,9i,4.82030552124028,1.2s : 0.4s,-46.7710859091408,0.010352234509381504,0.5078516819671914,0.041370440114054406,-0.054850902408361435,-0.31863558292388916,0.6197471618652344,-0.04133105278015137,-0.0009064972400665283,0.0015606582164764404,-0.36472853768625785,1.8846832294594567,2.8759845579743963,0.8885753154754639,0.3566957116127014,0.2884480953216553
1729111313361,9i,4.82030552124028,1.2s : 0.4s,-46.7710859091408,0.01072456561397498,0.48719427267818805,0.042121112674245925,-0.05019915848970413,-0.3078356683254242,0.5767278075218201,-0.041720032691955566,0.004977524280548096,-0.0029751062393188477,-0.364342899942409,1.8848459257694086,2.8764814290248615,0.8886591792106628,0.3563354015350342,0.28863513469696045
1729111313371,9i,4.82030552124028,1.2s : 0.4s,-46.7710859091408,0.011101869433679605,0.46555932029216773,0.0447319962087696,-0.04902803152799606,-0.29965081810951233,0.5402915477752686,-0.043180227279663086,0.011677205562591553,-0.00024965405464172363,-0.3640151272433099,1.8850351518545236,2.876951279366669,0.8887155055999756,0.35602912306785583,0.28883934020996094
1729111313381,9i,4.82030552124028,1.2s : 0.4s,-46.7710859091408,0.011480771641684538,0.4407982313597674,0.044436983156165184,-0.04580720514059067,-0.2868671119213104,0.49266698956489563,-0.041592180728912354,0.015420794486999512,-0.0026334524154663086,-0.3637483574341196,1.8852463782762605,2.877363312110076,0.8887449502944946,0.35577982664108276,0.2890564799308777
1729111313391,9i,4.82030552124028,1.2s : 0.4s,-46.7710859091408,0.011863175470514131,0.41454892350210326,0.04251014836564941,-0.05257735773921013,-0.2757468819618225,0.4470568001270294,-0.041324615478515625,0.009714961051940918,-0.002237945795059204,-0.36358402378555654,1.885519288801285,2.877830097306693,0.8887214660644531,0.3556262254714966,0.2893170714378357
1729111313401,9i,4.82030552124028,1.2s : 0.4s,-46.7710859091408,0.012246784197375784,0.38879289060253314,0.03704852751988872,-0.05805361643433571,-0.26433736085891724,0.4099786877632141,-0.03695756196975708,0.0016842782497406006,-0.0019736289978027344,-0.36342568316826995,1.8858202663577772,2.878347783382598,0.8886880278587341,0.3554782569408417,0.28960201144218445
1729111313411,9i,4.82030552124028,1.2s : 0.4s,-46.7710859091408,0.012630639697407525,0.3632408942274584,0.03507929771183901,-0.06471604108810425,-0.25264281034469604,0.3717592656612396,-0.034978508949279785,-0.0022413432598114014,-0.001427382230758667,-0.3632668821089265,1.8861474969398109,2.878938471428813,0.8886469602584839,0.35532981157302856,0.28991034626960754
1729111313421,9i,4.82030552124028,1.2s : 0.4s,-46.7710859091408,0.013010058206232302,0.33880692080900077,0.030282034772136854,-0.06901438534259796,-0.24157150089740753,0.33863911032676697,-0.03003150224685669,0.00027489662170410156,0.003877490758895874,-0.3630724935204376,1.8864898273853892,2.8795717443349416,0.8886129856109619,0.3551481068134308,0.2902359068393707
1729111313431,9i,4.82030552124028,1.2s : 0.4s,-46.7710859091408,0.013379184095356437,0.3135645881441529,0.028561271757769402,-0.06644843518733978,-0.22751490771770477,0.29861781001091003,-0.026576220989227295,0.009947240352630615,0.0032408535480499268,-0.3628948455999992,1.8867720666424797,2.880193644645032,0.8885912299156189,0.35498201847076416,0.29050636291503906
1729111313441,9i,4.82030552124028,1.2s : 0.4s,-46.7710859091408,0.013737956969506075,0.28725589726625883,0.030725854859077088,-0.06399352848529816,-0.2095862329006195,0.2578248381614685,-0.027570009231567383,0.013121962547302246,-0.0034331977367401123,-0.36277965621869335,1.8870564302026729,2.8808115986085223,0.888547420501709,0.3548743426799774,0.2907717227935791
1729111313451,9i,4.82030552124028,1.2s : 0.4s,-46.7710859091408,0.014089491915303365,0.2613329927282868,0.02787811993002862,-0.060882292687892914,-0.18573066592216492,0.22811731696128845,-0.027336061000823975,0.003275573253631592,-0.004381775856018066,-0.3626864744003057,1.8873396273952618,2.8813890018761197,0.8884963989257812,0.3547872304916382,0.29103365540504456
1729111313461,9i,4.82030552124028,1.2s : 0.4s,-46.7710859091408,0.014431850559045275,0.2369121873195848,0.023456056452809376,-0.06893116980791092,-0.1699863225221634,0.19799509644508362,-0.02316826581954956,-0.002755880355834961,-0.002413123846054077,-0.36256046507308787,1.8876499450330504,2.881990622922394,0.8884485960006714,0.3546694219112396,0.29132330417633057
1729111313471,9i,4.82030552124028,1.2s : 0.4s,-46.7710859091408,0.014763123307552518,0.21353029955158043,0.02079409862432453,-0.06870439648628235,-0.1576036512851715,0.16629977524280548,-0.02036726474761963,-0.0037140846252441406,-0.0019428431987762451,-0.3623939619585532,1.887924269566845,2.882641160208313,0.8884247541427612,0.3545137345790863,0.29158541560173035
1729111313481,9i,4.82030552124028,1.2s : 0.4s,-46.7710859091408,0.015082870557698793,0.18940353318122385,0.024926846462701862,-0.0654556080698967,-0.13504347205162048,0.13330215215682983,-0.021741271018981934,7.62939453125e-06,-0.01219281554222107,-0.36224863399488766,1.88814225472481,2.8832673355822016,0.8884101510047913,0.3543778359889984,0.29179516434669495
1729111313491,9i,4.82030552124028,1.2s : 0.4s,-46.7710859091408,0.015393950075293955,0.16520600158805293,0.026396591614780897,-0.07098126411437988,-0.10633446276187897,0.10509944707155228,-0.023026704788208008,-0.0015243589878082275,-0.012815117835998535,-0.36210826997673845,1.888395863304575,2.883915043264491,0.8883832097053528,0.354246586561203,0.29203593730926514
1729111313501,9i,4.82030552124028,1.2s : 0.4s,-46.7710859091408,0.0156954004967859,0.14140258571648912,0.021873645346064518,-0.06929042190313339,-0.07924691587686539,0.08001406490802765,-0.019649803638458252,-0.005315721035003662,-0.008005291223526001,-0.36193645216354786,1.8887142868503128,2.8845960477962387,0.888347864151001,0.35408589243888855,0.2923378050327301
1729111313511,9i,4.82030552124028,1.2s : 0.4s,-46.7710859091408,0.01598067892393029,0.1177642910189374,0.013840857652282853,-0.0660841166973114,-0.05311646685004234,0.05278526991605759,-0.012809336185455322,-0.0018607378005981445,-0.00490182638168335,-0.3617664758349464,1.8890814674999983,2.885280284558216,0.8882979154586792,0.3539269268512726,0.2926828861236572
1729111313521,9i,4.82030552124028,1.2s : 0.4s,-46.7710859091408,0.016240618687685227,0.09582951813334341,0.006677281382487471,-0.06201453506946564,-0.03307325020432472,0.030017640441656113,-0.004135012626647949,-0.0011305510997772217,-0.005119532346725464,-0.3616219868287559,1.8894287872979378,2.8859091198737703,0.8882447481155396,0.3537917733192444,0.29300740361213684
1729111313531,9i,4.82030552124028,1.2s : 0.4s,-46.7710859091408,0.016469870592770355,0.0764289377698095,0.005692768843882147,-0.05410348251461983,-0.01863860711455345,0.012887821532785892,0.004484713077545166,-0.0014495849609375,-0.0031927525997161865,-0.36147366581398055,1.8896976068051416,2.8864982846571845,0.8882156610488892,0.35365304350852966,0.2932625710964203
1729111313541,9i,4.82030552124028,1.2s : 0.4s,-46.7710859091408,0.016666840599381158,0.05729038340202489,0.010683490882416461,-0.036946866661310196,0.00255962205119431,-0.00297476421110332,0.007078289985656738,0.006006032228469849,-0.00528794527053833,-0.3613330909795013,1.8898572418323982,2.8869582496162813,0.8882158398628235,0.35352155566215515,0.29341989755630493
1729111313551,9i,4.82030552124028,1.2s : 0.4s,-46.7710859091408,0.016839871046277485,0.043314620964306084,0.010089799343719218,-0.030846763402223587,0.002464059041813016,-0.00790390931069851,0.0019568800926208496,0.00754469633102417,-0.006407201290130615,-0.3613031587205846,1.8900137659665601,2.887321851597134,0.8881799578666687,0.3534935414791107,0.29356223344802856
1729111313561,9i,4.82030552124028,1.2s : 0.4s,-46.7710859091408,0.016992032269539974,0.038784245149788434,0.0048798842752122065,-0.037215977907180786,0.0037394468672573566,-0.00729404529556632,0.0032253265380859375,-0.0010050833225250244,-0.0035214126110076904,-0.36132472162072676,1.8901521761484308,2.887680408658961,0.8881322741508484,0.3535137176513672,0.29368284344673157
1729111313571,9i,4.82030552124028,1.2s : 0.4s,-46.7710859091408,0.017125705699054004,0.037220443064126765,0.009874921631987948,-0.0435178168118,-0.002478146692737937,-0.004168692510575056,0.004625976085662842,-0.008715301752090454,-0.000397413969039917,-0.3613132328564903,1.8902583876385302,2.888090203966765,0.8881049156188965,0.3535029888153076,0.2937784492969513
1729111313581,9i,4.82030552124028,1.2s : 0.4s,-46.7710859091408,0.017244671879232797,0.03640003257518832,0.011882687554832273,-0.05011899396777153,-0.005248100496828556,-0.0020099342800676823,0.0029793381690979004,-0.011346369981765747,-0.0018925368785858154,-0.36122235923819696,1.890367020641994,2.888560234728573,0.8881036043167114,0.3534179627895355,0.2938850522041321
1729111313591,9i,4.82030552124028,1.2s : 0.4s,-46.7710859091408,0.01735376125256567,0.03578983921307012,0.005867101179675438,-0.05118146166205406,-0.0055553847923874855,-0.003042541677132249,-0.0008714795112609863,-0.005760461091995239,-0.0006931722164154053,-0.3611069170266625,1.8904796506549835,2.889073256265504,0.8881092667579651,0.3533099889755249,0.2939979135990143
1729111313601,9i,4.82030552124028,1.2s : 0.4s,-46.7710859091408,0.017458533514192295,0.03504692242808948,0.008759319620222908,-0.04721947759389877,-0.002543083392083645,-0.001098966458812356,-0.005837380886077881,-0.004502534866333008,-0.004730522632598877,-0.360985482995776,1.8905949478477158,2.8895740525445888,0.8881157636642456,0.353196382522583,0.2941136658191681
1729111313611,9i,4.82030552124028,1.2s : 0.4s,-46.7710859091408,0.017557768002579386,0.03515205916534944,0.01334019886199473,-0.060704927891492844,0.0021295214537531137,-0.0017386581748723984,-0.004429876804351807,-0.007918000221252441,-0.009779691696166992,-0.36081977554212863,1.8907443778696253,2.890104887315863,0.8881274461746216,0.3530413508415222,0.2942648231983185
1729111313621,9i,4.82030552124028,1.2s : 0.4s,-46.7710859091408,0.01765090639497805,0.03587170985426497,0.014088235266005309,-0.06632313132286072,-0.0036162487231194973,0.0028526317328214645,-0.0014454126358032227,-0.013749867677688599,-0.002707451581954956,-0.3606599480141267,1.8909049801569264,2.8907249914601687,0.8881338238716125,0.35289180278778076,0.29442524909973145
1729111313631,9i,4.82030552124028,1.2s : 0.4s,-46.7710859091408,0.017734789765056755,0.037468694258032224,0.01105620172800104,-0.07490184158086777,-0.008319524116814137,0.0033138578291982412,0.0022797584533691406,-0.01012277603149414,0.0038172900676727295,-0.36046901391811903,1.8910253258998853,2.891402873607599,0.8881621956825256,0.35271313786506653,0.294553279876709
1729111313641,9i,4.82030552124028,1.2s : 0.4s,-46.7710859091408,0.01780714297864057,0.038255780343225416,0.006253262498892914,-0.06860826164484024,-0.010445792227983475,-0.001153328688815236,0.0019301772117614746,0.005913376808166504,-0.0006400644779205322,-0.3602253107519524,1.8911514974311814,2.892119661210337,0.8882065415382385,0.3524850904941559,0.29469239711761475
1729111313651,9i,4.82030552124028,1.2s : 0.4s,-46.7710859091408,0.01787118571265636,0.03810422180074949,0.011711757430208983,-0.05659953132271767,-0.0054318588227033615,-0.0046782223507761955,-0.001102745532989502,0.011503279209136963,-0.001903623342514038,-0.35999156739089894,1.8912736836432973,2.892760589314713,0.8882489800453186,0.3522663414478302,0.2948269546031952
1729111313661,9i,4.82030552124028,1.2s : 0.4s,-46.7710859091408,0.017928775908860578,0.03748355683956124,0.013775026760779163,-0.05006546527147293,-0.0006509518716484308,-0.007119541987776756,-0.0024208426475524902,0.013368606567382812,-0.002274036407470703,-0.35980819170450407,1.8914100661441082,2.8933043046906164,0.8882699608802795,0.35209470987319946,0.2949684262275696
1729111313671,9i,4.82030552124028,1.2s : 0.4s,-46.7710859091408,0.017978386668357837,0.03664824226469216,0.01351590374203301,-0.04500279575586319,-0.002804561285302043,-0.00821097195148468,0.00045305490493774414,0.012830495834350586,0.004225254058837891,-0.3596984055369972,1.8915520725493473,2.8938032139745,0.8882647156715393,0.3519919514656067,0.2951067090034485
1729111313681,9i,4.82030552124028,1.2s : 0.4s,-46.7710859091408,0.01802011682668254,0.03575830988760265,0.011056339570785018,-0.042558811604976654,-0.0036836706567555666,-0.010995306074619293,0.001215517520904541,0.010744929313659668,0.0023047029972076416,-0.3596442965928582,1.8916631842595335,2.8942734994650845,0.8882500529289246,0.35194131731987,0.29521143436431885
1729111313691,9i,4.82030552124028,1.2s : 0.4s,-46.7710859091408,0.018054757294655208,0.03486517082938177,0.007902350902841797,-0.04003986343741417,-0.005929558537900448,-0.005912031512707472,0.0017666816711425781,0.007400453090667725,0.002135246992111206,-0.35956573008239,1.8917066831075477,2.894693760426704,0.8882632255554199,0.35186776518821716,0.2952587306499481
1729111313701,9i,4.82030552124028,1.2s : 0.4s,-46.7710859091408,0.01808506020103742,0.033981448907458967,0.00915323219401476,-0.03846859931945801,-0.00702438410371542,-0.005607897881418467,-0.0001627206802368164,0.008620142936706543,0.0030738115310668945,-0.3594038412986931,1.8917635741368115,2.895103971444443,0.8883006572723389,0.35171622037887573,0.2953272759914398
1729111313711,9i,4.82030552124028,1.2s : 0.4s,-46.7710859091408,0.018115405075952013,0.03278457736505639,0.01041430174054311,-0.03305545821785927,-0.003043313743546605,-0.007635096088051796,-0.004214048385620117,0.009522944688796997,0.00011402368545532227,-0.3592871183299319,1.8918688616241708,2.8955032046276736,0.8883086442947388,0.35160696506500244,0.29543381929397583
1729111313721,9i,4.82030552124028,1.2s : 0.4s,-46.7710859091408,0.018147407793025136,0.03150427857273289,0.008023981962369888,-0.03018350340425968,-0.0008595215622335672,-0.006750393658876419,-0.005089402198791504,0.006193667650222778,0.00034749507904052734,-0.3592900862748124,1.89194990952849,2.8958398297269357,0.8882834911346436,0.3516097366809845,0.2955054044723511
1729111313731,9i,4.82030552124028,1.2s : 0.4s,-46.7710859091408,0.018181078475829292,0.02993266179763289,0.008634310283891772,-0.025410186499357224,-0.0026777060702443123,-0.004948265850543976,-0.0055231451988220215,0.0062631964683532715,-0.002195119857788086,-0.3593461869347586,1.8920193559402232,2.8961442507276267,0.8882442116737366,0.3516622483730316,0.2955608665943146
1729111313741,9i,4.82030552124028,1.2s : 0.4s,-46.7710859091408,0.018218281193614527,0.028707039582206054,0.00696729775010949,-0.026755083352327347,0.0006035747937858105,-0.0023695272393524647,-0.006579220294952393,0.0018134713172912598,-0.0014030039310455322,-0.3594051315425553,1.8920969114216355,2.896415088741254,0.8882014751434326,0.35171744227409363,0.29562315344810486
1729111313751,9i,4.82030552124028,1.2s : 0.4s,-46.7710859091408,0.018259203607879228,0.02782353636438819,0.006659306817221804,-0.03055727854371071,0.005059930961579084,-0.004756119102239609,-0.0065247416496276855,0.00020164251327514648,0.0013166069984436035,-0.35943186780987774,1.8922509044923888,2.8967258147233146,0.8881473541259766,0.3517424762248993,0.29575708508491516
1729111313761,9i,4.82030552124028,1.2s : 0.4s,-46.7710859091408,0.018303373879661484,0.027433905430667413,0.008424815474346144,-0.03629852086305618,0.0037776187527924776,-0.003098301589488983,-0.0054953694343566895,-0.0030173659324645996,0.005627959966659546,-0.3594311209882448,1.8924303984834683,2.897072758255686,0.8880943059921265,0.351741760969162,0.29591649770736694
1729111313771,9i,4.82030552124028,1.2s : 0.4s,-46.7710859091408,0.018348259589695857,0.028242618267553633,0.011960727312814105,-0.05339881032705307,0.0028195464983582497,-0.0031717047095298767,-0.0024672746658325195,-0.009702712297439575,0.006544381380081177,-0.3593681078979744,1.8926276992574331,2.8975289123943875,0.8880570530891418,0.35168278217315674,0.2960987687110901
1729111313781,9i,4.82030552124028,1.2s : 0.4s,-46.7710859091408,0.018394613916145254,0.03322462770719566,0.015120070822932182,-0.07446254789829254,-0.00427617970854044,-0.005921685136854649,-0.0027179718017578125,-0.009700775146484375,0.011274933815002441,-0.35926819419084166,1.892872524783743,2.898205531446953,0.8880177736282349,0.35158923268318176,0.29632726311683655
1729111313791,9i,4.82030552124028,1.2s : 0.4s,-46.7710859091408,0.018442412725362713,0.03455211670155547,0.009961801812429519,-0.06884527951478958,-0.006112828850746155,-0.005288219079375267,-0.0038787126541137695,-0.008266299962997437,0.003982633352279663,-0.3591702124096288,1.893081994238355,2.8989447929064527,0.8879882097244263,0.3514975309371948,0.29652413725852966
1729111313801,9i,4.82030552124028,1.2s : 0.4s,-46.7710859091408,0.018491816048145805,0.034777447609494076,0.007933319981711985,-0.05458937957882881,-0.0028738921973854303,-0.005138815380632877,-0.0059885382652282715,-0.0024056434631347656,-0.0046138763427734375,-0.3590710981636537,1.8932823390724483,2.8995964899890123,0.8879619240760803,0.35140472650527954,0.29671311378479004
1729111313811,9i,4.82030552124028,1.2s : 0.4s,-46.7710859091408,0.018544916679161583,0.0343390670852619,0.013069193224279749,-0.04552970454096794,0.007205418311059475,-0.006894471123814583,-0.008919298648834229,-0.00029715895652770996,-0.00954785943031311,-0.3590355173064205,1.8934729997524753,2.9001127548887626,0.8879170417785645,0.3513714075088501,0.2968863248825073
1729111313821,9i,4.82030552124028,1.2s : 0.4s,-46.7710859091408,0.01860231797868007,0.03364418770505303,0.011588186486103644,-0.04125959053635597,0.007939118891954422,-0.0005944974254816771,-0.00844883918762207,-0.006132602691650391,-0.005029350519180298,-0.35896105273746876,1.8937020657194499,2.9005646348375778,0.8878738880157471,0.3513016998767853,0.2970980107784271
1729111313831,9i,4.82030552124028,1.2s : 0.4s,-46.7710859091408,0.01865752501097234,0.032901118806808474,0.009103117913744262,-0.039379533380270004,0.006838212721049786,0.0010095578618347645,-0.002205193042755127,-0.008632063865661621,-0.001868516206741333,-0.35886010033350896,1.893927493468104,2.900961892662119,0.8878405690193176,0.3512071669101715,0.2973094582557678
1729111313841,9i,4.82030552124028,1.2s : 0.4s,-46.7710859091408,0.018708082812281587,0.03207228806338494,0.0057304134079314,-0.03668814152479172,0.0026261569000780582,-0.0015689143911004066,0.00018453598022460938,-0.0055255889892578125,0.0015071332454681396,-0.3587364607396666,1.8941486003496155,2.901357050760799,0.8878160119056702,0.3510914146900177,0.2975195646286011
1729111313851,9i,4.82030552124028,1.2s : 0.4s,-46.7710859091408,0.01875523601078171,0.031372089119285906,0.005911873271446823,-0.03726471588015556,0.005810054950416088,-0.0032481709495186806,-0.000521540641784668,-0.005780577659606934,0.0011239051818847656,-0.3585851232926345,1.894355069051139,2.901748025715005,0.8878049254417419,0.3509497046470642,0.2977197468280792
1729111313861,9i,4.82030552124028,1.2s : 0.4s,-46.7710859091408,0.018801840206788607,0.030939192641253964,0.013640560797931502,-0.04022801294922829,0.007182914298027754,-0.0011317566968500614,-0.0013357996940612793,-0.012503117322921753,0.0052870213985443115,-0.3584150974177489,1.8946287490334415,2.9021740570741956,0.887779951095581,0.35079050064086914,0.2979816794395447
1729111313871,9i,4.82030552124028,1.2s : 0.4s,-46.7710859091408,0.018845010855950403,0.030489518146733566,0.010501029285219628,-0.039410825818777084,0.0029353939462453127,0.00015691365115344524,0.0008474588394165039,-0.009452402591705322,0.004495054483413696,-0.35825336029178073,1.89486456411809,2.90260266821001,0.8877636194229126,0.3506390154361725,0.29820913076400757
1729111313881,9i,4.82030552124028,1.2s : 0.4s,-46.7710859091408,0.018880363753100704,0.030222057112881617,0.005133848617240152,-0.04144041985273361,-0.0032455367036163807,-0.002455114619806409,0.0038028359413146973,-0.00343891978263855,0.0002620518207550049,-0.35813766199712094,1.8949773718275336,2.9029989643832668,0.8877684473991394,0.3505306541919708,0.29832223057746887
1729111313891,9i,4.82030552124028,1.2s : 0.4s,-46.7710859091408,0.018912970600026897,0.029714581579124412,0.008159011271471643,-0.03768443316221237,0.0014527681050822139,0.004698501899838448,0.0007690787315368652,-0.007928162813186646,0.001766979694366455,-0.3580432577672609,1.8950410359795322,2.9033660897053735,0.8877808451652527,0.3504422605037689,0.2983892858028412
1729111313901,9i,4.82030552124028,1.2s : 0.4s,-46.7710859091408,0.018946616832271314,0.02927389402704044,0.00521569559121565,-0.03778349980711937,0.005486657842993736,0.006601597182452679,-0.0030975341796875,-0.0019338130950927734,0.003724128007888794,-0.35785030353790265,1.8951837239455307,2.903723573176246,0.8878023028373718,0.35026153922080994,0.2985375225543976
1729111313911,9i,4.82030552124028,1.2s : 0.4s,-46.7710859091408,0.01898075501289128,0.02857206801331541,0.0036397579889922787,-0.03294094279408455,0.008247246034443378,0.004345133900642395,-0.0030956268310546875,-0.0009192824363708496,0.00167924165725708,-0.35764694955488163,1.8953647086617345,2.90406157428779,0.8878157734870911,0.3500710427761078,0.2987208962440491
1729111313921,9i,4.82030552124028,1.2s : 0.4s,-46.7710859091408,0.019014593392454385,0.02798063194632432,0.0065557964090725545,-0.03353296220302582,0.0052205640822649,0.006082313600927591,-0.0015169978141784668,-0.0047082602977752686,0.004302263259887695,-0.35745649743498525,1.8955486754981232,2.9043855698785492,0.8878238797187805,0.34989264607429504,0.2989054322242737
1729111313931,9i,4.82030552124028,1.2s : 0.4s,-46.7710859091408,0.019046881454770428,0.027195203654185846,0.007216713631419224,-0.0296854916960001,0.0023467466235160828,0.010182715952396393,-0.0011551380157470703,0.0021904408931732178,0.006778538227081299,-0.35722656684129817,1.8956867410231195,2.9046729899109787,0.8878585696220398,0.3496772348880768,0.2990536093711853
1729111313941,9i,4.82030552124028,1.2s : 0.4s,-46.7710859091408,0.01907713011667336,0.024106782121320582,0.013606761316357283,-0.010705942288041115,0.008124208077788353,0.0058494871482253075,-0.0034093260765075684,0.012978196144104004,-0.0022554099559783936,-0.3570151512914233,1.8958328540245006,2.9048606787933444,0.8878852128982544,0.34947916865348816,0.29920706152915955
1729111313951,9i,4.82030552124028,1.2s : 0.4s,-46.7710859091408,0.019108909493673963,0.022077675523769127,0.010321934373659967,-0.007864216342568398,0.008170769549906254,0.009141320362687111,-0.005707979202270508,0.008448004722595215,-0.0016101300716400146,-0.356866801548517,1.8959638640489507,2.904932868342968,0.8878950476646423,0.34934017062187195,0.2993398904800415
1729111313961,9i,4.82030552124028,1.2s : 0.4s,-46.7710859091408,0.019138987546288167,0.02020068663411593,0.0020457218845701636,-0.0026124627329409122,0.0074221547693014145,0.013058830052614212,-0.0015994906425476074,0.0009808838367462158,-0.0008151531219482422,-0.35672617234120646,1.8960304021339836,2.9049413472460066,0.8879215717315674,0.34920838475227356,0.29941463470458984
1729111313971,9i,4.82030552124028,1.2s : 0.4s,-46.7710859091408,0.0191672864512866,0.018207862232380686,0.006954768510142871,0.002475373214110732,0.004777058959007263,0.013725053519010544,-0.0020676255226135254,0.0009839832782745361,-0.0065670013427734375,-0.35656003099861533,1.8960774701259269,2.9049054654611473,0.8879624605178833,0.34905269742012024,0.2994749844074249
1729111313981,9i,4.82030552124028,1.2s : 0.4s,-46.7710859091408,0.01919301613819096,0.016338686855316396,0.008470207956936636,0.005478353705257177,0.009013082832098007,0.014265142381191254,-0.00155717134475708,0.002194821834564209,-0.008031338453292847,-0.3564403086973434,1.8961306172652828,2.904822531069836,0.8879861831665039,0.34894049167633057,0.2995355427265167
1729111313991,9i,4.82030552124028,1.2s : 0.4s,-46.7710859091408,0.019217140087511887,0.014653996556360974,0.010455226415561467,0.007120991591364145,0.00786614790558815,0.01550337951630354,-0.0017009377479553223,-0.002293139696121216,-0.010057836771011353,-0.35632827471637973,1.8961819982104242,2.9046978830408667,0.8880077600479126,0.3488354980945587,0.29959362745285034
1729111314001,9i,4.82030552124028,1.2s : 0.4s,-46.7710859091408,0.019236595179068346,0.013031293763772734,0.01100086470669765,0.011032642796635628,0.004870624281466007,0.017847226932644844,0.00223386287689209,-0.006930887699127197,-0.008245706558227539,-0.3561808078745799,1.896236347019787,2.904570682885786,0.88804030418396,0.348697304725647,0.2996583580970764
1729111314011,9i,4.82030552124028,1.2s : 0.4s,-46.7710859091408,0.019248873627271908,0.0116186218861027,0.009533963818507804,0.012308296747505665,0.0007902176585048437,0.01853678748011589,0.0040094852447509766,-0.0012173950672149658,-0.008563786745071411,-0.35605966787410337,1.8962356976052468,2.9044081593519406,0.888080358505249,0.34858375787734985,0.2996712327003479
1729111314021,9i,4.82030552124028,1.2s : 0.4s,-46.7710859091408,0.019256266900935893,0.010253219735224597,0.010353279381701703,0.01669345609843731,0.000320968683809042,0.016796143725514412,0.00167006254196167,0.003898113965988159,-0.009444892406463623,-0.3560231381510517,1.8961579020401547,2.9041988716572082,0.8881160020828247,0.3485495150089264,0.2996063232421875
1729111314031,9i,4.82030552124028,1.2s : 0.4s,-46.7710859091408,0.019261418245648754,0.009224008440344253,0.01196669803630454,0.021368637681007385,0.0022222883999347687,0.01852267235517502,-5.6803226470947266e-05,0.001020669937133789,-0.011922955513000488,-0.35598360127192824,1.8960911028961929,2.9039450379778815,0.8881489038467407,0.3485124707221985,0.2995513379573822
1729111314041,9i,4.82030552124028,1.2s : 0.4s,-46.7710859091408,0.01926245958242025,0.008724151856268066,0.01301708941472685,0.020884741097688675,-0.0014363625086843967,0.019816968590021133,0.0028121471405029297,-0.00442194938659668,-0.011915653944015503,-0.35588086767690924,1.896001307661845,2.903665598264636,0.8882097601890564,0.34841617941856384,0.2994830310344696
1729111314051,9i,4.82030552124028,1.2s : 0.4s,-46.7710859091408,0.0192579122223548,0.008698919030614994,0.014040379931660983,0.016355767846107483,-0.006049579009413719,0.020270170643925667,0.005032062530517578,-0.006590813398361206,-0.011330127716064453,-0.35576912832628416,1.895843496077293,2.9034075037998486,0.8882938027381897,0.3483114242553711,0.29935526847839355
1729111314061,9i,4.82030552124028,1.2s : 0.4s,-46.7710859091408,0.0192482569867051,0.008797913662181236,0.01066526141162424,0.015723533928394318,-0.007780367508530617,0.018199829384684563,0.004646480083465576,-0.002127528190612793,-0.009361177682876587,-0.35566320974292814,1.895640711547366,2.903153240389914,0.8883893489837646,0.3482121527194977,0.2991868555545807
1729111314071,9i,4.82030552124028,1.2s : 0.4s,-46.7710859091408,0.01923786156124813,0.009025782499738472,0.00980506027694069,0.01558678224682808,-0.0053657228127121925,0.01710696890950203,0.0008710622787475586,-0.00043576955795288086,-0.00975656509399414,-0.3555513852874182,1.8954362894996761,2.9029131445521257,0.8884875178337097,0.34810730814933777,0.2990177273750305
1729111314081,9i,4.82030552124028,1.2s : 0.4s,-46.7710859091408,0.019227613790695312,0.009993366861372291,0.010144770721235053,0.02467614971101284,-0.0037055087741464376,0.023564334958791733,0.0004506707191467285,-0.002077430486679077,-0.009919553995132446,-0.35538190123996444,1.8952379365635823,2.902630228681004,0.8886026740074158,0.34794843196868896,0.29886025190353394
1729111314091,9i,4.82030552124028,1.2s : 0.4s,-46.7710859091408,0.019216286745723878,0.011107124718196986,0.013982605107695235,0.029881564900279045,-0.007361052557826042,0.020297035574913025,0.0005797743797302246,0.0020531415939331055,-0.013818889856338501,-0.3552565668704624,1.894991265016671,2.9022609512468973,0.8887176513671875,0.3478309214115143,0.2986549437046051
1729111314101,9i,4.82030552124028,1.2s : 0.4s,-46.7710859091408,0.019203817883036052,0.014784046475881595,0.014891070981068467,0.042463138699531555,-0.01017414964735508,0.020973745733499527,-4.392862319946289e-05,0.007922947406768799,-0.01260828971862793,-0.355212919790292,1.8946880709183593,2.901804462155861,0.8888227343559265,0.347790002822876,0.29839035868644714
1729111314111,9i,4.82030552124028,1.2s : 0.4s,-46.7710859091408,0.019191930538772255,0.01769955101479068,0.012647457423632798,0.04154248163104057,-0.0096149742603302,0.02446548268198967,-0.000255584716796875,0.0010765790939331055,-0.012598961591720581,-0.3551589830892622,1.894344748183486,2.901269164290419,0.8889429569244385,0.34773942828178406,0.29809117317199707
1729111314121,9i,4.82030552124028,1.2s : 0.4s,-46.7710859091408,0.01918084962126648,0.01892409066020652,0.008871818697027663,0.03581508621573448,-0.010526574216783047,0.025324083864688873,0.0003916025161743164,-0.001940011978149414,-0.00864824652671814,-0.35502382634270085,1.8940033641736487,2.900766257500532,0.8890891671180725,0.3476127088069916,0.297802597284317
1729111314131,9i,4.82030552124028,1.2s : 0.4s,-46.7710859091408,0.019169583412605842,0.019887781519537087,0.007993963653361679,0.033409055322408676,-0.010420269332826138,0.024712257087230682,0.0015222430229187012,-0.0029015541076660156,-0.007291585206985474,-0.3548612717968879,1.8936758355471819,2.90030508216129,0.8892400860786438,0.3474602699279785,0.2975292503833771
1729111314141,9i,4.82030552124028,1.2s : 0.4s,-46.7710859091408,0.019156658968010425,0.020484061414056953,0.006311917870254138,0.027850769460201263,-0.016019299626350403,0.023043254390358925,0.002694547176361084,-0.0010239779949188232,-0.005615264177322388,-0.3547140411910817,1.893368363410396,2.899906188194538,0.8893800973892212,0.3473222255706787,0.29727205634117126
1729111314151,9i,4.82030552124028,1.2s : 0.4s,-46.7710859091408,0.01914008118458292,0.019784704703813438,0.005282390495138599,0.005708983168005943,-0.012824304401874542,0.020105186849832535,0.004286050796508789,0.0025345683097839355,-0.0017633438110351562,-0.35458041687807523,1.8930698134341926,2.899589830978779,0.8895128965377808,0.34719690680503845,0.29702121019363403
1729111314161,9i,4.82030552124028,1.2s : 0.4s,-46.7710859091408,0.019118983402679948,0.019018476075199152,0.007392395631005338,-0.0008506486192345619,-0.024833297356963158,0.017595691606402397,0.006029188632965088,0.0005659162998199463,0.004239827394485474,-0.35440178859290683,1.8928174301262548,2.899509243233226,0.8896466493606567,0.3470293879508972,0.296816349029541
1729111314171,9i,4.82030552124028,1.2s : 0.4s,-46.7710859091408,0.019091982661761746,0.01875294457014423,0.011261871190710775,0.005015629343688488,-0.027341153472661972,0.01714671589434147,0.006409764289855957,0.0036107897758483887,-0.008526831865310669,-0.3542788911300547,1.8923851569301582,2.899349921553833,0.8898152112960815,0.346914142370224,0.29644519090652466
1729111314181,9i,4.82030552124028,1.2s : 0.4s,-46.7710859091408,0.019066186176223396,0.02047264717984039,0.011162967759843807,0.035477664321660995,-0.03105679526925087,0.01915101148188114,-0.00040537118911743164,0.01067081093788147,-0.0032528936862945557,-0.35421893664261606,1.8919553515270136,2.8991147274149145,0.8899623155593872,0.3468579053878784,0.29606929421424866
1729111314191,9i,4.82030552124028,1.2s : 0.4s,-46.7710859091408,0.019048191490606773,0.022297444807448063,0.01604304231861881,0.047122202813625336,-0.015748899430036545,0.02063748799264431,-0.006590366363525391,0.009040266275405884,-0.011498689651489258,-0.35418413210776717,1.8914607259421738,2.898555008684378,0.8901200890541077,0.3468252420425415,0.29563286900520325
1729111314201,9i,4.82030552124028,1.2s : 0.4s,-46.7710859091408,0.01904136320047575,0.026396828355350413,0.01360366252441679,0.059816695749759674,-0.01183858048170805,0.022068405523896217,-0.009798407554626465,0.009409785270690918,0.0007118880748748779,-0.35414806270989907,1.8910752297616595,2.897935654065326,0.890245795249939,0.34679141640663147,0.2952935993671417
1729111314211,9i,4.82030552124028,1.2s : 0.4s,-46.7710859091408,0.019034598805131763,0.027669877775297846,0.006030339663686111,0.05183120444417,-0.015552978962659836,0.023340996354818344,-0.00024002790451049805,0.005837053060531616,-0.0014953911304473877,-0.35408530279588707,1.890701665053599,2.8972851171317275,0.8903768062591553,0.34673255681991577,0.2949678897857666
1729111314221,9i,4.82030552124028,1.2s : 0.4s,-46.7710859091408,0.01902161442332272,0.028752376360739025,0.00813527437675046,0.04861677065491676,-0.026735326275229454,0.018743846565485,0.005673527717590332,0.005299746990203857,0.0024303197860717773,-0.35403998119578883,1.890263052180859,2.89671625310635,0.8905210494995117,0.3466900587081909,0.2945822775363922
1729111314231,9i,4.82030552124028,1.2s : 0.4s,-46.7710859091408,0.019005114769047683,0.029725163961417736,0.0063651700945419965,0.050427455455064774,-0.02586953341960907,0.015411167405545712,0.0036763548851013184,0.00517505407333374,-0.00046756863594055176,-0.3540427337749387,1.8897992666418375,2.8961511494172028,0.890656590461731,0.34669262170791626,0.2941689193248749
1729111314241,9i,4.82030552124028,1.2s : 0.4s,-46.7710859091408,0.018991552524051745,0.03030182457480345,0.006638922977877499,0.045865193009376526,-0.02226201444864273,0.016141138970851898,-0.001937270164489746,0.006112337112426758,0.0017209351062774658,-0.35403587155457694,1.889397164739785,2.895620427825114,0.8907771706581116,0.3466861844062805,0.293811559677124
1729111314251,9i,4.82030552124028,1.2s : 0.4s,-46.7710859091408,0.018980022722935665,0.03054413110252178,0.009568359424037966,0.04204235598444939,-0.023836344480514526,0.01208557840436697,-0.0019080042839050293,0.009323328733444214,0.000994265079498291,-0.3540614025895667,1.8889484614446792,2.895112624847169,0.8909006118774414,0.3467101454734802,0.2934090793132782
1729111314261,9i,4.82030552124028,1.2s : 0.4s,-46.7710859091408,0.0189693678920459,0.031016594350931563,0.008997800021602961,0.04652418941259384,-0.02470559999346733,0.010783558711409569,-0.0009909868240356445,0.008577138185501099,-0.0025320053100585938,-0.3541573271514961,1.8885337338876707,2.8946265634235955,0.8909904360771179,0.3468001186847687,0.29302912950515747
1729111314271,9i,4.82030552124028,1.2s : 0.4s,-46.7710859091408,0.018963447228137382,0.030212790671647956,0.0085539837512209,0.030105402693152428,-0.01563349738717079,0.007592725567519665,-0.00419694185256958,0.006230145692825317,-0.0040916502475738525,-0.35428438324808464,1.8881246016787738,2.894166789091047,0.8910682797431946,0.3469192683696747,0.2926507890224457
1729111314281,9i,4.82030552124028,1.2s : 0.4s,-46.7710859091408,0.018960099208015006,0.03156326324265856,0.00808443991593819,0.06033654138445854,-0.02284586988389492,0.01144631952047348,-0.002659440040588379,0.006440401077270508,-0.004099607467651367,-0.35440190788218007,1.887771104330934,2.8936665888712043,0.8911330103874207,0.34702950716018677,0.29232311248779297
1729111314291,9i,4.82030552124028,1.2s : 0.4s,-46.7710859091408,0.01896067815568886,0.03251347661492275,0.013013656357878486,0.06247226521372795,-0.013155912980437279,0.0065719690173864365,-0.0047817230224609375,0.011334449052810669,-0.004245072603225708,-0.35455259944051437,1.8873876509397343,2.8930378234648337,0.8911952972412109,0.3471708297729492,0.2919650673866272
1729111314301,9i,4.82030552124028,1.2s : 0.4s,-46.7710859091408,0.01896542739555527,0.04067639384403819,0.011338136921997836,0.08940108120441437,-0.016547448933124542,0.008863885886967182,-0.005027592182159424,0.009969472885131836,-0.0019713640213012695,-0.35472273509631025,1.886980011298419,2.892246111830879,0.8912581205368042,0.34733036160469055,0.29158341884613037
1729111314311,9i,4.82030552124028,1.2s : 0.4s,-46.7710859091408,0.018971460931164065,0.05128625971900235,0.015278171376690792,0.11338337510824203,-0.018592579290270805,0.00423477916046977,-0.003271818161010742,0.013399302959442139,-0.006570875644683838,-0.3550029227551448,1.8864564641096226,2.891213198367596,0.8913180232048035,0.3475930988788605,0.29108649492263794
1729111314321,9i,4.82030552124028,1.2s : 0.4s,-46.7710859091408,0.0189822378282375,0.06571679486190404,0.023596570652532452,0.14875894784927368,-0.01335760299116373,0.004884590394794941,-0.007342398166656494,0.020579367876052856,-0.008909374475479126,-0.35540084053892845,1.8858585447479597,2.8898705233245767,0.8913602828979492,0.34796619415283203,0.2905105948448181
1729111314331,9i,4.82030552124028,1.2s : 0.4s,-46.7710859091408,0.01900024820428503,0.08031213899488232,0.02125854124087184,0.17133988440036774,-0.0023302522022277117,0.010130684822797775,-0.009021222591400146,0.014580905437469482,-0.0125674307346344,-0.355891040255904,1.8852456079583808,2.8882361056118575,0.8913760185241699,0.3484257161617279,0.2899114489555359
1729111314341,9i,4.82030552124028,1.2s : 0.4s,-46.7710859091408,0.019025561558691693,0.09250773591042032,0.016095453068854047,0.18067187070846558,0.005062682554125786,0.012661486864089966,-0.008378326892852783,0.005225330591201782,-0.012710750102996826,-0.3563489377067114,1.8846228730544115,2.8863910205376544,0.891404390335083,0.3488548696041107,0.28930696845054626
1729111314351,9i,4.82030552124028,1.2s : 0.4s,-46.7710859091408,0.019058063540689923,0.10104189654998895,0.010465505775926677,0.17984549701213837,0.004928636830300093,0.015763603150844574,-0.007783293724060059,-0.003695577383041382,-0.005940526723861694,-0.35681538162007537,1.8840340620222342,2.884518865066721,0.8914199471473694,0.34929198026657104,0.28873196244239807
1729111314361,9i,4.82030552124028,1.2s : 0.4s,-46.7710859091408,0.019087055307648936,0.10844165890610243,0.00504615908225022,0.18806800246238708,0.0013139282818883657,0.020564483478665352,0.0005249381065368652,0.0015250742435455322,-0.004781454801559448,-0.3572202432570401,1.8833816971210866,2.88258680267499,0.8914735317230225,0.34967130422592163,0.28810688853263855
1729111314371,9i,4.82030552124028,1.2s : 0.4s,-46.7710859091408,0.01911539880421066,0.1147045554835337,0.004295710340581146,0.19684205949306488,0.004979769699275494,0.01644969917833805,-0.0017876029014587402,0.0017006099224090576,-0.003516465425491333,-0.35771688783315747,1.8827244704776442,2.8805799207841494,0.8914971351623535,0.35013654828071594,0.2874675393104553
1729111314381,9i,4.82030552124028,1.2s : 0.4s,-46.7710859091408,0.019140770440800974,0.11558905839531995,0.014189618624074609,0.1826910823583603,-0.0036126533523201942,0.023882316425442696,0.0017504692077636719,-0.01242673397064209,0.006622493267059326,-0.3581542414476921,1.8820502583612557,2.878587670809595,0.8915446996688843,0.3505461812019348,0.2868194282054901
1729111314391,9i,4.82030552124028,1.2s : 0.4s,-46.7710859091408,0.019159005623991684,0.11575853475552143,0.01739441654940125,0.17355124652385712,-0.013839413411915302,0.020130954682826996,0.005774319171905518,-0.014549881219863892,0.0075844526290893555,-0.3585477301837809,1.8813097060474961,2.8767162609178123,0.891625702381134,0.35091468691825867,0.2861170172691345
1729111314401,9i,4.82030552124028,1.2s : 0.4s,-46.7710859091408,0.019175859642673626,0.11660176703674704,0.01518520634052209,0.18338070809841156,-0.01994098350405693,0.023185335099697113,0.000974118709564209,-0.013201296329498291,0.007440924644470215,-0.35901410805781525,1.8804656626149836,2.8748241328534436,0.8917109370231628,0.35135138034820557,0.2853144407272339
1729111314411,9i,4.82030552124028,1.2s : 0.4s,-46.7710859091408,0.019197674503531145,0.11690606845216144,0.015579310309080456,0.17683452367782593,-0.019472220912575722,0.01895187236368656,-0.004647374153137207,-0.013260304927825928,0.0067291259765625,-0.3594520242789579,1.8795539678061879,2.872902906807058,0.8918240070343018,0.3517613410949707,0.2844545841217041
1729111314421,9i,4.82030552124028,1.2s : 0.4s,-46.7710859091408,0.0192332061688933,0.11790250207093873,0.019559505709350514,0.18734443187713623,-0.007165753748267889,0.02514532022178173,-0.012918174266815186,-0.013666868209838867,0.005376964807510376,-0.35983742527046114,1.8787206617635122,2.8709785860442323,0.8919312357902527,0.35212206840515137,0.2836701571941376
1729111314431,9i,4.82030552124028,1.2s : 0.4s,-46.7710859091408,0.019281126873890265,0.11950887746196223,0.025164076166802503,0.19449181854724884,-0.00019395328126847744,0.031866006553173065,-0.0104750394821167,-0.02230668067932129,0.005090802907943726,-0.3601181591572944,1.8779635072422636,2.8689297245574905,0.8920515775680542,0.3523848056793213,0.2829648554325104
1729111314441,9i,4.82030552124028,1.2s : 0.4s,-46.7710859091408,0.019346948516304297,0.12200588062554789,0.035094107042788904,0.19997739791870117,0.0047379545867443085,0.035960353910923004,-0.009104728698730469,-0.032519906759262085,0.009547561407089233,-0.3603845028600969,1.877258427918766,2.866815456005073,0.8921613693237305,0.352634072303772,0.282307505607605
1729111314451,9i,4.82030552124028,1.2s : 0.4s,-46.7710859091408,0.019409135837818135,0.1315243525837566,0.03464504403408741,0.22541870176792145,-0.002798480447381735,0.042452968657016754,0.00048285722732543945,-0.03223544359207153,0.012685507535934448,-0.36063494543026015,1.876490458227966,2.864538772381912,0.8922936916351318,0.3528684079647064,0.2815956771373749
1729111314461,9i,4.82030552124028,1.2s : 0.4s,-46.7710859091408,0.019466953785286213,0.14363947045890757,0.030793594422006007,0.25309106707572937,-0.008378068916499615,0.038850512355566025,0.002682030200958252,-0.0285336971282959,0.011264115571975708,-0.3608861898173784,1.8755996697326973,2.862000674927721,0.8924597501754761,0.35310348868370056,0.28077417612075806
1729111314471,9i,4.82030552124028,1.2s : 0.4s,-46.7710859091408,0.01952060391923557,0.1622379803342765,0.02312942067326178,0.30260685086250305,-0.012091359123587608,0.046874117106199265,0.0020717382431030273,-0.018621385097503662,0.013561785221099854,-0.36118615248317754,1.8745311973552021,2.859074507299514,0.8926581740379333,0.3533841073513031,0.2797887623310089
1729111314481,9i,4.82030552124028,1.2s : 0.4s,-46.7710859091408,0.019573588178686756,0.18858769961573002,0.011255286596383994,0.37027138471603394,6.650364957749844e-05,0.043748099356889725,-0.0032596588134765625,0.0012772679328918457,0.010696947574615479,-0.36165780029830674,1.87328374516298,2.8555387434867496,0.892846941947937,0.35382527112960815,0.2786252200603485
1729111314491,9i,4.82030552124028,1.2s : 0.4s,-46.7710859091408,0.0196316631222719,0.2225205774658417,0.016939264106351916,0.44700929522514343,0.022330619394779205,0.04921610280871391,-0.00917428731918335,0.005473405122756958,0.01314583420753479,-0.3623595033019882,1.8719567434886906,2.8512251951133347,0.8929787874221802,0.3544814884662628,0.2773665189743042
1729111314501,9i,4.82030552124028,1.2s : 0.4s,-46.7710859091408,0.019691502654574807,0.2521827369679897,0.030028888667238157,0.4757671654224396,0.02874484285712242,0.050902415066957474,-0.006023883819580078,0.0016724169254302979,0.029370903968811035,-0.36317720059674746,1.870595044503558,2.846386748698126,0.8930784463882446,0.355245977640152,0.27606457471847534
1729111314511,9i,4.82030552124028,1.2s : 0.4s,-46.7710859091408,0.019747270903172087,0.2801373625849736,0.03445111369995209,0.5113231539726257,0.029235174879431725,0.05217457562685013,-0.0015164613723754883,0.005647122859954834,0.0339512825012207,-0.36401820797055506,1.869135912005776,2.841230414081043,0.8931943774223328,0.35603201389312744,0.2746732532978058
1729111314521,9i,4.82030552124028,1.2s : 0.4s,-46.7710859091408,0.019799022960759024,0.30863449086673866,0.03748661570343155,0.5557196736335754,0.028453802689909935,0.05393918603658676,-0.0007863640785217285,0.0011335313320159912,0.03746122121810913,-0.3650930225596865,1.8673991945357076,2.8355668501717513,0.8933038115501404,0.35703617334365845,0.27300965785980225
1729111314531,9i,4.82030552124028,1.2s : 0.4s,-46.7710859091408,0.019853006261067736,0.334941628622317,0.044475711773572034,0.5871433615684509,0.0429946631193161,0.049932125955820084,-0.005850553512573242,0.013046324253082275,0.04211476445198059,-0.36625763804660116,1.8656053472250105,2.8295638595142614,0.8933935165405273,0.3581238090991974,0.271285742521286
1729111314541,9i,4.82030552124028,1.2s : 0.4s,-46.7710859091408,0.019923997476665692,0.36654304482690836,0.047096832890696466,0.6513151526451111,0.07319038361310959,0.04501966014504433,-0.014682471752166748,0.02152085304260254,0.039235055446624756,-0.3676081801598502,1.8638449294869681,2.8230741226478173,0.8934059739112854,0.3593844473361969,0.2695726454257965
1729111314551,9i,4.82030552124028,1.2s : 0.4s,-46.7710859091408,0.0200346469018382,0.40685620678749074,0.052972500620259565,0.7361726760864258,0.11594623327255249,0.06385815888643265,-0.021661758422851562,0.005030453205108643,0.048078566789627075,-0.3691081967669,1.8621818264460308,2.8158044035149987,0.8933355808258057,0.3607838451862335,0.2679312527179718
1729111314561,9i,4.82030552124028,1.2s : 0.4s,-46.7710859091408,0.02017830048258517,0.4430354820421986,0.06229685852119408,0.7737775444984436,0.1350698620080948,0.052534133195877075,-0.017947137355804443,0.0065607428550720215,0.05929380655288696,-0.37067464290813057,1.8605185645089652,2.807827802581454,0.8932373523712158,0.3622443377971649,0.2662832736968994
1729111314571,9i,4.82030552124028,1.2s : 0.4s,-46.7710859091408,0.02035652179278329,0.46941190772516433,0.07359251087142171,0.7757061719894409,0.15568245947360992,0.046542756259441376,-0.018175899982452393,0.014537036418914795,0.0698152482509613,-0.3724311174291312,1.8590215380870923,2.799669109741514,0.8930233120918274,0.3638809621334076,0.2647644281387329
1729111314581,9i,4.82030552124028,1.2s : 0.4s,-46.7710859091408,0.020554223405689458,0.4944737723806752,0.08549191664107499,0.8042488694190979,0.1809539943933487,0.041421227157115936,-0.012131810188293457,0.01975908875465393,0.08228769898414612,-0.37423001541827816,1.857685183122144,2.791409488796296,0.8927472829818726,0.36555594205856323,0.26338520646095276
1729111314591,9i,4.82030552124028,1.2s : 0.4s,-46.7710859091408,0.020811891310179288,0.5180526692186972,0.10112155383113859,0.8284057974815369,0.2138221561908722,0.02651461772620678,-0.01933234930038452,0.01872369647026062,0.0974743664264679,-0.37622841478974517,1.8565275149284992,2.782885698493323,0.8923489451408386,0.36741530895233154,0.26214510202407837
1729111314601,9i,4.82030552124028,1.2s : 0.4s,-46.7710859091408,0.021166479863967795,0.5387263267908893,0.11791888002758588,0.8428041934967041,0.24176056683063507,0.01315913163125515,-0.028178513050079346,0.023333579301834106,0.11209985613822937,-0.37837663372759434,1.855622619558375,2.7742493021097117,0.8918259739875793,0.3694124221801758,0.26111504435539246
1729111314611,9i,4.82030552124028,1.2s : 0.4s,-46.7710859091408,0.02163154263351952,0.5610224106796572,0.1242542358885803,0.8720762729644775,0.28139710426330566,-0.002856319770216942,-0.03334391117095947,0.021598905324935913,0.11773183941841125,-0.3807207176135632,1.8549701298090133,2.765406935231504,0.8911627531051636,0.37158969044685364,0.26028966903686523
1729111314621,9i,4.82030552124028,1.2s : 0.4s,-46.7710859091408,0.02225319944662065,0.5848152234229611,0.13984835540620058,0.8999886512756348,0.3265312910079956,-0.012937983497977257,-0.04624330997467041,0.015422552824020386,0.13107731938362122,-0.38328224812928374,1.854591958691767,2.7562835293061725,0.8903444409370422,0.3739665746688843,0.2596852779388428
1729111314631,9i,4.82030552124028,1.2s : 0.4s,-46.7710859091408,0.023004958997615732,0.6113942498031183,0.14355348561091724,0.9355242848396301,0.3711089789867401,-0.007286421954631805,-0.05035388469696045,0.010064870119094849,0.13405516743659973,-0.3859510502112875,1.8545099969374073,2.746778776334365,0.8894044160842896,0.3764404058456421,0.25933200120925903
1729111314641,9i,4.82030552124028,1.2s : 0.4s,-46.7710859091408,0.023894311349644853,0.6344676316998109,0.151058313883178,0.9392595887184143,0.4217385947704315,-0.021348977461457253,-0.06111502647399902,0.019656866788864136,0.1367376148700714,-0.38869288876862584,1.8548397725280505,2.7371513857028944,0.8883246779441833,0.3789791464805603,0.2593350410461426
1729111314651,9i,4.82030552124028,1.2s : 0.4s,-46.7710859091408,0.024913412667404208,0.6646373690072892,0.1568767290013596,0.9904197454452515,0.47553011775016785,-0.01918136328458786,-0.06803977489471436,0.017250359058380127,0.14029726386070251,-0.3916082746427959,1.8555118645232604,2.7271475670905696,0.8870857954025269,0.3816754221916199,0.2596205174922943
1729111314661,9i,4.82030552124028,1.2s : 0.4s,-46.7710859091408,0.026098308563902214,0.6932747486456409,0.1754742950691753,1.0016013383865356,0.5384214520454407,-0.02002984657883644,-0.06892359256744385,0.023494631052017212,0.15965202450752258,-0.3945945727547398,1.8566939945407228,2.7169030608394142,0.8856810331344604,0.38443395495414734,0.2603464424610138
1729111314671,9i,4.82030552124028,1.2s : 0.4s,-46.7710859091408,0.027457414452983404,0.7222403249420819,0.19123170368951153,1.0238968133926392,0.5883945822715759,-0.021493088454008102,-0.07444620132446289,0.021835416555404663,0.17478713393211365,-0.3976334217077947,1.8582946766471369,2.7064380820598206,0.8841386437416077,0.3872374892234802,0.2614313066005707
1729111314681,9i,4.82030552124028,1.2s : 0.4s,-46.7710859091408,0.0289684735961563,0.7472441454092006,0.19627272309474325,1.027326226234436,0.6273755431175232,-0.033727649599313736,-0.0804329514503479,0.017837047576904297,0.17814421653747559,-0.4008303940934725,1.860249553968148,2.695798169856102,0.8824350237846375,0.39018306136131287,0.2628045082092285
1729111314691,9i,4.82030552124028,1.2s : 0.4s,-46.7710859091408,0.030559483252141115,0.7640106495298817,0.19401471182911936,1.0082833766937256,0.6493473052978516,-0.04504571855068207,-0.08080017566680908,0.034794777631759644,0.1729229986667633,-0.4041249934337359,1.8625588460825564,2.6854898837400656,0.8805898427963257,0.3932143747806549,0.2644704282283783
1729111314701,9i,4.82030552124028,1.2s : 0.4s,-46.7710859091408,0.032203752341513035,0.7753457274043312,0.1854060261668667,0.9988688826560974,0.657979428768158,-0.043708279728889465,-0.08391577005386353,0.04125693440437317,0.1600981056690216,-0.40742148811033085,1.8650415564966356,2.6752960774600067,0.8786852359771729,0.3962431848049164,0.2662785053253174
1729111314711,9i,4.82030552124028,1.2s : 0.4s,-46.7710859091408,0.03389392203217304,0.7862649761138164,0.17729459380428206,1.0028413534164429,0.6766589879989624,-0.06089422479271889,-0.1005321741104126,0.0468064546585083,0.13833224773406982,-0.4108359743513371,1.867603690496849,2.6651648962205794,0.8767011165618896,0.39937588572502136,0.2681316137313843
1729111314721,9i,4.82030552124028,1.2s : 0.4s,-46.7710859091408,0.035627636469368125,0.8054944021669708,0.18289094845479736,1.0446772575378418,0.7170889973640442,-0.05319955199956894,-0.12327080965042114,0.06521019339561462,0.11832597851753235,-0.4143821162308005,1.8703657877359467,2.6548348256132424,0.8745985627174377,0.4026244282722473,0.27013251185417175
1729111314731,9i,4.82030552124028,1.2s : 0.4s,-46.7710859091408,0.037410849823539365,0.8365691629726847,0.19498466878682089,1.1048048734664917,0.784770131111145,-0.041456177830696106,-0.13730931282043457,0.07687407732009888,0.11513274908065796,-0.41802898820965634,1.8733866785860303,2.6439204126761466,0.8723711967468262,0.40595996379852295,0.2723340094089508
1729111314741,9i,4.82030552124028,1.2s : 0.4s,-46.7710859091408,0.0392769250640799,0.8745531641434725,0.20475890181891662,1.1692397594451904,0.8322170376777649,-0.04418298602104187,-0.1448972225189209,0.07991334795951843,0.1206020712852478,-0.4218358243861268,1.8767151644673385,2.6323391428241685,0.8699795603752136,0.40943604707717896,0.2747686207294464
1729111314751,9i,4.82030552124028,1.2s : 0.4s,-46.7710859091408,0.04116361530881929,0.9184172456097459,0.19479264731481172,1.2363022565841675,0.8854610919952393,-0.04735631123185158,-0.13369101285934448,0.08833080530166626,0.11076352000236511,-0.42592638453547405,1.880160883150965,2.6200300614533494,0.8674250841140747,0.41316458582878113,0.2772524654865265
1729111314761,9i,4.82030552124028,1.2s : 0.4s,-46.7710859091408,0.04309510218386255,0.961806868517685,0.20609873415058821,1.2880232334136963,0.9216009974479675,-0.03936868906021118,-0.1222572922706604,0.09115958213806152,0.13863539695739746,-0.4302136694617601,1.8837919316318406,2.607168351010724,0.864719569683075,0.4170650243759155,0.27985236048698425
1729111314771,9i,4.82030552124028,1.2s : 0.4s,-46.7710859091408,0.04508069762991057,1.0011670006599842,0.21188407480526386,1.3188594579696655,0.9542034268379211,-0.058236122131347656,-0.11859643459320068,0.08915498852729797,0.15126511454582214,-0.4347070429627129,1.887512873197163,2.593930371933028,0.8618825674057007,0.4211447238922119,0.2824814021587372
1729111314781,9i,4.82030552124028,1.2s : 0.4s,-46.7710859091408,0.0471045095739613,1.0376530616640742,0.21337793081577047,1.3482027053833008,0.9885414242744446,-0.07218735665082932,-0.11975717544555664,0.09600967168807983,0.14822450280189514,-0.4395033822228719,1.8914139255287956,2.5805156486967444,0.8588473200798035,0.4254901111125946,0.28520169854164124
1729111314791,9i,4.82030552124028,1.2s : 0.4s,-46.7710859091408,0.049152506968911644,1.075440329333985,0.2115591708814458,1.397175669670105,1.0240532159805298,-0.07877589017152786,-0.12094974517822266,0.09634432196617126,0.14438217878341675,-0.44456880682874217,1.8954158713371945,2.566633297414942,0.8556450605392456,0.43006864190101624,0.2879452407360077
1729111314801,9i,4.82030552124028,1.2s : 0.4s,-46.7710859091408,0.05126331177959011,1.1111174393973207,0.2246393809216008,1.417132019996643,1.0727837085723877,-0.10143806040287018,-0.1268513798713684,0.1045374870300293,0.15311267971992493,-0.4499345805797736,1.8996444709305091,2.552427573492505,0.8522238731384277,0.43490663170814514,0.2908115088939667
1729111314811,9i,4.82030552124028,1.2s : 0.4s,-46.7710859091408,0.05345530508729588,1.1531265909534947,0.23437974409499704,1.4829038381576538,1.1249223947525024,-0.11260069161653519,-0.12918603420257568,0.11121651530265808,0.16085931658744812,-0.4556577481167644,1.9041242213923661,2.5379206547757036,0.8485463261604309,0.4400530457496643,0.2938070297241211
1729111314821,9i,4.82030552124028,1.2s : 0.4s,-46.7710859091408,0.055725897378472056,1.20128451778359,0.24285225279305342,1.5469577312469482,1.1929333209991455,-0.13212938606739044,-0.1277570128440857,0.12157580256462097,0.16695713996887207,-0.46178597292630114,1.9088638719008184,2.522700993981808,0.8445844650268555,0.4455477297306061,0.2969255745410919
1729111314831,9i,4.82030552124028,1.2s : 0.4s,-46.7710859091408,0.0581590083214247,1.261027155699084,0.27197208267051015,1.6498887538909912,1.26861572265625,-0.1575946807861328,-0.13199985027313232,0.13166403770446777,0.19801372289657593,-0.4684758460400935,1.9138514957830997,2.5067258308285645,0.8402669429779053,0.4515268802642822,0.3001249432563782
1729111314841,9i,4.82030552124028,1.2s : 0.4s,-46.7710859091408,0.06076896650528462,1.3305909636146438,0.2918940183083564,1.756065845489502,1.3537697792053223,-0.18494108319282532,-0.1334766149520874,0.140321284532547,0.21839424967765808,-0.4758542375732629,1.919075360271148,2.489706991290327,0.8355334401130676,0.4580979347229004,0.303365021944046
1729111314851,9i,4.82030552124028,1.2s : 0.4s,-46.7710859091408,0.06357129832796776,1.4033669576385444,0.31235088844471665,1.8410968780517578,1.4362353086471558,-0.21268881857395172,-0.13935226202011108,0.14970466494560242,0.23607739806175232,-0.48390559194365795,1.924587271073187,2.471760359290549,0.8303617835044861,0.46523988246917725,0.3066779673099518
1729111314861,9i,4.82030552124028,1.2s : 0.4s,-46.7710859091408,0.06658717217716215,1.478112155582004,0.33457505962219986,1.9181617498397827,1.5252573490142822,-0.24807262420654297,-0.1477597951889038,0.15681743621826172,0.2559605538845062,-0.49262840997133406,1.9304614850152337,2.4531149477334133,0.8247159719467163,0.47294339537620544,0.3101102113723755
1729111314871,9i,4.82030552124028,1.2s : 0.4s,-46.7710859091408,0.06980188855513435,1.5510961377006474,0.346603298030706,1.9859583377838135,1.6002686023712158,-0.281024307012558,-0.15276646614074707,0.15680620074272156,0.26871559023857117,-0.5020340731972422,1.9366724335804373,2.4337933001270966,0.8185837268829346,0.4812096059322357,0.31362107396125793
1729111314881,9i,4.82030552124028,1.2s : 0.4s,-46.7710859091408,0.0732037239684036,1.6239849502216175,0.35977283861390513,2.0572688579559326,1.6768754720687866,-0.3295372426509857,-0.1547679305076599,0.1578335165977478,0.2838520109653473,-0.512152646822556,1.9432272117193725,2.4139117182033356,0.8119336366653442,0.49005481600761414,0.3171919286251068
1729111314891,9i,4.82030552124028,1.2s : 0.4s,-46.7710859091408,0.07679541955621533,1.697414971965229,0.3782048819484956,2.1297481060028076,1.7572290897369385,-0.3702890872955322,-0.15664243698120117,0.16627803444862366,0.3014194667339325,-0.523102291632891,1.9500614855783773,2.3934144388275875,0.8047139644622803,0.49956998229026794,0.32072752714157104
1729111314901,9i,4.82030552124028,1.2s : 0.4s,-46.7710859091408,0.08055451428367223,1.7704610004028436,0.39376922181353163,2.1944730281829834,1.8386129140853882,-0.42031124234199524,-0.14944767951965332,0.18734997510910034,0.31244131922721863,-0.5348384564887962,1.9571811942826542,2.3723790590712435,0.796923816204071,0.5097020864486694,0.32421666383743286
1729111314911,9i,4.82030552124028,1.2s : 0.4s,-46.7710859091408,0.08443204133552465,1.8449120155623837,0.39832606968219325,2.2858574390411377,1.8991312980651855,-0.4731542766094208,-0.14013606309890747,0.2046869993209839,0.3116548955440521,-0.5474748324705981,1.9644713063314523,2.350796627238547,0.7885277271270752,0.5205327868461609,0.32752078771591187
1729111314921,9i,4.82030552124028,1.2s : 0.4s,-46.7710859091408,0.08839096163259927,1.928342089485862,0.4021557988123612,2.4094033241271973,1.9859954118728638,-0.5138680934906006,-0.13758599758148193,0.21356189250946045,0.3117542266845703,-0.5611205188762255,1.9716644474255574,2.3280881215757065,0.7795385718345642,0.5321352481842041,0.3303816020488739
1729111314931,9i,4.82030552124028,1.2s : 0.4s,-46.7710859091408,0.09247594527885446,2.021415211246358,0.41503832269507446,2.547898769378662,2.0805280208587646,-0.5579743385314941,-0.146246075630188,0.21241086721420288,0.32519304752349854,-0.5757764370565186,1.9788483975051245,2.304178870921914,0.7699033617973328,0.5444862246513367,0.33284249901771545
1729111314941,9i,4.82030552124028,1.2s : 0.4s,-46.7710859091408,0.09668274350203453,2.129301846779886,0.42621335676537264,2.731199264526367,2.1821775436401367,-0.6101142168045044,-0.1443503499031067,0.22277545928955078,0.3334544897079468,-0.5916815624045215,1.98573929830304,2.278616247856827,0.759569525718689,0.5577574968338013,0.33460602164268494
1729111314951,9i,4.82030552124028,1.2s : 0.4s,-46.7710859091408,0.10096220840800539,2.2387022333385764,0.43316442907237357,2.8650734424591064,2.273736000061035,-0.661453902721405,-0.12800341844558716,0.247949481010437,0.3313119411468506,-0.6089011243175094,1.992241095576997,2.251277828536212,0.7485021352767944,0.5719664096832275,0.3355584144592285
1729111314961,9i,4.82030552124028,1.2s : 0.4s,-46.7710859091408,0.10527641061906415,2.341629848861012,0.4350620735483244,2.9671833515167236,2.3451266288757324,-0.7084637880325317,-0.10222488641738892,0.2560218572616577,0.3365737497806549,-0.6271546868887109,1.9984601058081939,2.222760164084848,0.7367770075798035,0.5868433117866516,0.33582034707069397
1729111314971,9i,4.82030552124028,1.2s : 0.4s,-46.7710859091408,0.10961542469418188,2.4231124238975306,0.43710012596572656,2.985914468765259,2.3789379596710205,-0.7723555564880371,-0.07499188184738159,0.23874610662460327,0.35837554931640625,-0.6463450450677802,2.004335713942128,2.1934965672654707,0.7244365215301514,0.6022727489471436,0.33535024523735046
1729111314981,9i,4.82030552124028,1.2s : 0.4s,-46.7710859091408,0.11402408086428964,2.4765820503819347,0.46238890488400214,2.9401469230651855,2.385305881500244,-0.840736448764801,-0.0464857816696167,0.22249436378479004,0.4026646614074707,-0.666184011338808,2.010133461751085,2.1645740770939903,0.7115248441696167,0.6179904341697693,0.3343960642814636
1729111314991,9i,4.82030552124028,1.2s : 0.4s,-46.7710859091408,0.11847892677611338,2.511202231174413,0.4733458280424172,2.913694143295288,2.3680992126464844,-0.9185500741004944,-0.01605224609375,0.22213220596313477,0.41767916083335876,-0.6866464574923692,2.0157014428808298,2.1362399027580805,0.6980897784233093,0.6339471936225891,0.3328399360179901
1729111315001,9i,4.82030552124028,1.2s : 0.4s,-46.7710859091408,0.12294204951167809,2.5407829231353745,0.45252897936207553,2.9240288734436035,2.3664519786834717,-1.0015509128570557,-0.00044715404510498047,0.23732125759124756,0.3853062391281128,-0.7079564544510956,2.020770867356323,2.1080911075476196,0.68407142162323,0.6502826809883118,0.33042269945144653
1729111315011,9i,4.82030552124028,1.2s : 0.4s,-46.7710859091408,0.12741475267345026,2.5751404853839803,0.46184164992660387,2.9603090286254883,2.3903255462646484,-1.102584719657898,0.0021656155586242676,0.26400238275527954,0.37894031405448914,-0.7302739475409662,2.025490014823049,2.0800232877834905,0.6692973375320435,0.6670737266540527,0.3271908164024353
1729111315021,9i,4.82030552124028,1.2s : 0.4s,-46.7710859091408,0.13188048006298084,2.6202756286792512,0.4715482218364992,3.0446691513061523,2.4148709774017334,-1.196516752243042,0.0140494704246521,0.2977946400642395,0.36534735560417175,-0.7538411414819725,2.0295296993359297,2.051342264217014,0.6536903977394104,0.6844442486763,0.32283949851989746
1729111315031,9i,4.82030552124028,1.2s : 0.4s,-46.7710859091408,0.136315919565077,2.6837176002278356,0.4837570245570354,3.1889867782592773,2.446282148361206,-1.3007874488830566,0.03554558753967285,0.32815784215927124,0.35365208983421326,-0.7789431510683189,2.0324173546984685,2.0213804161916817,0.6371686458587646,0.7025277018547058,0.3169718384742737
1729111315041,9i,4.82030552124028,1.2s : 0.4s,-46.7710859091408,0.1407619552245785,2.7580122112277206,0.5037202560158079,3.319190263748169,2.471834897994995,-1.4142210483551025,0.057645320892333984,0.34195029735565186,0.3653506636619568,-0.805651746577623,2.033681191157603,1.9896046882026204,0.619753360748291,0.7212822437286377,0.3092859983444214
1729111315051,9i,4.82030552124028,1.2s : 0.4s,-46.7710859091408,0.14520732793802527,2.842965538711895,0.5164871153858409,3.488781690597534,2.463865041732788,-1.535608172416687,0.08802962303161621,0.35747581720352173,0.3622440695762634,-0.8340651712708578,2.0328299258594713,1.955714058250139,0.6014233827590942,0.740668773651123,0.2994993031024933
1729111315061,9i,4.82030552124028,1.2s : 0.4s,-46.7710859091408,0.1496594244017463,2.9180146158126674,0.5467982640885565,3.5454554557800293,2.4433767795562744,-1.6668336391448975,0.12822836637496948,0.3930966854095459,0.3577999770641327,-0.8640802692556587,2.0295891147507295,1.9198473311818076,0.5821903347969055,0.7604983448982239,0.28757065534591675
1729111315071,9i,4.82030552124028,1.2s : 0.4s,-46.7710859091408,0.15417823392554486,2.980252541413421,0.5908774264103218,3.5721383094787598,2.404066324234009,-1.7997418642044067,0.16956323385238647,0.42800718545913696,0.3703974783420563,-0.8953259463880923,2.024510012746907,1.8830237371812917,0.5620042085647583,0.7804129123687744,0.2740577459335327
1729111315081,9i,4.82030552124028,1.2s : 0.4s,-46.7710859091408,0.15872670641347025,3.0332186042802043,0.6102446838539696,3.5955491065979004,2.3539490699768066,-1.9400601387023926,0.20950597524642944,0.4496147036552429,0.35546088218688965,-0.9277852477405434,2.0171016815613654,1.843554151711537,0.5408754944801331,0.8002939224243164,0.25881239771842957
1729111315091,9i,4.82030552124028,1.2s : 0.4s,-46.7710859091408,0.16333410873678056,3.0730097383094193,0.6408344118481387,3.5886569023132324,2.2916653156280518,-2.0582635402679443,0.24626004695892334,0.4735978841781616,0.3545839488506317,-0.9612183013592519,2.007335320118871,1.8041017782034623,0.5188308358192444,0.8198896646499634,0.24206534028053284
1729111315101,9i,4.82030552124028,1.2s : 0.4s,-46.7710859091408,0.1680381493903654,3.11362692491174,0.679823476202372,3.652161121368408,2.2250773906707764,-2.1630849838256836,0.2855459451675415,0.5063812136650085,0.3524223864078522,-0.9955021984780061,1.9941207803620644,1.7623306857051397,0.49605506658554077,0.8390322923660278,0.22350551187992096
1729111315111,9i,4.82030552124028,1.2s : 0.4s,-46.7710859091408,0.17291892833360817,3.1604851826563025,0.710181926119506,3.7480006217956543,2.1724541187286377,-2.2527263164520264,0.30821266770362854,0.5230515599250793,0.36848390102386475,-1.0306332831950438,1.9760286404001546,1.7165351373910702,0.4726253151893616,0.8576248288154602,0.2027442306280136
1729111315121,9i,4.82030552124028,1.2s : 0.4s,-46.7710859091408,0.17800888380653412,3.1992451645669187,0.7156614933826495,3.7575011253356934,2.1348366737365723,-2.3317744731903076,0.32007524371147156,0.5066800117492676,0.3911503255367279,-1.066231224303544,1.9526028396570745,1.6660930661235676,0.4486166834831238,0.8753848075866699,0.18012361228466034
1729111315131,9i,4.82030552124028,1.2s : 0.4s,-46.7710859091408,0.1832788145302477,3.237662903820202,0.7132370986602635,3.8281893730163574,2.0760915279388428,-2.385430097579956,0.3412955105304718,0.47087836265563965,0.4129141569137573,-1.1018655576732492,1.9228948047731491,1.6102181741020862,0.4242073595523834,0.8920519948005676,0.15585735440254211
1729111315141,9i,4.82030552124028,1.2s : 0.4s,-46.7710859091408,0.1886620664234775,3.26734586048019,0.691769987854571,3.8551669120788574,1.9867684841156006,-2.447190284729004,0.37409108877182007,0.4174320101737976,0.40540361404418945,-1.1373030319680233,1.8842628834616626,1.5463447258853944,0.39957520365715027,0.9075039625167847,0.12952391803264618
1729111315151,9i,4.82030552124028,1.2s : 0.4s,-46.7710859091408,0.1941332884154822,3.2735143751087765,0.6842965859012932,3.7721407413482666,1.8800761699676514,-2.516007900238037,0.39316222071647644,0.37556999921798706,0.41549062728881836,-1.1720126672666742,1.8369152675931018,1.4750891727764746,0.3746294677257538,0.92153400182724,0.1021180972456932
1729111315161,9i,4.82030552124028,1.2s : 0.4s,-46.7710859091408,0.19965373391298713,3.2529881262498064,0.6711148535289444,3.626347064971924,1.7714519500732422,-2.5730764865875244,0.41569554805755615,0.31776994466781616,0.4202554225921631,-1.2054928809372554,1.7806551546752232,1.3964592978181394,0.3493953347206116,0.9340153932571411,0.07441941648721695
1729111315171,9i,4.82030552124028,1.2s : 0.4s,-46.7710859091408,0.20511787240436646,3.2001049241745605,0.6483686003192295,3.416332244873047,1.6190041303634644,-2.618921995162964,0.44127896428108215,0.2456575632095337,0.40657973289489746,-1.2372718218625316,1.7149638922848598,1.3101663643846935,0.32397979497909546,0.9448943734169006,0.04703368619084358
1729111315181,9i,4.82030552124028,1.2s : 0.4s,-46.7710859091408,0.2100702840474194,3.127415858645514,0.6060674914486963,3.2053894996643066,1.4691756963729858,-2.6767361164093018,0.45983442664146423,0.20035845041275024,0.34018611907958984,-1.2671711958949208,1.639164769774999,1.2159367510843357,0.298283189535141,0.954258918762207,0.020424989983439445
1729111315191,9i,4.82030552124028,1.2s : 0.4s,-46.7710859091408,0.21453762261080778,3.045736978108733,0.5782351251536982,3.025534152984619,1.3106787204742432,-2.7258970737457275,0.46527180075645447,0.19134986400604248,0.285067081451416,-1.2949666846405854,1.5508971082482939,1.11115422452833,0.27229225635528564,0.9621995687484741,-0.005419118329882622
1729111315201,9i,4.82030552124028,1.2s : 0.4s,-46.7710859091408,0.21864400343408028,2.976516786142544,0.5671352579317908,2.949657678604126,1.1977574825286865,-2.763570547103882,0.4650326073169708,0.20020532608032227,0.25554823875427246,-1.3202237219589597,1.4453865385593048,0.9908858081809597,0.2460116446018219,0.9687706232070923,-0.03101503662765026
1729111315211,9i,4.82030552124028,1.2s : 0.4s,-46.7710859091408,0.22269138292398177,2.939166664051062,0.5683725532294194,2.9980525970458984,1.1250231266021729,-2.817331552505493,0.46361175179481506,0.24043595790863037,0.2242811918258667,-1.3421121658862394,1.3161500051494055,0.8478758576398194,0.21938689053058624,0.9739655256271362,-0.05710576847195625
1729111315221,9i,4.82030552124028,1.2s : 0.4s,-46.7710859091408,0.2267760655309181,2.926697935695108,0.5975823754528469,3.0274674892425537,1.0851298570632935,-2.898411750793457,0.46674051880836487,0.32933634519577026,0.17548662424087524,-1.3592203663477913,1.1576447015923712,0.6761678680909681,0.19233229756355286,0.9777011871337891,-0.08431527018547058
1729111315231,9i,4.82030552124028,1.2s : 0.4s,-46.7710859091408,0.23087399632585703,2.938889685123882,0.598540587790211,3.046520948410034,1.0603489875793457,-3.039973735809326,0.4564315676689148,0.37041324377059937,0.11276119947433472,-1.3705631324678473,0.9720241522518169,0.4776681244370784,0.16429591178894043,0.9800202250480652,-0.11210498213768005
1729111315241,9i,4.82030552124028,1.2s : 0.4s,-46.7710859091408,0.23496168398581732,2.9483775341720095,0.5762436434208941,3.013765811920166,0.9688550233840942,-3.1098594665527344,0.47722721099853516,0.2934649586677551,0.13486750423908234,-1.3744265981121457,0.7668583507287928,0.2601589304741053,0.13538256287574768,0.9807813167572021,-0.14049792289733887
1729111315251,9i,4.82030552124028,1.2s : 0.4s,-46.7710859091408,0.23897588321262336,2.917733414421405,0.6074766690731971,2.72544527053833,0.838183581829071,-3.167876720428467,0.5413579940795898,0.2172086238861084,0.169646218419075,-1.371209897000783,0.5638760399050656,0.046097662167953087,0.10596554726362228,0.9801486730575562,-0.16757094860076904
1729111315261,9i,4.82030552124028,1.2s : 0.4s,-46.7710859091408,0.24270472979640684,2.8460392153396037,0.6443326037961454,2.387054443359375,0.6226803064346313,-3.1862571239471436,0.5971711874008179,0.1521015763282776,0.18819189071655273,-1.3628296707445096,0.37814927985420776,-0.14904689595380527,0.07622961699962616,0.978452742099762,-0.19188445806503296
1729111315271,9i,4.82030552124028,1.2s : 0.4s,-46.7710859091408,0.24626621499792753,2.7610210425916497,0.6566328563969976,2.071915626525879,0.4190191924571991,-3.249756336212158,0.6134839653968811,0.13886946439743042,0.1884659230709076,-1.350841952822393,0.21121068633787313,-0.3228627251179998,0.045741405338048935,0.9759073853492737,-0.21333768963813782
1729111315281,9i,4.82030552124028,1.2s : 0.4s,-46.7710859091408,0.24988892476975438,2.6759383125053433,0.6191182531400166,1.8724119663238525,0.34033769369125366,-3.2201342582702637,0.5740171074867249,0.166120707988739,0.16191257536411285,-1.335823734301943,0.06454978736883843,-0.4749923264715314,0.015017831698060036,0.9725207090377808,-0.232331782579422
1729111315291,9i,4.82030552124028,1.2s : 0.4s,-46.7710859091408,0.25334636188927007,2.619024640623201,0.5691826537695541,1.794508457183838,0.25816091895103455,-3.2752552032470703,0.5283420085906982,0.16824430227279663,0.12852030992507935,-1.317505995434181,-0.06248022044447349,-0.6068171631271143,-0.015646809712052345,0.9680931568145752,-0.2501022517681122
1729111315301,9i,4.82030552124028,1.2s : 0.4s,-46.7710859091408,0.256810649253457,2.585481052471493,0.5256110543013025,1.6674357652664185,0.25275951623916626,-3.3714730739593506,0.4654276371002197,0.188102126121521,0.15576162934303284,-1.2963050425061509,-0.17490909681151104,-0.7237702236109281,-0.04716905578970909,0.9625632166862488,-0.2669218182563782
1729111315311,9i,4.82030552124028,1.2s : 0.4s,-46.7710859091408,0.2604150695406182,2.561109052754055,0.572134239064583,1.6629838943481445,0.22907589375972748,-3.3520302772521973,0.48221471905708313,0.26331549882888794,0.15959793329238892,-1.2727871449870642,-0.2715552295432072,-0.8247608191059348,-0.0787571594119072,0.9559229016304016,-0.28285837173461914
1729111315321,9i,4.82030552124028,1.2s : 0.4s,-46.7710859091408,0.264162763893748,2.5621158225432366,0.5978455606557506,1.8114542961120605,0.2334488034248352,-3.3738062381744385,0.5028470158576965,0.2927349805831909,0.13736966252326965,-1.2458960736788502,-0.352094699889313,-0.909602870878088,-0.1100858524441719,0.9476825594902039,-0.2996315062046051
1729111315331,9i,4.82030552124028,1.2s : 0.4s,-46.7710859091408,0.2680701190764911,2.5728485938326995,0.6063981848832823,1.8613004684448242,0.21444538235664368,-3.3911209106445312,0.514310359954834,0.28655368089675903,0.14522603154182434,-1.2160519617020227,-0.41892253549518754,-0.980605981655026,-0.14129410684108734,0.9377353191375732,-0.31731459498405457
1729111315341,9i,4.82030552124028,1.2s : 0.4s,-46.7710859091408,0.27213329435386463,2.574102806598155,0.6103810243959278,1.8042328357696533,0.18442995846271515,-3.401566982269287,0.531120240688324,0.23344260454177856,0.1896861493587494,-1.1848004308687814,-0.47538853365904826,-1.041085990974347,-0.17230994999408722,0.926423966884613,-0.3347361385822296
1729111315351,9i,4.82030552124028,1.2s : 0.4s,-46.7710859091408,0.2763071659070016,2.5736216872036883,0.6111078554833946,1.7816600799560547,0.12867876887321472,-3.3925366401672363,0.5449542999267578,0.17700821161270142,0.21247521042823792,-1.1527612489177406,-0.523835385804731,-1.0932283700902707,-0.20306597650051117,0.9138883948326111,-0.35152849555015564
1729111315361,9i,4.82030552124028,1.2s : 0.4s,-46.7710859091408,0.28056345430107554,2.5594576643607647,0.6030620462031495,1.6851614713668823,0.09039981663227081,-3.3727571964263916,0.5450392961502075,0.15614229440689087,0.20551297068595886,-1.120388442364824,-0.5657595291848136,-1.1386217649370816,-0.23336341977119446,0.900269627571106,-0.3675002157688141
1729111315371,9i,4.82030552124028,1.2s : 0.4s,-46.7710859091408,0.28486898166415875,2.5419556668468277,0.5751806220091991,1.6556087732315063,0.05606754496693611,-3.3437340259552,0.525288462638855,0.14069968461990356,0.18737229704856873,-1.0879625661180583,-0.6024110680186576,-1.1783906639733597,-0.26308155059814453,0.8856828212738037,-0.38256266713142395
1729111315381,9i,4.82030552124028,1.2s : 0.4s,-46.7710859091408,0.28905318632840293,2.5221995502491734,0.5476057570092744,1.6183605194091797,0.031720392405986786,-3.3194050788879395,0.5060983300209045,0.1267620325088501,0.1663368046283722,-1.0553014619725676,-0.6343422178476609,-1.2132133492098676,-0.2921549379825592,0.8700488805770874,-0.39706483483314514
1729111315391,9i,4.82030552124028,1.2s : 0.4s,-46.7710859091408,0.29321640413937067,2.5089961784903307,0.5437556704985007,1.6697666645050049,0.003635938512161374,-3.295581817626953,0.5007165670394897,0.12656629085540771,0.17010033130645752,-1.022266563502942,-0.6621182626321995,-1.2435618294358124,-0.3205713927745819,0.8532920479774475,-0.41125011444091797
1729111315401,9i,4.82030552124028,1.2s : 0.4s,-46.7710859091408,0.29735537583960747,2.4995387368762008,0.5422291258904302,1.698648452758789,-0.016763344407081604,-3.2790212631225586,0.5099237561225891,0.1194683313369751,0.14041903614997864,-0.9885479423704558,-0.6860684246131901,-1.2698316656596735,-0.3483637869358063,0.8352283835411072,-0.42548367381095886
1729111315411,9i,4.82030552124028,1.2s : 0.4s,-46.7710859091408,0.30150169295166396,2.482799067673815,0.5490042924404962,1.6816295385360718,-0.07908206433057785,-3.231109380722046,0.5227720737457275,0.08607286214828491,0.1438976526260376,-0.9546618637838797,-0.7072169794650232,-1.2928089277261872,-0.3754638135433197,0.8161183595657349,-0.4392925202846527
1729111315421,9i,4.82030552124028,1.2s : 0.4s,-46.7710859091408,0.3056305604449361,2.4519262723207946,0.5542690528396179,1.582580804824829,-0.15490545332431793,-3.173496961593628,0.5344098806381226,0.035537123680114746,0.14267927408218384,-0.9212727874906296,-0.7265728505223672,-1.3134194408501065,-0.40178051590919495,0.7963720560073853,-0.4520663321018219
1729111315431,9i,4.82030552124028,1.2s : 0.4s,-46.7710859091408,0.30971268106659583,2.411568301870237,0.5390256423810382,1.4421876668930054,-0.24183233082294464,-3.13570499420166,0.5218021869659424,0.00758814811706543,0.13495755195617676,-0.8889469226030631,-0.7454850749612233,-1.33302942662014,-0.42750295996665955,0.7764084935188293,-0.46306726336479187
1729111315441,9i,4.82030552124028,1.2s : 0.4s,-46.7710859091408,0.31361761815450784,2.3753821839566545,0.5226629470415144,1.369323492050171,-0.2538413107395172,-3.122840166091919,0.5072712302207947,0.015483260154724121,0.12495088577270508,-0.8572988231571935,-0.7636478640903829,-1.351607075978512,-0.4526143968105316,0.7560774683952332,-0.4727444052696228
1729111315451,9i,4.82030552124028,1.2s : 0.4s,-46.7710859091408,0.3172498769278839,2.3482206823671388,0.5005517931727189,1.329587459564209,-0.3028542101383209,-3.125427722930908,0.4936539828777313,0.03913009166717529,0.07298409938812256,-0.8258831073518481,-0.7809580988961689,-1.3692062518097026,-0.47722044587135315,0.7351467609405518,-0.48147714138031006
1729111315461,9i,4.82030552124028,1.2s : 0.4s,-46.7710859091408,0.3205872907579225,2.3352911069412454,0.48239783418999427,1.3384712934494019,-0.347337007522583,-3.1485042572021484,0.4798986315727234,0.039918482303619385,0.028486639261245728,-0.794175328925635,-0.7974638172142594,-1.3856590533806472,-0.5015356540679932,0.7132858633995056,-0.48957666754722595
1729111315471,9i,4.82030552124028,1.2s : 0.4s,-46.7710859091408,0.3237239396083232,2.319149198564618,0.4645018479194828,1.2149746417999268,-0.3891625702381134,-3.1582064628601074,0.4614369869232178,0.04494583606719971,0.02859625220298767,-0.7625771703360708,-0.813569898188903,-1.4015627970620999,-0.525478184223175,0.6907871961593628,-0.4966747760772705
1729111315481,9i,4.82030552124028,1.2s : 0.4s,-46.7710859091408,0.3267234132896046,2.3097274050513654,0.44401263995315743,1.1959567070007324,-0.44055652618408203,-3.167494058609009,0.43905729055404663,0.06251823902130127,0.021619200706481934,-0.7312464732921433,-0.8295401216054576,-1.4171574805694083,-0.549042820930481,0.6677979826927185,-0.5025914311408997
1729111315491,9i,4.82030552124028,1.2s : 0.4s,-46.7710859091408,0.32957396660737753,2.3098401215656654,0.40555878514213156,1.294641375541687,-0.4595300853252411,-3.1600019931793213,0.4003702998161316,0.0626494288444519,0.01601874828338623,-0.699456653919759,-0.8445401825069734,-1.431160551747953,-0.5721081495285034,0.6438020467758179,-0.5081451535224915
1729111315501,9i,4.82030552124028,1.2s : 0.4s,-46.7710859091408,0.33227902907148443,2.313003090724009,0.3604517592963069,1.4027206897735596,-0.41445767879486084,-3.146488904953003,0.3554757237434387,0.05161517858505249,0.029972553253173828,-0.6667805425663963,-0.8575067323542837,-1.443037719237671,-0.5942453742027283,0.6184592843055725,-0.5141795873641968
1729111315511,9i,4.82030552124028,1.2s : 0.4s,-46.7710859091408,0.3348188362211636,2.3140925209805454,0.32427274725175426,1.418652892112732,-0.4104459285736084,-3.133854866027832,0.3197953701019287,0.046800315380096436,0.026333749294281006,-0.633757427353834,-0.8690118211468304,-1.4534350910719205,-0.6153887510299683,0.5921766757965088,-0.520214855670929
1729111315521,9i,4.82030552124028,1.2s : 0.4s,-46.7710859091408,0.33719046099429634,2.319297602515913,0.31406376870238634,1.497174620628357,-0.4862099289894104,-3.1076197624206543,0.31216317415237427,0.02300494909286499,0.025709450244903564,-0.6004611875332523,-0.8796935637150702,-1.462495501921661,-0.6357564926147461,0.5650230646133423,-0.5258924961090088
1729111315531,9i,4.82030552124028,1.2s : 0.4s,-46.7710859091408,0.33938047421723455,2.318673256214334,0.3182590372246811,1.405947208404541,-0.5547823905944824,-3.1018519401550293,0.3180350661277771,-0.0017409920692443848,0.01181018352508545,-0.5671891177992298,-0.8903990002834652,-1.4706550620785084,-0.6556053757667542,0.5372634530067444,-0.5305936932563782
1729111315541,9i,4.82030552124028,1.2s : 0.4s,-46.7710859091408,0.3414481901572898,2.303829019345013,0.29894229186498056,1.2931753396987915,-0.6378642320632935,-3.0654168128967285,0.2983306050300598,0.005032658576965332,0.018439531326293945,-0.5347203942413079,-0.9018062218676631,-1.4791527096390957,-0.6749481558799744,0.5096004605293274,-0.5336219072341919
1729111315551,9i,4.82030552124028,1.2s : 0.4s,-46.7710859091408,0.34333197454953196,2.283836927592102,0.2878036125663,1.3582427501678467,-0.618015706539154,-2.984327554702759,0.2875581383705139,-0.007088124752044678,-0.009539127349853516,-0.5026603551962898,-0.9128035212620227,-1.486785649127296,-0.6933504343032837,0.4817585349082947,-0.5358861684799194
1729111315561,9i,4.82030552124028,1.2s : 0.4s,-46.7710859091408,0.3452406926925393,2.244914865924012,0.29013035175050356,1.1267801523208618,-0.7226779460906982,-2.926898241043091,0.28581303358078003,0.04865145683288574,0.010934650897979736,-0.4717501729564117,-0.923673011873679,-1.4943630255539457,-0.7106788158416748,0.4544459879398346,-0.5370423197746277
1729111315571,9i,4.82030552124028,1.2s : 0.4s,-46.7710859091408,0.34719005846872875,2.243786004497505,0.29816188354105905,1.3553377389907837,-0.7730295062065125,-2.9474520683288574,0.2745243310928345,0.11567100882530212,-0.012534677982330322,-0.4407930419317317,-0.9349806156060732,-1.5012528488699703,-0.727679967880249,0.4266568422317505,-0.5370715856552124
1729111315581,9i,4.82030552124028,1.2s : 0.4s,-46.7710859091408,0.34905073034077416,2.2447932625245923,0.3341029011689384,1.4242496490478516,-0.8525845408439636,-2.928945302963257,0.2528444528579712,0.1488824188709259,-0.15977627038955688,-0.40882860207971944,-0.945999868864623,-1.5065344540209489,-0.7442386150360107,0.39753472805023193,-0.5367262363433838
1729111315591,9i,4.82030552124028,1.2s : 0.4s,-46.7710859091408,0.3509726669482309,2.2435852567271493,0.28399956879792276,1.464439034461975,-0.8065413236618042,-2.8872220516204834,0.2507099509239197,0.1334100067615509,-0.0014302730560302734,-0.37673560964571046,-0.9562902916051749,-1.5103297283624566,-0.7597585320472717,0.3678869605064392,-0.5361215472221375
1729111315601,9i,4.82030552124028,1.2s : 0.4s,-46.7710859091408,0.35283936842385216,2.2319982632612585,0.2620994712289987,1.3681739568710327,-0.8793902397155762,-2.8633947372436523,0.23045796155929565,0.1173875629901886,-0.042490243911743164,-0.3450620586649641,-0.9665428504806766,-1.5141091250946375,-0.7744186520576477,0.3382550776004791,-0.5346581339836121
1729111315611,9i,4.82030552124028,1.2s : 0.4s,-46.7710859091408,0.35476584935621175,2.2163446759469743,0.29188645006968233,1.359471082687378,-0.9199241399765015,-2.8100223541259766,0.2587752938270569,0.1350294053554535,0.000326693058013916,-0.3139502073777494,-0.977182844874677,-1.5176370054371398,-0.7884079813957214,0.30881816148757935,-0.5320190787315369
1729111315621,9i,4.82030552124028,1.2s : 0.4s,-46.7710859091408,0.35676520762610703,2.202883982350077,0.3200162660295865,1.3590593338012695,-0.9757344126701355,-2.7764089107513428,0.26945555210113525,0.1653781235218048,-0.049539804458618164,-0.2831853255043142,-0.9879904388843679,-1.5205418571263438,-0.8016669750213623,0.2794155180454254,-0.5284477472305298
1729111315631,9i,4.82030552124028,1.2s : 0.4s,-46.7710859091408,0.3588099203604574,2.186018112196397,0.31361451011322383,1.3686978816986084,-1.0026168823242188,-2.7175235748291016,0.26532137393951416,0.1630975604057312,-0.03684854507446289,-0.25271545968252657,-0.9988658540638513,-1.5227563430314066,-0.8141495585441589,0.2500340938568115,-0.5240644216537476
1729111315641,9i,4.82030552124028,1.2s : 0.4s,-46.7710859091408,0.36086932712619546,2.164587733443458,0.3030893342265834,1.3489798307418823,-1.0367677211761475,-2.657407283782959,0.2606824040412903,0.1453588306903839,-0.05271279811859131,-0.2227193089613531,-1.0097909765831186,-1.525763592116953,-0.8258070349693298,0.2208825796842575,-0.5188966393470764
1729111315651,9i,4.82030552124028,1.2s : 0.4s,-46.7710859091408,0.3629368839373101,2.1411722596573917,0.28470630845228356,1.329512357711792,-1.0756282806396484,-2.6017415523529053,0.2560598850250244,0.11901852488517761,-0.03640890121459961,-0.1933409380280731,-1.0209182865187838,-1.5270366307062078,-0.8367027044296265,0.1921386569738388,-0.5128464102745056
1729111315661,9i,4.82030552124028,1.2s : 0.4s,-46.7710859091408,0.3649755058538372,2.111589939378031,0.28313419178877575,1.3084150552749634,-1.0889350175857544,-2.52746844291687,0.2599889636039734,0.08968718349933624,-0.06728237867355347,-0.16451763291158902,-1.0320561369982655,-1.5276029195593401,-0.8467658758163452,0.16377650201320648,-0.5061275959014893
1729111315671,9i,4.82030552124028,1.2s : 0.4s,-46.7710859091408,0.36698385819586915,2.079123116780563,0.3161621408412073,1.2898011207580566,-1.1447734832763672,-2.4429941177368164,0.29002004861831665,0.09257620573043823,-0.08530250191688538,-0.13653095281348654,-1.043484638214099,-1.5277443156021724,-0.8561211824417114,0.1361071765422821,-0.49852919578552246
1729111315681,9i,4.82030552124028,1.2s : 0.4s,-46.7710859091408,0.36908875800123486,2.0471294950386607,0.3445904415063204,1.2940374612808228,-1.1264503002166748,-2.390181541442871,0.328371524810791,0.09539009630680084,-0.042608022689819336,-0.10915690982342964,-1.0548968532997338,-1.527201443461503,-0.8646723031997681,0.10894026607275009,-0.4903813898563385
1729111315691,9i,4.82030552124028,1.2s : 0.4s,-46.7710859091408,0.3713361105349362,2.013210424631109,0.3775257215165925,1.2721658945083618,-1.1484386920928955,-2.3208391666412354,0.3602609634399414,0.10312007367610931,-0.04586893320083618,-0.08233661209001342,-1.0663641839395384,-1.5261600678763592,-0.8724833726882935,0.08224361389875412,-0.48167309165000916
1729111315701,9i,4.82030552124028,1.2s : 0.4s,-46.7710859091408,0.3738857416235902,1.98080822564498,0.4301320163180432,1.3305890560150146,-1.1299102306365967,-2.2433133125305176,0.41622650623321533,0.10813571512699127,-0.0087013840675354,-0.056062868400300336,-1.0777235972686692,-1.5243346783331313,-0.8794987201690674,0.056033503264188766,-0.47259122133255005
1729111315711,9i,4.82030552124028,1.2s : 0.4s,-46.7710859091408,0.3766440004670885,1.9350036156199544,0.44495777102337675,1.3168517351150513,-1.0839216709136963,-2.1281380653381348,0.43771892786026,0.0793059691786766,-0.010006070137023926,-0.03050092034609527,-1.0887273281611194,-1.5214900599092254,-0.8856255412101746,0.03049619123339653,-0.463397741317749
1729111315721,9i,4.82030552124028,1.2s : 0.4s,-46.7710859091408,0.3795538274320111,1.8746917555744549,0.46958265212564154,1.2699236869812012,-1.0602363348007202,-1.9889216423034668,0.46879929304122925,0.026889922097325325,0.0034672915935516357,-0.006297899816075532,-1.0994359924509587,-1.5181638395217418,-0.8909337520599365,0.006297857966274023,-0.4540897011756897
1729111315731,9i,4.82030552124028,1.2s : 0.4s,-46.7710859091408,0.38266312499725674,1.8041805759985268,0.5111848173798662,1.2407675981521606,-1.0161147117614746,-1.8480268716812134,0.5019347071647644,-0.05335121974349022,0.08077818155288696,0.016504344684529937,-1.1098380717067848,-1.5142280924542817,-0.8955047726631165,-0.01650359481573105,-0.4447460174560547
1729111315741,9i,4.82030552124028,1.2s : 0.4s,-46.7710859091408,0.3859002179320566,1.7203139577198276,0.5489439469525753,1.1678752899169922,-0.9715399742126465,-1.6936261653900146,0.5077990293502808,-0.14934596419334412,0.14551764726638794,0.03772057982797455,-1.1198632880654533,-1.5098977060991259,-0.8994007110595703,-0.03771163523197174,-0.435495525598526
1729111315751,9i,4.82030552124028,1.2s : 0.4s,-46.7710859091408,0.38927297376153297,1.6277446043784483,0.6102443374799333,1.1206103563308716,-0.9174599051475525,-1.531383991241455,0.5393630266189575,-0.21668513119220734,0.1858311891555786,0.05718034450972536,-1.1294634536017882,-1.5053326039395636,-0.9027054905891418,-0.057149190455675125,-0.42644694447517395
1729111315761,9i,4.82030552124028,1.2s : 0.4s,-46.7710859091408,0.39288565764212285,1.5296967566067465,0.6920413912271189,1.0941706895828247,-0.8840076327323914,-1.3452023267745972,0.6043090224266052,-0.2594836950302124,0.21540683507919312,0.07492181153727005,-1.1387501717262927,-1.5000368228234964,-0.905563473701477,-0.07485173642635345,-0.41755518317222595
1729111315771,9i,4.82030552124028,1.2s : 0.4s,-46.7710859091408,0.3968294328545879,1.4159383224956252,0.7734503621711658,1.0278147459030151,-0.7905889749526978,-1.1364037990570068,0.6446372866630554,-0.31749606132507324,0.2861196994781494,0.09060220159258676,-1.147509212278107,-1.4943389094983122,-0.9080042243003845,-0.09047829359769821,-0.40907496213912964
1729111315781,9i,4.82030552124028,1.2s : 0.4s,-46.7710859091408,0.40100853274723924,1.2937949061442455,0.8454288139400561,1.0498089790344238,-0.661312997341156,-0.8921224474906921,0.655342161655426,-0.4154699146747589,0.3356505334377289,0.10411207998641737,-1.1553468947527155,-1.4876703215915161,-0.9099808931350708,-0.10392409563064575,-0.40141579508781433
1729111315791,9i,4.82030552124028,1.2s : 0.4s,-46.7710859091408,0.4052845661064848,1.1558781410709065,0.9201040974480291,0.9831993579864502,-0.5679008960723877,-0.6045020222663879,0.6759604215621948,-0.5239156484603882,0.33938392996788025,0.11504038513958895,-1.1621314302739714,-1.4800312969468021,-0.9115867018699646,-0.11478680372238159,-0.3947578966617584
1729111315811,9i,4.82030552124028,1.2s : 0.4s,-46.7710859091408,0.40979629253590255,0.9732248166373118,1.120823752913203,0.9200576543807983,-0.3127792477607727,-0.1080518513917923,0.7438675761222839,-0.7053359150886536,0.45321977138519287,0.1289907340646905,-1.1730120684358591,-1.4631505489566772,-0.914262592792511,-0.1286333203315735,-0.3841583728790283
1729111315821,9i,4.82030552124028,1.2s : 0.4s,-46.7710859091408,0.414746812593379,0.8141692147056759,1.2025962049030852,0.8901882171630859,-0.15266627073287964,0.1686290055513382,0.7937057614326477,-0.745172381401062,0.5108687877655029,0.13218069651166092,-1.176455267208049,-1.4535154324336685,-0.9151963591575623,-0.13179612159729004,-0.3808484971523285
1729111315831,9i,4.82030552124028,1.2s : 0.4s,-46.7710859091408,0.42037205710453757,0.6907896297662649,1.2780466896857827,0.8527896404266357,0.010209818370640278,0.43232256174087524,0.8602473735809326,-0.7555077075958252,0.5679664611816406,0.13274504834185993,-1.1783581361688884,-1.4431365039337212,-0.9158504605293274,-0.13235554099082947,-0.3790777623653412
1729111315841,9i,4.82030552124028,1.2s : 0.4s,-46.7710859091408,0.4268455395120959,0.6182843347374704,1.3655963047028843,0.8108344674110413,0.21975424885749817,0.6999478936195374,0.9281667470932007,-0.7776185274124146,0.6314025521278381,0.13074323237177565,-1.1785287851970498,-1.4320100266888336,-0.9161581993103027,-0.1303710639476776,-0.3790220320224762
1729111315851,9i,4.82030552124028,1.2s : 0.4s,-46.7710859091408,0.4342730413820271,0.6059714868741324,1.463690218022046,0.7133883833885193,0.3491293787956238,0.9325301647186279,0.9934501051902771,-0.8184220790863037,0.6968724727630615,0.1261260075593129,-1.1770666105500969,-1.420697749102518,-0.9161491394042969,-0.12579187750816345,-0.3805880844593048
1729111315861,9i,4.82030552124028,1.2s : 0.4s,-46.7710859091408,0.44261060236937516,0.6825416411058871,1.4735144741549921,0.7381696105003357,0.5521283149719238,1.2341501712799072,1.0625982284545898,-0.7842475771903992,0.6535179018974304,0.11894109488463578,-1.1739754568699665,-1.4087615729716585,-0.9157782793045044,-0.11866085231304169,-0.38375765085220337
1729111315871,9i,4.82030552124028,1.2s : 0.4s,-46.7710859091408,0.4517945191487283,0.844413767069183,1.4564823492877113,0.8422257304191589,0.8412218689918518,1.5614533424377441,1.062190294265747,-0.7341946363449097,0.6738329529762268,0.10916177228561819,-1.1684904657368147,-1.3947991528704529,-0.9146836996078491,-0.1089451014995575,-0.38921064138412476
1729111315881,9i,4.82030552124028,1.2s : 0.4s,-46.7710859091408,0.46181922106681805,1.0427949463739383,1.5363114367639088,0.80164635181427,1.0873796939849854,1.9065965414047241,1.08285653591156,-0.7901729941368103,0.750533938407898,0.09649717188447672,-1.1603073488572686,-1.3793327163420084,-0.9126601219177246,-0.09634748101234436,-0.397201269865036
1729111315891,9i,4.82030552124028,1.2s : 0.4s,-46.7710859091408,0.4728196868026315,1.271239113954707,1.6466044458214621,0.7794970870018005,1.3279871940612793,2.2750730514526367,1.2002460956573486,-0.8267693519592285,0.7662688493728638,0.08055965711167046,-1.1496415391596762,-1.3626592431007996,-0.9096577763557434,-0.08047255128622055,-0.40748879313468933
1729111315901,9i,4.82030552124028,1.2s : 0.4s,-46.7710859091408,0.48487462282619403,1.5295539330410766,1.7103899564267615,0.7960193753242493,1.6053493022918701,2.6667962074279785,1.3074167966842651,-0.8021048903465271,0.7567845582962036,0.0613522680460302,-1.1362340645347668,-1.3443020915546833,-0.905348002910614,-0.06131378561258316,-0.42022132873535156
1729111315911,9i,4.82030552124028,1.2s : 0.4s,-46.7710859091408,0.4980206362525281,1.8060710420783133,1.8029558072093435,0.7978522181510925,1.9167307615280151,3.0348060131073,1.4140732288360596,-0.8216910362243652,0.758861243724823,0.039006213585135,-1.1196003347135002,-1.3239047770555008,-0.8992418050765991,-0.03899632394313812,-0.43571051955223083
1729111315921,9i,4.82030552124028,1.2s : 0.4s,-46.7710859091408,0.512412875549439,2.1040848515780515,1.9283284102572447,0.8746008276939392,2.2132372856140137,3.4410696029663086,1.568884015083313,-0.8265502452850342,0.7575408220291138,0.013705992012474617,-1.0995529920982,-1.3013153898942422,-0.890920877456665,-0.013705562800168991,-0.4539518356323242
1729111315931,9i,4.82030552124028,1.2s : 0.4s,-46.7710859091408,0.5282255296454114,2.4211059210478902,2.080691409140993,0.9717020988464355,2.5588560104370117,3.841545343399048,1.7533822059631348,-0.8327907919883728,0.7492576837539673,-0.014218177579392763,-1.0756954925968707,-1.2753637261366186,-0.8798319697380066,0.014217698946595192,-0.4750724136829376
1729111315941,9i,4.82030552124028,1.2s : 0.4s,-46.7710859091408,0.545747521837523,2.754326296942678,2.2769654550753633,1.0440386533737183,2.9335274696350098,4.249790668487549,1.933168649673462,-0.8701996207237244,0.8307726979255676,-0.04463759247387789,-1.047406502924658,-1.2461424214519126,-0.8652671575546265,0.04462277144193649,-0.49932119250297546
1729111315951,9i,4.82030552124028,1.2s : 0.4s,-46.7710859091408,0.5651767663308438,3.1019404379553883,2.4999017275425413,1.1350016593933105,3.322988986968994,4.660578727722168,2.1690776348114014,-0.9193884134292603,0.8362630009651184,-0.07725627668233435,-1.014164595752355,-1.2131751645269628,-0.8465070128440857,0.0771794468164444,-0.5267535448074341
1729111315961,9i,4.82030552124028,1.2s : 0.4s,-46.7710859091408,0.5866465657719233,3.4681049183008055,2.7087167858487438,1.268558144569397,3.767291307449341,5.073556900024414,2.4050161838531494,-0.9360288977622986,0.8227354884147644,-0.11155302146132483,-0.9752474074697112,-1.175896501118184,-0.8226951956748962,0.11132179945707321,-0.5574765801429749
1729111315971,9i,4.82030552124028,1.2s : 0.4s,-46.7710859091408,0.6102723360855851,3.8544353669057796,2.9136940826904087,1.4542206525802612,4.227959156036377,5.503787040710449,2.653916120529175,-0.9070873260498047,0.789642333984375,-0.1467646089223514,-0.9298162255756826,-1.1333163638726678,-0.7928933501243591,0.1462382972240448,-0.5915526151657104
1729111315981,9i,4.82030552124028,1.2s : 0.4s,-46.7710859091408,0.6363312750517757,4.269566376676292,3.1834251831875426,1.5682393312454224,4.766319751739502,5.985525608062744,2.9664065837860107,-0.8663317561149597,0.7642624974250793,-0.1824670606193704,-0.8770055656787603,-1.0848191889612784,-0.756064236164093,0.18145622313022614,-0.6288406252861023
1729111315991,9i,4.82030552124028,1.2s : 0.4s,-46.7710859091408,0.6653546110069724,4.703149491874447,3.530939837024382,1.6512306928634644,5.235373020172119,6.514411449432373,3.332343101501465,-0.8202170133590698,0.8308246731758118,-0.21862178085185716,-0.8160357740931256,-1.0297964409245077,-0.7110968828201294,0.21688441932201385,-0.6688066720962524
1729111316001,9i,4.82030552124028,1.2s : 0.4s,-46.7710859091408,0.6978402004818415,5.144548504881105,3.9504395374335406,1.7008816003799438,5.804923057556152,6.940023422241211,3.7790560722351074,-0.7834473848342896,0.8431594967842102,-0.25389395711753104,-0.7464178890901474,-0.9682320892446866,-0.657245397567749,0.2511749863624573,-0.7105910778045654
1729111316011,9i,4.82030552124028,1.2s : 0.4s,-46.7710859091408,0.7344992278853067,5.606700719917666,4.484468398954707,1.6302613019943237,6.344583034515381,7.512968063354492,4.335616111755371,-0.7444597482681274,0.8710163235664368,-0.2881334343732083,-0.6674586394617379,-0.8996061818472222,-0.5934746861457825,0.28416311740875244,-0.7530200481414795
1729111316021,9i,4.82030552124028,1.2s : 0.4s,-46.7710859091408,0.7761330128513065,6.127033656045318,5.08030718573475,1.4633487462997437,7.078951358795166,8.226458549499512,4.95146369934082,-0.618498682975769,0.9539327621459961,-0.32134244427897324,-0.5776614851214236,-0.8231264826286395,-0.5181145071983337,0.31584057211875916,-0.7948598265647888
1729111316031,9i,4.82030552124028,1.2s : 0.4s,-46.7710859091408,0.8237219690957347,6.74561165171036,5.826290804932855,1.039053201675415,8.101225852966309,9.107065200805664,5.71080207824707,-0.5200636386871338,1.030503749847412,-0.35389704320842463,-0.4732151810995526,-0.736663467596288,-0.42750734090805054,0.3465559780597687,-0.8349469900131226
1729111316041,9i,4.82030552124028,1.2s : 0.4s,-46.7710859091408,0.8786123718665475,7.5057105614746265,6.717710490873876,0.15494918823242188,9.315446853637695,10.315485000610352,6.581194877624512,-0.3976946175098419,1.2873799800872803,-0.38674038207221434,-0.35087287891738234,-0.6388428893757688,-0.31833183765411377,0.3771715462207794,-0.8697163462638855
1729111316051,9i,4.82030552124028,1.2s : 0.4s,-46.7710859091408,0.9419255496003164,8.455220564449823,7.750974265227749,-0.5077430009841919,10.659218788146973,11.888619422912598,7.6284589767456055,-0.3690050542354584,1.322138786315918,-0.41899967348185396,-0.20562745372842703,-0.5233487098895185,-0.18651901185512543,0.4068468511104584,-0.894251823425293
1729111316061,9i,4.82030552124028,1.2s : 0.4s,-46.7710859091408,1.0145357943948528,9.421248872608214,8.91671392785672,-1.3128024339675903,11.861310005187988,12.771482467651367,8.848673820495605,-0.41433659195899963,1.0183732509613037,-0.4431830844246721,-0.037010967593114424,-0.3883037458568337,-0.033427752554416656,0.4288172125816345,-0.9027726054191589
1729111316071,9i,4.82030552124028,1.2s : 0.4s,-46.7710859091408,1.0972404109993772,10.291325330715136,10.018292991522976,-2.5026357173919678,13.195448875427246,12.721334457397461,9.972922325134277,-0.18761423230171204,0.9337106943130493,-0.4550830072713999,0.15083685057765595,-0.24602659292328638,0.13497218489646912,0.4395368695259094,-0.8880258202552795
1729111316081,9i,4.82030552124028,1.2s : 0.4s,-46.7710859091408,1.1926793491775327,11.133039218231158,11.729610661848355,-4.51509952545166,13.794320106506348,13.375000953674316,11.618069648742676,1.0773440599441528,1.2014797925949097,-0.45567248217161926,0.35325702307020845,-0.09305778365938482,0.3106560707092285,0.44006627798080444,-0.8425167798995972
1729111316091,9i,4.82030552124028,1.2s : 0.4s,-46.7710859091408,1.3019239138717718,11.774036229004755,13.485278625280824,-6.819612979888916,13.218586921691895,13.562356948852539,13.03365421295166,3.175673723220825,1.3753886222839355,-0.44693758304923026,0.5595610005561317,0.07080592511703959,0.4786749482154846,0.4322059452533722,-0.7642436623573303
1729111316101,9i,4.82030552124028,1.2s : 0.4s,-46.7710859091408,1.424345267339743,12.038202235038577,15.171063340533307,-8.994339942932129,11.432713508605957,12.860810279846191,14.1317720413208,5.437319278717041,0.9432607889175415,-0.42711148503929425,0.7545320574485841,0.2436893346090963,0.6234163045883179,0.41424351930618286,-0.6631398797035217
1729111316111,9i,4.82030552124028,1.2s : 0.4s,-46.7710859091408,1.5560715144621993,12.235336417309888,15.923548213536888,-13.382988929748535,8.732425689697266,12.537574768066406,13.881961822509766,7.7773237228393555,0.6031246781349182,-0.4075233094817255,0.9304491185305632,0.42854239604218225,0.7362179756164551,0.3963366746902466,-0.5485439896583557
1729111316121,9i,4.82030552124028,1.2s : 0.4s,-46.7710859091408,1.6929217984018834,12.828475287016396,16.154737542042117,-19.649152755737305,4.77610445022583,12.742080688476562,12.600512504577637,10.023214340209961,1.3182579278945923,-0.39435274285010674,1.0894538380333327,0.6466615800552258,0.8183410167694092,0.3842107057571411,-0.4274345338344574
1729111316131,9i,4.82030552124028,1.2s : 0.4s,-46.7710859091408,1.8316747677203458,13.629590873125823,16.70705850126035,-23.52364730834961,-0.8004840612411499,11.974527359008789,10.802602767944336,12.43703556060791,2.783832550048828,-0.3787980019606824,1.2136863655685741,0.9094403180750301,0.8704933524131775,0.36980393528938293,-0.32478711009025574
1729111316141,9i,4.82030552124028,1.2s : 0.4s,-46.7710859091408,1.9699868872481607,14.565276087774405,17.38431049945511,-22.95966911315918,-6.194087028503418,13.986408233642578,8.865163803100586,14.402958869934082,4.0221757888793945,-0.33348928001902095,1.2745955665381525,1.188384840256107,0.9037575721740723,0.32734206318855286,-0.2758072316646576
1729111316151,9i,4.82030552124028,1.2s : 0.4s,-46.7710859091408,2.1054571379301206,15.54346760197508,17.498061350609348,-19.60891342163086,-5.611506938934326,18.562599182128906,6.776457786560059,15.438277244567871,4.682025909423828,-0.23626323482471234,1.2919369028718641,1.4517199094393374,0.9346627593040466,0.23407131433486938,-0.267612487077713
1729111316161,9i,4.82030552124028,1.2s : 0.4s,-46.7710859091408,2.23022335591737,16.53861831673928,15.830691095926506,-21.847370147705078,-5.122895240783691,17.427410125732422,3.3309028148651123,14.9152193069458,4.129418849945068,-0.1197650031452213,1.2824853315817886,1.702906688290475,0.9518580436706543,0.11947889626026154,-0.28229662775993347
1729111316171,9i,4.82030552124028,1.2s : 0.4s,-46.7710859091408,2.330391524565114,16.882140781305942,8.915792056824447,-18.324228286743164,-10.44852352142334,17.508686065673828,-0.5909625291824341,8.401700019836426,2.924644947052002,-0.01683374820525084,1.2396338706102816,1.9491462961394932,0.9455311298370361,0.016832953318953514,-0.3250965178012848
1729111316181,9i,4.82030552124028,1.2s : 0.4s,-46.7710859091408,2.4007286742092906,14.753975279714187,5.6155420343409554,-11.490148544311523,14.361188888549805,10.060527801513672,0.6274862289428711,0.9290221929550171,-5.502498626708984,0.1074821061680201,1.2550171113206685,1.9913941992642206,0.9450694918632507,-0.10727527737617493,-0.308765172958374
1729111316191,9i,4.82030552124028,1.2s : 0.4s,-46.7710859091408,2.4699302601610813,16.403089221955724,13.0329531292878,-28.9355411529541,-7.14600133895874,11.657731056213379,3.4813666343688965,-3.021847724914551,12.190422058105469,0.10893713814414993,1.2044791081339132,2.307080602695164,0.9281182885169983,-0.10872180014848709,-0.35605624318122864
