timestamp,club,max_speed,tempo,w.rotation,l.speed,t.spped,acc,rotation.x,rotation.y,rotation.z,userAcceleration.x,userAcceleration.y,userAcceleration.z,pitch,roll,yaw,gravity.x,gravity.y,gravity.z
1729110130686,7i,5.01650725557357,0.9s : 0.3s,-14.583218654060673,0.0005698069462518958,0.029253736825975218,0.03676438832466244,0.03858450800180435,0.01954386942088604,-0.026954032480716705,-0.00416487455368042,0.03650403022766113,0.0013152360916137695,-0.2954265758176387,1.548270443516576,0.28893783478034796,0.9564354419708252,0.29114797711372375,-0.0215481985360384
1729110130696,7i,5.01650725557357,0.9s : 0.3s,-14.583218654060673,0.0010463701341756706,0.02816216087761569,0.022934859932104628,0.010976315476000309,0.0110638327896595,-0.02801157534122467,-0.0038648247718811035,-0.019727498292922974,0.011040685698390007,-0.29594005360554604,1.5483727463900183,0.28869752002411053,0.9562880992889404,0.29163917899131775,-0.021446997299790382
1729110130706,7i,5.01650725557357,0.9s : 0.3s,-14.583218654060673,0.0014819251772242698,0.026233667944401722,0.021224168056109233,-0.01079475972801447,0.006052030250430107,-0.029594022780656815,0.005664467811584473,-0.0198383629322052,0.004981813952326775,-0.29664629094976885,1.5483691324570308,0.28866543585081905,0.9560819864273071,0.2923146188259125,-0.021445831283926964
1729110130716,7i,5.01650725557357,0.9s : 0.3s,-14.583218654060673,0.0018539569025577856,0.023967532943974613,0.014666185530915856,-0.031215080991387367,0.01067075040191412,-0.02493509091436863,-0.00030750036239624023,-0.013685017824172974,-0.0052652377635240555,-0.2970569409406669,1.5485506596455145,0.2888788550447691,0.9559656381607056,0.29270732402801514,-0.021269602701067924
1729110130726,7i,5.01650725557357,0.9s : 0.3s,-14.583218654060673,0.002182765603631009,0.05939325462782335,0.021699678349089195,-0.05043045058846474,-0.10209134966135025,0.34282106161117554,-0.0056844353675842285,-0.018739253282546997,-0.009348990395665169,-0.29704471053397974,1.548656638190021,0.28933191897617055,0.9559714794158936,0.2926956117153168,-0.02116836979985237
1729110130736,7i,5.01650725557357,0.9s : 0.3s,-14.583218654060673,0.0025158689407434346,0.22551270695560102,0.04153104088984517,0.0016742934240028262,-0.20172740519046783,0.8914522528648376,0.038371264934539795,-0.015255093574523926,-0.00444471649825573,-0.2981245494054426,1.5490259765166416,0.28995712564866705,0.9556624889373779,0.2937279939651489,-0.020808394998311996
1729110130746,7i,5.01650725557357,0.9s : 0.3s,-14.583218654060673,0.0027897811984307283,0.23141474246228103,0.029254819425145222,-0.021905601024627686,-0.23573623597621918,0.3103558123111725,-0.02516263723373413,-0.009919852018356323,-0.011148214340209961,-0.2994872751407897,1.5498046718718015,0.2905123057337838,0.9552774429321289,0.2950303554534912,-0.020055800676345825
1729110130756,7i,5.01650725557357,0.9s : 0.3s,-14.583218654060673,0.003018498073414833,0.14335234093445198,0.017950554541279678,-0.03560277447104454,-0.05652253329753876,-0.12912064790725708,-0.010272681713104248,0.007741749286651611,-0.012520372867584229,-0.29968737698522935,1.5498341069293509,0.29093349845091243,0.955219030380249,0.2952215373516083,-0.020026445388793945
1729110130766,7i,5.01650725557357,0.9s : 0.3s,-14.583218654060673,0.003328540606467883,0.09084126511272579,0.08119969231190213,-0.001973171951249242,0.004765590187162161,-0.05199404060840607,0.07244604825973511,0.03230690956115723,-0.017355797812342644,-0.300104170835689,1.5498457176961797,0.29112997387397865,0.9550960659980774,0.2956197261810303,-0.02001277171075344
1729110130776,7i,5.01650725557357,0.9s : 0.3s,-14.583218654060673,0.0035822598733298676,0.05943482215529922,0.03439391876716835,-0.009864384308457375,0.008602672256529331,-0.020309878513216972,-0.026144802570343018,-0.00047141313552856445,-0.022342083975672722,-0.3004102358888999,1.5499840541632874,0.2911667842201244,0.955008327960968,0.29591208696365356,-0.01987876370549202
1729110130786,7i,5.01650725557357,0.9s : 0.3s,-14.583218654060673,0.0038114834862654095,0.03670383271388661,0.02217739134229862,-0.02637758105993271,-0.0011047269217669964,-0.037907712161540985,-0.004938960075378418,-0.018251895904541016,-0.011589290574193,-0.30051031305796877,1.55013204681895,0.29137428833091494,0.9549818634986877,0.2960076928138733,-0.019736822694540024
1729110130796,7i,5.01650725557357,0.9s : 0.3s,-14.583218654060673,0.004017229451211556,0.032014121938895274,0.015127341208016868,-0.021046997979283333,-0.004383611027151346,-0.03373906761407852,0.0012816190719604492,0.004486709833145142,-0.014389695599675179,-0.3006988766634894,1.5501233253844193,0.29159800520947926,0.9549258351325989,0.29618778824806213,-0.019743995741009712
1729110130806,7i,5.01650725557357,0.9s : 0.3s,-14.583218654060673,0.004201888166667826,0.02849574204470751,0.011379396481639877,-0.023757297545671463,-0.011449509300291538,-0.031210461631417274,-0.0001582503318786621,0.001816779375076294,-0.011232316493988037,-0.30082629266117034,1.549995922854435,0.29178274318618136,0.9548854827880859,0.2963095009326935,-0.019864868372678757
1729110130816,7i,5.01650725557357,0.9s : 0.3s,-14.583218654060673,0.004366886359763582,0.02618221890002195,0.014031354886911472,-0.031470078974962234,-0.020743675529956818,-0.03391969949007034,-0.001971900463104248,-0.007916897535324097,-0.011415483430027962,-0.3008247928500215,1.5498681209338925,0.29204380613942016,0.9548834562301636,0.29630807042121887,-0.019986916333436966
1729110130826,7i,5.01650725557357,0.9s : 0.3s,-14.583218654060673,0.004502394722050319,0.02450484174825622,0.02089392626049353,-0.032674625515937805,-0.017797155305743217,-0.03172978013753891,-0.009447574615478516,-0.000479966402053833,-0.01862979121506214,-0.3011221952671626,1.5496392114698436,0.29232909309861377,0.9547907710075378,0.2965920865535736,-0.02020363323390484
1729110130836,7i,5.01650725557357,0.9s : 0.3s,-14.583218654060673,0.004609841753328538,0.023528123226825702,0.024809446851478997,-0.03566109389066696,-0.015863167122006416,-0.027081230655312538,-0.01115727424621582,-0.005495280027389526,-0.021466853097081184,-0.3015165810761204,1.5494277114302673,0.2926341045665602,0.9546694755554199,0.2969686985015869,-0.020403070375323296
1729110130846,7i,5.01650725557357,0.9s : 0.3s,-14.583218654060673,0.004700158687921778,0.02312159458613747,0.021619015057802973,-0.03149031847715378,-0.022900747135281563,-0.028022458776831627,-0.006220579147338867,-0.011935800313949585,-0.0169181227684021,-0.3018854709891211,1.5491678093264343,0.29292686962498987,0.9545544385910034,0.2973209321498871,-0.020648816600441933
1729110130856,7i,5.01650725557357,0.9s : 0.3s,-14.583218654060673,0.004780469412500079,0.02265511985540127,0.016905888530231238,-0.019854167476296425,-0.02588482014834881,-0.02755507454276085,-0.00024962425231933594,-0.002088010311126709,-0.01677459292113781,-0.3022309280936112,1.548743340975441,0.29311663589572934,0.9544427990913391,0.2976507544517517,-0.02105172537267208
1729110130866,7i,5.01650725557357,0.9s : 0.3s,-14.583218654060673,0.004852025866008871,0.021540276801692057,0.020310738995367103,0.007812080904841423,-0.03090984746813774,-0.023731907829642296,0.0011208057403564453,0.0065621137619018555,-0.019188761711120605,-0.30229658456030445,1.5483625872042754,0.2931606352136988,0.9544151425361633,0.29771342873573303,-0.02141469344496727
1729110130876,7i,5.01650725557357,0.9s : 0.3s,-14.583218654060673,0.004894315802571778,0.1106502185508646,0.03043860591240049,0.03493557497859001,-0.19102202355861664,0.48612311482429504,-0.018511176109313965,0.0075380802154541016,-0.02295696921646595,-0.30180179546451635,1.5476299875304367,0.2928881887801288,0.9545465111732483,0.2972410321235657,-0.022117305546998978
1729110130886,7i,5.01650725557357,0.9s : 0.3s,-14.583218654060673,0.004357714417708803,0.38609888133265935,0.1750478302564838,0.10307095944881439,-0.5104464888572693,1.4460644721984863,-0.1729351282119751,-0.017022669315338135,-0.021104810759425163,-0.3022110954003729,1.547157310635555,0.2925105327720651,0.9544140696525574,0.2976318299770355,-0.022565612569451332
1729110130896,7i,5.01650725557357,0.9s : 0.3s,-14.583218654060673,0.003819234416719877,0.43295217771417605,0.056445601388064606,0.11153022199869156,-0.47941938042640686,0.6643852591514587,-0.05186724662780762,0.013381004333496094,-0.017800094559788704,-0.3031617278879291,1.5473329160972937,0.291821819750841,0.9541348814964294,0.29853925108909607,-0.022391367703676224
1729110130906,7i,5.01650725557357,0.9s : 0.3s,-14.583218654060673,0.003384301529120993,0.31314345253476805,0.04734776751532029,0.11954047530889511,-0.10965561866760254,-0.018906526267528534,0.04260307550430298,0.009874075651168823,-0.018146395683288574,-0.30285520060706766,1.5465307366345666,0.29089794825619386,0.9542078971862793,0.29824668169021606,-0.0231589637696743
1729110130916,7i,5.01650725557357,0.9s : 0.3s,-14.583218654060673,0.003012303941992874,0.2239976260253908,0.026053423938505363,0.1347188949584961,-0.05542353540658951,-0.04174845665693283,0.011049807071685791,0.003391444683074951,-0.023349106311798096,-0.30274084819046254,1.545651564486821,0.2897075096032625,0.9542213082313538,0.29813751578330994,-0.023998726159334183
1729110130926,7i,5.01650725557357,0.9s : 0.3s,-14.583218654060673,0.002698275448674978,0.17499352729419518,0.024357467009154275,0.1648777276277542,-0.0507446750998497,0.004631656687706709,0.009151756763458252,0.007974803447723389,-0.02111715078353882,-0.30284673981038535,1.5446868810934702,0.28819917963721164,0.9541661739349365,0.298238605260849,-0.024918412789702415
1729110130936,7i,5.01650725557357,0.9s : 0.3s,-14.583218654060673,0.0024280257302170313,0.14724261474698636,0.020954109455840718,0.1936928629875183,-0.03919507563114166,-0.0035445138346403837,-0.004645824432373047,0.005697786808013916,-0.019622085615992546,-0.3028023903314177,1.543712062699052,0.2863125365659962,0.9541544914245605,0.2981962561607361,-0.02584889344871044
1729110130946,7i,5.01650725557357,0.9s : 0.3s,-14.583218654060673,0.0022164648365163766,0.1427064458250269,0.019208531357887745,0.2144753634929657,-0.02583284303545952,-0.003125864779576659,0.0012829899787902832,-0.011381685733795166,-0.015420079231262207,-0.3026317045828746,1.5426199509416654,0.2842274845488801,0.954176664352417,0.29803335666656494,-0.02689235843718052
1729110130956,7i,5.01650725557357,0.9s : 0.3s,-14.583218654060673,0.0020681343087877234,0.14374723873240774,0.01873699584386912,0.27309155464172363,-0.013413457199931145,-0.00530512910336256,0.009105682373046875,-3.349781036376953e-05,-0.016375605016946793,-0.3023965115891005,1.541368720876761,0.28175847925310904,0.9542123675346375,0.29780882596969604,-0.028088293969631195
1729110130966,7i,5.01650725557357,0.9s : 0.3s,-14.583218654060673,0.001977780494839175,0.17196563132352755,0.031202690475732,0.38790881633758545,-0.0006884750910103321,-0.009504968300461769,0.012754857540130615,0.01872485876083374,-0.02145463041961193,-0.30200727959946205,1.5399149746048761,0.2784174237230448,0.9542861580848694,0.29743725061416626,-0.029479019343852997
1729110130976,7i,5.01650725557357,0.9s : 0.3s,-14.583218654060673,0.0019410396520302914,0.22417786654114838,0.04380017284029308,0.5303865671157837,0.019996829330921173,-0.0026681008748710155,0.02125847339630127,0.03293010592460632,-0.019548416137695312,-0.30148067619406316,1.538130639884716,0.2736785588130155,0.9543885588645935,0.29693442583084106,-0.031186850741505623
1729110130986,7i,5.01650725557357,0.9s : 0.3s,-14.583218654060673,0.0019580601437315928,0.28754750530488754,0.04974656290283027,0.65330970287323,0.03558347001671791,0.009128271602094173,0.02655661106109619,0.03997233510017395,-0.013102646917104721,-0.30080127246139926,1.5360365722244185,0.26752792172906914,0.9545224905014038,0.29628559947013855,-0.033192336559295654
1729110130996,7i,5.01650725557357,0.9s : 0.3s,-14.583218654060673,0.002012022829558679,0.3505321497828094,0.04237522802107765,0.741321325302124,0.04482517018914223,0.02604253962635994,0.0247039794921875,0.03346610069274902,-0.008086621761322021,-0.2999929151588118,1.5337002042330696,0.2603141007783037,0.9546814560890198,0.29551345109939575,-0.035431232303380966
1729110131006,7i,5.01650725557357,0.9s : 0.3s,-14.583218654060673,0.0020975761444146897,0.41012857239777245,0.04156727688862702,0.8161171078681946,0.05589916929602623,0.04325391724705696,0.01968204975128174,0.03511214256286621,-0.010372698307037354,-0.29910056962891934,1.5311508119495696,0.25220409456122866,0.9548510909080505,0.2946608364582062,-0.03787541016936302
1729110131016,7i,5.01650725557357,0.9s : 0.3s,-14.583218654060673,0.0022017527857463377,0.45874147601025866,0.026649726792659152,0.8482473492622375,0.060026537626981735,0.0692671462893486,0.01043480634689331,0.02436774969100952,-0.0027450919151306152,-0.2981768935702697,1.5285118465801124,0.24356123116399586,0.9550193548202515,0.29377803206443787,-0.04040658101439476
1729110131026,7i,5.01650725557357,0.9s : 0.3s,-14.583218654060673,0.002315388794889057,0.49195964164096184,0.018891068535755506,0.8420593738555908,0.05521327257156372,0.09657476097345352,0.00354081392288208,0.018555045127868652,-0.00021309033036231995,-0.2972343110543595,1.5258414905696192,0.23478455169988932,0.9551843404769897,0.2928769290447235,-0.04296910762786865
1729110131036,7i,5.01650725557357,0.9s : 0.3s,-14.583218654060673,0.0024417701282413544,0.5158790760463392,0.020961806095241557,0.8432013392448425,0.03883669525384903,0.12354379147291183,0.0015853047370910645,0.019595593214035034,-0.007273022085428238,-0.2963855087723731,1.5230530458835299,0.226050651414118,0.9553087949752808,0.29206523299217224,-0.04564426466822624
1729110131046,7i,5.01650725557357,0.9s : 0.3s,-14.583218654060673,0.0025758985991122156,0.5348124773214395,0.0374585706808601,0.8505469560623169,0.03460448980331421,0.14959916472434998,-0.0011238455772399902,0.03739050030708313,-0.001957543194293976,-0.2956164754405835,1.520407546142348,0.21729391166369336,0.9554086923599243,0.29132965207099915,-0.048182666301727295
1729110131056,7i,5.01650725557357,0.9s : 0.3s,-14.583218654060673,0.0027165820628038493,0.5489314368304314,0.04072954678934867,0.8496297597885132,0.024779556319117546,0.1824316829442978,-0.01564723253250122,0.03717446327209473,-0.005667395889759064,-0.29488538073371495,1.517897829126661,0.20839677573177207,0.9554972648620605,0.29063019156455994,-0.050591569393873215
1729110131066,7i,5.01650725557357,0.9s : 0.3s,-14.583218654060673,0.002854414112252291,0.5520536752649152,0.020579763504210636,0.8200724720954895,0.0027613837737590075,0.2105180025100708,-0.011212646961212158,0.016891002655029297,0.003535144031047821,-0.29422040274355465,1.5154639415857454,0.1996754130352801,0.955564022064209,0.28999385237693787,-0.052927661687135696
1729110131076,7i,5.01650725557357,0.9s : 0.3s,-14.583218654060673,0.0029872701163196334,0.5472131495597955,0.014029868698640313,0.7573268413543701,-0.024647338315844536,0.23313464224338531,-0.01031261682510376,0.009088218212127686,0.0028091706335544586,-0.293620319186248,1.51310422896843,0.19143583216761076,0.9556098580360413,0.2894195020198822,-0.055192384868860245
1729110131086,7i,5.01650725557357,0.9s : 0.3s,-14.583218654060673,0.0030967569342637354,0.5283237618633653,0.025288812028448304,0.6813512444496155,-0.05095444247126579,0.26080623269081116,-0.020225167274475098,-0.014155566692352295,0.005485121160745621,-0.2930991475236731,1.5108721146444857,0.1839319930244917,0.9556347131729126,0.2889205813407898,-0.0573343001306057
1729110131096,7i,5.01650725557357,0.9s : 0.3s,-14.583218654060673,0.003135539146168206,0.4976860215616952,0.04587365425127995,0.5794256925582886,-0.0703933835029602,0.28188782930374146,-0.028127849102020264,-0.03610435128211975,0.0031132102012634277,-0.29264393129657196,1.5088597956773302,0.17737356141469612,0.95564866065979,0.28848475217819214,-0.059265363961458206
1729110131106,7i,5.01650725557357,0.9s : 0.3s,-14.583218654060673,0.0030642212835007617,0.4578496389065834,0.05434413976628821,0.46600401401519775,-0.09320184588432312,0.30382901430130005,-0.02731454372406006,-0.046935200691223145,0.0020707882940769196,-0.29224252307806153,1.507116095907578,0.17195314543745743,0.9556592702865601,0.28810039162635803,-0.0609389990568161
1729110131116,7i,5.01650725557357,0.9s : 0.3s,-14.583218654060673,0.0029194332971214754,0.41150309423178466,0.06097084858606378,0.34673672914505005,-0.11263253539800644,0.31598687171936035,-0.02843952178955078,-0.05380728840827942,0.003662470728158951,-0.2919456498474041,1.505663916610836,0.16776852450385174,0.9556550979614258,0.2878160774707794,-0.062332287430763245
1729110131126,7i,5.01650725557357,0.9s : 0.3s,-14.583218654060673,0.002744214427877598,0.36305321843158345,0.061645858578359254,0.22892862558364868,-0.13409113883972168,0.32480472326278687,-0.024043798446655273,-0.054464370012283325,0.015991874039173126,-0.2917554807255594,1.5045336884464702,0.1648817212186198,0.9556386470794678,0.2876339554786682,-0.06341598182916641
1729110131136,7i,5.01650725557357,0.9s : 0.3s,-14.583218654060673,0.0025969153418932134,0.32472874227921,0.05187531721321933,0.16174346208572388,-0.15426085889339447,0.3350168764591217,-0.014372050762176514,-0.044671833515167236,0.02211153507232666,-0.29164774516901404,1.503608825409628,0.1630091113786523,0.9556105136871338,0.287530779838562,-0.06430187076330185
1729110131146,7i,5.01650725557357,0.9s : 0.3s,-14.583218654060673,0.002491514601581479,0.29691100454488023,0.049727425396662424,0.11145219206809998,-0.16397228837013245,0.34004464745521545,-0.02056431770324707,-0.03971347212791443,0.021743178367614746,-0.29158479723094943,1.5028139540890473,0.1617560293475582,0.9555771946907043,0.2874704897403717,-0.06506266444921494
1729110131156,7i,5.01650725557357,0.9s : 0.3s,-14.583218654060673,0.002435846747662211,0.2799897684442979,0.05093428999027658,0.08757588267326355,-0.16598591208457947,0.34474724531173706,-0.03142577409744263,-0.030588299036026,0.02590518444776535,-0.2915525119033928,1.5021637277745337,0.16090879196971172,0.9555439949035645,0.2874395549297333,-0.06568463146686554
1729110131166,7i,5.01650725557357,0.9s : 0.3s,-14.583218654060673,0.0024329550981290796,0.27524170023683314,0.038461427055190546,0.08259724080562592,-0.16746029257774353,0.3451775908470154,-0.026272296905517578,-0.010871291160583496,0.02590101957321167,-0.29151785597654867,1.5016098687129027,0.16020985050322123,0.9555173516273499,0.28740638494491577,-0.06621454656124115
1729110131176,7i,5.01650725557357,0.9s : 0.3s,-14.583218654060673,0.002471068686677652,0.2731493712670252,0.03879743653728448,0.09340701252222061,-0.16757959127426147,0.3443666696548462,-0.02262282371520996,-0.0041468143463134766,0.031245045363903046,-0.29150681156732333,1.5010635537275305,0.15948783680544848,0.9554843306541443,0.28739580512046814,-0.06673678010702133
1729110131186,7i,5.01650725557357,0.9s : 0.3s,-14.583218654060673,0.0025402929701336683,0.27211910169802,0.042682569997681226,0.11703897267580032,-0.15900284051895142,0.34698256850242615,-0.024553298950195312,0.0006408393383026123,0.034907400608062744,-0.2914627534602825,1.500537182008299,0.15859022698807387,0.9554615616798401,0.28735360503196716,-0.06724058836698532
1729110131196,7i,5.01650725557357,0.9s : 0.3s,-14.583218654060673,0.002632138259419027,0.2719161811743872,0.039683839247758715,0.1416763961315155,-0.1594792753458023,0.3446943759918213,-0.020234525203704834,0.007490068674087524,0.03330570459365845,-0.2913373731713587,1.4999963835863437,0.15742778523486065,0.9554610848426819,0.28723350167274475,-0.06775984168052673
1729110131206,7i,5.01650725557357,0.9s : 0.3s,-14.583218654060673,0.002747587963596665,0.27177517771100823,0.0349856849250312,0.1518174558877945,-0.1563982516527176,0.34065771102905273,-0.018608450889587402,0.0024736225605010986,0.029522955417633057,-0.2911742117366195,1.499407461836916,0.15609069934703765,0.9554676413536072,0.2870772182941437,-0.06832586228847504
1729110131216,7i,5.01650725557357,0.9s : 0.3s,-14.583218654060673,0.002888735578836378,0.2709365297099554,0.0350768845435072,0.15381217002868652,-0.1480814665555954,0.330067902803421,-0.020394563674926758,-0.0029829442501068115,0.02838224172592163,-0.2909767001131156,1.4988169958410913,0.15466535744921128,0.9554837346076965,0.2868880033493042,-0.06889410316944122
1729110131226,7i,5.01650725557357,0.9s : 0.3s,-14.583218654060673,0.003051024922327519,0.26629917442982776,0.034863749962997286,0.13297678530216217,-0.141740083694458,0.3177310526371002,-0.0171239972114563,-0.004615187644958496,0.03001582622528076,-0.29076918605108204,1.4983254541657345,0.15334825730866866,0.9555091261863708,0.28668922185897827,-0.06936806440353394
1729110131236,7i,5.01650725557357,0.9s : 0.3s,-14.583218654060673,0.0032342161326887066,0.2564232310454624,0.033470736889410595,0.11276713013648987,-0.1349487602710724,0.3017542064189911,-0.0148085355758667,-0.008673906326293945,0.02873605489730835,-0.2905938638500127,1.4978800802014687,0.15223018387418855,0.955528199672699,0.28652122616767883,-0.06979727745056152
1729110131246,7i,5.01650725557357,0.9s : 0.3s,-14.583218654060673,0.0034406538789249616,0.24306514299984025,0.030839814695179133,0.08826524019241333,-0.13068291544914246,0.27576136589050293,-0.015677213668823242,-0.012564659118652344,0.023397617042064667,-0.2904502972336556,1.4974977493479698,0.1513480287920014,0.9555425047874451,0.2863836884498596,-0.07016561180353165
1729110131256,7i,5.01650725557357,0.9s : 0.3s,-14.583218654060673,0.0036676925752833715,0.22909226149355666,0.027146953090926386,0.08021584153175354,-0.12449505925178528,0.25389522314071655,-0.019307076930999756,-0.009736746549606323,0.016413092613220215,-0.2903654210171594,1.497128119920052,0.1506455634637608,0.955540657043457,0.2863023579120636,-0.07052058726549149
1729110131266,7i,5.01650725557357,0.9s : 0.3s,-14.583218654060673,0.0039045590072750674,0.21461977081233813,0.022961861178631894,0.07769888639450073,-0.11520826071500778,0.23137111961841583,-0.020606696605682373,-0.0006118416786193848,0.010111220180988312,-0.2902696613415238,1.4967789377795264,0.14996712909383175,0.9555432200431824,0.2862106263637543,-0.0708562582731247
1729110131276,7i,5.01650725557357,0.9s : 0.3s,-14.583218654060673,0.0041557809933853804,0.1974364632580723,0.026518412004693053,0.05559544637799263,-0.09977604448795319,0.2057163566350937,-0.020826280117034912,-0.011201858520507812,0.012000441551208496,-0.2901745911996746,1.496480630705192,0.14940602454850285,0.9555492997169495,0.2861195206642151,-0.07114332914352417
1729110131286,7i,5.01650725557357,0.9s : 0.3s,-14.583218654060673,0.00441701034775876,0.17905162647064157,0.026143067501080516,0.0459689199924469,-0.09022302180528641,0.17651866376399994,-0.018126249313354492,-0.012894898653030396,0.013733923435211182,-0.29011015626222175,1.4962328803809508,0.14900177419761004,0.9555500745773315,0.2860577702522278,-0.07138144224882126
1729110131296,7i,5.01650725557357,0.9s : 0.3s,-14.583218654060673,0.004677221061572532,0.15942290956589472,0.017743948757808034,0.04283011704683304,-0.07794052362442017,0.144328773021698,-0.013759315013885498,-0.006969451904296875,0.008772440254688263,-0.2900570924722871,1.4959810850707709,0.14864639937354357,0.955547034740448,0.2860069274902344,-0.07162316888570786
1729110131306,7i,5.01650725557357,0.9s : 0.3s,-14.583218654060673,0.004932163868501439,0.1398727844201398,0.015553150743938123,0.053231894969940186,-0.06139332428574562,0.11533287167549133,-0.014886319637298584,-0.002980351448059082,0.0033786818385124207,-0.2900025608575326,1.4957345137493279,0.14822948906230754,0.9555451273918152,0.28595468401908875,-0.07185995578765869
1729110131316,7i,5.01650725557357,0.9s : 0.3s,-14.583218654060673,0.005174194209476822,0.11951243313193043,0.009510069072209257,0.05616376921534538,-0.0439743846654892,0.08336082100868225,-0.009340167045593262,-0.00037747621536254883,0.0017493441700935364,-0.28991360488677775,1.4954935274455938,0.1477166020825767,0.9555529356002808,0.28586944937705994,-0.07209213078022003
1729110131326,7i,5.01650725557357,0.9s : 0.3s,-14.583218654060673,0.005397809946669287,0.09914632707251513,0.004449682525347372,0.0616578683257103,-0.027515694499015808,0.050950951874256134,-0.004422426223754883,-0.00048360228538513184,-8.916109800338745e-05,-0.28981735701430655,1.495263935863363,0.14715084142246712,0.9555637836456299,0.28577721118927,-0.072313591837883
1729110131336,7i,5.01650725557357,0.9s : 0.3s,-14.583218654060673,0.005604573615681592,0.0772048251149621,0.004089946436237296,0.04856204241514206,-0.008490605279803276,0.01657220534980297,-0.0006043314933776855,-0.002982795238494873,0.002732284367084503,-0.28967067732946705,1.4950611545639578,0.1465943419769857,0.9555909633636475,0.28563663363456726,-0.07251053303480148
1729110131346,7i,5.01650725557357,0.9s : 0.3s,-14.583218654060673,0.005805900859729412,0.05916277423677999,0.016341679790992086,0.024555107578635216,-0.009533366188406944,0.011777883395552635,-0.0014740824699401855,-0.01561620831489563,0.0045838430523872375,-0.28954237107273495,1.4949787488852913,0.14627084438093507,0.9556214809417725,0.28551366925239563,-0.07259204983711243
1729110131356,7i,5.01650725557357,0.9s : 0.3s,-14.583218654060673,0.005995326972251351,0.044878413194626765,0.011726800424800225,0.0022649825550615788,-0.016498330980539322,0.012316640466451645,0.0007956624031066895,-0.011410176753997803,-0.0025870129466056824,-0.28935697802750543,1.4949342446116498,0.14618983348727724,0.9556710124015808,0.2853359878063202,-0.07263859361410141
1729110131366,7i,5.01650725557357,0.9s : 0.3s,-14.583218654060673,0.006167666859597201,0.0352293836489497,0.007867091459174351,-0.0007619662210345268,-0.02055254951119423,0.01293948758393526,-0.0005358457565307617,-0.0032500028610229492,-0.007144331932067871,-0.2891693866559273,1.4948852749563266,0.14623257981845522,0.955720841884613,0.2851561903953552,-0.07268945127725601
1729110131376,7i,5.01650725557357,0.9s : 0.3s,-14.583218654060673,0.006326216433762716,0.031994131406749955,0.012159353697234938,0.010785499587655067,-0.021059349179267883,0.010506423190236092,-0.00479578971862793,-0.0024232864379882812,-0.010907702147960663,-0.2890232225101567,1.4947710028718704,0.14623454198765254,0.9557539820671082,0.28501608967781067,-0.07280182093381882
1729110131386,7i,5.01650725557357,0.9s : 0.3s,-14.583218654060673,0.006463846200376938,0.03142845736257366,0.020460887146262673,0.042301349341869354,-0.015247532166540623,0.015713436529040337,-0.008414685726165771,0.0120200514793396,-0.014260411262512207,-0.28890291792053274,1.4945458138631638,0.14597592350998428,0.9557719230651855,0.2849007844924927,-0.07301966845989227
1729110131396,7i,5.01650725557357,0.9s : 0.3s,-14.583218654060673,0.006576290577157155,0.03386196117886952,0.024004936308153948,0.07544571906328201,-0.01288717333227396,0.01808391511440277,-0.006317853927612305,0.018763601779937744,-0.01357383280992508,-0.2887446286367566,1.494262142664141,0.1454106428109182,0.9557961821556091,0.2847490608692169,-0.0732942447066307
1729110131406,7i,5.01650725557357,0.9s : 0.3s,-14.583218654060673,0.006659684473581888,0.040962210532745506,0.028004870752647806,0.09326626360416412,-0.01077768299728632,0.016170434653759003,-0.0016692876815795898,0.021082252264022827,-0.01835823804140091,-0.28852250357382897,1.4938928430348497,0.14452315590663511,0.9558320641517639,0.28453612327575684,-0.07365206629037857
1729110131416,7i,5.01650725557357,0.9s : 0.3s,-14.583218654060673,0.006731263827873176,0.046565583418581066,0.01915631632248291,0.09489558637142181,-0.015245935879647732,0.012643876485526562,-0.00824207067489624,0.010796427726745605,-0.013508141040802002,-0.2882852025337909,1.4935494083944905,0.1435978113461099,0.955873966217041,0.28430861234664917,-0.07398553937673569
1729110131426,7i,5.01650725557357,0.9s : 0.3s,-14.583218654060673,0.0067809066951002375,0.059477654830259914,0.028200733283443937,0.13520385324954987,-0.012206913903355598,0.014065805822610855,-0.0031439661979675293,0.019239306449890137,-0.02037758380174637,-0.2878664662755483,1.493163080372189,0.14242834440263286,0.9559639692306519,0.28390711545944214,-0.07436404377222061
1729110131436,7i,5.01650725557357,0.9s : 0.3s,-14.583218654060673,0.006811979444606916,0.07140061054013563,0.020157786454205753,0.14707356691360474,-0.017070379108190536,0.014381390064954758,0.0022203922271728516,0.013786405324935913,-0.01453758031129837,-0.28747441135337165,1.4925858396612615,0.14095705687305596,0.9560317397117615,0.28353118896484375,-0.074924536049366
1729110131446,7i,5.01650725557357,0.9s : 0.3s,-14.583218654060673,0.006845368319491954,0.07980836339666905,0.010935537956346195,0.14560149610042572,-0.022837674245238304,0.01661168783903122,-0.003378927707672119,-0.004980295896530151,-0.00913047045469284,-0.287186259670189,1.4919005606503302,0.13945758185320056,0.9560614228248596,0.28325486183166504,-0.07558608800172806
1729110131456,7i,5.01650725557357,0.9s : 0.3s,-14.583218654060673,0.006874785663979613,0.08543083346874619,0.01330822699815794,0.14987267553806305,-0.026924028992652893,0.017984813079237938,-0.001715540885925293,0.0006599128246307373,-0.013180680572986603,-0.2869216346118926,1.491115686763183,0.13791418658734836,0.9560766816139221,0.28300103545188904,-0.07634243369102478
1729110131466,7i,5.01650725557357,0.9s : 0.3s,-14.583218654060673,0.006896405545138344,0.09182030241333383,0.015066133939815034,0.15907202661037445,-0.03176947310566902,0.021188262850046158,0.002060532569885254,0.001876235008239746,-0.01480615884065628,-0.28681485413849395,1.4902328295462057,0.13629196532336804,0.9560390114784241,0.2828986346721649,-0.07718891650438309
1729110131476,7i,5.01650725557357,0.9s : 0.3s,-14.583218654060673,0.006908545399145964,0.09811343535351452,0.01591975183516855,0.1680855005979538,-0.03168025612831116,0.024973146617412567,0.0034873485565185547,0.004046022891998291,-0.014996886253356934,-0.28674800284389124,1.4893007567667107,0.13455358291138597,0.9559853672981262,0.2828345000743866,-0.07808151096105576
1729110131486,7i,5.01650725557357,0.9s : 0.3s,-14.583218654060673,0.006917741333447496,0.10262299820431844,0.014530620509102908,0.17160554230213165,-0.0397115983068943,0.023264164105057716,0.0005856752395629883,4.6581029891967773e-05,-0.01451873779296875,-0.28667019344506556,1.48827571718136,0.1327607185940028,0.9559268355369568,0.2827598750591278,-0.07906321436166763
1729110131496,7i,5.01650725557357,0.9s : 0.3s,-14.583218654060673,0.006928296500060926,0.10371700072692244,0.020842831211633016,0.16291138529777527,-0.03897496685385704,0.025127576664090157,-0.0023055076599121094,-0.0029849112033843994,-0.020498745143413544,-0.28647403508801855,1.4872893531396842,0.1309974747099531,0.9559035301208496,0.2825717329978943,-0.08001068234443665
1729110131506,7i,5.01650725557357,0.9s : 0.3s,-14.583218654060673,0.006951952741935125,0.10427385595934081,0.02069413684405741,0.1554955393075943,-0.04474266618490219,0.022571543231606483,-0.005265474319458008,-0.014833539724349976,-0.01343458890914917,-0.2863867728696951,1.4862226392274398,0.1293305692550097,0.9558423161506653,0.28248801827430725,-0.0810324028134346
1729110131516,7i,5.01650725557357,0.9s : 0.3s,-14.583218654060673,0.0069751954707922646,0.10721073215561225,0.01823288549862746,0.17384153604507446,-0.04654189199209213,0.02705817110836506,-0.0023552775382995605,-0.00029397010803222656,-0.018077731132507324,-0.28618216069952523,1.4851948481130985,0.12762990559252754,0.9558160305023193,0.2822917401790619,-0.08201970160007477
1729110131526,7i,5.01650725557357,0.9s : 0.3s,-14.583218654060673,0.007002559136128617,0.1159338913656314,0.018680202024207643,0.19499967992305756,-0.047435250133275986,0.03146686777472496,-0.005018055438995361,-0.0025183260440826416,-0.017816483974456787,-0.28568551008836546,1.4841519164434507,0.12570652451602307,0.9558695554733276,0.28181523084640503,-0.0830286294221878
1729110131536,7i,5.01650725557357,0.9s : 0.3s,-14.583218654060673,0.007039843710686922,0.12579239289990954,0.01737189055945488,0.21519042551517487,-0.044608838856220245,0.029669763520359993,-0.013105988502502441,0.0010082423686981201,-0.011357776820659637,-0.2852383662812344,1.483025541190805,0.12358697681073086,0.9559008479118347,0.28138619661331177,-0.08411628007888794
1729110131546,7i,5.01650725557357,0.9s : 0.3s,-14.583218654060673,0.007077291376704054,0.13804457062276385,0.0194710782213963,0.24337919056415558,-0.037737615406513214,0.03391657769680023,-0.010685384273529053,0.011861085891723633,-0.01114720106124878,-0.28475739118723775,1.4818600419774417,0.12120776825950211,0.9559369087219238,0.28092461824417114,-0.08524234592914581
1729110131556,7i,5.01650725557357,0.9s : 0.3s,-14.583218654060673,0.007116606396139155,0.14467014300003683,0.007830300192337443,0.2374344766139984,-0.04064711928367615,0.02842487022280693,-0.00546342134475708,0.002384185791015625,-0.005077429115772247,-0.28429760971127244,1.4806783381860937,0.11870346081071124,0.9559640884399414,0.28048333525657654,-0.08638353645801544
1729110131566,7i,5.01650725557357,0.9s : 0.3s,-14.583218654060673,0.0071650625182673455,0.14535706233484857,0.01011609174991237,0.22011595964431763,-0.04392538219690323,0.02523620054125786,-0.008856892585754395,-0.00458100438117981,0.0017044544219970703,-0.283859964929457,1.4795174318073903,0.11634226902539965,0.9559852480888367,0.2800632119178772,-0.08750443905591965
1729110131576,7i,5.01650725557357,0.9s : 0.3s,-14.583218654060673,0.007215551054753939,0.14557650208195452,0.010481950995597782,0.21552413702011108,-0.04112054035067558,0.017689602449536324,-0.009050607681274414,0.00504729151725769,-0.0015756413340568542,-0.28344670378024245,1.47833090138502,0.11407300740151878,0.9559957981109619,0.2796664834022522,-0.08864934742450714
1729110131586,7i,5.01650725557357,0.9s : 0.3s,-14.583218654060673,0.007258160106646481,0.14627112652635568,0.017034078480293174,0.22438833117485046,-0.037394292652606964,0.012650467455387115,-0.005637764930725098,0.015669554471969604,-0.003583364188671112,-0.28296772558907873,1.4772358745063838,0.11178675983610527,0.9560314416885376,0.2792065739631653,-0.08970864117145538
1729110131596,7i,5.01650725557357,0.9s : 0.3s,-14.583218654060673,0.007290307009956658,0.1461051105690092,0.014513337600119467,0.21282941102981567,-0.03623102232813835,0.009109262377023697,-0.0005959868431091309,0.013304919004440308,0.005767226219177246,-0.28268121184051953,1.4761136948378288,0.10949052257536031,0.9560098648071289,0.2789314389228821,-0.09078899025917053
1729110131606,7i,5.01650725557357,0.9s : 0.3s,-14.583218654060673,0.007313737217889401,0.1438717569732863,0.017398325306147475,0.19008347392082214,-0.03888401761651039,0.004028783645480871,-8.916854858398438e-05,0.01056787371635437,0.013820774853229523,-0.28244883425117306,1.475038020815812,0.10738203641784902,0.9559760093688965,0.278708279132843,-0.09182348102331161
1729110131616,7i,5.01650725557357,0.9s : 0.3s,-14.583218654060673,0.007329960550851495,0.13409552544972383,0.01790472895986767,0.16166861355304718,-0.03967124968767166,0.0022471291013062,0.0004075169563293457,0.008059144020080566,0.015983223915100098,-0.2823283125814465,1.4740881600541207,0.10554217884880546,0.9559218883514404,0.2785925269126892,-0.09273473173379898
1729110131626,7i,5.01650725557357,0.9s : 0.3s,-14.583218654060673,0.007339530689680629,0.1210310319007874,0.021947354985498654,0.128149151802063,-0.04765891283750534,-0.0031656459905207157,0.0045365095138549805,0.0007414519786834717,0.021460585296154022,-0.2823850662588669,1.4731772360064728,0.10403427211848758,0.9558213353157043,0.2786470353603363,-0.09360393136739731
1729110131636,7i,5.01650725557357,0.9s : 0.3s,-14.583218654060673,0.007340770703584726,0.10703078307836789,0.02195037635822154,0.10253006964921951,-0.04715690761804581,-0.005194441881030798,0.0039058327674865723,0.005693376064300537,0.020836241543293,-0.2823765898140485,1.4723938445705793,0.10285175891995155,0.9557499885559082,0.27863889932632446,-0.09435290843248367
1729110131646,7i,5.01650725557357,0.9s : 0.3s,-14.583218654060673,0.007336229673180402,0.09396574293542376,0.02492048664403501,0.08535334467887878,-0.04473871365189552,-0.004658247344195843,-0.00022852420806884766,0.010000020265579224,0.02282494306564331,-0.28232517231424686,1.4717513926269863,0.10190379414992466,0.9557034373283386,0.27858951687812805,-0.09496833384037018
1729110131656,7i,5.01650725557357,0.9s : 0.3s,-14.583218654060673,0.007328333342063176,0.07995029603288686,0.02503810701766108,0.05890868976712227,-0.04409902170300484,-0.00488701369613409,-0.00036531686782836914,0.007840603590011597,0.02377600222826004,-0.2823969185840208,1.4711533479278698,0.10116057441430001,0.9556265473365784,0.2786584198474884,-0.09553787857294083
1729110131666,7i,5.01650725557357,0.9s : 0.3s,-14.583218654060673,0.007326680631578613,0.06593316399835261,0.02491164590752964,0.03235630318522453,-0.04795470088720322,-0.00930902548134327,-0.005407571792602539,0.0011129677295684814,0.024292171001434326,-0.28261783253478945,1.470590787897153,0.10071206330430597,0.9555113911628723,0.2788705825805664,-0.09606929868459702
1729110131676,7i,5.01650725557357,0.9s : 0.3s,-14.583218654060673,0.007324162546672275,0.0587095563296745,0.024261829341400122,0.0447237566113472,-0.040487196296453476,-0.007976380176842213,-0.007708907127380371,0.018861770629882812,0.01316976547241211,-0.2828055909313781,1.4701527960448155,0.10034865861908558,0.9554170966148376,0.27905088663101196,-0.0964825302362442
1729110131686,7i,5.01650725557357,0.9s : 0.3s,-14.583218654060673,0.007321838485429662,0.05678232991498121,0.02644229000339473,0.05351139232516289,-0.03611677512526512,-0.006599659100174904,-0.010019659996032715,0.022930055856704712,0.00854480266571045,-0.2829387417131121,1.4698150751744326,0.09988275887309692,0.9553475379943848,0.2791787385940552,-0.09680144488811493
1729110131696,7i,5.01650725557357,0.9s : 0.3s,-14.583218654060673,0.00732046168699596,0.056040864646568614,0.02694297731717669,0.06540719419717789,-0.033355340361595154,-0.006920836865901947,-0.009220004081726074,0.022040247917175293,0.012455642223358154,-0.28302321243550277,1.4695202583841116,0.09933165390578193,0.9552955031394958,0.2792598605155945,-0.09708071500062943
1729110131706,7i,5.01650725557357,0.9s : 0.3s,-14.583218654060673,0.0073194296225152205,0.05623782946411461,0.025542046088948084,0.08193238079547882,-0.030244415625929832,-0.007381962146610022,-0.007107377052307129,0.021151065826416016,0.012430354952812195,-0.28301172520790563,1.4692595887023763,0.0986504805376721,0.9552735090255737,0.27924883365631104,-0.09733006358146667
1729110131716,7i,5.01650725557357,0.9s : 0.3s,-14.583218654060673,0.0073243476355401285,0.05620281457561787,0.02344093891162028,0.07706891745328903,-0.03172379732131958,-0.010051781311631203,-0.009111583232879639,0.016142338514328003,0.014348573982715607,-0.28306330457823176,1.468991111543205,0.09789813284300991,0.9552328586578369,0.2792983651161194,-0.0975850522518158
1729110131726,7i,5.01650725557357,0.9s : 0.3s,-14.583218654060673,0.007329093855087913,0.05794879237657255,0.022536358187611946,0.10034454613924026,-0.032340191304683685,-0.01320067048072815,-0.004574775695800781,0.01963108777999878,0.010078653693199158,-0.283180342276177,1.4686494521050593,0.09702150354346234,0.9551669955253601,0.279410719871521,-0.09790808707475662
1729110131736,7i,5.01650725557357,0.9s : 0.3s,-14.583218654060673,0.007340158956425853,0.06166357030421433,0.01850246977298965,0.11224248260259628,-0.027885254472494125,-0.012382280081510544,-0.009563207626342773,0.015488982200622559,-0.00331328809261322,-0.2832829355423672,1.4683054189542886,0.09596509578203113,0.9551045298576355,0.2795092463493347,-0.09823373705148697
1729110131746,7i,5.01650725557357,0.9s : 0.3s,-14.583218654060673,0.007362417642496336,0.06773868358513782,0.014079655940556702,0.12373535335063934,-0.030390752479434013,-0.01137174479663372,-0.01147603988647461,0.006942272186279297,-0.004282765090465546,-0.28330064336545513,1.4679459878603325,0.09481371678301988,0.9550642967224121,0.2795262336730957,-0.09857652336359024
1729110131756,7i,5.01650725557357,0.9s : 0.3s,-14.583218654060673,0.007389581794617202,0.07732868185466549,0.016675705294955902,0.14499430358409882,-0.03295112028717995,-0.014303884468972683,-0.008622467517852783,0.010270088911056519,-0.009912490844726562,-0.28348996895266726,1.46739625830983,0.09346075227804893,0.9549573659896851,0.27970799803733826,-0.09909607470035553
1729110131766,7i,5.01650725557357,0.9s : 0.3s,-14.583218654060673,0.007417875041169265,0.09394149880307374,0.026291658146651395,0.19559530913829803,-0.034016162157058716,-0.010692604817450047,-0.008930683135986328,0.01724269986152649,-0.017725221812725067,-0.283713116542981,1.466670626648283,0.0917345279621619,0.9548230767250061,0.2799222469329834,-0.09978249669075012
1729110131776,7i,5.01650725557357,0.9s : 0.3s,-14.583218654060673,0.0074425106524199855,0.12068674028805892,0.030867867322698778,0.2720746099948883,-0.03234982118010521,-0.010354116559028625,-0.005286276340484619,0.01834505796432495,-0.02425570785999298,-0.2838364639059499,1.4658195015875184,0.08936110600426467,0.9547035694122314,0.2800406515598297,-0.10059153288602829
1729110131786,7i,5.01650725557357,0.9s : 0.3s,-14.583218654060673,0.007454279925767626,0.16943853445430218,0.03972081042342921,0.4215314984321594,-0.03403142839670181,-0.01734784245491028,-0.0027341246604919434,0.020616620779037476,-0.03384113311767578,-0.28385436725766955,1.4646231932031786,0.08583567435857921,0.9545774459838867,0.2800578474998474,-0.10173303633928299
1729110131796,7i,5.01650725557357,0.9s : 0.3s,-14.583218654060673,0.007415296479963571,0.2480226648868682,0.06416422012461136,0.6437352895736694,-0.02504192851483822,-0.013128864578902721,-0.0007633566856384277,0.04575654864311218,-0.04497557878494263,-0.2835751339618263,1.4629487845777753,0.08040351253805256,0.9544835090637207,0.2797897756099701,-0.10333966463804245
1729110131806,7i,5.01650725557357,0.9s : 0.3s,-14.583218654060673,0.007350579700508061,0.3723040668289277,0.09221115522211774,0.98792964220047,-0.013249807059764862,-0.015825515612959862,-0.0028551816940307617,0.06578376889228821,-0.06455416977405548,-0.28296322957504144,1.460459957948915,0.07199020225829283,0.9543934464454651,0.27920225262641907,-0.1057337298989296
1729110131816,7i,5.01650725557357,0.9s : 0.3s,-14.583218654060673,0.007306784896273048,0.5316510913129017,0.11904792609096092,1.3475967645645142,0.02322990633547306,-0.0015776031650602818,-0.0057929158210754395,0.1014142632484436,-0.06208057701587677,-0.2818180329435734,1.4571540467576558,0.05987404773791033,0.954355776309967,0.27810242772102356,-0.10892447084188461
1729110131826,7i,5.01650725557357,0.9s : 0.3s,-14.583218654060673,0.0073666143571065636,0.7048669144418167,0.10338857035883281,1.6528472900390625,0.04660198837518692,0.008692745119333267,-0.011597752571105957,0.08565759658813477,-0.05672270059585571,-0.28004926905859234,1.4532301316037415,0.04436117404582681,0.9544078707695007,0.27640300989151,-0.11272594332695007
1729110131836,7i,5.01650725557357,0.9s : 0.3s,-14.583218654060673,0.007533006051612474,0.8682466166426761,0.10235092055619877,1.8610377311706543,0.07328259944915771,0.012996412813663483,-0.006003975868225098,0.0821637511253357,-0.06073533743619919,-0.27784256536907864,1.448829378221709,0.026164189797573786,0.9545055627822876,0.2742815911769867,-0.11699886620044708
1729110131846,7i,5.01650725557357,0.9s : 0.3s,-14.583218654060673,0.00779139296499739,1.0057412072610123,0.0689629639813029,1.9754821062088013,0.07499709725379944,0.015705212950706482,0.0011318325996398926,0.04275551438331604,-0.05409783124923706,-0.275315181856573,1.444155602583023,0.0063432948359955,0.9546329975128174,0.27185025811195374,-0.12154589593410492
1729110131856,7i,5.01650725557357,0.9s : 0.3s,-14.583218654060673,0.008098341469658495,1.1177374888286589,0.057427045018449474,2.0536766052246094,0.07262688875198364,0.018599003553390503,0.010382294654846191,-0.007761836051940918,-0.055944859981536865,-0.2725526545293182,1.4392544742355082,-0.014416007971176217,0.9547666907310486,0.2691907286643982,-0.1263212114572525
1729110131866,7i,5.01650725557357,0.9s : 0.3s,-14.583218654060673,0.008431493954210011,1.2196020305262416,0.09012644517126157,2.17121958732605,0.03981567174196243,0.016796976327896118,0.021902084350585938,-0.032570481300354004,-0.0811309963464737,-0.2695572459274677,1.4340388862888773,-0.03606952855411381,0.9548894762992859,0.26630470156669617,-0.13140849769115448
1729110131876,7i,5.01650725557357,0.9s : 0.3s,-14.583218654060673,0.00871294254901182,1.343182334622552,0.1135245198375762,2.431525468826294,0.008497700095176697,0.01620255969464779,0.0366787314414978,-0.019787758588790894,-0.10559797286987305,-0.2662070107373818,1.4280238264752092,-0.05963282722500107,0.954959511756897,0.26307395100593567,-0.13727596402168274
1729110131886,7i,5.01650725557357,0.9s : 0.3s,-14.583218654060673,0.009029535663660505,1.4740036353457417,0.13272873377604472,2.651250123977661,0.02370639145374298,0.013130003586411476,0.05520516633987427,0.03423503041267395,-0.11574657261371613,-0.26232728898968033,1.4213093640982344,-0.08580866164065534,0.9550184011459351,0.2593289315700531,-0.14383581280708313
1729110131896,7i,5.01650725557357,0.9s : 0.3s,-14.583218654060673,0.009413550219875041,1.575080401283538,0.10610562415501403,2.698779821395874,0.000762459821999073,-0.019293982535600662,0.06236380338668823,0.04498562216758728,-0.0731126070022583,-0.25824458348491075,1.4144460864468342,-0.11318771747921741,0.955046534538269,0.2553837299346924,-0.15055051445960999
1729110131906,7i,5.01650725557357,0.9s : 0.3s,-14.583218654060673,0.009774036618165569,1.6565786795727027,0.13734304568776398,2.7518277168273926,0.006279153283685446,-0.04960384964942932,0.0813637375831604,0.10420969128608704,-0.037194013595581055,-0.2542804534816137,1.4073922212460983,-0.14108030446517672,0.9549522399902344,0.2515490651130676,-0.157446950674057
1729110131916,7i,5.01650725557357,0.9s : 0.3s,-14.583218654060673,0.010188684962434223,1.6939761612092792,0.14279617722921079,2.653597354888916,0.006861054338514805,-0.08405131101608276,0.07025277614593506,0.1224496066570282,-0.021479979157447815,-0.2504297305264981,1.4005628952273625,-0.16884543650411177,0.9548023343086243,0.24782030284404755,-0.16412779688835144
1729110131926,7i,5.01650725557357,0.9s : 0.3s,-14.583218654060673,0.010620928308410988,1.6835603397457912,0.07110461793956019,2.4707775115966797,-0.012337541207671165,-0.11829712241888046,0.020023584365844727,0.06658554077148438,0.01487576961517334,-0.24699932682589595,1.3940248871256302,-0.19507830476156454,0.9545400738716125,0.2444954663515091,-0.17051522433757782
1729110131936,7i,5.01650725557357,0.9s : 0.3s,-14.583218654060673,0.011139534288320041,1.639331206102626,0.09908432189444025,2.2857909202575684,0.007645221892744303,-0.14312444627285004,-0.009897232055664062,0.09814728796482086,0.009319737553596497,-0.2440509654019846,1.388101515132066,-0.21940033878306106,0.9542179703712463,0.2416355162858963,-0.17629648745059967
1729110131946,7i,5.01650725557357,0.9s : 0.3s,-14.583218654060673,0.011783565225373474,1.5729173361403748,0.1267445249279714,2.1072468757629395,0.032676227390766144,-0.17712078988552094,-0.04018610715866089,0.11816839873790741,0.022033631801605225,-0.2415498384852115,1.3829202601328572,-0.24193611536354917,0.9538824558258057,0.23920775949954987,-0.1813504546880722
1729110131956,7i,5.01650725557357,0.9s : 0.3s,-14.583218654060673,0.012686672443406289,1.5266407258127732,0.2080516107229509,2.1050469875335693,0.04788181185722351,-0.2129506915807724,-0.056677401065826416,0.19548198580741882,0.04312700033187866,-0.23946307511437692,1.3780848786900972,-0.2635177674265531,0.9534822702407837,0.23718105256557465,-0.18605589866638184
1729110131966,7i,5.01650725557357,0.9s : 0.3s,-14.583218654060673,0.014149397301295904,1.5033335378085295,0.33317416837220676,2.1436314582824707,0.04879447817802429,-0.2837652266025543,-0.07613420486450195,0.31977158784866333,0.05435752868652344,-0.23779151423152642,1.37336297928722,-0.2854129657697788,0.952980637550354,0.23555685579776764,-0.19063358008861542
1729110131976,7i,5.01650725557357,0.9s : 0.3s,-14.583218654060673,0.01632553035593696,1.5025945952813267,0.41765877440258364,2.2065725326538086,0.06530740857124329,-0.3485977351665497,-0.11567658185958862,0.3925713896751404,0.08333957195281982,-0.2365512209652598,1.3685966745147786,-0.308068453074651,0.9523465633392334,0.2343512922525406,-0.195232093334198
1729110131986,7i,5.01650725557357,0.9s : 0.3s,-14.583218654060673,0.019231780655578047,1.5085816060560568,0.46765914553034665,2.236126184463501,0.07201701402664185,-0.4289177358150482,-0.16619592905044556,0.4220622181892395,0.1137869656085968,-0.23586518528056208,1.3638479435409534,-0.33124333512441695,0.9515657424926758,0.23368430137634277,-0.1997852772474289
1729110131996,7i,5.01650725557357,0.9s : 0.3s,-14.583218654060673,0.02284389104704464,1.5225957558074394,0.5070875772692482,2.2672905921936035,0.061389144510030746,-0.5183631777763367,-0.2040911316871643,0.4460752606391907,0.12845809757709503,-0.23580684355032722,1.3590621030123056,-0.3548355033511208,0.9506121277809143,0.2336275726556778,-0.2043399065732956
1729110132006,7i,5.01650725557357,0.9s : 0.3s,-14.583218654060673,0.02727406423531125,1.5508609003695781,0.5751365897563042,2.342256784439087,0.09931895136833191,-0.5877767205238342,-0.25051331520080566,0.5089347958564758,0.09492391347885132,-0.23634737602605133,1.3541463552964068,-0.37924373062616207,0.9494727253913879,0.2341531217098236,-0.20898321270942688
1729110132016,7i,5.01650725557357,0.9s : 0.3s,-14.583218654060673,0.032333653438417924,1.5683434931560842,0.5953229476984913,2.308353900909424,0.15019410848617554,-0.665340781211853,-0.29852765798568726,0.5049286484718323,0.10167452692985535,-0.23734482746151545,1.3495674836444915,-0.40412484238666907,0.9482775926589966,0.23512272536754608,-0.2132771760225296
1729110132026,7i,5.01650725557357,0.9s : 0.3s,-14.583218654060673,0.03773021556234442,1.5797377200077973,0.588636141800364,2.2759032249450684,0.1614164113998413,-0.7583256959915161,-0.34257376194000244,0.4534362256526947,0.15339919924736023,-0.2392544077530137,1.3453426732832088,-0.42867079131362584,0.9469287991523743,0.23697833716869354,-0.21718080341815948
1729110132036,7i,5.01650725557357,0.9s : 0.3s,-14.583218654060673,0.0436192464279966,1.5956415427404587,0.639577951060586,2.2828993797302246,0.17477935552597046,-0.8558850288391113,-0.3378491997718811,0.5281379222869873,0.1264444887638092,-0.2419465495299599,1.3411176364071096,-0.45344583172781106,0.9453780651092529,0.23959293961524963,-0.22103361785411835
1729110132046,7i,5.01650725557357,0.9s : 0.3s,-14.583218654060673,0.05002015169690675,1.6202399394495932,0.6848757142437655,2.303835391998291,0.18994002044200897,-0.9872478246688843,-0.35132402181625366,0.5741844177246094,0.12624749541282654,-0.24563056088495733,1.3368609120789505,-0.4785556069159312,0.9435635805130005,0.24316801130771637,-0.224849671125412
1729110132056,7i,5.01650725557357,0.9s : 0.3s,-14.583218654060673,0.056983685587719955,1.660233968131025,0.7434176198142415,2.3597049713134766,0.2360377460718155,-1.1337010860443115,-0.3715152144432068,0.6308112144470215,0.12931904196739197,-0.25049298564885997,1.3326420117210214,-0.5044884664343711,0.9414464235305786,0.24788159132003784,-0.22854681313037872
1729110132066,7i,5.01650725557357,0.9s : 0.3s,-14.583218654060673,0.06451654395604144,1.7109724845399026,0.795118709100685,2.4078118801116943,0.29928678274154663,-1.2783806324005127,-0.3730384111404419,0.6871023774147034,0.14472880959510803,-0.2565127071823279,1.328529156652641,-0.5314837750184651,0.9390328526496887,0.2537088990211487,-0.2320547252893448
1729110132076,7i,5.01650725557357,0.9s : 0.3s,-14.583218654060673,0.07245144095362581,1.761874012510938,0.8005613759382474,2.406174421310425,0.2969250977039337,-1.4426727294921875,-0.36320626735687256,0.690418541431427,0.1797274649143219,-0.26391327603415604,1.324463109185462,-0.558988918475076,0.9362350106239319,0.2608603239059448,-0.23540665209293365
1729110132086,7i,5.01650725557357,0.9s : 0.3s,-14.583218654060673,0.08077696338407829,1.8291487147372405,0.8270181919524064,2.498413562774658,0.2905436158180237,-1.5867900848388672,-0.3399738669395447,0.7399893999099731,0.14419621229171753,-0.2725903493512286,1.3198668125883495,-0.5874488247465732,0.932915210723877,0.2692270278930664,-0.23913627862930298
1729110132096,7i,5.01650725557357,0.9s : 0.3s,-14.583218654060673,0.08941895914050486,1.9131696071712299,0.8396647521939081,2.621229410171509,0.3038402497768402,-1.7255849838256836,-0.32536178827285767,0.7641158103942871,0.1237078458070755,-0.2822182681734351,1.3145955779282217,-0.6175567736741456,0.9290910363197327,0.27848684787750244,-0.24338237941265106
1729110132106,7i,5.01650725557357,0.9s : 0.3s,-14.583218654060673,0.09810225493141046,1.98507803468393,0.79915833448556,2.6058897972106934,0.3315832018852234,-1.8614308834075928,-0.3407982587814331,0.7117317914962769,0.12628716230392456,-0.29280034216286294,1.3089260876887845,-0.6488429281836302,0.9247979521751404,0.2886345088481903,-0.2478690892457962
1729110132116,7i,5.01650725557357,0.9s : 0.3s,-14.583218654060673,0.10684960413304385,2.0577506565853683,0.8074999533516962,2.6061410903930664,0.33530789613723755,-2.0522069931030273,-0.36505579948425293,0.7083250880241394,0.13063693046569824,-0.3049072744242056,1.3029004521207614,-0.6804405725402267,0.9198501706123352,0.30020472407341003,-0.2524935007095337
1729110132126,7i,5.01650725557357,0.9s : 0.3s,-14.583218654060673,0.11593227052955525,2.1207349082829063,0.883712738212557,2.551071882247925,0.34676194190979004,-2.216963768005371,-0.341108500957489,0.8047858476638794,0.13004973530769348,-0.3185395636478838,1.2965294095853077,-0.7125100639374132,0.914198100566864,0.31317993998527527,-0.25721633434295654
1729110132136,7i,5.01650725557357,0.9s : 0.3s,-14.583218654060673,0.1254510752251076,2.1933707585349307,0.9517190921091777,2.552685022354126,0.34108009934425354,-2.4309511184692383,-0.30112600326538086,0.8868803977966309,0.16892459988594055,-0.33393706207289764,1.2895211282037997,-0.7451004032238252,0.9076323509216309,0.3277651369571686,-0.2622471749782562
1729110132146,7i,5.01650725557357,0.9s : 0.3s,-14.583218654060673,0.13551695823377605,2.290513130738526,1.035577484166797,2.685051441192627,0.3345450758934021,-2.6159794330596924,-0.24578207731246948,0.9977835416793823,0.1282181739807129,-0.35083040499651114,1.2813856919961417,-0.7793013373092211,0.900033175945282,0.3436777591705322,-0.26800382137298584
1729110132156,7i,5.01650725557357,0.9s : 0.3s,-14.583218654060673,0.14589271926328815,2.387256686764512,1.017244360275843,2.7089054584503174,0.31702786684036255,-2.7960357666015625,-0.2126341462135315,0.9904145002365112,0.09301573038101196,-0.36887708348401926,1.2720044841395162,-0.8153627117727053,0.8914061784744263,0.3605682849884033,-0.2745646834373474
1729110132166,7i,5.01650725557357,0.9s : 0.3s,-14.583218654060673,0.15626511869494944,2.469204755125006,0.9382286566206377,2.6140329837799072,0.28844696283340454,-2.9909427165985107,-0.18507808446884155,0.9128082990646362,0.1131376326084137,-0.38846917957557275,1.261525341722575,-0.8520540860171265,0.8815808892250061,0.378772109746933,-0.2816861569881439
1729110132176,7i,5.01650725557357,0.9s : 0.3s,-14.583218654060673,0.16664626112011796,2.5546656237861383,0.9627776355476254,2.569620370864868,0.23512037098407745,-3.219493865966797,-0.13616037368774414,0.9465310573577881,0.11171430349349976,-0.4100646767764489,1.2497797744536498,-0.8890969790355674,0.8702455163002014,0.39866864681243896,-0.2893722653388977
1729110132186,7i,5.01650725557357,0.9s : 0.3s,-14.583218654060673,0.17720649004685482,2.6474133267432474,1.0528999888083677,2.616952896118164,0.18504463136196136,-3.385467290878296,-0.03783285617828369,1.051061749458313,0.049358487129211426,-0.4329999887942616,1.2360809041523662,-0.9277063595578467,0.857336699962616,0.4195958077907562,-0.29818347096443176
1729110132196,7i,5.01650725557357,0.9s : 0.3s,-14.583218654060673,0.18777749673394725,2.7351852672836325,1.0370669874490852,2.585467576980591,0.12357009947299957,-3.5538768768310547,0.039271414279937744,1.0342957973480225,0.06479117274284363,-0.45691703962832975,1.2203934507130527,-0.9678530767844968,0.8428850769996643,0.44118350744247437,-0.30806195735931396
1729110132206,7i,5.01650725557357,0.9s : 0.3s,-14.583218654060673,0.19833201881121063,2.823608249919885,0.9988243467385018,2.5608866214752197,0.011302007362246513,-3.7394003868103027,0.07880783081054688,0.9951866865158081,0.032293349504470825,-0.4820360313169574,1.2023482929196618,-1.0092060437247286,0.8265876173973083,0.46358415484428406,-0.3191279470920563
1729110132216,7i,5.01650725557357,0.9s : 0.3s,-14.583218654060673,0.20889839994816453,2.9160090055943195,1.0797453434414404,2.580801486968994,-0.06249605119228363,-3.9042117595672607,0.14921391010284424,1.0688583850860596,-0.03357034921646118,-0.5080800106443486,1.1815839172677913,-1.052390081963501,0.8083361387252808,0.48650068044662476,-0.33152657747268677
1729110132226,7i,5.01650725557357,0.9s : 0.3s,-14.583218654060673,0.21946409638266706,3.013735788555372,1.0975706215924073,2.6081466674804688,-0.14244157075881958,-4.0776848793029785,0.20929718017578125,1.0753440856933594,-0.06701534986495972,-0.5346686552459652,1.1578429434809578,-1.0980033463695187,0.7881088852882385,0.509555995464325,-0.3453075587749481
1729110132236,7i,5.01650725557357,0.9s : 0.3s,-14.583218654060673,0.2298920083514788,3.108918064581293,1.0832483337012753,2.564945697784424,-0.24902820587158203,-4.258805751800537,0.29436570405960083,1.041067123413086,-0.05436018109321594,-0.5619970303781525,1.1309854304883593,-1.1457587983623043,0.7656624913215637,0.5328771471977234,-0.36028212308883667
1729110132246,7i,5.01650725557357,0.9s : 0.3s,-14.583218654060673,0.24027515878565786,3.2043626296063765,1.1693966340015949,2.603438377380371,-0.34744447469711304,-4.392207622528076,0.4369315505027771,1.0823619365692139,-0.0712175965309143,-0.589699940415709,1.1003822742607774,-1.1962361535408212,0.7408333420753479,0.5561116933822632,-0.37670406699180603
1729110132256,7i,5.01650725557357,0.9s : 0.3s,-14.583218654060673,0.2505715372159164,3.274485691026351,1.2094701079810137,2.478935956954956,-0.44112730026245117,-4.477288722991943,0.5577549934387207,1.0709946155548096,-0.06854081153869629,-0.617033233770684,1.0666069228987751,-1.2488502820694072,0.7141108512878418,0.578618049621582,-0.39401403069496155
1729110132266,7i,5.01650725557357,0.9s : 0.3s,-14.583218654060673,0.2605120937375059,3.3261475443177737,1.1645794709310633,2.283585548400879,-0.589781641960144,-4.587482929229736,0.6455217599868774,0.9681755900382996,-0.0467228889465332,-0.6444752263706708,1.0298806706094035,-1.302337830498879,0.6852887868881226,0.6007789969444275,-0.4116358160972595
1729110132276,7i,5.01650725557357,0.9s : 0.3s,-14.583218654060673,0.2703810663820301,3.373528574284104,1.2513943932230602,2.1545073986053467,-0.7136353850364685,-4.6961669921875,0.7391971349716187,1.0091307163238525,-0.03508162498474121,-0.6720199893521432,0.9897282724994784,-1.3572891124201476,0.6541286706924438,0.6225680112838745,-0.4295636713504791
1729110132286,7i,5.01650725557357,0.9s : 0.3s,-14.583218654060673,0.2805482431488109,3.4384959364460976,1.3699251611784171,2.2527167797088623,-0.8246516585350037,-4.796512126922607,0.8264546394348145,1.0924623012542725,-0.013921082019805908,-0.6987028856958313,0.9452108853460164,-1.4153469782958423,0.6206737160682678,0.6432250738143921,-0.4483591616153717
1729110132296,7i,5.01650725557357,0.9s : 0.3s,-14.583218654060673,0.2908962562080646,3.500103372077793,1.3749734322788223,2.2546229362487793,-0.8761973977088928,-4.8707685470581055,0.8833333849906921,1.053372859954834,-0.026070833206176758,-0.7234703689231835,0.8959420805376008,-1.4778687004777826,0.5852181911468506,0.6619897484779358,-0.4682832956314087
1729110132306,7i,5.01650725557357,0.9s : 0.3s,-14.583218654060673,0.30105595948785335,3.5422490756919642,1.303020882151322,2.0892157554626465,-1.0079034566879272,-4.919343948364258,0.9157608151435852,0.9254434704780579,-0.05291438102722168,-0.7469236221298433,0.8429154151671651,-1.5428396334469643,0.547831654548645,0.6793845891952515,-0.48817747831344604
1729110132316,7i,5.01650725557357,0.9s : 0.3s,-14.583218654060673,0.31088369283278755,3.552590618991882,1.3243034730784549,1.9839510917663574,-1.0865012407302856,-4.839513778686523,1.0180225372314453,0.8405357599258423,-0.10444825887680054,-0.7685502314744803,0.7866438314615781,-1.6093774340967615,0.5089855790138245,0.6950936913490295,-0.507719099521637
1729110132326,7i,5.01650725557357,0.9s : 0.3s,-14.583218654060673,0.3204550170604281,3.551762061921434,1.3410963539991867,1.8484076261520386,-1.1675485372543335,-4.82662296295166,1.077543020248413,0.7939263582229614,-0.08438843488693237,-0.7876081911472772,0.7280901482864035,-1.6770646497413166,0.46949976682662964,0.7086677551269531,-0.5266497135162354
1729110132336,7i,5.01650725557357,0.9s : 0.3s,-14.583218654060673,0.33023741116011207,3.585910362514522,1.2947601729102989,1.8730612993240356,-1.2549760341644287,-4.991103649139404,1.024975299835205,0.7864438891410828,-0.0856478214263916,-0.8053581074784789,0.6650145327589606,-1.7479493271315694,0.42753922939300537,0.7210788130760193,-0.5452114939689636
1729110132346,7i,5.01650725557357,0.9s : 0.3s,-14.583218654060673,0.3402062990367315,3.635372501658241,1.4235826859420055,2.2474584579467773,-1.324151873588562,-4.94985294342041,1.118340015411377,0.8564859628677368,-0.20575487613677979,-0.8177207820543668,0.5972361016969497,-1.8238018019563609,0.3845895528793335,0.7295889854431152,-0.5655006170272827
1729110132356,7i,5.01650725557357,0.9s : 0.3s,-14.583218654060673,0.35031269698570794,3.692437843189667,1.312874166399557,2.2478132247924805,-1.4575226306915283,-5.038675785064697,1.0993661880493164,0.6965761184692383,-0.17266809940338135,-0.8252895655943908,0.524766606789305,-1.9037784212531224,0.3398579955101013,0.7347442507743835,-0.5870669484138489
1729110132366,7i,5.01650725557357,0.9s : 0.3s,-14.583218654060673,0.3603474931604548,3.7328983442660477,1.3469464354082992,2.154778480529785,-1.6504420042037964,-5.027748107910156,1.1898107528686523,0.6179701089859009,-0.12933683395385742,-0.8294044206579325,0.44972602391658595,-1.9845874301050563,0.29357224702835083,0.7375292778015137,-0.6081661581993103
1729110132376,7i,5.01650725557357,0.9s : 0.3s,-14.583218654060673,0.3705543754574261,3.791274593284121,1.5286526865069583,2.3494157791137695,-1.7684777975082397,-5.070615768432617,1.3222488164901733,0.7497840523719788,-0.16205239295959473,-0.8290302972943472,0.37221462122528004,-2.066495235169257,0.2456984519958496,0.7372766137123108,-0.6293293833732605
1729110132386,7i,5.01650725557357,0.9s : 0.3s,-14.583218654060673,0.3816253754491251,3.82935617443805,1.6797511671161667,2.4866676330566406,-1.7667369842529297,-4.987476348876953,1.3600682020187378,0.9273956418037415,-0.33423912525177,-0.8225943708825726,0.2947130798454837,-2.147964139706413,0.19760994613170624,0.7329133152961731,-0.6509903073310852
1729110132396,7i,5.01650725557357,0.9s : 0.3s,-14.583218654060673,0.3919847659281687,3.876413561653918,1.2933989581365197,2.133073091506958,-1.9809273481369019,-5.190769195556641,1.1748137474060059,0.5141067504882812,-0.16848671436309814,-0.8130061410818763,0.21696285188842943,-2.2286951020369306,0.1479552984237671,0.7263566255569458,-0.6712043881416321
1729110132406,7i,5.01650725557357,0.9s : 0.3s,-14.583218654060673,0.40188139908553194,3.8898415367855104,1.3515023037346447,1.7838776111602783,-2.204477310180664,-5.142138957977295,1.2654571533203125,0.47432607412338257,-0.013836383819580078,-0.8030034720365024,0.13927392999595817,-2.307341710742214,0.09642014652490616,0.7194454073905945,-0.6878237128257751
1729110132416,7i,5.01650725557357,0.9s : 0.3s,-14.583218654060673,0.4124219391622909,3.90836023799237,1.555920511162424,1.8692271709442139,-2.2831594944000244,-5.112524032592773,1.3693002462387085,0.7154992818832397,-0.18429934978485107,-0.7901807160707449,0.06249956269662726,-2.382976114573804,0.04395337775349617,0.7104804515838623,-0.7023430466651917
1729110132426,7i,5.01650725557357,0.9s : 0.3s,-14.583218654060673,0.423407915761971,3.918374374491477,1.4786081231739194,1.8830676078796387,-2.335960626602173,-5.060144424438477,1.2733101844787598,0.7053122520446777,-0.2598033547401428,-0.7724843289537547,-0.011285114630180516,-2.4551167353282817,-0.008081991225481033,0.6979166269302368,-0.7161334753036499
1729110132436,7i,5.01650725557357,0.9s : 0.3s,-14.583218654060673,0.43426005611402446,3.926608238037811,1.3588927160494142,1.6851750612258911,-2.4809842109680176,-5.0746612548828125,1.2332687377929688,0.5517876744270325,-0.14549225568771362,-0.7522789994545075,-0.08307366692102496,-2.5241125694097395,-0.06058512628078461,0.683304488658905,-0.7276155352592468
1729110132446,7i,5.01650725557357,0.9s : 0.3s,-14.583218654060673,0.44551025039914344,3.9269386482231647,1.472274237652921,1.6381938457489014,-2.5397939682006836,-5.032418251037598,1.2920610904693604,0.663115382194519,-0.2417593002319336,-0.7299202427962822,-0.15227985971084815,-2.5894375125255347,-0.11304506659507751,0.6668102145195007,-0.7366036772727966
1729110132456,7i,5.01650725557357,0.9s : 0.3s,-14.583218654060673,0.45708724057167244,3.93855119089465,1.4396048393450676,1.6912122964859009,-2.571340799331665,-5.054513931274414,1.228379726409912,0.7015990614891052,-0.267028272151947,-0.7042881428609193,-0.21837975353933892,-2.651141983857715,-0.16510161757469177,0.6474915146827698,-0.7439732551574707
1729110132466,7i,5.01650725557357,0.9s : 0.3s,-14.583218654060673,0.4690521968513454,3.9592881418341945,1.4651222339221521,1.7401666641235352,-2.6684041023254395,-5.058640003204346,1.2446341514587402,0.722406268119812,-0.2749512195587158,-0.6751390758771435,-0.2814515029931927,-2.7092518214434085,-0.2168174833059311,0.6250059008598328,-0.7499052286148071
1729110132476,7i,5.01650725557357,0.9s : 0.3s,-14.583218654060673,0.48154579054240215,3.984611416512904,1.5277844094813744,1.704847812652588,-2.7403757572174072,-5.094336032867432,1.3138244152069092,0.7378040552139282,-0.25226134061813354,-0.643227978257395,-0.3417583356324462,-2.7636458700579674,-0.2681703269481659,0.5997814536094666,-0.7538878917694092
1729110132486,7i,5.01650725557357,0.9s : 0.3s,-14.583218654060673,0.4944490143419032,4.0019569965583575,1.507371047093194,1.7178701162338257,-2.7676267623901367,-5.070672988891602,1.3010085821151733,0.7379410266876221,-0.18704861402511597,-0.608843578468436,-0.39906796685372675,-2.814509209086444,-0.3187394142150879,0.5719192028045654,-0.7558529376983643
1729110132496,7i,5.01650725557357,0.9s : 0.3s,-14.583218654060673,0.5075751529440327,4.018415230921291,1.5017329988796528,1.6218621730804443,-2.8680496215820312,-5.074054718017578,1.3200398683547974,0.6973840594291687,-0.1623336672782898,-0.5726467962732624,-0.45362822884837245,-2.861807169771779,-0.3683187961578369,0.5418584942817688,-0.7554671764373779
1729110132506,7i,5.01650725557357,0.9s : 0.3s,-14.583218654060673,0.5209346131126126,4.018101688540168,1.5222425126191976,1.596091389656067,-2.919278383255005,-4.980142593383789,1.3416622877120972,0.6893519759178162,-0.20483756065368652,-0.5352250345824561,-0.505576864584867,-2.9055298951715347,-0.41658303141593933,0.5100346207618713,-0.7525445222854614
1729110132516,7i,5.01650725557357,0.9s : 0.3s,-14.583218654060673,0.5344349174840825,4.014943252751925,1.4943829955297738,1.6033551692962646,-2.954843044281006,-4.924429893493652,1.3418958187103271,0.6331684589385986,-0.17774659395217896,-0.4963356630040251,-0.5545673870315811,-2.9453140346818696,-0.4630354940891266,0.47620657086372375,-0.7475462555885315
1729110132526,7i,5.01650725557357,0.9s : 0.3s,-14.583218654060673,0.5475969971702037,4.002106041448982,1.4093159138451676,1.4983245134353638,-3.0245578289031982,-4.872425079345703,1.2947344779968262,0.5264685153961182,-0.1807342767715454,-0.4565593156537619,-0.6011642607281225,-2.9818951594873844,-0.5076709389686584,0.4408624470233917,-0.7402098178863525
1729110132536,7i,5.01650725557357,0.9s : 0.3s,-14.583218654060673,0.5603742746829528,3.9789379745838898,1.4055010372291628,1.3615165948867798,-3.1031296253204346,-4.780078411102295,1.3202977180480957,0.444640189409256,-0.18585532903671265,-0.4167448912797505,-0.6462138570769942,-3.0159319158288285,-0.5506293177604675,0.404786080121994,-0.7300381660461426
1729110132546,7i,5.01650725557357,0.9s : 0.3s,-14.583218654060673,0.5729818827086934,3.942048395704827,1.4122615780490901,1.1972525119781494,-3.1549713611602783,-4.667078495025635,1.336708903312683,0.41805222630500793,-0.18145084381103516,-0.3774854516729203,-0.6897767120924188,-3.047627447795169,-0.5915613174438477,0.36858412623405457,-0.7170780897140503
1729110132556,7i,5.01650725557357,0.9s : 0.3s,-14.583218654060673,0.5853182378236648,3.8964717709216603,1.37996484979037,1.1603440046310425,-3.1695199012756348,-4.540593147277832,1.3058171272277832,0.3962230682373047,-0.20530927181243896,-0.3385390642754878,-0.7316003976412044,-3.0766485211486576,-0.6301428079605103,0.3321094214916229,-0.701871395111084
1729110132566,7i,5.01650725557357,0.9s : 0.3s,-14.583218654060673,0.5972490345363505,3.8447155050756456,1.3141930012214393,1.111688256263733,-3.1176700592041016,-4.460928916931152,1.259108066558838,0.33338797092437744,-0.1749359369277954,-0.2995028389008747,-0.7713785041895524,-3.103107033578009,-0.6660905480384827,0.29504522681236267,-0.6850340962409973
1729110132576,7i,5.01650725557357,0.9s : 0.3s,-14.583218654060673,0.6086484107666091,3.789497396607653,1.2695609716201777,0.9837111234664917,-3.1240603923797607,-4.3707427978515625,1.240859031677246,0.24485701322555542,-0.10999530553817749,-0.2607108925860075,-0.8093156951967371,-3.127683627169555,-0.6993553042411804,0.2577674984931946,-0.666676938533783
1729110132586,7i,5.01650725557357,0.9s : 0.3s,-14.583218654060673,0.6199406609142458,3.7267391403883305,1.3177578871238895,0.9476162195205688,-3.109447717666626,-4.237197399139404,1.2884557247161865,0.24138601124286652,-0.13453805446624756,-0.22248092950100737,-0.8459050201016006,3.1328693290825336,-0.7301215529441833,0.2206500768661499,-0.6467118263244629
1729110132596,7i,5.01650725557357,0.9s : 0.3s,-14.583218654060673,0.6312794558886942,3.658682577616839,1.3214218011032866,0.829925537109375,-3.089527130126953,-4.126733779907227,1.297227144241333,0.23613232374191284,-0.08717131614685059,-0.18493341542191655,-0.8811514905276173,3.112010715971334,-0.7583172917366028,0.18388108909130096,-0.6254139542579651
1729110132606,7i,5.01650725557357,0.9s : 0.3s,-14.583218654060673,0.6422827017110126,3.5889908799459547,1.2755285152693583,0.7674841284751892,-3.074265480041504,-4.010664939880371,1.259760856628418,0.192820742726326,-0.052874743938446045,-0.14814407115528527,-0.9152086194708857,3.0925746618765557,-0.7840072512626648,0.14760278165340424,-0.6029478311538696
1729110132616,7i,5.01650725557357,0.9s : 0.3s,-14.583218654060673,0.652950173940184,3.5151295939291285,1.2693096470862413,0.759730875492096,-3.0503289699554443,-3.8693764209747314,1.2593729496002197,0.13718265295028687,-0.07942086458206177,-0.11196773215123189,-0.9481566016423432,3.075024710187419,-0.8072550892829895,0.11173392832279205,-0.5795297622680664
1729110132626,7i,5.01650725557357,0.9s : 0.3s,-14.583218654060673,0.6632957539617427,3.4345587133127427,1.2596257453483726,0.7575080394744873,-2.992990493774414,-3.728266954421997,1.2560666799545288,0.09430791437625885,-0.00771564245223999,-0.07643598103723787,-0.9798361146285179,3.059520765804795,-0.8279814720153809,0.07636157423257828,-0.5555318593978882
1729110132636,7i,5.01650725557357,0.9s : 0.3s,-14.583218654060673,0.673265123062048,3.341399631753293,1.238868518033446,0.7530946135520935,-2.929014205932617,-3.542830467224121,1.236983299255371,0.03841433301568031,0.05649656057357788,-0.041797963926625346,-1.0102710685411045,3.046064379953465,-0.8462362289428711,0.041785795241594315,-0.5311667919158936
1729110132646,7i,5.01650725557357,0.9s : 0.3s,-14.583218654060673,0.6831715247065369,3.2444945436713413,1.2563512188137635,0.6498565077781677,-2.9063870906829834,-3.3768019676208496,1.2481036186218262,-0.06981559842824936,0.12562453746795654,-0.008536345779679357,-1.0397969320727851,3.0340861118705837,-0.8622700572013855,0.008536241948604584,-0.5063769817352295
1729110132656,7i,5.01650725557357,0.9s : 0.3s,-14.583218654060673,0.6926768401178636,3.1267677280676605,1.2942979870846814,0.5275796055793762,-2.835331439971924,-3.1320390701293945,1.2622287273406982,-0.16674832999706268,0.23276793956756592,0.02269154724237334,-1.0684447588756287,3.0230761674605917,-0.8762272000312805,-0.02268959954380989,-0.481363981962204
1729110132666,7i,5.01650725557357,0.9s : 0.3s,-14.583218654060673,0.7013935663900108,3.001579332138687,1.3030404706335195,0.4596799314022064,-2.759779214859009,-2.9222145080566406,1.235145092010498,-0.26048511266708374,0.32323145866394043,0.05168700992646936,-1.0960509197091346,3.013193621463158,-0.8882213830947876,-0.051663998514413834,-0.4565015733242035
1729110132676,7i,5.01650725557357,0.9s : 0.3s,-14.583218654060673,0.7094094626570824,2.8635927989058185,1.3461096681376035,0.370914101600647,-2.6547296047210693,-2.688640594482422,1.232082724571228,-0.3401602506637573,0.4222255349159241,0.07865257325499656,-1.1225771983452484,3.004425624693575,-0.8984341621398926,-0.07857150584459305,-0.43202152848243713
1729110132686,7i,5.01650725557357,0.9s : 0.3s,-14.583218654060673,0.7167547746034687,2.7115629530393615,1.3879325631884243,0.2893231213092804,-2.512645721435547,-2.449803590774536,1.2105847597122192,-0.4203006625175476,0.5330935120582581,0.10330530040267297,-1.1477485723427294,2.9965058310981174,-0.9069807529449463,-0.10312165319919586,-0.4083527624607086
1729110132696,7i,5.01650725557357,0.9s : 0.3s,-14.583218654060673,0.7234014147516633,2.545162512311391,1.4078418634417305,0.2238418459892273,-2.340846538543701,-2.203343629837036,1.175808072090149,-0.5168722867965698,0.5764868855476379,0.1256548715619023,-1.1712317109553432,2.9894683574054133,-0.9139673709869385,-0.12532447278499603,-0.3859502375125885
1729110132706,7i,5.01650725557357,0.9s : 0.3s,-14.583218654060673,0.7293543624845804,2.3644544589770056,1.434396545084231,0.2092682421207428,-2.1574347019195557,-1.9304869174957275,1.1514992713928223,-0.6186368465423584,0.5906194448471069,0.14559472006062382,-1.192948068041453,2.983495643784813,-0.9196267127990723,-0.14508087933063507,-0.3650180995464325
1729110132716,7i,5.01650725557357,0.9s : 0.3s,-14.583218654060673,0.7347655351378337,2.161296953684532,1.467291951013353,0.2161644846200943,-1.886956810951233,-1.6543490886688232,1.137852668762207,-0.6713573336601257,0.6383700370788574,0.1631052320233627,-1.2125311401966847,2.978997154214135,-0.9240770936012268,-0.16238300502300262,-0.3459962010383606
1729110132726,7i,5.01650725557357,0.9s : 0.3s,-14.583218654060673,0.7396272504103812,1.9355437249964185,1.5083024724202843,0.2289135754108429,-1.5809258222579956,-1.3666926622390747,1.0814170837402344,-0.7305132746696472,0.7562167644500732,0.17800281486621528,-1.2292939363638993,2.9757919515425675,-0.9273643493652344,-0.17706429958343506,-0.3296113908290863
1729110132736,7i,5.01650725557357,0.9s : 0.3s,-14.583218654060673,0.7441029675218591,1.687302828004384,1.571404548742488,0.3209846317768097,-1.2522022724151611,-1.041710376739502,1.0830626487731934,-0.7838075757026672,0.8257924914360046,0.19005182267228163,-1.2431110280401534,2.9743861122427453,-0.9297424554824829,-0.18890978395938873,-0.3160572350025177
1729110132746,7i,5.01650725557357,0.9s : 0.3s,-14.583218654060673,0.7483664065051293,1.4188748276102219,1.676975577359947,0.39363396167755127,-0.8928784728050232,-0.7100192904472351,1.103629231452942,-0.8395501971244812,0.9430827498435974,0.1995212953603871,-1.2539533219915622,2.9750076719594114,-0.9313728213310242,-0.19820015132427216,-0.3053872585296631
1729110132756,7i,5.01650725557357,0.9s : 0.3s,-14.583218654060673,0.7524977428616768,1.128386846170002,1.7968913744822104,0.4520227015018463,-0.5056284666061401,-0.33121630549430847,1.1262543201446533,-0.9287987947463989,1.047713041305542,0.20576795334230458,-1.26144537809289,2.977494064463158,-0.9324371814727783,-0.20431897044181824,-0.29801812767982483
1729110132766,7i,5.01650725557357,0.9s : 0.3s,-14.583218654060673,0.7566370153891817,0.826173433291925,1.898789039273219,0.528268575668335,-0.1069488674402237,0.07108348608016968,1.1589105129241943,-1.0044804811477661,1.1195290088653564,0.2084984972145583,-1.2654261473952875,2.981874424422573,-0.9330806732177734,-0.20699115097522736,-0.2941351532936096
1729110132776,7i,5.01650725557357,0.9s : 0.3s,-14.583218654060673,0.7610140842045757,0.5335221812477787,1.9998415126145452,0.5666249990463257,0.30774205923080444,0.4919835925102234,1.2126688957214355,-1.0563989877700806,1.1886216402053833,0.20746103023829013,-1.2657231027619864,2.98812699130196,-0.9333722591400146,-0.20597603917121887,-0.29392239451408386
1729110132786,7i,5.01650725557357,0.9s : 0.3s,-14.583218654060673,0.7658958413560727,0.3562838233854592,2.1095252728925957,0.6165803074836731,0.71934574842453,0.9325116872787476,1.2964006662368774,-1.1068804264068604,1.2426817417144775,0.20246832876868406,-1.2622118922297538,2.996104069170793,-0.933302640914917,-0.2010878473520279,-0.2975064516067505
1729110132796,7i,5.01650725557357,0.9s : 0.3s,-14.583218654060673,0.771561674287749,0.4944407369163781,2.2036607332381988,0.6717421412467957,1.1349663734436035,1.3672871589660645,1.3923438787460327,-1.1373858451843262,1.274304747581482,0.19350095149332047,-1.2549029174654218,3.005961447463045,-0.9327797889709473,-0.19229568541049957,-0.3048678934574127
1729110132806,7i,5.01650725557357,0.9s : 0.3s,-14.583218654060673,0.7782632055895299,0.8161184520907043,2.2982977377828027,0.7354088425636292,1.5616357326507568,1.818196177482605,1.506615400314331,-1.170470118522644,1.2815155982971191,0.1806389567697563,-1.2436567960628933,3.0178903452052035,-0.9315575361251831,-0.1796581745147705,-0.31610721349716187
1729110132816,7i,5.01650725557357,0.9s : 0.3s,-14.583218654060673,0.7863218236103794,1.1959387692380423,2.4326186239603973,0.8130988478660583,2.015723466873169,2.2925994396209717,1.6659716367721558,-1.2040390968322754,1.3009464740753174,0.16378831209660352,-1.2282376108911652,3.032136179758198,-0.929292619228363,-0.16305698454380035,-0.33140283823013306
1729110132826,7i,5.01650725557357,0.9s : 0.3s,-14.583218654060673,0.7960483288862292,1.6084646704245944,2.5741739158650834,0.9172742366790771,2.491093873977661,2.7939820289611816,1.8467106819152832,-1.2315089702606201,1.3036167621612549,0.14292435746020185,-1.2083314193647752,3.049247768130706,-0.9254919290542603,-0.14243826270103455,-0.35096466541290283
1729110132836,7i,5.01650725557357,0.9s : 0.3s,-14.583218654060673,0.8077122708279268,2.04272523694764,2.7581120766105114,0.998949408531189,2.9905452728271484,3.3029720783233643,2.0548486709594727,-1.2879503965377808,1.3137590885162354,0.11810104841193134,-1.1835518825389788,3.0694758184375277,-0.9195032715797424,-0.11782670021057129,-0.37500783801078796
1729110132846,7i,5.01650725557357,0.9s : 0.3s,-14.583218654060673,0.8216930938479963,2.497780355919914,2.990165244820797,1.104954719543457,3.505772113800049,3.8334383964538574,2.3099422454833984,-1.336206316947937,1.349002480506897,0.08937354353392787,-1.1535482736826264,3.0931803833518865,-0.9105589389801025,-0.08925461024045944,-0.40362876653671265
1729110132856,7i,5.01650725557357,0.9s : 0.3s,-14.583218654060673,0.8384758201564201,2.9822788346180835,3.235800672200478,1.27314293384552,4.079762935638428,4.396763324737549,2.614051342010498,-1.342902660369873,1.3541617393493652,0.057061174744246365,-1.11770783098565,3.1213634575409834,-0.8976361155509949,-0.05703021585941315,-0.4370320439338684
1729110132866,7i,5.01650725557357,0.9s : 0.3s,-14.583218654060673,0.8583992989959933,3.496163208086191,3.504956091791763,1.4290674924850464,4.708293437957764,4.977075576782227,2.914510726928711,-1.3645141124725342,1.388684868812561,0.02162657150287531,-1.0751294132685836,-3.1283221257178617,-0.8794460892677307,-0.021624885499477386,-0.4755072295665741
1729110132876,7i,5.01650725557357,0.9s : 0.3s,-14.583218654060673,0.8819280138956589,4.0299889392454284,3.8599833585955676,1.5286531448364258,5.342529773712158,5.564023494720459,3.2886714935302734,-1.408469319343567,1.4492499828338623,-0.016761705119914448,-1.0249616013194152,-3.0891280425998615,-0.8545742630958557,0.016760921105742455,-0.5190588235855103
1729110132886,7i,5.01650725557357,0.9s : 0.3s,-14.583218654060673,0.9097163173548053,4.5997733051353835,4.263050050398751,1.6351319551467896,6.038584232330322,6.242325782775879,3.7373709678649902,-1.389398217201233,1.508385419845581,-0.05764296612084757,-0.9663713176931593,-3.0437277095991395,-0.8214623928070068,0.057611048221588135,-0.5673452019691467
1729110132896,7i,5.01650725557357,0.9s : 0.3s,-14.583218654060673,0.9426606909060735,5.209009178687891,4.769371301855282,1.6290916204452515,6.810897350311279,6.976304531097412,4.305413722991943,-1.3143811225891113,1.5756641626358032,-0.10092929193370838,-0.8979973806834929,-2.991008879412448,-0.7781004905700684,0.10075802356004715,-0.6200060844421387
1729110132906,7i,5.01650725557357,0.9s : 0.3s,-14.583218654060673,0.9816764874137719,5.874625403390557,5.417116320681585,1.483351230621338,7.7733917236328125,7.754580974578857,4.977903842926025,-1.3025257587432861,1.6938267946243286,-0.14626262527784517,-0.8176779167712318,-2.9305757262619117,-0.7217699885368347,0.14574168622493744,-0.6766147613525391
1729110132916,7i,5.01650725557357,0.9s : 0.3s,-14.583218654060673,1.0283933328840207,6.604996424159164,6.365163046812993,1.0569013357162476,8.773954391479492,8.710826873779297,5.966894626617432,-1.2952086925506592,1.7983057498931885,-0.19439520176234396,-0.7231679486364588,-2.8616284132264656,-0.6492985486984253,0.19317317008972168,-0.7355920076370239
1729110132926,7i,5.01650725557357,0.9s : 0.3s,-14.583218654060673,1.0841692155205667,7.3985346053931655,7.386939937483529,0.6191245913505554,9.86534309387207,9.660172462463379,7.066070556640625,-1.2946860790252686,1.7208476066589355,-0.24480147680339726,-0.6127254358446904,-2.782441050679433,-0.557952880859375,0.24236372113227844,-0.7936928868293762
1729110132936,7i,5.01650725557357,0.9s : 0.3s,-14.583218654060673,1.1498724558323687,8.233776428350831,8.403710468758899,0.16454243659973145,10.971223831176758,10.540658950805664,8.19559097290039,-1.2510673999786377,1.3745794296264648,-0.2941394279387884,-0.48402720820646644,-2.690809096654247,-0.44536179304122925,0.28991633653640747,-0.8471135497093201
1729110132946,7i,5.01650725557357,0.9s : 0.3s,-14.583218654060673,1.2268963044292467,9.0769742518241,9.643409358047364,-0.1862892061471939,12.027994155883789,11.284342765808105,9.545031547546387,-0.9870036840438843,0.9557931423187256,-0.33781370610131456,-0.33612600138524895,-2.5854757073200165,-0.31119075417518616,0.33142516016960144,-0.8906838297843933
1729110132956,7i,5.01650725557357,0.9s : 0.3s,-14.583218654060673,1.3164999473650498,9.900385746780724,10.91570963402737,-1.03707754611969,12.98865795135498,11.940681457519531,10.883732795715332,-0.40337052941322327,0.7310057878494263,-0.37218530620924795,-0.16949984693193704,-2.467053965316931,-0.15714004635810852,0.36365199089050293,-0.918185293674469
1729110132966,7i,5.01650725557357,0.9s : 0.3s,-14.583218654060673,1.420130158063585,10.660990976272457,12.344489488589943,-2.9844768047332764,13.415789604187012,12.672381401062012,12.311298370361328,0.47827640175819397,0.7678573131561279,-0.40123888922181944,0.01247710423988825,-2.336061735315294,0.011485847644507885,0.3905591368675232,-0.9205061793327332
1729110132976,7i,5.01650725557357,0.9s : 0.3s,-14.583218654060673,1.5388013127670845,11.388718191420697,13.92200493391436,-5.644128322601318,13.495055198669434,13.43205738067627,13.800779342651367,1.7931326627731323,0.381295382976532,-0.4293993783255129,0.2063252810769922,-2.1891988259963244,0.18626607954502106,0.41632479429244995,-0.8899317979812622
1729110132986,7i,5.01650725557357,0.9s : 0.3s,-14.583218654060673,1.673627534796721,11.93977829698774,15.821884796863767,-8.6461820602417,12.451787948608398,13.573604583740234,15.330419540405273,3.9096744060516357,-0.15723001956939697,-0.45513560006387865,0.4099195280363198,-2.0176263474088674,0.3579652011394501,0.4395841062068939,-0.823788046836853
1729110132996,7i,5.01650725557357,0.9s : 0.3s,-14.583218654060673,1.8223561604013643,12.21200101857175,17.055071479571712,-12.186264038085938,9.924458503723145,12.917540550231934,15.821377754211426,6.334411144256592,-0.6593213081359863,-0.4754617519043183,0.6110055187032516,-1.821611543318304,0.5100583434104919,0.45774903893470764,-0.7282213568687439
1729110133006,7i,5.01650725557357,0.9s : 0.3s,-14.583218654060673,1.980099768601633,12.506801154193646,17.47165409615327,-16.53238296508789,6.040462493896484,12.868280410766602,15.131865501403809,8.690683364868164,-0.8702677488327026,-0.49752798464456627,0.7969390494551519,-1.6006699232334636,0.6285104751586914,0.4772546887397766,-0.6141682267189026
1729110133016,7i,5.01650725557357,0.9s : 0.3s,-14.583218654060673,2.1434264650912356,13.254362083037691,18.256620103765965,-21.712356567382812,1.4858379364013672,12.991676330566406,13.970632553100586,11.752667427062988,-0.020298480987548828,-0.5187465842881097,0.9633784529552075,-1.338858549474605,0.7130984663963318,0.4957920014858246,-0.495662122964859
1729110133026,7i,5.01650725557357,0.9s : 0.3s,-14.583218654060673,2.306123460878159,14.638370554433783,18.688613810839318,-24.964542388916016,-2.1340689659118652,14.491899490356445,11.213056564331055,14.823988914489746,1.9444797039031982,-0.5203786013782358,1.1146777806828767,-1.0250013828714093,0.7789321541786194,0.4972086548805237,-0.3821626603603363
1729110133036,7i,5.01650725557357,0.9s : 0.3s,-14.583218654060673,2.4600234699440655,15.235086127264369,17.69898505747904,-20.44308090209961,-4.758450984954834,15.510388374328613,7.503199577331543,15.542176246643066,3.9238789081573486,-0.47173935566830466,1.233430293715138,-0.7077920627393741,0.8405658602714539,0.45443636178970337,-0.2948504090309143
1729110133046,7i,5.01650725557357,0.9s : 0.3s,-14.583218654060673,2.601385761979262,14.95991178752756,18.59111102199475,-14.5541353225708,-5.0800909996032715,16.11626625061035,4.055456638336182,17.669418334960938,4.119992256164551,-0.37486791014170956,1.2763092615154095,-0.475513122476507,0.8904966711997986,0.3661496043205261,-0.27009299397468567
1729110133056,7i,5.01650725557357,0.9s : 0.3s,-14.583218654060673,2.724445653624151,15.123261633946662,14.784518732518139,-16.980735778808594,-3.2898356914520264,15.523872375488281,1.1207365989685059,13.622912406921387,5.634021759033203,-0.26369350371524575,1.2984346107164897,-0.27688833279979713,0.9298464059829712,0.2606481611728668,-0.25970834493637085
1729110133066,7i,5.01650725557357,0.9s : 0.3s,-14.583218654060673,2.8212323872490623,15.704364872332558,8.333902637807075,-21.180973052978516,-4.4195237159729,13.892863273620605,-0.852179765701294,5.855278968811035,5.868852615356445,-0.17602422209024124,1.3104208125636407,-0.04324822615560423,0.9513619542121887,0.175116628408432,-0.25346535444259644
1729110133076,7i,5.01650725557357,0.9s : 0.3s,-14.583218654060673,2.8981271928534835,14.406955941340922,2.365977439606927,-8.33021354675293,-9.216164588928223,14.383291244506836,1.436611294746399,1.823592185974121,0.45662760734558105,-0.09847242435237971,1.237489197242968,0.12307978610156975,0.9403876662254333,0.0983133539557457,-0.3255849778652191
1729110133086,7i,5.01650725557357,0.9s : 0.3s,-14.583218654060673,2.9825801557865104,16.448103252742495,12.843905281489072,-31.68599510192871,-1.2788141965866089,11.185195922851562,10.49178695678711,1.5513412952423096,-7.24442195892334,0.007777559900778768,1.2213475953568145,0.30468395244711155,0.9395332932472229,-0.007777481339871883,-0.34236958622932434
1729110133096,7i,5.01650725557357,0.9s : 0.3s,-14.583218654060673,3.0233842984260773,17.722720089231405,24.678895263035095,-34.96268081665039,-12.303214073181152,-6.731621742248535,0.2879699468612671,-20.498714447021484,13.739274024963379,-0.10754920252495329,1.16678418304662,0.6166457102968621,0.9141786098480225,0.10734198987483978,-0.3908393383026123
1729110133106,7i,5.01650725557357,0.9s : 0.3s,-14.583218654060673,3.1184803796055105,16.754394826694867,22.850843849200444,-20.54868507385254,-7.374900817871094,2.2697463035583496,12.970083236694336,14.926830291748047,11.451102256774902,-0.24530032143285707,1.087526729045521,0.886437145196233,0.8589730858802795,0.24284766614437103,-0.45076650381088257
1729110133116,7i,5.01650725557357,0.9s : 0.3s,-14.583218654060673,3.2162824568928436,14.858925164802613,12.469331738503621,-14.19778823852539,-10.647252082824707,-6.165652275085449,4.5283918380737305,11.027303695678711,3.657386302947998,-0.3398255230204422,1.0414063796507318,1.0289936973114524,0.8137562870979309,0.33332258462905884,-0.476127028465271
1729110133126,7i,5.01650725557357,0.9s : 0.3s,-14.583218654060673,3.3006396478003226,13.353956145345386,6.512517459088366,-11.57547664642334,-10.878655433654785,-5.953833103179932,2.1940085887908936,4.0284857749938965,4.6228251457214355,-0.4687990802930169,0.9674681709535635,1.1092847401252184,0.7346108555793762,0.45181524753570557,-0.5061717629432678
1729110133136,7i,5.01650725557357,0.9s : 0.3s,-14.583218654060673,3.384117501433011,12.263214468092382,7.73044991181481,-8.750646591186523,-12.606975555419922,-8.379737854003906,4.956995010375977,4.76455545425415,3.5337045192718506,-0.5819860908573343,0.8711811895834997,1.1531879321800733,0.6391353607177734,0.5496841669082642,-0.5379159450531006
1729110133146,7i,5.01650725557357,0.9s : 0.3s,-14.583218654060673,3.452318744471696,11.701829976577857,4.149272526199894,-7.5168890953063965,-12.918481826782227,-9.617724418640137,1.0032234191894531,3.3378183841705322,2.2514381408691406,-0.7042226376728092,0.7401569588452619,1.1484072782729196,0.5139734148979187,0.647441565990448,-0.5627174377441406
1729110133156,7i,5.01650725557357,0.9s : 0.3s,-14.583218654060673,3.5115001990561225,11.381338650012156,3.396522605397867,-5.863000869750977,-13.040816307067871,-10.17491626739502,2.869312047958374,1.1105031967163086,1.4388178586959839,-0.8157975960218565,0.5746976581394178,1.0978482142556771,0.3725094199180603,0.7282724380493164,-0.5752008557319641
1729110133166,7i,5.01650725557357,0.9s : 0.3s,-14.583218654060673,3.5619783284636743,11.163515088376965,3.189603502483789,-4.640601634979248,-12.678731918334961,-10.369873046875,2.61104416847229,-0.18053919076919556,1.823026180267334,-0.9063018492708083,0.3709415970993896,1.0005675043337623,0.2235354781150818,0.7872286438941956,-0.5747199058532715
1729110133176,7i,5.01650725557357,0.9s : 0.3s,-14.583218654060673,3.6062871916120995,11.008039334603216,3.261982976461074,-4.153554916381836,-12.202483177185059,-10.315361976623535,2.3645007610321045,0.048363327980041504,2.246626377105713,-0.973809829438188,0.12735084041991623,0.8542860537893188,0.07139728218317032,0.8270334005355835,-0.5576004385948181
1729110133186,7i,5.01650725557357,0.9s : 0.3s,-14.583218654060673,3.649288891268674,10.941965474130805,4.08735141344442,-3.268446683883667,-11.454041481018066,-11.694570541381836,2.7271463871002197,1.036137580871582,2.8627841472625732,-1.0099634042174122,-0.16292771044560592,0.6498300272075805,-0.08627703040838242,0.84681236743927,-0.5248478055000305
1729110133196,7i,5.01650725557357,0.9s : 0.3s,-14.583218654060673,3.6956245883813175,10.84127414367378,5.355148387048033,-2.007838726043701,-10.292289733886719,-12.70481014251709,3.2136802673339844,2.7330679893493652,3.2985167503356934,-0.996957379588581,-0.46673858817230696,0.41933773719143236,-0.24427413940429688,0.8398231863975525,-0.4847962260246277
1729110133206,7i,5.01650725557357,0.9s : 0.3s,-14.583218654060673,3.7449666067776697,10.631862987548416,5.253236158895939,0.295960396528244,-9.059381484985352,-13.19377326965332,3.8000917434692383,2.2809078693389893,2.8201510906219482,-0.9313147583972552,-0.7272643833505731,0.2207095630775536,-0.3967561423778534,0.8024052381515503,-0.44579190015792847
1729110133216,7i,5.01650725557357,0.9s : 0.3s,-14.583218654060673,3.795686975797607,10.351565007151756,4.887996834015134,2.2858152389526367,-8.12525463104248,-12.847370147705078,4.448153495788574,1.2273218631744385,1.612490177154541,-0.8263709629380719,-0.908502659628333,0.09718941742710452,-0.5343046188354492,0.7354773879051208,-0.4166436195373535
1729110133226,7i,5.01650725557357,0.9s : 0.3s,-14.583218654060673,3.8458224253257134,10.07680789243141,4.545820892724096,3.1678550243377686,-7.389340400695801,-12.366578102111816,4.297657489776611,0.6397146582603455,1.3361859321594238,-0.7066464098463984,-1.0327318727193837,0.03043224374923494,-0.6530805826187134,0.6492868661880493,-0.38975954055786133
1729110133236,7i,5.01650725557357,0.9s : 0.3s,-14.583218654060673,3.8957526553860156,9.740214906507278,4.597060080722691,3.8106324672698975,-6.644004821777344,-11.546658515930176,4.335655212402344,0.2574102282524109,1.5062520503997803,-0.5846052764010217,-1.122729836012707,-0.0021772872122058358,-0.7516098022460938,0.5518702268600464,-0.3612782657146454
1729110133246,7i,5.01650725557357,0.9s : 0.3s,-14.583218654060673,3.9461836443589275,9.392259270464695,4.831364641999424,4.840908527374268,-5.751360893249512,-10.98391342163086,4.578438758850098,0.6055247783660889,1.4189159870147705,-0.46446224200655273,-1.1884128864282761,-0.009275921967492698,-0.8294915556907654,0.4479420781135559,-0.333604097366333
1729110133256,7i,5.01650725557357,0.9s : 0.3s,-14.583218654060673,3.9972899884487254,9.06950091794848,4.86955220204874,6.374569892883301,-4.980702877044678,-10.241857528686523,4.587571144104004,0.8111810684204102,1.4172914028167725,-0.3454279022335399,-1.2356569912489517,0.007231539921787879,-0.8885816335678101,0.3385993242263794,-0.30947285890579224
1729110133266,7i,5.01650725557357,0.9s : 0.3s,-14.583218654060673,4.0487047299837435,8.779767720103907,4.911952301186658,6.870616436004639,-4.372836589813232,-9.60672378540039,4.550459861755371,0.5105477571487427,1.7776196002960205,-0.2303293148933626,-1.272627682161968,0.04163313725784767,-0.9306326508522034,0.228298157453537,-0.28601208329200745
1729110133276,7i,5.01650725557357,0.9s : 0.3s,-14.583218654060673,4.099091237846487,8.50743467157683,4.6673174913993165,7.087619781494141,-4.01934289932251,-8.940751075744629,4.16378116607666,0.17719602584838867,2.101280689239502,-0.12194944189529663,-1.3074442741746595,0.08276712169003793,-0.9583523273468018,0.12164740264415741,-0.25838524103164673
1729110133286,7i,5.01650725557357,0.9s : 0.3s,-14.583218654060673,4.147852768915705,8.313691165137413,4.2302923060220285,7.736180305480957,-3.9793524742126465,-8.318817138671875,3.921220302581787,0.4120728075504303,1.532840609550476,-0.020530580579019308,-1.3437161763033467,0.13371926025588374,-0.9741226434707642,0.020529137924313545,-0.22508616745471954
1729110133296,7i,5.01650725557357,0.9s : 0.3s,-14.583218654060673,4.1941085346803035,8.161886284230073,3.728288778559606,8.05377197265625,-4.045717239379883,-7.735976696014404,3.541182518005371,0.5869575142860413,1.0077918767929077,0.07439179843886917,-1.3858293880585026,0.19497170845244174,-0.9802237749099731,-0.07432319968938828,-0.18340536952018738
1729110133306,7i,5.01650725557357,0.9s : 0.3s,-14.583218654060673,4.238724328790507,7.99256594552498,3.7308660920769023,8.37781047821045,-3.5768353939056396,-7.103727340698242,3.4429469108581543,0.7070226073265076,1.2512383460998535,0.16057739360851286,-1.432470943135673,0.2641233449646409,-0.9777063727378845,-0.15988819301128387,-0.1361108273267746
1729110133316,7i,5.01650725557357,0.9s : 0.3s,-14.583218654060673,4.283188300126011,7.8562096327088,3.9862131126495233,9.07996940612793,-2.78916597366333,-6.5313720703125,3.444530487060547,1.172786831855774,1.6277824640274048,0.2383302221148791,-1.480266923013401,0.34512714279630746,-0.9677544832229614,-0.2360803782939911,-0.08785036206245422
1729110133326,7i,5.01650725557357,0.9s : 0.3s,-14.583218654060673,4.327414337664727,7.6821463116402455,4.014969645269257,9.02290153503418,-2.2429163455963135,-6.013150691986084,3.282860517501831,1.1528782844543457,2.0034170150756836,0.3069365778027978,-1.529391478874153,0.4349925884120377,-0.9524467587471008,-0.3021398186683655,-0.039458464831113815
1729110133336,7i,5.01650725557357,0.9s : 0.3s,-14.583218654060673,4.370047398046203,7.524358365546491,3.6354381446046413,9.1614408493042,-1.8233009576797485,-5.54641056060791,3.0005173683166504,0.7696435451507568,1.9028806686401367,0.36605104046376136,-1.581039451670558,0.5300041128080382,-0.9336991310119629,-0.35793089866638184,0.00956433080136776
1729110133346,7i,5.01650725557357,0.9s : 0.3s,-14.583218654060673,4.410636056315417,7.404001464221105,3.276564022671034,9.311272621154785,-1.6743873357772827,-5.144269943237305,2.7892606258392334,0.8219629526138306,1.5100575685501099,0.4155288132400943,-1.637689460246069,0.6327378860572458,-0.9128569960594177,-0.40367379784584045,0.061155106872320175
1729110133356,7i,5.01650725557357,0.9s : 0.3s,-14.583218654060673,4.448225654987792,7.291137697391349,2.7607281293586627,9.272506713867188,-1.7992219924926758,-4.7482733726501465,2.314723014831543,0.9315359592437744,1.1814897060394287,0.4557397151761909,-1.7002529603746965,0.7396103267817234,-0.8904219269752502,-0.4401266574859619,0.1159193143248558
1729110133366,7i,5.01650725557357,0.9s : 0.3s,-14.583218654060673,4.483157356275053,7.19079618195195,2.6035681259665977,9.355979919433594,-1.589065432548523,-4.386412143707275,2.0249743461608887,1.2354635000228882,1.0731616020202637,0.4854642636800499,-1.7681501621974915,0.8514265384483454,-0.8672903180122375,-0.4666190445423126,0.17342042922973633
1729110133376,7i,5.01650725557357,0.9s : 0.3s,-14.583218654060673,4.516205665583423,6.996689774619556,2.747269026154034,8.774471282958984,-1.3709791898727417,-4.134926795959473,1.830435037612915,1.2056115865707397,1.656350016593933,0.505944575475436,-1.8361284876171475,0.963204119153792,-0.844106912612915,-0.4846338927745819,0.22937694191932678
1729110133386,7i,5.01650725557357,0.9s : 0.3s,-14.583218654060673,4.546460899286593,6.741423769949064,2.426600655201625,8.27762222290039,-1.1561694145202637,-3.81831693649292,1.4476008415222168,0.854841947555542,1.7498822212219238,0.5190400253188711,-1.9011338419775938,1.0697774617174187,-0.8213494420051575,-0.4960468113422394,0.2816424071788788
1729110133396,7i,5.01650725557357,0.9s : 0.3s,-14.583218654060673,4.574053238310417,6.532832329483812,2.1138075058049277,8.30549144744873,-0.8807817697525024,-3.4906318187713623,1.268944501876831,1.009362816810608,1.3561521768569946,0.5240852142678634,-1.9631862875841999,1.1738427383117858,-0.7999808192253113,-0.5004212260246277,0.33107322454452515
1729110133406,7i,5.01650725557357,0.9s : 0.3s,-14.583218654060673,4.598757823025101,6.370559824315921,1.801149964266416,8.342156410217285,-0.5633906126022339,-3.269810914993286,1.0109272003173828,0.977051854133606,1.1258494853973389,0.5205193863910536,-2.0222952484723833,1.2776760805945342,-0.7806262373924255,-0.49733081459999084,0.3785296380519867
1729110133416,7i,5.01650725557357,0.9s : 0.3s,-14.583218654060673,4.6208231692770685,6.198066906030306,1.7707467519280022,8.145496368408203,-0.2765633761882782,-3.000432252883911,0.7547925710678101,0.9315581321716309,1.303085446357727,0.5104618984744275,-2.076180087653033,1.3783733907856797,-0.763444185256958,-0.4885803163051605,0.4224241375923157
1729110133426,7i,5.01650725557357,0.9s : 0.3s,-14.583218654060673,4.641487409182096,6.006441908870893,2.019925336627887,7.874512195587158,0.07288166135549545,-2.737689733505249,0.7731745839118958,1.0161184072494507,1.5651845932006836,0.4946822869465828,-2.1232937028531533,1.473966288838931,-0.749172568321228,-0.4747520387172699,0.46189984679222107
1729110133436,7i,5.01650725557357,0.9s : 0.3s,-14.583218654060673,4.660265249253526,5.76657891835832,1.8491665872014964,7.389622688293457,0.34225401282310486,-2.4951987266540527,0.5698818564414978,0.7415982484817505,1.5952064990997314,0.4751589164163697,-2.162492661497001,1.5625877315919723,-0.7380490303039551,-0.4574797749519348,0.4959802031517029
1729110133446,7i,5.01650725557357,0.9s : 0.3s,-14.583218654060673,4.67686052744481,5.486057030277077,1.6830701906823793,6.88035774230957,0.4945329427719116,-2.200136184692383,0.3916594386100769,0.49620485305786133,1.559842586517334,0.4538908266023149,-2.1942630980849844,1.6429475147047063,-0.7296568751335144,-0.4384657144546509,0.5247368812561035
1729110133456,7i,5.01650725557357,0.9s : 0.3s,-14.583218654060673,4.691188446751839,5.2072349141338865,1.4593801388319412,6.537417888641357,0.6769232749938965,-1.875664234161377,0.24435842037200928,0.38794365525245667,1.385488748550415,0.4304070133021377,-2.219729421613845,1.7159354453374545,-0.724064290523529,-0.4172407388687134,0.5492188930511475
1729110133466,7i,5.01650725557357,0.9s : 0.3s,-14.583218654060673,4.703469400992034,4.884080735504489,1.5094117098080897,5.906292915344238,0.9114072918891907,-1.656296968460083,0.06849795579910278,0.3500283360481262,1.4666669368743896,0.4060969285290089,-2.238456359838566,1.7818738289830196,-0.7214063405990601,-0.39502671360969543,0.5687946677207947
1729110133476,7i,5.01650725557357,0.9s : 0.3s,-14.583218654060673,4.714417023812422,4.52990522938996,1.6891239314752606,5.28713846206665,1.0668559074401855,-1.3854588270187378,0.06512302160263062,0.2560831606388092,1.6683285236358643,0.3832066545845435,-2.250641340819981,1.8393785135691363,-0.7212662696838379,-0.37389644980430603,0.5830753445625305
1729110133486,7i,5.01650725557357,0.9s : 0.3s,-14.583218654060673,4.723955298848532,4.197706824513283,1.4236531270795671,4.905516624450684,1.1840661764144897,-1.0614032745361328,0.040013015270233154,0.14378568530082703,1.4158082008361816,0.3607583507943083,-2.2577295974826965,1.890088117938121,-0.7234237194061279,-0.35298386216163635,0.5933473706245422
1729110133496,7i,5.01650725557357,0.9s : 0.3s,-14.583218654060673,4.7316783277244605,3.9114992240364894,1.1253318875337242,4.5764336585998535,1.4008262157440186,-1.0145795345306396,-0.06966620683670044,-0.010545969009399414,1.1231238842010498,0.3387128751634305,-2.260650265132445,1.9361360474645988,-0.7275139689445496,-0.33227336406707764,0.6002649068832397
1729110133506,7i,5.01650725557357,0.9s : 0.3s,-14.583218654060673,4.7376937353997794,3.6432666975699726,1.038733301282543,4.194885730743408,1.5513536930084229,-0.8825693726539612,-0.1583939790725708,-0.07039988040924072,1.0241689682006836,0.3181334529526231,-2.2594481468624887,1.9782278445800303,-0.7333601713180542,-0.31279420852661133,0.6036083102226257
1729110133516,7i,5.01650725557357,0.9s : 0.3s,-14.583218654060673,4.7425608304886735,3.393875114055819,1.0034646474552273,3.853473424911499,1.6297155618667603,-0.7415222525596619,-0.1275668740272522,-0.07974174618721008,0.9921236038208008,0.2989115667815988,-2.254990235641574,2.0162365393679784,-0.7405667304992676,-0.29448020458221436,0.6040220856666565
1729110133526,7i,5.01650725557357,0.9s : 0.3s,-14.583218654060673,4.746356618249919,3.1465707568427055,0.9017800090391891,3.4376749992370605,1.7157238721847534,-0.6206866502761841,-0.16915422677993774,-0.10107198357582092,0.8799877762794495,0.2809672706509455,-2.2480507618472245,2.0503976218738282,-0.7487382888793945,-0.2772851288318634,0.6020832657814026
1729110133536,7i,5.01650725557357,0.9s : 0.3s,-14.583218654060673,4.749255203640305,2.8750313908455767,1.0158231961740964,2.8680686950683594,1.7330466508865356,-0.6169329285621643,-0.2558453679084778,-0.11086386442184448,0.976805567741394,0.26637504510619253,-2.23872881217207,2.079997070915358,-0.757414698600769,-0.26323607563972473,0.5975202322006226
1729110133546,7i,5.01650725557357,0.9s : 0.3s,-14.583218654060673,4.751866272886927,2.622453853070647,0.948832120240686,2.5517780780792236,1.6820571422576904,-0.4357649087905884,-0.19998985528945923,0.06449863314628601,0.9252709746360779,0.2538465211887181,-2.2280231963831754,2.1053722842189972,-0.7663188576698303,-0.25112906098365784,0.591346025466919
1729110133556,7i,5.01650725557357,0.9s : 0.3s,-14.583218654060673,4.753775370415297,2.3668041832783095,0.7844731514452311,2.1880712509155273,1.517796277999878,-0.30132320523262024,-0.2578534483909607,-0.03321415185928345,0.7401395440101624,0.24242320897317937,-2.217315163050107,2.127121855112136,-0.7748462557792664,-0.24005568027496338,0.5847965478897095
1729110133566,7i,5.01650725557357,0.9s : 0.3s,-14.583218654060673,4.7548353055399035,2.1139591864062983,0.6906695056721209,1.862065076828003,1.3528717756271362,-0.14823980629444122,-0.2993645668029785,-0.10620802640914917,0.6132903695106506,0.23217617724546027,-2.207160416228482,2.1451432125197125,-0.7826820611953735,-0.23009584844112396,0.5783296823501587
1729110133576,7i,5.01650725557357,0.9s : 0.3s,-14.583218654060673,4.755316746749495,1.8748549510245696,0.5834155606608559,1.611081600189209,1.1674984693527222,-0.028086774051189423,-0.27410125732421875,-0.061013415455818176,0.5113898515701294,0.22266731290463704,-2.1977903841789947,2.1600078387267523,-0.7898027300834656,-0.22083187103271484,0.5722285509109497
1729110133586,7i,5.01650725557357,0.9s : 0.3s,-14.583218654060673,4.755415697802062,1.6524230951559702,0.5065448011461351,1.3845003843307495,1.0037410259246826,0.04467204958200455,-0.2595953941345215,-0.008639708161354065,0.4348829984664917,0.2138734200791251,-2.189422772275547,2.1723466952444555,-0.796114444732666,-0.21224665641784668,0.5667040944099426
1729110133596,7i,5.01650725557357,0.9s : 0.3s,-14.583218654060673,4.755181425713186,1.4520566060329636,0.46303191597018184,1.213333249092102,0.8471828699111938,0.0834394171833992,-0.27867621183395386,0.042526885867118835,0.36732763051986694,0.20607660014057785,-2.181780893821223,2.182639470530087,-0.8017527461051941,-0.2046210914850235,0.5615358948707581
1729110133606,7i,5.01650725557357,0.9s : 0.3s,-14.583218654060673,4.754729507853155,1.2809264365322568,0.42455781345165305,1.0981591939926147,0.732090175151825,0.09002222120761871,-0.27776551246643066,0.11074978113174438,0.3013803958892822,0.19880307110927484,-2.1756168740228494,2.191819248550662,-0.8064018487930298,-0.19749611616134644,0.5574148297309875
1729110133616,7i,5.01650725557357,0.9s : 0.3s,-14.583218654060673,4.754094746989363,1.133205856325889,0.44050865351993324,0.9711315035820007,0.6633329391479492,-0.0005111403297632933,-0.29320281744003296,0.11478601396083832,0.30806517601013184,0.1928531547388658,-2.1704054140137163,2.200475630370914,-0.810251772403717,-0.19165992736816406,0.55385822057724
1729110133626,7i,5.01650725557357,0.9s : 0.3s,-14.583218654060673,4.753482593353977,0.9725806985359928,0.4712225834059921,0.6908138394355774,0.5704762935638428,-0.007125966250896454,-0.2561025023460388,0.07648493349552155,0.3880879878997803,0.18806536399080526,-2.165561143869306,2.207449909740081,-0.8136759400367737,-0.18695871531963348,0.5504344701766968
1729110133636,7i,5.01650725557357,0.9s : 0.3s,-14.583218654060673,4.7529689466218334,0.8252437675531257,0.4626984160074477,0.5247018337249756,0.5012159943580627,-0.017845988273620605,-0.2239828109741211,0.06651438772678375,0.3993712067604065,0.18490651540931305,-2.1611080820783894,2.212537772402865,-0.8166056871414185,-0.18385463953018188,0.5471317768096924
1729110133646,7i,5.01650725557357,0.9s : 0.3s,-14.583218654060673,4.752465347175873,0.7086317993367703,0.3403265340258483,0.4713902771472931,0.45431405305862427,-0.0518483966588974,-0.19813638925552368,0.07683703303337097,0.26581984758377075,0.18240015020729802,-2.1571113538264535,2.2169594425117967,-0.8191672563552856,-0.1813904345035553,0.5441169142723083
1729110133656,7i,5.01650725557357,0.9s : 0.3s,-14.583218654060673,4.7519290911143175,0.610840031803856,0.27963334677146945,0.3995901048183441,0.4085575044155121,-0.0915454775094986,-0.18079781532287598,0.06565652787685394,0.20296841859817505,0.1806202922603732,-2.153491693358039,2.2210601474903044,-0.8213993906974792,-0.1796398162841797,0.5413249135017395
1729110133666,7i,5.01650725557357,0.9s : 0.3s,-14.583218654060673,4.7514493965864295,0.5259683343658108,0.28596263677065414,0.3196735680103302,0.3678261637687683,-0.11773236840963364,-0.1672971248626709,0.08511008322238922,0.21573728322982788,0.17953323132103843,-2.1502107212397883,2.224716174218993,-0.8233341574668884,-0.17857033014297485,0.538733720779419
1729110133676,7i,5.01650725557357,0.9s : 0.3s,-14.583218654060673,4.7511247010088296,0.44634650325801367,0.3132248596154667,0.2029927521944046,0.33553266525268555,-0.12775757908821106,-0.14644843339920044,0.08381755650043488,0.26388877630233765,0.17913459221668734,-2.147189204162835,2.227698068841917,-0.8250178098678589,-0.1781780868768692,0.5362823009490967
1729110133686,7i,5.01650725557357,0.9s : 0.3s,-14.583218654060673,4.750870697845542,0.36341823387442873,0.3218251088428225,0.02500811219215393,0.30202656984329224,-0.11092933267354965,-0.12054681777954102,0.02678292989730835,0.2971910834312439,0.17950948675902295,-2.1443044397349293,2.2293315888124052,-0.8265051245689392,-0.1785469651222229,0.5338637232780457
1729110133696,7i,5.01650725557357,0.9s : 0.3s,-14.583218654060673,4.750691410200908,0.29474446337933596,0.3272270635774532,-0.10513976961374283,0.29138243198394775,-0.1069076880812645,-0.09077852964401245,0.016652196645736694,0.3139418959617615,0.18073590740224352,-2.141353221569961,2.2295166272930236,-0.8278923034667969,-0.17975354194641113,0.5313035845756531
1729110133706,7i,5.01650725557357,0.9s : 0.3s,-14.583218654060673,4.750735097680473,0.24948803165227745,0.26722103496195065,-0.1634555459022522,0.2829761803150177,-0.07624045759439468,-0.05743682384490967,0.013490185141563416,0.2606263756752014,0.1822682305788625,-2.1383488718921098,2.2288960456092566,-0.8292512893676758,-0.18126069009304047,0.5286651253700256
1729110133716,7i,5.01650725557357,0.9s : 0.3s,-14.583218654060673,4.750955651618961,0.23887695288888092,0.22761101267527864,-0.26077011227607727,0.2758735120296478,-0.03222612291574478,-0.019984781742095947,-0.019846618175506592,0.22586166858673096,0.18385478781799797,-2.13526907551037,2.2273591534181585,-0.830631673336029,-0.18282073736190796,0.5259542465209961
1729110133726,7i,5.01650725557357,0.9s : 0.3s,-14.583218654060673,4.751357210193244,0.2251974951735109,0.2119990248190465,-0.3440200090408325,0.28284701704978943,-0.023540958762168884,0.00718379020690918,-0.021315202116966248,0.2108023762702942,0.18568272598154448,-2.131977577723987,2.22488421972955,-0.8320741057395935,-0.1846175640821457,0.5230386853218079
1729110133736,7i,5.01650725557357,0.9s : 0.3s,-14.583218654060673,4.751850802592928,0.23813159153174818,0.17147925534306802,-0.3967798948287964,0.2873176634311676,0.0020861076191067696,0.01844841241836548,-0.032234713435173035,0.16740882396697998,0.18775390293833916,-2.1285369699405705,2.221749475485254,-0.8335424065589905,-0.1866527497768402,0.5199692249298096
1729110133746,7i,5.01650725557357,0.9s : 0.3s,-14.583218654060673,4.752436135582765,0.26317146168227507,0.14718401944497805,-0.44752052426338196,0.28244975209236145,0.037371862679719925,0.037193238735198975,-0.02668769657611847,0.1398841142654419,0.18985933837810703,-2.1249618774858234,2.217965231294072,-0.8350600600242615,-0.18872076272964478,0.5167779922485352
1729110133756,7i,5.01650725557357,0.9s : 0.3s,-14.583218654060673,4.753096244992331,0.29126385494926377,0.1182465418572358,-0.47747471928596497,0.28177571296691895,0.03584453836083412,0.046031951904296875,-0.009017303586006165,0.10854488611221313,0.1919892496661278,-2.1213243161425615,2.213724426662912,-0.8365899920463562,-0.19081197679042816,0.5135256052017212
1729110133766,7i,5.01650725557357,0.9s : 0.3s,-14.583218654060673,4.753751875668149,0.31236755713945497,0.08907428244188384,-0.48695477843284607,0.25796759128570557,0.046623751521110535,0.028850555419921875,0.007415801286697388,0.08394569158554077,0.1940875340429036,-2.1177324529577577,2.2092918686726746,-0.8380853533744812,-0.19287128746509552,0.5103080868721008
1729110133776,7i,5.01650725557357,0.9s : 0.3s,-14.583218654060673,4.754448569379462,0.32833511482788347,0.09452323900339052,-0.4965096712112427,0.23969243466854095,0.05074711889028549,0.04027855396270752,0.016394928097724915,0.08392548561096191,0.19622551530269325,-2.1143381299896578,2.204700734908566,-0.839457631111145,-0.19496868550777435,0.5072458982467651
1729110133786,7i,5.01650725557357,0.9s : 0.3s,-14.583218654060673,4.7551903655329815,0.33474888143175086,0.08736421418986692,-0.4792192280292511,0.21672599017620087,0.045156512409448624,0.04139202833175659,0.04872952401638031,0.059536874294281006,0.1983741103599149,-2.111151702939416,2.200192244759946,-0.8407083749771118,-0.19707559049129486,0.5043517351150513
1729110133796,7i,5.01650725557357,0.9s : 0.3s,-14.583218654060673,4.755933012711201,0.3381226016470893,0.06680685592545704,-0.49589645862579346,0.17725607752799988,0.0645507201552391,0.05367177724838257,0.03161437809467316,0.024145960807800293,0.2003876694797841,-2.1082640258525798,2.1955987261304744,-0.8418189883232117,-0.19904926419258118,0.5017179250717163
1729110133806,7i,5.01650725557357,0.9s : 0.3s,-14.583218654060673,4.756644874657787,0.3364341726995268,0.05722669757881014,-0.4524898827075958,0.15315429866313934,0.10728033632040024,0.04776930809020996,0.03088568150997162,0.00625002384185791,0.2020577313239052,-2.1056736676439085,2.1909872853745953,-0.8428285121917725,-0.20068562030792236,0.4993654191493988
1729110133816,7i,5.01650725557357,0.9s : 0.3s,-14.583218654060673,4.757316872460179,0.33507098854290435,0.04817066308654943,-0.4660395085811615,0.12321984767913818,0.12192825973033905,0.029251456260681152,0.027301043272018433,0.02682197093963623,0.20336747316875547,-2.103368139307668,2.1864147410827806,-0.8437504172325134,-0.20196855068206787,0.4972870349884033
1729110133826,7i,5.01650725557357,0.9s : 0.3s,-14.583218654060673,4.757965045987798,0.3344050991455108,0.05313624796064967,-0.46991679072380066,0.12477672845125198,0.13191132247447968,0.02304023504257202,0.005309969186782837,0.04758584499359131,0.20467316649617992,-2.1011270251604612,2.1816501372493335,-0.8446346521377563,-0.20324715971946716,0.4952611029148102
1729110133836,7i,5.01650725557357,0.9s : 0.3s,-14.583218654060673,4.758579045827524,0.33739672392200826,0.04538216010419595,-0.49937161803245544,0.1162484884262085,0.13718171417713165,0.023295164108276367,0.0055841803550720215,0.038544684648513794,0.2059507185177702,-2.09889059949796,2.1766536649644297,-0.8455148935317993,-0.20449787378311157,0.49323949217796326
1729110133846,7i,5.01650725557357,0.9s : 0.3s,-14.583218654060673,4.759101799633629,0.3373440118296872,0.027554023919708254,-0.47899192571640015,0.11000385880470276,0.14213529229164124,0.01750338077545166,0.01794441044330597,0.011439144611358643,0.20719861960786023,-2.0967228507920885,2.171598024589531,-0.846360981464386,-0.2057192474603653,0.4912770986557007
1729110133856,7i,5.01650725557357,0.9s : 0.3s,-14.583218654060673,4.759477601171072,0.33810210789344697,0.010340670573491199,-0.49305394291877747,0.10591510683298111,0.13429655134677887,0.001316368579864502,0.009054034948348999,-0.004818826913833618,0.20842054359136813,-2.094592183324865,2.166603406222455,-0.8471872806549072,-0.20691488683223724,0.4893464744091034
1729110133866,7i,5.01650725557357,0.9s : 0.3s,-14.583218654060673,4.759763017734938,0.33962799190477005,0.0029708224518922503,-0.499441534280777,0.1111859455704689,0.12461735308170319,0.0011746883392333984,-0.001389533281326294,0.0023484230041503906,0.20978652208900644,-2.0924420679493667,2.161514462293398,-0.8479917049407959,-0.20825110375881195,0.48738253116607666
1729110133876,7i,5.01650725557357,0.9s : 0.3s,-14.583218654060673,4.760010332444808,0.338748689013349,0.012560133559019386,-0.46705856919288635,0.12218400835990906,0.10819443315267563,-0.005995452404022217,0.0012167543172836304,-0.010969549417495728,0.21118777285236165,-2.0902541762229316,2.156652153240683,-0.8488019108772278,-0.20962142944335938,0.48538070917129517
1729110133886,7i,5.01650725557357,0.9s : 0.3s,-14.583218654060673,4.7602126331784955,0.336931168473658,0.03310226244234921,-0.45440801978111267,0.1297875940799713,0.09883641451597214,-0.005203843116760254,-0.005274489521980286,-0.03226235508918762,0.21260168863993503,-2.087991994092414,2.152005607265704,-0.8496392965316772,-0.21100372076034546,0.48331230878829956
1729110133896,7i,5.01650725557357,0.9s : 0.3s,-14.583218654060673,4.760308593659727,0.2989960047560867,0.07146306859525536,-0.32651370763778687,-0.09185265004634857,0.12888380885124207,0.009320318698883057,0.009840711951255798,-0.0701659619808197,0.21368809146043957,-2.086349098464121,2.147807056943138,-0.8502320647239685,-0.21206554770469666,0.48180240392684937
1729110133906,7i,5.01650725557357,0.9s : 0.3s,-14.583218654060673,4.76056707202749,0.2726969438525088,0.17143481471248445,-0.2653305232524872,0.16606011986732483,0.1093583032488823,0.07498008012771606,0.09511546790599823,-0.12132984399795532,0.21358773169064654,-2.085243737162995,2.144014779743932,-0.8507828116416931,-0.21196746826171875,0.48087286949157715
1729110133916,7i,5.01650725557357,0.9s : 0.3s,-14.583218654060673,4.760262023233509,0.2720910002657822,0.1653641481402823,-0.3734433948993683,0.12861260771751404,0.0626954585313797,-0.1075015664100647,-0.12496483325958252,-0.013134121894836426,0.21511522629967397,-2.083195374793537,2.1404465476030072,-0.8514828085899353,-0.21345999836921692,0.47896984219551086
1729110133926,7i,5.01650725557357,0.9s : 0.3s,-14.583218654060673,4.760183016654388,0.2571242943109401,0.12335872188448138,-0.28763073682785034,0.16056449711322784,0.07234488427639008,0.056816160678863525,0.06235162913799286,-0.09000873565673828,0.21600513790306727,-2.080941338395335,2.1372712208395233,-0.852394163608551,-0.2143293172121048,0.47695642709732056
1729110133936,7i,5.01650725557357,0.9s : 0.3s,-14.583218654060673,4.760051134127273,0.2440485024805954,0.08397678735986486,-0.2836975157260895,0.14604468643665314,0.04163198545575142,0.010128021240234375,-0.025117456912994385,-0.07948985695838928,0.21701481347294582,-2.078804455810831,2.134396295070494,-0.8532218337059021,-0.21531541645526886,0.47502830624580383
1729110133946,7i,5.01650725557357,0.9s : 0.3s,-14.583218654060673,4.759946401444151,0.22186539202247887,0.12672695601155368,-0.20778292417526245,0.13635098934173584,0.06745889037847519,0.0498080849647522,-0.009935885667800903,-0.11610406637191772,0.21770140936975493,-2.0768428485303683,2.1319121452479846,-0.8540224432945251,-0.21598586440086365,0.4732818901538849
1729110133956,7i,5.01650725557357,0.9s : 0.3s,-14.583218654060673,4.7598387779179685,0.2024635182161977,0.1362042177269001,-0.18571144342422485,0.12930773198604584,0.07270292192697525,0.050854384899139404,-0.021076887845993042,-0.12458404898643494,0.21804307300004233,-2.075040636576497,2.129823146742481,-0.8548093438148499,-0.21631944179534912,0.4717063009738922
1729110133966,7i,5.01650725557357,0.9s : 0.3s,-14.583218654060673,4.759779497737349,0.18328589850700724,0.11638535936773216,-0.14799655973911285,0.1285286843776703,0.08280908316373825,0.07430928945541382,-0.004914119839668274,-0.08944010734558105,0.21815635700350505,-2.0733381357371656,2.127942392036976,-0.8555899858474731,-0.21643005311489105,0.47023865580558777
1729110133976,7i,5.01650725557357,0.9s : 0.3s,-14.583218654060673,4.759758639184498,0.16814977168894743,0.10760549010893194,-0.13662193715572357,0.12065663933753967,0.08896497637033463,0.06441360712051392,0.012935727834701538,-0.08522027730941772,0.21810646787623492,-2.071717915014405,2.126255040007862,-0.856360137462616,-0.21638134121894836,0.46885696053504944
