timestamp,club,max_speed,tempo,w.rotation,l.speed,t.spped,acc,rotation.x,rotation.y,rotation.z,userAcceleration.x,userAcceleration.y,userAcceleration.z,pitch,roll,yaw,gravity.x,gravity.y,gravity.z
1729110019944,7i,4.16846165626421,1.0s : 0.4s,-13.677437513734304,0.00025634458191340606,0.09785753785135726,0.06683277202716506,0.37859800457954407,-0.06745219230651855,0.019543826580047607,-0.03622251749038696,0.052330851554870605,-0.020396828651428223,-0.28217907730557307,1.6294491143398961,2.8753021182785754,0.9587995409965515,0.2784492075443268,0.05630084127187729
1729110019954,7i,4.16846165626421,1.0s : 0.4s,-13.677437513734304,0.0005426199464873974,0.14746178751897704,0.04612774819109333,0.3880240023136139,-0.06787510216236115,0.025666967034339905,-0.023744523525238037,0.03232070803642273,-0.02278900146484375,-0.2823599421895713,1.6276501672369366,2.871247356167366,0.9588489532470703,0.27862292528152466,0.05457305908203125
1729110019964,7i,4.16846165626421,1.0s : 0.4s,-13.677437513734304,0.0008300348620955169,0.17542280382057318,0.026865527258595253,0.3492284119129181,-0.08187161386013031,0.041681885719299316,-0.014252543449401855,0.020656853914260864,-0.009587280452251434,-0.282572912368191,1.6257093301250998,2.86732371624023,0.9588938355445862,0.278827428817749,0.05270873010158539
1729110019974,7i,4.16846165626421,1.0s : 0.4s,-13.677437513734304,0.001088362762362748,0.21537673701621204,0.01548896910242167,0.24677126109600067,-0.36105743050575256,0.428735613822937,0.0035133957862854004,-0.0035628676414489746,-0.014658451080322266,-0.28206866811710896,1.6234952936814058,2.8639539740446,0.9591484665870667,0.27834317088127136,0.05059297755360603
1729110019984,7i,4.16846165626421,1.0s : 0.4s,-13.677437513734304,0.0010902448869553856,0.4221896940161576,0.08116912277447356,0.2212483286857605,-0.6989327669143677,1.3164070844650269,0.06692969799041748,-0.04244905710220337,-0.017519120126962662,-0.28174212463789217,1.6216527269683785,2.8611645125928225,0.959330677986145,0.27802950143814087,0.04883021116256714
1729110019994,7i,4.16846165626421,1.0s : 0.4s,-13.677437513734304,0.0009831624037738185,0.4599368951033015,0.07150807617459733,0.21955321729183197,-0.45374324917793274,0.6488567590713501,0.050286948680877686,-0.04890146851539612,-0.01390230655670166,-0.2815811562190409,1.6201389538859774,2.8589693546548887,0.9594482183456421,0.2778748869895935,0.047380153089761734
1729110020004,7i,4.16846165626421,1.0s : 0.4s,-13.677437513734304,0.0009742453307342845,0.3544636195490561,0.02916728423425696,0.15845045447349548,-0.13763092458248138,0.03844454884529114,0.009491324424743652,-0.02610531449317932,-0.008897066116333008,-0.28085104726867743,1.6183950493692365,2.857290541775058,0.9597317576408386,0.2771734595298767,0.0457165353000164
1729110020014,7i,4.16846165626421,1.0s : 0.4s,-13.677437513734304,0.0011960405468878041,0.27068583907713334,0.08899059185876602,0.12345865368843079,-0.10481039434671402,-0.0002956571988761425,0.08857518434524536,-0.005791813135147095,-0.0063416920602321625,-0.2803704565391018,1.6168867405508451,2.8558602218014624,0.9599326848983765,0.27671167254447937,0.04427504912018776
1729110020024,7i,4.16846165626421,1.0s : 0.4s,-13.677437513734304,0.0015020781530675105,0.2126452329770977,0.012964124366001669,0.11570299416780472,-0.09790446609258652,0.0001522866077721119,0.008360564708709717,0.0034674108028411865,-0.009281516075134277,-0.2804845652324657,1.6154841396040964,2.854594272545781,0.9599622488021851,0.2768213152885437,0.04292719066143036
1729110020034,7i,4.16846165626421,1.0s : 0.4s,-13.677437513734304,0.001838958491398046,0.16618672876644272,0.0240365502505027,0.09081362932920456,-0.0883312001824379,-0.035573750734329224,0.01756054162979126,0.015049189329147339,-0.006550192832946777,-0.2807223970785108,1.614263243127974,2.853496195524716,0.9599480628967285,0.27704983949661255,0.04175228253006935
1729110020044,7i,4.16846165626421,1.0s : 0.4s,-13.677437513734304,0.0021754593116310485,0.13438004447899446,0.016065724959981497,0.07881301641464233,-0.09158500283956528,-0.04594626650214195,0.01506960391998291,0.004057526588439941,-0.0038145817816257477,-0.2811566984102386,1.6131037291410268,2.8526366668731717,0.9598754644393921,0.27746710181236267,0.04063408449292183
1729110020054,7i,4.16846165626421,1.0s : 0.4s,-13.677437513734304,0.0024936283826113375,0.10792657916634456,0.011994906139536429,0.03403942286968231,-0.08635428547859192,-0.05548597499728203,0.01134556531906128,-0.0035965442657470703,0.001490231603384018,-0.2816906681387409,1.6120505564144434,2.8520495335998195,0.9597695469856262,0.27798008918762207,0.03961703181266785
1729110020064,7i,4.16846165626421,1.0s : 0.4s,-13.677437513734304,0.002779730451828235,0.08304385705720485,0.028784897479551635,-0.040075015276670456,-0.07891128212213516,-0.06465443968772888,0.0028231143951416016,-0.025668680667877197,0.012716885656118393,-0.2822708462062744,1.611234639867153,2.8520894159762604,0.9596402049064636,0.2785373330116272,0.03882739692926407
1729110020074,7i,4.16846165626421,1.0s : 0.4s,-13.677437513734304,0.003053014893692146,0.07854201754940786,0.039752664220226976,-0.09313610941171646,-0.1030549705028534,-0.023255866020917892,0.014485478401184082,-0.03647729754447937,0.006312843412160873,-0.2826101192813599,1.6104863716145101,2.852959905215586,0.9595745205879211,0.27886316180229187,0.038105566054582596
1729110020084,7i,4.16846165626421,1.0s : 0.4s,-13.677437513734304,0.0032971359560610082,0.07974374950834737,0.05279076105748685,-0.18900617957115173,-0.1287611424922943,-0.015560929663479328,0.003128528594970703,-0.05267488956451416,0.0015597343444824219,-0.2829045033382754,1.6098138938452136,2.854448800515688,0.9595180153846741,0.27914586663246155,0.037457067519426346
1729110020094,7i,4.16846165626421,1.0s : 0.4s,-13.677437513734304,0.0035197056248175364,0.09661322498619293,0.04922369453004748,-0.23023484647274017,-0.1072624996304512,-0.02324042096734047,-0.004392445087432861,-0.04849877953529358,0.007179617881774902,-0.2829889319360749,1.609221537191472,2.8565241998518434,0.9595164060592651,0.2792269289493561,0.03688777610659599
1729110020104,7i,4.16846165626421,1.0s : 0.4s,-13.677437513734304,0.0036832756265893665,0.12955070544888458,0.05708903399544201,-0.31567275524139404,-0.10936106741428375,-0.019422713667154312,-0.015706539154052734,-0.052108585834503174,0.01723826304078102,-0.28306163057788114,1.6088852350149803,2.8593674243063862,0.9595085978507996,0.27929675579071045,0.03656432032585144
1729110020114,7i,4.16846165626421,1.0s : 0.4s,-13.677437513734304,0.0038010675933537468,0.16257986951135292,0.05521787528034906,-0.3546774089336395,-0.09760081768035889,-0.03594576194882393,-0.015603363513946533,-0.033716797828674316,0.04085004702210426,-0.2832153940150326,1.6088642885729565,2.8629155607950345,0.9594664573669434,0.2794443964958191,0.036542586982250214
1729110020124,7i,4.16846165626421,1.0s : 0.4s,-13.677437513734304,0.00393390890513561,0.23194932298315749,0.04901959834080413,-0.41088610887527466,-0.3919485807418823,0.3214159607887268,0.017000198364257812,-0.010671526193618774,0.04472172632813454,-0.28305180493133203,1.608739489035975,2.866755957290107,0.959516704082489,0.27928730845451355,0.036424580961465836
1729110020134,7i,4.16846165626421,1.0s : 0.4s,-13.677437513734304,0.0036198931951035474,0.3884186813125866,0.14694282730685865,-0.4243689179420471,-0.7290624380111694,0.901137113571167,-0.1392683982849121,-0.02017691731452942,0.042301297187805176,-0.284068078768854,1.6092219704549169,2.870749035940473,0.9592147469520569,0.2802630066871643,0.03687659651041031
1729110020144,7i,4.16846165626421,1.0s : 0.4s,-13.677437513734304,0.0031289363915142938,0.39367649548073447,0.11563277118973872,-0.42894700169563293,-0.33444321155548096,0.2885374128818512,-0.10385912656784058,-0.008659601211547852,0.05009222403168678,-0.28451641326537735,1.6097744990348715,2.875086671396709,0.9590686559677124,0.2806933522224426,0.03740168735384941
1729110020154,7i,4.16846165626421,1.0s : 0.4s,-13.677437513734304,0.002766020456254567,0.3381130716148836,0.04843626860808546,-0.4382699429988861,-0.06293928623199463,-0.04542938247323036,-0.005019068717956543,0.01101827621459961,0.046898599714040756,-0.2849677412086997,1.610293622419434,2.879834071190072,0.958922266960144,0.2811264991760254,0.03789454326033592
1729110020164,7i,4.16846165626421,1.0s : 0.4s,-13.677437513734304,0.002532416111158141,0.3022779759037648,0.05159511922321771,-0.41941675543785095,-0.042069826275110245,-0.1066528931260109,0.011539280414581299,0.037977010011672974,0.03296434506773949,-0.28546438564674526,1.611098296382284,2.884413993117692,0.9587517976760864,0.281603068113327,0.03866051882505417
1729110020174,7i,4.16846165626421,1.0s : 0.4s,-13.677437513734304,0.0024067236538208594,0.27982354018509925,0.0486681911312257,-0.3770589232444763,-0.035808999091386795,-0.07246988266706467,0.004209756851196289,0.04218283295631409,0.023905634880065918,-0.286154112558069,1.611849395441518,2.8885692930030977,0.9585283398628235,0.2822648286819458,0.03937264904379845
1729110020184,7i,4.16846165626421,1.0s : 0.4s,-13.677437513734304,0.002368610230925591,0.25748517962265655,0.04205608919655492,-0.32531142234802246,-0.017077524214982986,-0.06780146807432175,-0.008125841617584229,0.03828853368759155,0.015384197235107422,-0.28677791962676513,1.6126285039819568,2.892226745510679,0.958321213722229,0.28286319971084595,0.04011206328868866
1729110020194,7i,4.16846165626421,1.0s : 0.4s,-13.677437513734304,0.0024141371193582744,0.23480626432007193,0.049204365494818235,-0.27019545435905457,-0.03243463858962059,0.03802403435111046,-0.019488215446472168,0.03236553072929382,0.031523823738098145,-0.2873852324689526,1.6134207497448,2.895401879034833,0.9581174254417419,0.28344565629959106,0.04086395353078842
1729110020204,7i,4.16846165626421,1.0s : 0.4s,-13.677437513734304,0.002538307866432432,0.2144537086718011,0.04586384129332236,-0.22535380721092224,-0.05861648917198181,0.13593505322933197,-0.026183128356933594,0.026315152645111084,0.026934150606393814,-0.2879345193984333,1.6141729618113274,2.898071361149767,0.9579307436943054,0.2839723825454712,0.04157789424061775
1729110020214,7i,4.16846165626421,1.0s : 0.4s,-13.677437513734304,0.0027445485636754066,0.21186260197335047,0.04282372990965191,-0.2222650647163391,-0.08142859488725662,0.23743504285812378,-0.03461146354675293,0.007661759853363037,0.024025317281484604,-0.2883398005306542,1.6149369522824986,2.900468574895504,0.9577834010124207,0.28436094522476196,0.042304638773202896
1729110020224,7i,4.16846165626421,1.0s : 0.4s,-13.677437513734304,0.003032234220184697,0.22338334528884382,0.04867561436012179,-0.24245914816856384,-0.12747079133987427,0.3349319398403168,-0.04136824607849121,-0.017669349908828735,0.018595099449157715,-0.28865972993997646,1.615735866628321,2.9029702523692427,0.9576586484909058,0.2846676707267761,0.04306573420763016
1729110020234,7i,4.16846165626421,1.0s : 0.4s,-13.677437513734304,0.0033648530645809848,0.24810367556787827,0.040980238625124184,-0.21047218143939972,-0.17539037764072418,0.4269079566001892,-0.0387730598449707,-0.007976680994033813,0.010601997375488281,-0.28899054800222584,1.6164069916506574,2.905498414275903,0.9575353264808655,0.2849847674369812,0.04370413348078728
1729110020244,7i,4.16846165626421,1.0s : 0.4s,-13.677437513734304,0.0037193659112400614,0.28212434837273,0.05966114873333621,-0.16399455070495605,-0.20922446250915527,0.5165956616401672,-0.05892068147659302,0.009352296590805054,-0.0005835331976413727,-0.28936186928159074,1.616986655454069,2.907576064054172,0.9574038982391357,0.28534069657325745,0.044254276901483536
1729110020254,7i,4.16846165626421,1.0s : 0.4s,-13.677437513734304,0.004104703739378424,0.3264608615664212,0.07810742535465001,-0.11820337176322937,-0.25535866618156433,0.6116369962692261,-0.07769876718521118,0.003301292657852173,-0.007264498621225357,-0.2897847200989313,1.6174841203799435,2.9092127921178053,0.9572611451148987,0.28574591875076294,0.04472491145133972
1729110020264,7i,4.16846165626421,1.0s : 0.4s,-13.677437513734304,0.004496722220098942,0.37850379560055963,0.07482602042243458,-0.024805251508951187,-0.3134935200214386,0.7127770185470581,-0.06906259059906006,0.018436729907989502,-0.022121910005807877,-0.2902319446595687,1.6176927400924082,2.910140213445417,0.9571241736412048,0.286174476146698,0.04491862282156944
1729110020274,7i,4.16846165626421,1.0s : 0.4s,-13.677437513734304,0.00488564547416213,0.4389131804435329,0.09063442927532325,0.006112451199442148,-0.358035147190094,0.807073712348938,-0.08026856184005737,0.02749595046043396,-0.031867388635873795,-0.2907462542689793,1.617678907512978,2.910374521204327,0.9569774866104126,0.28666722774505615,0.04489847272634506
1729110020284,7i,4.16846165626421,1.0s : 0.4s,-13.677437513734304,0.005389240671933672,0.5012761943685792,0.10009314754558496,-0.004485864657908678,-0.4231356978416443,0.8736503720283508,-0.09596067667007446,0.006584972143173218,-0.02769160270690918,-0.29137423653484906,1.6176133210846484,2.9106285633873163,0.9568005800247192,0.28726881742477417,0.044827282428741455
1729110020294,7i,4.16846165626421,1.0s : 0.4s,-13.677437513734304,0.005912500073910775,0.5430238335842387,0.09957319093183689,0.013744538649916649,-0.44506603479385376,0.8493008613586426,-0.07454121112823486,0.04316037893295288,-0.049956079572439194,-0.29204332672705796,1.6173216432926025,2.910823529028193,0.9566214680671692,0.2879096269607544,0.044539257884025574
1729110020304,7i,4.16846165626421,1.0s : 0.4s,-13.677437513734304,0.0064244558812048165,0.5694001888197117,0.1049609621742908,-0.003321264171972871,-0.44687822461128235,0.8289598226547241,-0.06107419729232788,0.05680972337722778,-0.0637134313583374,-0.29272018657146254,1.616909935551109,2.910984448394787,0.9564449191093445,0.288557767868042,0.0441364161670208
1729110020314,7i,4.16846165626421,1.0s : 0.4s,-13.677437513734304,0.007012904213803119,0.5812093513923287,0.0897210587624346,-0.006767394486814737,-0.4407079219818115,0.7938790321350098,-0.07719039916992188,0.032377660274505615,-0.03229857236146927,-0.29345612274512406,1.6165244296578787,2.9112700580000057,0.9562491178512573,0.2892623245716095,0.04375796392560005
1729110020324,7i,4.16846165626421,1.0s : 0.4s,-13.677437513734304,0.007674982937874647,0.5823521241954286,0.10094074776735937,0.03848104551434517,-0.4234899878501892,0.7765892744064331,-0.08484965562820435,0.04649469256401062,-0.02877175807952881,-0.2942026702649379,1.616133606705656,2.911312097760815,0.9560503363609314,0.2899768650531769,0.0433744415640831
1729110020334,7i,4.16846165626421,1.0s : 0.4s,-13.677437513734304,0.008377065439648198,0.5822860703761601,0.08644936965395976,0.11681073904037476,-0.4191035032272339,0.7609090805053711,-0.06761753559112549,0.03795942664146423,-0.0382157601416111,-0.29487822305304545,1.6155989676706684,2.910636056462606,0.9558773636817932,0.29062333703041077,0.04285450652241707
1729110020344,7i,4.16846165626421,1.0s : 0.4s,-13.677437513734304,0.009100426048263114,0.5807909343948212,0.06634069439048902,0.1657489836215973,-0.4206218421459198,0.7332297563552856,-0.056278884410858154,0.02105659246444702,-0.028113961219787598,-0.29552807955797106,1.6147770996203348,2.9092668683134657,0.9557235240936279,0.29124507308006287,0.04206058010458946
1729110020354,7i,4.16846165626421,1.0s : 0.4s,-13.677437513734304,0.009834850968998478,0.5750130114696731,0.05968940314875181,0.18317191302776337,-0.41801220178604126,0.7006728649139404,-0.054791033267974854,0.010068446397781372,-0.021433476358652115,-0.2961680073561652,1.6137826697378865,2.9075623934774617,0.9555783271789551,0.29185721278190613,0.04110213741660118
1729110020364,7i,4.16846165626421,1.0s : 0.4s,-13.677437513734304,0.010584338410172207,0.5586630226083358,0.06444984470355507,0.184565007686615,-0.39626607298851013,0.6531444191932678,-0.06319308280944824,0.007854193449020386,-0.009936217218637466,-0.29690375824215615,1.6127624301294574,2.905719293718164,0.9554049968719482,0.2925608456134796,0.040118180215358734
1729110020374,7i,4.16846165626421,1.0s : 0.4s,-13.677437513734304,0.011348000369269709,0.5397697347354479,0.06881320026563618,0.2151503562927246,-0.3774186372756958,0.6096581816673279,-0.06753343343734741,0.012847214937210083,0.0030726157128810883,-0.2977939117174695,1.61179064403173,2.9037264273194188,0.9551829099655151,0.2934119403362274,0.03917902335524559
1729110020384,7i,4.16846165626421,1.0s : 0.4s,-13.677437513734304,0.01212255750837621,0.5207372276961247,0.07301118988770566,0.23453083634376526,-0.36035215854644775,0.5752934217453003,-0.07082211971282959,-0.0018260180950164795,0.017650123685598373,-0.2987297708557977,1.6107900926594474,2.901397459958053,0.9549468755722046,0.2943064868450165,0.03821229562163353
1729110020394,7i,4.16846165626421,1.0s : 0.4s,-13.677437513734304,0.01289849402134841,0.5039144925622535,0.08104004634516392,0.24998728930950165,-0.36040541529655457,0.5449352264404297,-0.06993687152862549,-0.03218287229537964,0.025309797376394272,-0.29964743105567393,1.6096988883302914,2.898903438024026,0.954717755317688,0.29518336057662964,0.037159714847803116
1729110020404,7i,4.16846165626421,1.0s : 0.4s,-13.677437513734304,0.013658740528916408,0.4940958008317905,0.06481691343092982,0.32901379466056824,-0.3521019220352173,0.5253206491470337,-0.05684739351272583,-0.02667415142059326,0.016065359115600586,-0.30042977606370463,1.6083150286742791,2.895916924781607,0.9545372724533081,0.29593077301979065,0.0358298122882843
1729110020414,7i,4.16846165626421,1.0s : 0.4s,-13.677437513734304,0.01441188105152708,0.482810547139496,0.07599909865259563,0.33381521701812744,-0.32904958724975586,0.5056809186935425,-0.06510376930236816,-0.032107651233673096,0.022504687309265137,-0.30107026107437684,1.6067875026834668,2.8923539934651465,0.9544013142585754,0.2965424954891205,0.034364864230155945
1729110020424,7i,4.16846165626421,1.0s : 0.4s,-13.677437513734304,0.015161147072573407,0.46971523368537527,0.10506827990953284,0.3189031183719635,-0.3083221912384033,0.4872446060180664,-0.07345414161682129,-0.0648311972618103,0.037957191467285156,-0.301478835068541,1.6053418919257,2.888910690804878,0.9543288350105286,0.2969326674938202,0.03298094868659973
1729110020434,7i,4.16846165626421,1.0s : 0.4s,-13.677437513734304,0.01589334271272208,0.46619606938096636,0.08414109361766017,0.3723301291465759,-0.31310951709747314,0.46755826473236084,-0.053975045680999756,-0.05441918969154358,0.03471267595887184,-0.30168082830176757,1.6037552016683698,2.8852534259694176,0.9543200731277466,0.29712554812431335,0.03146471083164215
1729110020444,7i,4.16846165626421,1.0s : 0.4s,-13.677437513734304,0.016471727762385657,0.46189346670845144,0.025294667595822853,0.40244847536087036,-0.29924076795578003,0.4418531358242035,-0.01948857307434082,-0.012557655572891235,-0.010115385055541992,-0.30172173336169616,1.6019145928667755,2.881058974185228,0.9543641209602356,0.29716458916664124,0.02970774658024311
1729110020454,7i,4.16846165626421,1.0s : 0.4s,-13.677437513734304,0.01700376190408134,0.4465857306050147,0.04530191200229378,0.3620041012763977,-0.290127158164978,0.40872153639793396,-0.009952366352081299,-0.04256844520568848,-0.011880282312631607,-0.3017023269502389,1.5999744924775767,2.876992645252985,0.9544256329536438,0.2971460819244385,0.027856294065713882
1729110020464,7i,4.16846165626421,1.0s : 0.4s,-13.677437513734304,0.017490259731122195,0.4237065294261597,0.06432199097921547,0.30453696846961975,-0.27417081594467163,0.37181195616722107,-0.006379067897796631,-0.06400337815284729,-0.0004400014877319336,-0.3016186254769178,1.5981712592754316,2.87345849772128,0.9544992446899414,0.2970661520957947,0.02613588236272335
1729110020474,7i,4.16846165626421,1.0s : 0.4s,-13.677437513734304,0.017941173005185603,0.39247043899279493,0.06027106039051699,0.23457731306552887,-0.2468899041414261,0.3332690894603729,-0.00927799940109253,-0.059187620878219604,0.006583690643310547,-0.30149708539112996,1.5965987173640386,2.870534206056547,0.9545753002166748,0.296950101852417,0.024635791778564453
1729110020484,7i,4.16846165626421,1.0s : 0.4s,-13.677437513734304,0.01835766954408024,0.3571752562821338,0.05696751386962436,0.17668792605400085,-0.23933878540992737,0.28453463315963745,-0.005373477935791016,-0.05618208646774292,0.0077457427978515625,-0.3014496194669362,1.5952052341599525,2.868331564921325,0.9546228051185608,0.2969047725200653,0.023305928334593773
1729110020494,7i,4.16846165626421,1.0s : 0.4s,-13.677437513734304,0.018727519474458176,0.32222473237546895,0.03425006819780345,0.1485566794872284,-0.22948694229125977,0.2370438277721405,0.009810864925384521,-0.03164073824882507,-0.008699297904968262,-0.3015080792758187,1.5938428802638278,2.86657644011579,0.95463627576828,0.29696059226989746,0.022004971280694008
1729110020504,7i,4.16846165626421,1.0s : 0.4s,-13.677437513734304,0.019069538711045355,0.2886771716395631,0.0506634137468002,0.11985086649656296,-0.21812914311885834,0.19770090281963348,-0.0017513632774353027,-0.05053091049194336,-0.003215789794921875,-0.30161970532072563,1.5924792008177737,2.8650891940003635,0.9546322822570801,0.29706719517707825,0.020702416077256203
1729110020514,7i,4.16846165626421,1.0s : 0.4s,-13.677437513734304,0.019414527956925234,0.254040258236653,0.050291055310276285,0.09194573014974594,-0.19212231040000916,0.15374331176280975,-0.026007354259490967,-0.043036818504333496,0.000800013542175293,-0.301825331806593,1.5912309511524512,2.8639746417819785,0.9545962810516357,0.2972635328769684,0.019509531557559967
1729110020524,7i,4.16846165626421,1.0s : 0.4s,-13.677437513734304,0.019766100328141096,0.22559016077421595,0.03306586609946133,0.12037710845470428,-0.15940795838832855,0.13167595863342285,-0.03167515993118286,-0.0057096779346466064,0.007578609511256218,-0.3020287259955525,1.590093427540553,2.8628104391942437,0.9545572400093079,0.2974577248096466,0.018422473222017288
1729110020534,7i,4.16846165626421,1.0s : 0.4s,-13.677437513734304,0.020125791149276196,0.1957916539764511,0.039429259155210866,0.0852888971567154,-0.13036485016345978,0.10687660425901413,-0.03402113914489746,-0.01248079538345337,0.015538929030299187,-0.3021526309015279,1.5891079899842577,2.8616471053664156,0.9545380473136902,0.29757601022720337,0.017481133341789246
1729110020544,7i,4.16846165626421,1.0s : 0.4s,-13.677437513734304,0.020481550286474675,0.16431561196163053,0.04551000504399678,0.015305150300264359,-0.12004078924655914,0.07992624491453171,-0.02330559492111206,-0.023083269596099854,0.03154635429382324,-0.3022620086351832,1.5883243350325509,2.861104456708081,0.9545189738273621,0.29768043756484985,0.016732530668377876
1729110020554,7i,4.16846165626421,1.0s : 0.4s,-13.677437513734304,0.020828686893125163,0.13688004057385553,0.050080730580553,-0.013612783513963223,-0.1052975282073021,0.06349773705005646,-0.01773780584335327,-0.029186278581619263,0.036628007888793945,-0.30229347045439087,1.5876525561536379,2.861111866794623,0.9545207619667053,0.29771047830581665,0.01609114371240139
1729110020564,7i,4.16846165626421,1.0s : 0.4s,-13.677437513734304,0.021168395125735717,0.11305962464411388,0.03887550231567332,-0.01954990066587925,-0.08711209148168564,0.04230779409408569,-0.020434021949768066,-0.006217539310455322,0.032482266426086426,-0.3022890371033331,1.587056198498691,2.861315856489108,0.9545314908027649,0.2977062165737152,0.015521927736699581
1729110020574,7i,4.16846165626421,1.0s : 0.4s,-13.677437513734304,0.021500802910059583,0.092452317990856,0.03261229748797823,-0.003937386441975832,-0.06137024238705635,0.032219208776950836,-0.020549118518829346,-0.0030814707279205322,0.02513563632965088,-0.3021847242453178,1.5865516123723342,2.8614264147991775,0.9545702338218689,0.2976066470146179,0.01504077110439539
1729110020584,7i,4.16846165626421,1.0s : 0.4s,-13.677437513734304,0.021814789666872773,0.07483553351863763,0.02988707958656049,-0.012818229384720325,-0.05479436740279198,0.01369419414550066,-0.010180473327636719,-0.0017426013946533203,0.02804565615952015,-0.30198107638209354,1.5860277751822103,2.861455839411139,0.954638659954071,0.2974122166633606,0.014541653916239738
1729110020594,7i,4.16846165626421,1.0s : 0.4s,-13.677437513734304,0.022097758712726668,0.07201902164782259,0.04765848432043976,0.09056701511144638,-0.037394601851701736,0.04375196248292923,-0.0030904412269592285,0.036270081996917725,0.030761362984776497,-0.3017860965696577,1.5854359500861188,2.861078603373844,0.954704999923706,0.29722607135772705,0.013977520167827606
1729110020604,7i,4.16846165626421,1.0s : 0.4s,-13.677437513734304,0.02236525399058222,0.06829750137728809,0.01598079646388188,0.13040217757225037,-0.009261812083423138,0.05662005767226219,-0.008494555950164795,-0.006727039813995361,0.01174628920853138,-0.3012405438343963,1.5848288711946708,2.8597800645496054,0.9548753499984741,0.29670512676239014,0.013400210067629814
1729110020614,7i,4.16846165626421,1.0s : 0.4s,-13.677437513734304,0.02262143544739918,0.06616875099896569,0.05780372023136093,0.07712031155824661,-0.008619191125035286,0.04457804188132286,-0.011028289794921875,-0.026418864727020264,0.0502164363861084,-0.30073759266186084,1.5845043349383485,2.8587085629513185,0.9550285339355469,0.29622477293014526,0.013092358596622944
1729110020624,7i,4.16846165626421,1.0s : 0.4s,-13.677437513734304,0.02285219600775086,0.0649082149466051,0.043194623869763416,0.09328170865774155,0.004793287254869938,0.05352925881743431,0.0026916861534118652,0.01167994737625122,0.04149830341339111,-0.3001809735927352,1.584443680370196,2.8579138637578416,0.9551940560340881,0.2956930994987488,0.013036680407822132
1729110020634,7i,4.16846165626421,1.0s : 0.4s,-13.677437513734304,0.02306696405214342,0.06322179412176065,0.034740795979316126,0.07319774478673935,0.003028143895789981,0.050298046320676804,0.002049744129180908,-0.02234211564064026,0.026524541899561882,-0.29950491531141926,1.5844619548746468,2.8570575707196686,0.9553934335708618,0.29504719376564026,0.013056864961981773
1729110020644,7i,4.16846165626421,1.0s : 0.4s,-13.677437513734304,0.023286120924938567,0.0528073970674894,0.04481602052258042,0.03585650026798248,0.0022908032406121492,0.03414670377969742,-0.013651907444000244,-0.02301284670829773,0.03595149517059326,-0.29913697632799263,1.584559335592025,2.8566001750704046,0.9555007219314575,0.2946956157684326,0.013151395134627819
1729110020654,7i,4.16846165626421,1.0s : 0.4s,-13.677437513734304,0.02350181899439121,0.05197264941483232,0.019549666404471738,0.06661813706159592,0.012660088017582893,0.0429665632545948,-0.015382945537567139,0.01049831509590149,0.005944730713963509,-0.29879868036626744,1.5846619806604845,2.8561485511630464,0.9555991888046265,0.2943723201751709,0.013250856660306454
1729110020664,7i,4.16846165626421,1.0s : 0.4s,-13.677437513734304,0.02371158849918168,0.05031184561291906,0.022720025029019996,0.05473657697439194,0.01591300591826439,0.032370809465646744,-0.01563352346420288,0.013737082481384277,-0.009115099906921387,-0.29845931759713096,1.584803631436651,2.8555687892634167,0.9556970596313477,0.2940479815006256,0.013387614861130714
1729110020674,7i,4.16846165626421,1.0s : 0.4s,-13.677437513734304,0.023921378010502734,0.04211075236883121,0.01974703073917272,0.025300661101937294,-3.613368608057499e-05,0.02470889501273632,-0.018155455589294434,-0.0017474591732025146,-0.007567763328552246,-0.29848796131630784,1.584988867932962,2.8552274722717783,0.9556860327720642,0.2940753698348999,0.013564524240791798
1729110020684,7i,4.16846165626421,1.0s : 0.4s,-13.677437513734304,0.02411919898251034,0.04106874818623385,0.03990787480375053,0.04541578143835068,0.0006284138653427362,0.02281838469207287,-0.015402078628540039,0.02614167332649231,-0.025923490524291992,-0.29825262588529644,1.5849712543489156,2.854889226785185,0.9557555317878723,0.2938504219055176,0.013548673130571842
1729110020694,7i,4.16846165626421,1.0s : 0.4s,-13.677437513734304,0.02430287405200299,0.03949032627557134,0.047279623136089945,0.041185084730386734,0.0033996994607150555,0.012625668197870255,-0.019803106784820557,0.03411811590194702,-0.02606058120727539,-0.2979055172518039,1.585256857259502,2.8545231552777635,0.9558535814285278,0.29351863265037537,0.013823113404214382
1729110020704,7i,4.16846165626421,1.0s : 0.4s,-13.677437513734304,0.02448039909425359,0.03803387690875715,0.02904289053266373,0.04385010898113251,0.00014957762323319912,0.005725550465285778,-0.016296982765197754,0.02348470687866211,-0.0051348209381103516,-0.2979353794095749,1.585474230873266,2.854186621843565,0.9558417201042175,0.2935471832752228,0.014030760154128075
1729110020714,7i,4.16846165626421,1.0s : 0.4s,-13.677437513734304,0.024633508702792056,0.03776109071864463,0.03619430905851693,0.06372368335723877,-0.012558761052787304,-0.0024993561673909426,-0.0007881522178649902,0.03617548942565918,-0.0008606910705566406,-0.2977485702597184,1.585455668679932,2.8536999415783746,0.9558968544006348,0.2933685779571533,0.014013823121786118
1729110020724,7i,4.16846165626421,1.0s : 0.4s,-13.677437513734304,0.02475114023760772,0.04521985423834004,0.043305598369919186,0.10306908935308456,-0.017748329788446426,-0.007942358031868935,-0.0033193230628967285,0.04223063588142395,-0.008996129035949707,-0.2976555322502209,1.585346117076803,2.8529166252989353,0.9559255838394165,0.29327964782714844,0.013909498229622841
1729110020734,7i,4.16846165626421,1.0s : 0.4s,-13.677437513734304,0.024858424337853294,0.05704738338091204,0.04145319089529732,0.12984956800937653,-0.012572476640343666,-0.008517068810760975,-0.011402666568756104,0.03816872835159302,-0.01146710105240345,-0.29789812476892646,1.5848832909404622,2.8516884389621975,0.9558606147766113,0.2935115694999695,0.01346606481820345
1729110020744,7i,4.16846165626421,1.0s : 0.4s,-13.677437513734304,0.024959935926524224,0.07054638839057766,0.02809862796295699,0.15199269354343414,-0.018434271216392517,-0.005884068086743355,-0.008144617080688477,0.026747077703475952,-0.0027914047241210938,-0.29816201329514264,1.584236776000897,2.8502051834081277,0.9557917714118958,0.29376381635665894,0.012847044505178928
1729110020754,7i,4.16846165626421,1.0s : 0.4s,-13.677437513734304,0.02502469395663791,0.08607121137216131,0.04615000779605687,0.18086908757686615,-0.024693232029676437,-0.01615268364548683,0.004818439483642578,0.044089436531066895,-0.01275646686553955,-0.2983288416994093,1.583424255850893,2.8484066423466303,0.9557529091835022,0.2939232885837555,0.01206982135772705
1729110020764,7i,4.16846165626421,1.0s : 0.4s,-13.677437513734304,0.025046385446683733,0.10656661413195367,0.05218280406461449,0.2273268699645996,-0.03194723650813103,-0.02071893960237503,0.0063304901123046875,0.04846888780593872,-0.018268465995788574,-0.2987916903712665,1.5823280719366604,2.8462295365624546,0.9556295275688171,0.29436564445495605,0.011020565405488014
1729110020774,7i,4.16846165626421,1.0s : 0.4s,-13.677437513734304,0.025066961905527915,0.13845204667759686,0.039575519473203986,0.31771695613861084,-0.014886496588587761,-0.000685310922563076,-0.0048729777336120605,0.0318278968334198,-0.0230100154876709,-0.29934388118433314,1.581016406579821,2.8433008301731313,0.9554803967475891,0.2948933243751526,0.009765425696969032
1729110020784,7i,4.16846165626421,1.0s : 0.4s,-13.677437513734304,0.025099076661486457,0.16858294457526177,0.030265975762318747,0.35672998428344727,-0.005431875586509705,0.01927291788160801,-0.011646389961242676,-0.004385590553283691,-0.027589082717895508,-0.2995400590272577,1.579868632325734,2.8397309991194764,0.9554330110549927,0.2950807809829712,0.008668217808008194
1729110020794,7i,4.16846165626421,1.0s : 0.4s,-13.677437513734304,0.025130485537121414,0.1888053726807304,0.03196547860531524,0.35103800892829895,-0.011396823450922966,0.02704801596701145,-0.0001996755599975586,-0.018697619438171387,-0.025925874710083008,-0.29968304564922693,1.5787510253477808,2.836038102961815,0.9553999304771423,0.2952173948287964,0.007600078359246254
1729110020804,7i,4.16846165626421,1.0s : 0.4s,-13.677437513734304,0.02514992299140577,0.20037309046592403,0.04373638036097301,0.33686214685440063,-0.019816983491182327,0.036477770656347275,0.010734975337982178,-0.036166638135910034,-0.02212703227996826,-0.2997445333826346,1.5775061090832134,2.832423400280055,0.9553905129432678,0.29527613520622253,0.006410558708012104
1729110020814,7i,4.16846165626421,1.0s : 0.4s,-13.677437513734304,0.025168381176570477,0.20097580176922966,0.05044225041172097,0.3051294982433319,-0.02152353711426258,0.0369853675365448,0.002645432949066162,-0.047767698764801025,-0.01598966121673584,-0.299605424771855,1.5762725618665439,2.829041991710078,0.9554388523101807,0.2951432168483734,0.005232260096818209
1729110020824,7i,4.16846165626421,1.0s : 0.4s,-13.677437513734304,0.02520023806136976,0.19980640950012,0.05172632094716416,0.2786843180656433,-0.022266915068030357,0.04619811102747917,-0.0015955567359924316,-0.04941374063491821,-0.015210151672363281,-0.2993159949810679,1.5751847897465212,2.825991750696663,0.9555294513702393,0.294866681098938,0.004193332511931658
1729110020834,7i,4.16846165626421,1.0s : 0.4s,-13.677437513734304,0.02521626165553743,0.18044711044531606,0.06322116604060321,0.19636042416095734,-0.020741989836096764,0.05363738164305687,0.007963240146636963,-0.05971762537956238,-0.0191652774810791,-0.29893711597713724,1.5742135257147258,2.823434588728613,0.9556446075439453,0.29450464248657227,0.003265640465542674
1729110020844,7i,4.16846165626421,1.0s : 0.4s,-13.677437513734304,0.025210907061458274,0.14967335642986068,0.06725740515866907,0.10782935470342636,-0.04200311377644539,0.04233948886394501,0.01573026180267334,-0.06496390700340271,-0.007470488548278809,-0.29858299878534095,1.573424083869125,2.8218674447520313,0.9557511210441589,0.2941662073135376,0.002511487575247884
1729110020854,7i,4.16846165626421,1.0s : 0.4s,-13.677437513734304,0.025190029201270645,0.12887975417658934,0.03651381920463406,0.11035563051700592,-0.044394899159669876,0.03483203798532486,0.022677302360534668,-0.020816951990127563,-0.0196380615234375,-0.2982922085950653,1.5726002301944044,2.820733774177157,0.9558383822441101,0.29388827085494995,0.0017242419999092817
1729110020864,7i,4.16846165626421,1.0s : 0.4s,-13.677437513734304,0.025169305521987283,0.11852634076059727,0.018660585304920537,0.1322510838508606,-0.03973143547773361,0.030999748036265373,0.00811624526977539,-0.00865277647972107,-0.014403939247131348,-0.2979699416014603,1.5717537639288368,2.8194573130570215,0.9559342265129089,0.29358020424842834,0.0009152471902780235
1729110020874,7i,4.16846165626421,1.0s : 0.4s,-13.677437513734304,0.02515861407162273,0.11845423918007651,0.02171815062283082,0.1670846939086914,-0.03778546676039696,0.038965530693531036,-0.00043833255767822266,-0.013844221830368042,-0.016727924346923828,-0.2975744761108858,1.5708647566697476,2.81785363594005,0.9560505747795105,0.29320216178894043,6.542242044815794e-05
1729110020884,7i,4.16846165626421,1.0s : 0.4s,-13.677437513734304,0.025148182465121363,0.1135492754542832,0.037021672824658125,0.1333480328321457,-0.03636733070015907,0.04161377623677254,0.008288085460662842,-0.021121829748153687,-0.029253721237182617,-0.29704692270039373,1.5699693372102288,2.8162150976158604,0.9562047123908997,0.2926977276802063,-0.0007907715043984354
1729110020894,7i,4.16846165626421,1.0s : 0.4s,-13.677437513734304,0.025149826582221365,0.09694547152959285,0.041856457420827504,0.06783826649188995,-0.043780505657196045,0.051343102008104324,0.0029214024543762207,-0.040599942207336426,-0.009750545024871826,-0.2964329710833948,1.569233025229567,2.8151788548268026,0.9563835859298706,0.2921106219291687,-0.001495117205195129
1729110020904,7i,4.16846165626421,1.0s : 0.4s,-13.677437513734304,0.02516429920802389,0.08473372790765048,0.04004150028907937,0.054280512034893036,-0.05733967944979668,0.055145394057035446,0.001633763313293457,-0.039071470499038696,-0.008606553077697754,-0.2957282950501714,1.5685159926335626,2.814558514278774,0.9565877318382263,0.2914366126060486,-0.00218134350143373
1729110020914,7i,4.16846165626421,1.0s : 0.4s,-13.677437513734304,0.02518990736753341,0.07949927187096553,0.02961231941207135,0.03950289636850357,-0.06593690067529678,0.062053367495536804,-0.0003400444984436035,-0.027029067277908325,-0.012091457843780518,-0.29486368189321616,1.5676934847321764,2.8140387129002646,0.9568372964859009,0.2906094193458557,-0.0029689245857298374
1729110020924,7i,4.16846165626421,1.0s : 0.4s,-13.677437513734304,0.02521952393111084,0.07750349947662896,0.021519638175483972,0.04177816957235336,-0.065227210521698,0.06697738915681839,-5.7578086853027344e-05,-0.006524384021759033,-0.020506680011749268,-0.2936711222111338,1.5668895771905067,2.8135977574846702,0.957180380821228,0.28946810960769653,-0.003739482956007123
1729110020934,7i,4.16846165626421,1.0s : 0.4s,-13.677437513734304,0.025245848362746997,0.07603440981583208,0.01904372645548371,0.0525360070168972,-0.06520750373601913,0.05446479469537735,0.0007404685020446777,0.013065576553344727,-0.013834953308105469,-0.29282882177526626,1.5659624021413387,2.8130961398284486,0.9574201107025146,0.28866177797317505,-0.004628133028745651
1729110020944,7i,4.16846165626421,1.0s : 0.4s,-13.677437513734304,0.025261603540563154,0.07630323656263244,0.03097890879513334,0.08505866676568985,-0.055442798882722855,0.05951884016394615,0.001983940601348877,0.03056982159614563,-0.0046089887619018555,-0.2922047689589217,1.5650927465393254,2.8123616203946242,0.9575955867767334,0.28806424140930176,-0.005461782682687044
1729110020954,7i,4.16846165626421,1.0s : 0.4s,-13.677437513734304,0.025261557453359566,0.08127356627007179,0.03249646436672924,0.12462232261896133,-0.053151149302721024,0.05643969401717186,0.006234884262084961,0.031869083642959595,-0.0012279748916625977,-0.2915810264825944,1.564176546155735,2.8112563762816913,0.9577696919441223,0.2874668836593628,-0.006340317893773317
1729110020964,7i,4.16846165626421,1.0s : 0.4s,-13.677437513734304,0.025247897451172428,0.09231348784423205,0.031455833633923895,0.16063292324543,-0.05061311274766922,0.05847378075122833,0.006501317024230957,0.026168882846832275,-0.01619851589202881,-0.290889161807096,1.5631124652201505,2.80972094415956,0.9579610228538513,0.2868041396141052,-0.007360984571278095
1729110020974,7i,4.16846165626421,1.0s : 0.4s,-13.677437513734304,0.025226240179478398,0.09906661279826864,0.02715193592907984,0.15724697709083557,-0.050286076962947845,0.05817098170518875,0.0036028623580932617,0.02149045467376709,-0.01619899272918701,-0.29011839732009853,1.5621114688792666,2.8080280980432186,0.9581738114356995,0.2860656678676605,-0.008321812376379967
1729110020984,7i,4.16846165626421,1.0s : 0.4s,-13.677437513734304,0.025204439667803752,0.09832813428973707,0.006448374568775285,0.10999677330255508,-0.057489264756441116,0.058820027858018875,0.00425487756729126,-0.0036911368370056152,-0.003138958476483822,-0.28932710328082656,1.5611597756530584,2.806633267578225,0.9583916068077087,0.2853073477745056,-0.009235875681042671
1729110020994,7i,4.16846165626421,1.0s : 0.4s,-13.677437513734304,0.025183502448006895,0.09572421640661698,0.01636785673183253,0.07927827537059784,-0.06976909190416336,0.06353941559791565,0.00636136531829834,-0.013655513525009155,-0.006400524638593197,-0.28854746360224126,1.56020297857596,2.8056542548780614,0.9586044549942017,0.28456005454063416,-0.0101552102714777
1729110021004,7i,4.16846165626421,1.0s : 0.4s,-13.677437513734304,0.02516842949383815,0.0860554709979666,0.015816361607285147,0.052536942064762115,-0.06990501284599304,0.05404011905193329,-0.0022998452186584473,2.0235776901245117e-05,-0.015648245811462402,-0.28793868042799103,1.5591713765997388,2.804929290579407,0.9587665796279907,0.28397637605667114,-0.011146116070449352
1729110021014,7i,4.16846165626421,1.0s : 0.4s,-13.677437513734304,0.025169060123256023,0.0801815584319736,0.01920842868935994,0.04535652697086334,-0.06739338487386703,0.05057907477021217,-0.011910021305084229,-0.0003318488597869873,-0.015066685155034065,-0.28758978861432877,1.5582796281111788,2.8044161071439975,0.958855390548706,0.2836418151855469,-0.012002330273389816
1729110021024,7i,4.16846165626421,1.0s : 0.4s,-13.677437513734304,0.025174983076973564,0.07801067316012276,0.026056930761368443,0.05819735676050186,-0.06607933342456818,0.03963698074221611,-0.008366525173187256,0.01541784405708313,-0.01926797814667225,-0.2874597566271158,1.5574897559138372,2.8038896931842663,0.9588824510574341,0.28351712226867676,-0.012760190293192863
1729110021034,7i,4.16846165626421,1.0s : 0.4s,-13.677437513734304,0.02517944187344518,0.07777158157111329,0.029513374771322952,0.08928363770246506,-0.06183398887515068,0.03481718897819519,-0.006432056427001953,0.026802003383636475,-0.010550855658948421,-0.28741083476268914,1.5566898059011793,2.803167021633598,0.958885669708252,0.2834702134132385,-0.013527438044548035
1729110021044,7i,4.16846165626421,1.0s : 0.4s,-13.677437513734304,0.02517994401243148,0.0838239536996074,0.027778841562471412,0.14131474494934082,-0.05604219064116478,0.02692348137497902,-0.0044438838958740234,0.02720630168914795,-0.003425358794629574,-0.2873233897201319,1.5556880125594952,2.801952562241717,0.9588963985443115,0.28338634967803955,-0.014488411135971546
1729110021054,7i,4.16846165626421,1.0s : 0.4s,-13.677437513734304,0.02518082971812245,0.08975536163946175,0.01900735970456885,0.15083235502243042,-0.052343323826789856,0.026728536933660507,-0.005587220191955566,0.01758214831352234,0.004575014114379883,-0.2872713666002161,1.5546330570733384,2.800391172051596,0.9588953852653503,0.28333646059036255,-0.015500234439969063
1729110021064,7i,4.16846165626421,1.0s : 0.4s,-13.677437513734304,0.025183674556558816,0.09007558659074719,0.013878868186837864,0.1261962503194809,-0.053218793123960495,0.026657629758119583,-0.0025466084480285645,0.0009070932865142822,0.01361304335296154,-0.28696616742376746,1.5537384376265526,2.798947843910496,0.9589676856994629,0.283043771982193,-0.01635955087840557
1729110021074,7i,4.16846165626421,1.0s : 0.4s,-13.677437513734304,0.02518809513667336,0.08962820869222277,0.018900302780905064,0.10884841531515121,-0.06283333897590637,0.02538064494729042,-0.00011926889419555664,-0.0077765583992004395,0.017225921154022217,-0.2865380750564738,1.5528214059626155,2.797749322615632,0.9590731859207153,0.2826331555843353,-0.01724112220108509
1729110021084,7i,4.16846165626421,1.0s : 0.4s,-13.677437513734304,0.025192376021538208,0.0895867146469183,0.013139081810868147,0.11805935949087143,-0.05895919352769852,0.021794931963086128,-0.003541231155395508,0.009208440780639648,0.008677544072270393,-0.2862973844552888,1.5517921652036633,2.7965457202092,0.9591228365898132,0.28240227699279785,-0.018229519948363304
1729110021094,7i,4.16846165626421,1.0s : 0.4s,-13.677437513734304,0.025198013762234104,0.09010669408134228,0.019982605492958185,0.13099512457847595,-0.05314524844288826,0.01969476230442524,-0.006991744041442871,0.015456289052963257,0.010560452938079834,-0.28611515990238484,1.550784658026062,2.7952304266352948,0.9591554999351501,0.28222745656967163,-0.01919686421751976
1729110021104,7i,4.16846165626421,1.0s : 0.4s,-13.677437513734304,0.025207153237124514,0.09219291863271523,0.02192323789378259,0.15010331571102142,-0.04765975475311279,0.018867451697587967,-0.008352935314178467,0.011776655912399292,0.01649749092757702,-0.28608572587291425,1.549749345371498,2.7937432210346,0.9591435194015503,0.2821992039680481,-0.020190058276057243
1729110021114,7i,4.16846165626421,1.0s : 0.4s,-13.677437513734304,0.025211770214222013,0.10401517529397171,0.028527893801447414,0.19412696361541748,-0.04330628737807274,0.020041905343532562,-0.0052759647369384766,0.022114723920822144,0.017232060432434082,-0.2861570400375734,1.548760281512596,2.791957367620424,0.9591029286384583,0.28226763010025024,-0.021138258278369904
1729110021124,7i,4.16846165626421,1.0s : 0.4s,-13.677437513734304,0.025211477107516776,0.11571478903841523,0.027385125216841385,0.21199065446853638,-0.03735492005944252,0.016734391450881958,-0.0030991435050964355,0.021956712007522583,0.016069946810603142,-0.2862263517451829,1.5477918508920694,2.789826268624442,0.9590624570846558,0.2823341190814972,-0.022066621109843254
1729110021134,7i,4.16846165626421,1.0s : 0.4s,-13.677437513734304,0.02521062072129358,0.12615500877999414,0.021059595909060775,0.22247019410133362,-0.036914434283971786,0.012672539800405502,-0.0024373531341552734,0.00747448205947876,0.019537093117833138,-0.2862279890133298,1.5468814540845892,2.7875944704362743,0.9590413570404053,0.28233569860458374,-0.02293972484767437
1729110021144,7i,4.16846165626421,1.0s : 0.4s,-13.677437513734304,0.025205155455438596,0.13431275842585028,0.024695397236502836,0.22645734250545502,-0.034655407071113586,0.01161216851323843,0.0009747147560119629,0.008651107549667358,0.023109974339604378,-0.2860830588676324,1.5460367701846063,2.7853003919458783,0.9590625166893005,0.28219667077064514,-0.02375081554055214
1729110021154,7i,4.16846165626421,1.0s : 0.4s,-13.677437513734304,0.025201930462157345,0.1349572465411075,0.03333016198568908,0.2078157365322113,-0.03337442874908447,0.0036146955098956823,-0.005177438259124756,0.009511381387710571,0.03152185678482056,-0.28590213591732544,1.5453018166187091,2.783123923079248,0.9590959548950195,0.2820230722427368,-0.02445698156952858
1729110021164,7i,4.16846165626421,1.0s : 0.4s,-13.677437513734304,0.025201753007728003,0.1355592562135442,0.03330272753897126,0.20866861939430237,-0.029992077499628067,0.0037504169158637524,-0.005645334720611572,0.008287787437438965,0.03175711631774902,-0.2859051436006516,1.5445155879308616,2.7809959673023217,0.9590755701065063,0.2820259630680084,-0.025211019441485405
1729110021174,7i,4.16846165626421,1.0s : 0.4s,-13.677437513734304,0.025203180837919212,0.13609210581834313,0.03233104989238228,0.21017277240753174,-0.02326386794447899,-0.0033037643879652023,-0.0050907135009765625,0.01202303171157837,0.02957749366760254,-0.2860197407033197,1.5437803317830046,2.7788542432616814,0.9590244889259338,0.28213590383529663,-0.02591530606150627
1729110021184,7i,4.16846165626421,1.0s : 0.4s,-13.677437513734304,0.02521570934833243,0.13550271810443262,0.03610388763930333,0.19573178887367249,-0.013692289590835571,-0.009269044734537601,-0.012984514236450195,0.009535491466522217,0.03231048583984375,-0.2861632344884269,1.5431886684926985,2.7767964625390573,0.9589684009552002,0.2822735607624054,-0.02648160047829151
1729110021194,7i,4.16846165626421,1.0s : 0.4s,-13.677437513734304,0.025240280286713414,0.13352429968333587,0.035194247417640115,0.1790657341480255,-0.012293333187699318,-0.006181642413139343,-0.012152791023254395,0.0012362003326416016,0.03300631046295166,-0.28641621745037027,1.5427156057890072,2.774896449607105,0.9588844180107117,0.2825162708759308,-0.026933245360851288
1729110021204,7i,4.16846165626421,1.0s : 0.4s,-13.677437513734304,0.025273966585212457,0.12582421835879623,0.02950390750928802,0.15924009680747986,-0.01494690589606762,-0.0034175480250269175,-0.007686614990234375,-0.00757250189781189,0.027460038661956787,-0.2866275623218931,1.5422759098268815,2.773195514420722,0.9588127732276917,0.2827189862728119,-0.027353158220648766
1729110021214,7i,4.16846165626421,1.0s : 0.4s,-13.677437513734304,0.025318664893819388,0.11626508820591838,0.030285313574939726,0.1402304470539093,-0.009384095668792725,-0.010131110437214375,-0.010565459728240967,-0.00543251633644104,0.027857836335897446,-0.2867191367360364,1.541923891742241,2.771701934225006,0.9587773084640503,0.2828068137168884,-0.02768993005156517
1729110021224,7i,4.16846165626421,1.0s : 0.4s,-13.677437513734304,0.02537646363524367,0.10805938444293117,0.03595024884092447,0.13312140107154846,0.0037407614290714264,-0.010631252080202103,-0.016303718090057373,0.006854891777038574,0.03129887580871582,-0.28685803181255176,1.5417235589528535,2.770337547423995,0.9587323665618896,0.2829400599002838,-0.02788085862994194
1729110021234,7i,4.16846165626421,1.0s : 0.4s,-13.677437513734304,0.02544489531488658,0.09799750778447822,0.040365239293424116,0.11155272275209427,0.013981681317090988,-0.019238589331507683,-0.013517439365386963,0.002439439296722412,0.037956297397613525,-0.28705483608106663,1.5417488903254515,2.7691250585984486,0.9586774110794067,0.2831287980079651,-0.027854954823851585
1729110021244,7i,4.16846165626421,1.0s : 0.4s,-13.677437513734304,0.025517318365499676,0.09325846354781407,0.0500783748461783,0.10979916900396347,0.020726002752780914,-0.030243003740906715,-0.009436190128326416,0.012291252613067627,0.047620657831430435,-0.28736272035579513,1.5418837552213596,2.768069965359147,0.9585938453674316,0.2834240794181824,-0.02772313728928566
1729110021254,7i,4.16846165626421,1.0s : 0.4s,-13.677437513734304,0.025582041079074302,0.0923544203962771,0.050779323527574714,0.12219831347465515,0.0252832043915987,-0.038243673741817474,-0.003906667232513428,0.026941239833831787,0.04286545515060425,-0.2877748569159179,1.5420336654125297,2.7669357872275855,0.9584813117980957,0.2838192880153656,-0.027576077729463577
1729110021264,7i,4.16846165626421,1.0s : 0.4s,-13.677437513734304,0.02564679909761576,0.093145237313103,0.049973462120765956,0.14434382319450378,0.03288102522492409,-0.04453745484352112,-0.00641399621963501,0.025165855884552002,0.04269528388977051,-0.28825783254027126,1.5422071154862946,2.7656187688947806,0.95834881067276,0.2842823565006256,-0.02740590274333954
1729110021274,7i,4.16846165626421,1.0s : 0.4s,-13.677437513734304,0.025711957475060443,0.09912204625881099,0.0492193879975935,0.16356705129146576,0.04232992231845856,-0.048615820705890656,-0.007158935070037842,0.03067779541015625,0.03781759738922119,-0.2887157758743615,1.5424048437721156,2.7640703270330627,0.9582240581512451,0.28472140431404114,-0.02721271477639675
1729110021284,7i,4.16846165626421,1.0s : 0.4s,-13.677437513734304,0.0257823348720747,0.10464895194451969,0.04067774481977186,0.16890177130699158,0.04414704069495201,-0.054367948323488235,-0.007720768451690674,0.017446964979171753,0.03592592477798462,-0.28911524464339067,1.5425603373993981,2.7623703623287104,0.9581144452095032,0.28510430455207825,-0.027060501277446747
1729110021294,7i,4.16846165626421,1.0s : 0.4s,-13.677437513734304,0.025864323849247705,0.10512932893606308,0.03978750778980066,0.14990811049938202,0.047173190861940384,-0.05230453237891197,-0.0104827880859375,0.005269855260848999,0.038018226623535156,-0.289561626056757,1.5427616746236,2.7607282381489147,0.9579925537109375,0.2855321168899536,-0.026864025741815567
1729110021304,7i,4.16846165626421,1.0s : 0.4s,-13.677437513734304,0.025965567422472368,0.10349598348601428,0.040576924200114856,0.11688317358493805,0.050880178809165955,-0.050735894590616226,-0.014605104923248291,-0.01158970594406128,0.036039650440216064,-0.290117488204505,1.5430863282648397,2.759391313885058,0.9578424096107483,0.2860648036003113,-0.026548607274889946
1729110021314,7i,4.16846165626421,1.0s : 0.4s,-13.677437513734304,0.026083009721724486,0.09252899511655174,0.036827648431377105,0.08163437247276306,0.053644806146621704,-0.04300553724169731,-0.013064920902252197,-0.015871763229370117,0.030556024983525276,-0.2905893407995815,1.5436141253123163,2.7584131952648536,0.9577212929725647,0.2865169048309326,-0.02603938803076744
1729110021324,7i,4.16846165626421,1.0s : 0.4s,-13.677437513734304,0.02621047838986137,0.07901738480572565,0.035216714901380584,0.04444825276732445,0.054298125207424164,-0.04526539891958237,-0.008077263832092285,-0.022673100233078003,0.02570807933807373,-0.29112665095919116,1.5443382291963734,2.7578554513678823,0.9575859904289246,0.2870316505432129,-0.025341816246509552
1729110021334,7i,4.16846165626421,1.0s : 0.4s,-13.677437513734304,0.0263417750758932,0.06542598672079261,0.036518024450652185,0.012841593474149704,0.051593150943517685,-0.04755837470293045,-0.0026412606239318848,-0.03092360496520996,0.019243713468313217,-0.2917910533846426,1.545108322090472,2.757635743650257,0.9574143886566162,0.28766801953315735,-0.024599475786089897
1729110021344,7i,4.16846165626421,1.0s : 0.4s,-13.677437513734304,0.026474125323768787,0.05990068500052242,0.032803550266532616,-0.007469669915735722,0.05054044723510742,-0.051386307924985886,-0.00204622745513916,-0.03121677041053772,0.009869098663330078,-0.2924955097293221,1.5459217894198414,2.7577021626383558,0.9572312235832214,0.2883426249027252,-0.023815596476197243
1729110021354,7i,4.16846165626421,1.0s : 0.4s,-13.677437513734304,0.02660182017946992,0.05780004855911348,0.0171161408469798,0.001019422197714448,0.05525903403759003,-0.05585882067680359,-0.001578688621520996,-0.017000675201416016,0.0012029390782117844,-0.29328180947811133,1.5467282094169161,2.7578208041965713,0.9570232033729553,0.2890954613685608,-0.023038195446133614
1729110021364,7i,4.16846165626421,1.0s : 0.4s,-13.677437513734304,0.026712018517348283,0.05747444194180889,0.009961316919876912,0.02777194045484066,0.06026346981525421,-0.05705491080880165,0.0074231624603271484,-0.006234556436538696,-0.002292335033416748,-0.2939741303391881,1.5475215826043554,2.7577279033306534,0.9568408131599426,0.2897581458091736,-0.02227424643933773
1729110021374,7i,4.16846165626421,1.0s : 0.4s,-13.677437513734304,0.0267978067711799,0.058321219002488656,0.019059973904581303,0.04845058545470238,0.05953536182641983,-0.06359750032424927,0.016147136688232422,-0.010109275579452515,-0.0005959272384643555,-0.294594876614373,1.5482640554445095,2.7573912327455186,0.9566770195960999,0.2903521955013275,-0.021559754386544228
1729110021384,7i,4.16846165626421,1.0s : 0.4s,-13.677437513734304,0.026865601072396866,0.05954215011485266,0.01735861569607649,0.0573912188410759,0.06095282733440399,-0.06418295949697495,0.01143348217010498,-0.011513888835906982,-0.0061666350811719894,-0.2951219312525587,1.5489476527091022,2.7568849917728704,0.9565383195877075,0.2908565104007721,-0.020902419462800026
1729110021394,7i,4.16846165626421,1.0s : 0.4s,-13.677437513734304,0.026924304138955826,0.06056686251209977,0.01701422386934774,0.05974065884947777,0.06434410065412521,-0.056119706481695175,0.003431558609008789,-0.011694252490997314,-0.011872349306941032,-0.29556568267168853,1.549597742790176,2.7563213960119652,0.9564225673675537,0.2912810444831848,-0.0202778410166502
1729110021404,7i,4.16846165626421,1.0s : 0.4s,-13.677437513734304,0.02697171079674644,0.06171725720747758,0.027143050687524106,0.07580484449863434,0.05683442950248718,-0.05226864293217659,0.0027512311935424805,-0.009300559759140015,-0.02535104565322399,-0.2958867293817278,1.5501435506235886,2.7556433347751823,0.956339955329895,0.29158815741539,-0.01975388452410698
1729110021414,7i,4.16846165626421,1.0s : 0.4s,-13.677437513734304,0.02701058517179677,0.06318157013063178,0.03412844770079221,0.09282777458429337,0.04988491162657738,-0.0436629056930542,-0.0029309988021850586,-0.005199402570724487,-0.03360247611999512,-0.29604984883265234,1.5505376909929967,2.754784919952027,0.9563001394271851,0.2917441725730896,-0.019375987350940704
1729110021424,7i,4.16846165626421,1.0s : 0.4s,-13.677437513734304,0.027049015442052664,0.06535817950947582,0.04192284108436729,0.10202699899673462,0.05292424187064171,-0.03446837514638901,-0.011301755905151367,-0.001566767692565918,-0.040340304374694824,-0.29619239429743893,1.5507852900197645,2.7537583298460655,0.9562633633613586,0.2918805181980133,-0.019138377159833908
1729110021434,7i,4.16846165626421,1.0s : 0.4s,-13.677437513734304,0.027087728978449202,0.06543965441195157,0.04076154339844357,0.08883849531412125,0.04397442191839218,-0.027044279500842094,-0.00892186164855957,-0.010515213012695312,-0.03835797309875488,-0.2963590022059502,1.5509611352332293,2.752736356499735,0.9562180042266846,0.2920398712158203,-0.018969254568219185
1729110021444,7i,4.16846165626421,1.0s : 0.4s,-13.677437513734304,0.027114719440762568,0.06399258453696033,0.039071374972017445,0.07243381440639496,0.027415022253990173,-0.020452124997973442,0.002319931983947754,-0.018637120723724365,-0.034261465072631836,-0.2965070209181482,1.5510325412145913,2.7518743679032824,0.956176221370697,0.29218143224716187,-0.018900122493505478
1729110021454,7i,4.16846165626421,1.0s : 0.4s,-13.677437513734304,0.027129444689757334,0.05642024525213903,0.040005928409561915,0.05350380390882492,0.01036679558455944,-0.019691525027155876,0.004632890224456787,-0.014624804258346558,-0.03694760799407959,-0.2965876167392827,1.5510007972886841,2.751205334787013,0.956152081489563,0.29225853085517883,-0.018930010497570038
1729110021464,7i,4.16846165626421,1.0s : 0.4s,-13.677437513734304,0.027137039057373802,0.04710715633121003,0.03726153398366034,0.03692668676376343,0.0019269712502136827,-0.017501408234238625,0.0018112659454345703,-0.005973368883132935,-0.03673499822616577,-0.29663578791043355,1.5508738979669614,2.75072271741299,0.9561355710029602,0.2923045754432678,-0.019051063805818558
1729110021474,7i,4.16846165626421,1.0s : 0.4s,-13.677437513734304,0.027132253938139516,0.04341522065747052,0.03968554342220802,0.03741750866174698,-0.01000452321022749,-0.020750198513269424,0.005693674087524414,0.001890629529953003,-0.03922945261001587,-0.29669361040079467,1.5506098057768587,2.750311103727332,0.9561136364936829,0.2923598885536194,-0.019303230568766594
1729110021484,7i,4.16846165626421,1.0s : 0.4s,-13.677437513734304,0.027119921354061,0.04039732768838013,0.04110436626831882,0.03325219452381134,-0.017631860449910164,-0.017487525939941406,0.0027982592582702637,0.0014563202857971191,-0.04098314046859741,-0.29678078224599513,1.5501613089544013,2.7498653209863293,0.956079363822937,0.29244324564933777,-0.019731516018509865
1729110021494,7i,4.16846165626421,1.0s : 0.4s,-13.677437513734304,0.027108114952015386,0.03662086751019023,0.04585247004440197,0.02368798293173313,-0.022046849131584167,-0.01455751620233059,0.0003241896629333496,-0.015588194131851196,-0.04312020540237427,-0.2968929384869049,1.54961878053277,2.7494959899510913,0.9560357332229614,0.2925505042076111,-0.020249517634510994
1729110021504,7i,4.16846165626421,1.0s : 0.4s,-13.677437513734304,0.02709443554017574,0.03441311666496463,0.05187399708883214,0.023737119510769844,-0.029639123007655144,-0.012325421907007694,0.0024358630180358887,-0.019390851259231567,-0.04805177450180054,-0.29702395928549974,1.5489666606212935,2.7491675475976898,0.9559839963912964,0.29267579317092896,-0.020872127264738083
1729110021514,7i,4.16846165626421,1.0s : 0.4s,-13.677437513734304,0.02707675247165405,0.03271747665744822,0.05288703593339664,0.02943122386932373,-0.04017911106348038,-0.0072920480743050575,0.0059046149253845215,-0.01838451623916626,-0.049235999584198,-0.2970406925800702,1.5482420633003602,2.7487880917753578,0.9559637308120728,0.29269179701805115,-0.02156471461057663
1729110021524,7i,4.16846165626421,1.0s : 0.4s,-13.677437513734304,0.0270575005261413,0.03155245971139903,0.047545124464496845,0.033216509968042374,-0.04676195979118347,-0.0024279505014419556,0.008696198463439941,-0.02248859405517578,-0.04097777605056763,-0.29692843619623116,1.5474732975480974,2.7483961678659385,0.9559797644615173,0.29258444905281067,-0.022300386801362038
1729110021534,7i,4.16846165626421,1.0s : 0.4s,-13.677437513734304,0.02703785551326725,0.03144782283038922,0.03670155569198287,0.04553389549255371,-0.047149185091257095,0.0023596142418682575,0.0068433284759521484,-0.012619316577911377,-0.033777594566345215,-0.29678816106987643,1.5466304182912256,2.7479108016637324,0.9560016989707947,0.29245030879974365,-0.023107148706912994
1729110021544,7i,4.16846165626421,1.0s : 0.4s,-13.677437513734304,0.027017505648233065,0.03310582391864557,0.031876601054964336,0.05259992554783821,-0.054100167006254196,0.003340756054967642,0.00835871696472168,-0.013218045234680176,-0.027776479721069336,-0.29668024280766425,1.5457328381341437,2.747310925650219,0.9560120701789856,0.29234710335731506,-0.023966016247868538
1729110021554,7i,4.16846165626421,1.0s : 0.4s,-13.677437513734304,0.026993187283259945,0.03702788615594822,0.030746279309825774,0.053165581077337265,-0.06372004002332687,-0.0028718661051243544,0.011750876903533936,-0.012485980987548828,-0.025521576404571533,-0.29666465307089346,1.5447309504369997,2.7466924839685976,0.9559921026229858,0.2923322021961212,-0.024923939257860184
1729110021564,7i,4.16846165626421,1.0s : 0.4s,-13.677437513734304,0.026966183162561445,0.043491041374142295,0.025599898712663546,0.062246162444353104,-0.06913131475448608,-0.003441183129325509,0.00821465253829956,-0.0014432668685913086,-0.02420312538743019,-0.29668551443621793,1.5436229950847538,2.7460131258495397,0.9559579491615295,0.2923521399497986,-0.02598295733332634
1729110021574,7i,4.16846165626421,1.0s : 0.4s,-13.677437513734304,0.02694076385604096,0.04834210687304121,0.024161295172942687,0.0662345141172409,-0.07217664271593094,0.003329104743897915,0.005993008613586426,-0.0062697529792785645,-0.022550880908966064,-0.2965467847412806,1.5424384848540824,2.7452585829774807,0.9559668898582458,0.29221946001052856,-0.027116427198052406
1729110021584,7i,4.16846165626421,1.0s : 0.4s,-13.677437513734304,0.026918127786392895,0.05788673209043946,0.0241386689308999,0.09056568145751953,-0.07854097336530685,0.0034589339047670364,0.004717528820037842,-0.0058746337890625,-0.02293270453810692,-0.2963410343525863,1.541147811071651,2.744377356103929,0.9559910297393799,0.292022705078125,-0.028352024033665657
1729110021594,7i,4.16846165626421,1.0s : 0.4s,-13.677437513734304,0.026894645080510773,0.0712256772577218,0.027994716344405535,0.13344895839691162,-0.0772448182106018,0.009680611081421375,0.004943192005157471,0.004399478435516357,-0.027201352640986443,-0.2960806144666706,1.5396937976715248,2.743093820050955,0.9560248255729675,0.29177361726760864,-0.029744381085038185
1729110021604,7i,4.16846165626421,1.0s : 0.4s,-13.677437513734304,0.02687703518475263,0.08510016356628627,0.016574688866429405,0.1584884077310562,-0.07742825895547867,0.013637435622513294,-0.0005946159362792969,0.0027437806129455566,-0.01633518934249878,-0.29572184382952627,1.5382269680926919,2.7414968895985474,0.9560847878456116,0.29143044352531433,-0.031150083988904953
1729110021614,7i,4.16846165626421,1.0s : 0.4s,-13.677437513734304,0.026863726802797243,0.09874434655711588,0.016261582143022427,0.17927518486976624,-0.07766102254390717,0.015593793243169785,-0.0015742778778076172,0.008459776639938354,-0.013798292726278305,-0.2953931815091584,1.5367579204445458,2.7396750782378665,0.9561336040496826,0.29111602902412415,-0.032557837665081024
1729110021624,7i,4.16846165626421,1.0s : 0.4s,-13.677437513734304,0.0268590784139985,0.11286043274054205,0.014442831769801533,0.20351141691207886,-0.07841962575912476,0.011308667249977589,-0.007059991359710693,0.010488957166671753,-0.006980951875448227,-0.29509039253391095,1.5352644974557268,2.737654054433255,0.9561719298362732,0.29082635045051575,-0.033988840878009796
1729110021634,7i,4.16846165626421,1.0s : 0.4s,-13.677437513734304,0.0268661640169523,0.12580407629572726,0.017867532071971053,0.22575414180755615,-0.0633823499083519,0.009856179356575012,-0.012130677700042725,0.013094455003738403,-0.0007941089570522308,-0.2947913348755559,1.533776329121826,2.7353432214943387,0.9562072157859802,0.2905401885509491,-0.03541496768593788
1729110021644,7i,4.16846165626421,1.0s : 0.4s,-13.677437513734304,0.02688643887019764,0.1374110080832172,0.022059326140013345,0.23982320725917816,-0.057618603110313416,0.009275111369788647,-0.014671266078948975,0.00980985164642334,0.013233844190835953,-0.29458817784306734,1.5323531094346612,2.7328716513090696,0.9562148451805115,0.29034578800201416,-0.03677809610962868
1729110021654,7i,4.16846165626421,1.0s : 0.4s,-13.677437513734304,0.026905731124223148,0.14926420297748086,0.030099176669040238,0.2569044530391693,-0.062361959367990494,0.004791945684701204,-0.007220566272735596,0.021803945302963257,0.019452810287475586,-0.2943642665869421,1.530910587506226,2.7302617689821926,0.9562257528305054,0.29013150930404663,-0.03816001117229462
1729110021664,7i,4.16846165626421,1.0s : 0.4s,-13.677437513734304,0.026916291709582346,0.16187965323149817,0.036943830203767625,0.2802642285823822,-0.05692373961210251,0.003013786394149065,-0.004561960697174072,0.030283808708190918,0.02066218852996826,-0.2941771119934174,1.529424705275346,2.7274242123027705,0.9562221765518188,0.2899523973464966,-0.03958304598927498
1729110021674,7i,4.16846165626421,1.0s : 0.4s,-13.677437513734304,0.026914583752666504,0.17434777264929657,0.037602914571922726,0.3008693754673004,-0.04583992809057236,0.005287593230605125,-0.0032843947410583496,0.028277277946472168,0.024568017572164536,-0.29405757350484685,1.5279107133397651,2.7243697726829446,0.9561959505081177,0.2898380160331726,-0.041032206267118454
1729110021684,7i,4.16846165626421,1.0s : 0.4s,-13.677437513734304,0.02690502389657765,0.18638145578225332,0.03814727556690002,0.31929993629455566,-0.032614804804325104,0.010653829202055931,-0.005003154277801514,0.027153223752975464,0.02632271870970726,-0.29387690491673035,1.5265248137259873,2.7211165363199545,0.9561904668807983,0.2896650731563568,-0.04235967621207237
1729110021694,7i,4.16846165626421,1.0s : 0.4s,-13.677437513734304,0.026896236827419026,0.19325287740457767,0.039090881792903674,0.31550467014312744,-0.013766014948487282,0.011526281014084816,-0.007310032844543457,0.02255752682685852,0.031077619642019272,-0.29368848842857126,1.5253207307078085,2.7177644100503984,0.9561932682991028,0.28948473930358887,-0.0435134582221508
1729110021704,7i,4.16846165626421,1.0s : 0.4s,-13.677437513734304,0.02695258488696686,0.19428007728053323,0.0586616698672911,0.3054012954235077,-0.0011813815217465162,0.016233252361416817,-0.023719608783721924,0.00745999813079834,0.05313115939497948,-0.29364755499813594,1.5245026198624412,2.7149498785445223,0.9561691284179688,0.28944554924964905,-0.0442962609231472
1729110021714,7i,4.16846165626421,1.0s : 0.4s,-13.677437513734304,0.027003131872939387,0.1838856352671895,0.031135973862574596,0.23642301559448242,-0.025443578138947487,0.007270117290318012,0.0005792975425720215,0.002658247947692871,0.03101688250899315,-0.293403465477144,1.5237924603412658,2.7122507391222515,0.9562079906463623,0.2892118990421295,-0.04497860372066498
1729110021724,7i,4.16846165626421,1.0s : 0.4s,-13.677437513734304,0.027049929310051457,0.17416776917619284,0.040255788825720215,0.22631245851516724,-0.006917253136634827,0.003155499929562211,-0.005686819553375244,0.02228662371635437,0.033037781715393066,-0.29341356419774284,1.5230671599923815,2.709826381394421,0.9561721086502075,0.2892215847969055,-0.0456719845533371
1729110021734,7i,4.16846165626421,1.0s : 0.4s,-13.677437513734304,0.02711916140684191,0.1596398489415517,0.04004555636078272,0.1882883757352829,0.0017521347617730498,-0.0035937491338700056,-0.024370312690734863,0.005335628986358643,0.03132515773177147,-0.2934757400164525,1.522607254226508,2.7077180102261575,0.9561331868171692,0.28928110003471375,-0.04611087217926979
1729110021744,7i,4.16846165626421,1.0s : 0.4s,-13.677437513734304,0.027202157495545918,0.1416030236478662,0.046387664218400904,0.1480512171983719,-0.009368160739541054,-0.003264915430918336,-0.014101743698120117,-0.010026305913925171,0.04303985834121704,-0.29367911779377864,1.5222414323462323,2.7060207216277594,0.9560573697090149,0.28947576880455017,-0.04645777866244316
1729110021754,7i,4.16846165626421,1.0s : 0.4s,-13.677437513734304,0.027282942612894375,0.12143261011597306,0.03799686979392285,0.11025004088878632,-0.011986847035586834,-0.0023256184067577124,-0.0026370882987976074,0.0002650320529937744,0.037904322147369385,-0.2938632083220675,1.5219604312530637,2.7047339321670565,0.9559910297393799,0.2896519899368286,-0.046723827719688416
1729110021764,7i,4.16846165626421,1.0s : 0.4s,-13.677437513734304,0.02737321271699419,0.09974647868068937,0.04578245505608827,0.07218601554632187,-0.0151181910187006,-0.0042651984840631485,-0.009997546672821045,-0.01003950834274292,0.043534934520721436,-0.29407554673198105,1.5217656137631044,2.7038487465257814,0.9559204578399658,0.2898552119731903,-0.046907056123018265
1729110021774,7i,4.16846165626421,1.0s : 0.4s,-13.677437513734304,0.027463440496016855,0.08193344251296501,0.044993008193110716,0.05832185968756676,-0.018877509981393814,-0.0061552440747618675,-0.004209697246551514,0.0017122626304626465,0.044762901961803436,-0.2942802371911627,1.521627262266532,2.70324327455419,0.9558547735214233,0.29005110263824463,-0.047036394476890564
1729110021784,7i,4.16846165626421,1.0s : 0.4s,-13.677437513734304,0.027558930557722322,0.068622819712901,0.041095928076475156,0.053604867309331894,-0.018387489020824432,-0.009099502116441727,-0.009555578231811523,0.006319284439086914,0.03946685791015625,-0.2944248532308239,1.5216583046002345,2.7027581105753264,0.9558141827583313,0.2901895046234131,-0.04700465500354767
1729110021794,7i,4.16846165626421,1.0s : 0.4s,-13.677437513734304,0.027660684313524937,0.0593157869876356,0.036145217624693665,0.0535297654569149,-0.016101963818073273,-0.010448658838868141,-0.01015007495880127,0.0046460628509521484,0.0343782901763916,-0.29451507214806394,1.5215529236183392,2.7022634699988393,0.9557830691337585,0.29027584195137024,-0.04710409417748451
1729110021804,7i,4.16846165626421,1.0s : 0.4s,-13.677437513734304,0.027762467630239457,0.050522645926295705,0.028127099085137802,0.04019332304596901,-0.021223710849881172,-0.012200786732137203,-0.002650320529937744,-0.005428582429885864,0.02747071161866188,-0.29479011873541944,1.5214641285067103,2.7018422561274047,0.9556990265846252,0.290539026260376,-0.047185018658638
1729110021814,7i,4.16846165626421,1.0s : 0.4s,-13.677437513734304,0.02787334735967212,0.0417423519773756,0.03046246680692587,0.02720215730369091,-0.015342384576797485,-0.012896670959889889,-0.007775783538818359,-0.021340906620025635,0.020299378782510757,-0.2949947490813759,1.5213969057666228,2.7015413272191076,0.9556365013122559,0.29073482751846313,-0.04724632576107979
1729110021824,7i,4.16846165626421,1.0s : 0.4s,-13.677437513734304,0.027994708055878847,0.03345149959842395,0.025939090896616307,0.018236225470900536,-0.005114382598549128,-0.011921321041882038,-0.011363446712493896,-0.017637968063354492,0.015251576900482178,-0.2950637443001165,1.5215365890614467,2.701420402715506,0.9556231498718262,0.2908008396625519,-0.04711185768246651
1729110021834,7i,4.16846165626421,1.0s : 0.4s,-13.677437513734304,0.028113581765226797,0.030844903614053787,0.016077111292711478,0.020649049431085587,-0.004987349268049002,-0.013260092586278915,-0.002259969711303711,-0.013545960187911987,0.00835900753736496,-0.2951726416523595,1.5216900087599425,2.7012827813487674,0.955598771572113,0.29090502858161926,-0.04696369543671608
1729110021844,7i,4.16846165626421,1.0s : 0.4s,-13.677437513734304,0.02823049193127271,0.02807994262839587,0.024605635529124946,0.018082162365317345,-0.0008652640972286463,-0.009481964632868767,-0.0006539821624755859,-0.02328181266784668,0.007935162633657455,-0.2952212654990638,1.52190925337348,2.7011683246583083,0.9555949568748474,0.29095155000686646,-0.04675349220633507
1729110021854,7i,4.16846165626421,1.0s : 0.4s,-13.677437513734304,0.028354430682850228,0.026932035799355096,0.027145331431547393,0.025256717577576637,0.0009209178388118744,-0.0051061250269412994,-0.008909821510314941,-0.02507251501083374,0.005371507257223129,-0.2953066639166361,1.5221317420762492,2.7010312245862353,0.9555805325508118,0.2910332679748535,-0.04653967544436455
1729110021864,7i,4.16846165626421,1.0s : 0.4s,-13.677437513734304,0.02848444022151485,0.02669037819931105,0.01988315871477218,0.03948265686631203,0.005438304506242275,-0.0012630170676857233,-0.011643171310424805,-0.016115039587020874,0.0002864636480808258,-0.29538577920354436,1.5223421803893489,2.7007882941618884,0.9555671811103821,0.2911089360713959,-0.04633745923638344
1729110021874,7i,4.16846165626421,1.0s : 0.4s,-13.677437513734304,0.028612874159928737,0.028233658676368366,0.009889763436682396,0.06146811693906784,0.007733683101832867,-0.003145072842016816,-0.008093833923339844,-0.005572587251663208,-0.0011151432991027832,-0.29543507649912737,1.5224509690543886,2.70031378928568,0.9555578827857971,0.2911561131477356,-0.046232812106609344
1729110021884,7i,4.16846165626421,1.0s : 0.4s,-13.677437513734304,0.028734698456619443,0.03793613425077665,0.009698811494339214,0.09208542108535767,0.006520258262753487,0.00014040223322808743,-0.004797577857971191,-0.004147469997406006,-0.007338166236877441,-0.2953808958194058,1.522433106609706,2.6995717990303616,0.955572783946991,0.291104257106781,-0.04625064134597778
1729110021894,7i,4.16846165626421,1.0s : 0.4s,-13.677437513734304,0.028849841574072943,0.05184859328723962,0.016936007610513365,0.12624125182628632,0.011025261133909225,0.005528775975108147,-0.006323039531707764,-0.0013850927352905273,-0.015650209039449692,-0.2951570272459198,1.5223364300142206,2.698458557824158,0.9556333422660828,0.290890097618103,-0.04634617641568184
1729110021904,7i,4.16846165626421,1.0s : 0.4s,-13.677437513734304,0.028961314603294083,0.06738873526518534,0.02377168736177247,0.1540471762418747,0.01457858458161354,0.008842181414365768,-0.008445143699645996,-0.006552606821060181,-0.02123289927840233,-0.2949123680687215,1.5221462838244026,2.697027838491994,0.9556955099105835,0.2906560003757477,-0.04653134196996689
1729110021914,7i,4.16846165626421,1.0s : 0.4s,-13.677437513734304,0.029064803311917586,0.09308618664534266,0.028159748578630513,0.22731074690818787,0.01746838167309761,0.008047759532928467,-0.005404353141784668,-0.005836009979248047,-0.027013059705495834,-0.29465779636785544,1.5217798145464034,2.695099764653025,0.9557522535324097,0.29041242599487305,-0.04688519611954689
1729110021924,7i,4.16846165626421,1.0s : 0.4s,-13.677437513734304,0.02913561556460089,0.1414788170735762,0.04502569561373445,0.3780415654182434,0.025416893884539604,0.012163975276052952,-0.006871998310089111,0.014422357082366943,-0.04209613427519798,-0.2942806890645428,1.521138631881455,2.6919957993843804,0.9558313488960266,0.29005154967308044,-0.047503434121608734
1729110021934,7i,4.16846165626421,1.0s : 0.4s,-13.677437513734304,0.029174569564955205,0.22617783728513471,0.077531132871911,0.6309134364128113,0.02851175330579281,0.008888819254934788,-0.014955103397369385,0.03623002767562866,-0.06689399480819702,-0.2938312508468058,1.519934699749234,2.6868602872578595,0.9559035897254944,0.28962138295173645,-0.048660777509212494
1729110021944,7i,4.16846165626421,1.0s : 0.4s,-13.677437513734304,0.029152913818526055,0.34522849462959077,0.12927021776785336,0.9273764491081238,0.041566260159015656,0.013054902665317059,-0.015524208545684814,0.08192887902259827,-0.09877979010343552,-0.2933064958718031,1.5178944917607848,2.6787039091230835,0.95595383644104,0.28911909461021423,-0.05061894282698631
1729110021954,7i,4.16846165626421,1.0s : 0.4s,-13.677437513734304,0.02906975226933358,0.47937600378563605,0.14416392366331202,1.1798508167266846,0.04722600802779198,0.0073842331767082214,-0.008350908756256104,0.10469016432762146,-0.09875965118408203,-0.2926102561303663,1.5151713902602197,2.6676979082931087,0.9560132622718811,0.28845250606536865,-0.05323309451341629
1729110021964,7i,4.16846165626421,1.0s : 0.4s,-13.677437513734304,0.028950970747962344,0.6393183691660035,0.1357187617140448,1.508792757987976,0.030317556113004684,-0.004014927893877029,0.0005348324775695801,0.0864751935005188,-0.10460084676742554,-0.2918253282110331,1.5115269324505811,2.653737818844132,0.9560387134552002,0.2877008616924286,-0.05673028156161308
1729110021974,7i,4.16846165626421,1.0s : 0.4s,-13.677437513734304,0.028733063088880812,0.8199870633491051,0.18993490418726686,1.849715232849121,0.04039735347032547,-0.012031309306621552,0.021956264972686768,0.1436884105205536,-0.12225723266601562,-0.2908611599907737,1.5068704492128409,2.6362273894098087,0.956040620803833,0.2867773175239563,-0.0611991249024868
1729110021984,7i,4.16846165626421,1.0s : 0.4s,-13.677437513734304,0.02849721037914543,0.9979762285077738,0.1735957171627433,2.105759620666504,0.0321316123008728,-0.025608235970139503,0.023677289485931396,0.12073060870170593,-0.12247031927108765,-0.2897234889710637,1.5013542463743614,2.615609149962146,0.9560133218765259,0.28568723797798157,-0.06649447232484818
1729110021994,7i,4.16846165626421,1.0s : 0.4s,-13.677437513734304,0.028316898927076166,1.15004547230957,0.1260684031552117,2.241978168487549,0.04156959056854248,-0.023621784523129463,0.03574091196060181,0.06577286124229431,-0.10143845528364182,-0.28841348721080706,1.4952000397827243,2.5928206260097055,0.9559583067893982,0.2844316065311432,-0.0724048763513565
1729110022004,7i,4.16846165626421,1.0s : 0.4s,-13.677437513734304,0.028109031488021904,1.226694979004771,0.05794360331601795,2.0930335521698,0.08176672458648682,-0.012895571999251842,0.042276203632354736,-0.0012241601943969727,-0.03960663080215454,-0.286849597689118,1.489263413090475,2.5699323710745996,0.95595383644104,0.28293195366859436,-0.07811486721038818
1729110022014,7i,4.16846165626421,1.0s : 0.4s,-13.677437513734304,0.027939709753947217,1.2009528660187412,0.10929665776768731,1.6983741521835327,0.053705260157585144,-0.07756377756595612,0.01588153839111328,-0.08265277743339539,0.06972843408584595,-0.28569648586824814,1.484433268743404,2.550301829212824,0.9558897614479065,0.2818257808685303,-0.08275942504405975
1729110022024,7i,4.16846165626421,1.0s : 0.4s,-13.677437513734304,0.027759899950556645,1.1584669333209303,0.08657862508506664,1.5760743618011475,0.02250787988305092,-0.113761767745018,0.039991140365600586,0.02637958526611328,0.07211577147245407,-0.2852425852927208,1.4800474557362258,2.5334346141820516,0.9556450247764587,0.2813902497291565,-0.08696256577968597
1729110022034,7i,4.16846165626421,1.0s : 0.4s,-13.677437513734304,0.027390085199423552,1.1333212241622175,0.1988465254719564,1.5966578722000122,0.018870003521442413,-0.14561717212200165,0.07509464025497437,0.17775294184684753,0.048006534576416016,-0.2850294154429238,1.4755182410490186,2.5167974406702105,0.9553009271621704,0.28118568658828735,-0.09129566699266434
1729110022044,7i,4.16846165626421,1.0s : 0.4s,-13.677437513734304,0.027115319825011572,1.111041907024823,0.19392548817331842,1.5690642595291138,0.02132463827729225,-0.19494056701660156,0.01959604024887085,0.18874067068099976,0.04000061750411987,-0.2851710475681223,1.4710675205526262,2.500276702084957,0.9548455476760864,0.28132158517837524,-0.09554257243871689
1729110022054,7i,4.16846165626421,1.0s : 0.4s,-13.677437513734304,0.02717583959747463,1.111042795414551,0.1854187299057988,1.6421583890914917,0.04724385216832161,-0.23415668308734894,-0.04458057880401611,0.1786404252052307,0.021915197372436523,-0.28566289529299904,1.4666767728499048,2.4834880547934945,0.9542791247367859,0.2817935347557068,-0.09971972554922104
1729110022064,7i,4.16846165626421,1.0s : 0.4s,-13.677437513734304,0.027756661508276007,1.140308700546304,0.2724129285429127,1.7837059497833252,0.10458139330148697,-0.25012630224227905,-0.0993989109992981,0.2536265254020691,-0.001498579978942871,-0.286278591983026,1.4623139485947374,2.4654409265118353,0.9536622762680054,0.2823842465877533,-0.10386330634355545
1729110022074,7i,4.16846165626421,1.0s : 0.4s,-13.677437513734304,0.028859403214089148,1.1710329352032776,0.2987194654764987,1.828281044960022,0.14108774065971375,-0.2796706259250641,-0.12111800909042358,0.27288582921028137,0.009852468967437744,-0.28688023756973635,1.4581984652500446,2.446356734079384,0.9530577659606934,0.28296133875846863,-0.10776808857917786
1729110022084,7i,4.16846165626421,1.0s : 0.4s,-13.677437513734304,0.03029218668619541,1.2016976965855926,0.2558110608944014,1.866812825202942,0.13819092512130737,-0.32496920228004456,-0.11206519603729248,0.22295182943344116,0.05633091926574707,-0.28777882357893503,1.454067536356421,2.4268739497585,0.9523515105247498,0.2838231027126312,-0.11167451739311218
1729110022094,7i,4.16846165626421,1.0s : 0.4s,-13.677437513734304,0.03202701258159922,1.220205976444344,0.2824726707587352,1.8430547714233398,0.15167450904846191,-0.36909911036491394,-0.11512339115142822,0.24897032976150513,0.0674625039100647,-0.2890019858567672,1.4499124825620455,2.407135844699621,0.9515339732170105,0.2849957346916199,-0.11558866500854492
1729110022104,7i,4.16846165626421,1.0s : 0.4s,-13.677437513734304,0.03420576376367579,1.2368014233033513,0.33382927463025663,1.8449360132217407,0.18383373320102692,-0.4410129189491272,-0.16727524995803833,0.27746090292930603,0.08047622442245483,-0.29076693286346583,1.4459669188447946,2.3875747713742195,0.9505699872970581,0.28668704628944397,-0.11927928775548935
1729110022114,7i,4.16846165626421,1.0s : 0.4s,-13.677437513734304,0.03684041690700964,1.2695233701780895,0.3878364956717077,1.9292666912078857,0.21460923552513123,-0.5278721451759338,-0.178336501121521,0.3286595046520233,0.10293769836425781,-0.2931672202743802,1.442164105171584,2.3674363391608124,0.9494242668151855,0.2889857590198517,-0.12280461937189102
1729110022124,7i,4.16846165626421,1.0s : 0.4s,-13.677437513734304,0.0399815387295062,1.320969114148393,0.45414797987202,2.0447890758514404,0.25692006945610046,-0.627001941204071,-0.18504703044891357,0.39818647503852844,0.11599791049957275,-0.2963323050319494,1.4383080157034032,2.3460810735359012,0.9480323195457458,0.29201433062553406,-0.12634330987930298
1729110022134,7i,4.16846165626421,1.0s : 0.4s,-13.677437513734304,0.043698790009528206,1.3867034592203207,0.5032520203223415,2.163397789001465,0.30051493644714355,-0.7259868383407593,-0.2108326554298401,0.4471966326236725,0.09395402669906616,-0.300212596708426,1.4343717335578579,2.3232784093664804,0.9463979005813599,0.2957232892513275,-0.12991894781589508
1729110022144,7i,4.16846165626421,1.0s : 0.4s,-13.677437513734304,0.047901049654716185,1.4569601015982883,0.5050576339047425,2.2577271461486816,0.34259313344955444,-0.8039498925209045,-0.2340201735496521,0.4368480145931244,0.09737342596054077,-0.3047235211632777,1.4304137950467073,2.2991630652582145,0.9445457458496094,0.300029456615448,-0.13347569108009338
1729110022154,7i,4.16846165626421,1.0s : 0.4s,-13.677437513734304,0.05241365926877907,1.5161594324927952,0.48374796171988016,2.27740478515625,0.3608991801738739,-0.8885124921798706,-0.24402785301208496,0.4021812379360199,0.1127508282661438,-0.3098770915380467,1.4264634380663017,2.2743576700393473,0.9424684643745422,0.3049415946006775,-0.13698171079158783
1729110022164,7i,4.16846165626421,1.0s : 0.4s,-13.677437513734304,0.05718818634645088,1.5664475217856713,0.49854157007071287,2.284090280532837,0.3854333162307739,-0.9826768636703491,-0.2422439455986023,0.4218752384185791,0.10900849103927612,-0.31580017190328236,1.42242437311243,2.2491487508988572,0.9401047229766846,0.3105771839618683,-0.14051781594753265
1729110022174,7i,4.16846165626421,1.0s : 0.4s,-13.677437513734304,0.06230237772486985,1.6274284569974913,0.552949236009859,2.3727035522460938,0.39202064275741577,-1.0986074209213257,-0.2485353946685791,0.4776756167411804,0.12573392689228058,-0.32259904847328125,1.418196933301341,2.2233209177321633,0.9373934268951416,0.3170326054096222,-0.14416645467281342
1729110022184,7i,4.16846165626421,1.0s : 0.4s,-13.677437513734304,0.06785447474474618,1.7068932424352952,0.6213187399550807,2.5263285636901855,0.4010993242263794,-1.1966228485107422,-0.24501442909240723,0.5606979131698608,0.10780888795852661,-0.33017122744931227,1.4133407408755663,2.1959181506196073,0.9342845678329468,0.3242050111293793,-0.14833621680736542
1729110022194,7i,4.16846165626421,1.0s : 0.4s,-13.677437513734304,0.07377126586859008,1.794097077584739,0.6395049749169553,2.647191286087036,0.4187079071998596,-1.303281307220459,-0.23611217737197876,0.5826739072799683,0.11708445847034454,-0.33838956071979687,1.4078745752496384,2.1667438737057747,0.9307990670204163,0.33196839690208435,-0.15300357341766357
1729110022204,7i,4.16846165626421,1.0s : 0.4s,-13.677437513734304,0.07986906669458017,1.8694987680542037,0.6075566371307912,2.67142391204834,0.41831037402153015,-1.417452335357666,-0.23185062408447266,0.5472115874290466,0.1262134462594986,-0.34741506196418953,1.4018763445850009,2.136465287955844,0.9268732070922852,0.3404684364795685,-0.1580737680196762
1729110022214,7i,4.16846165626421,1.0s : 0.4s,-13.677437513734304,0.08603116724627076,1.9322464157918606,0.5955164009039332,2.6683669090270996,0.416005402803421,-1.530513048171997,-0.2234814167022705,0.5349181890487671,0.13622911274433136,-0.35734308067523046,1.3954927114855193,2.105760075424139,0.922471284866333,0.3497864007949829,-0.16338971257209778
1729110022224,7i,4.16846165626421,1.0s : 0.4s,-13.677437513734304,0.09232945037810869,1.999381060450084,0.617528326256362,2.734023332595825,0.4033622145652771,-1.6510592699050903,-0.21180808544158936,0.5688222646713257,0.11366529762744904,-0.3682139544556792,1.388406681019706,2.0743398458325792,0.9174965023994446,0.35994967818260193,-0.16922248899936676
1729110022234,7i,4.16846165626421,1.0s : 0.4s,-13.677437513734304,0.09875581277623484,2.0761244956851974,0.6331694190554261,2.8397812843322754,0.3971834182739258,-1.7617220878601074,-0.19007724523544312,0.5974195003509521,0.0886797308921814,-0.3798500224368609,1.3804133650312669,2.0415325189246643,0.9119400978088379,0.37078118324279785,-0.175746351480484
1729110022244,7i,4.16846165626421,1.0s : 0.4s,-13.677437513734304,0.10520464450990415,2.136076925032108,0.6026136119914001,2.807905673980713,0.4484875202178955,-1.8594374656677246,-0.16944724321365356,0.568401575088501,0.10653847455978394,-0.39208301150848524,1.3718217772509937,2.007594485224541,0.9058822393417358,0.3821141719818115,-0.18266451358795166
1729110022254,7i,4.16846165626421,1.0s : 0.4s,-13.677437513734304,0.1116568194284122,2.1621435005198872,0.5915761408548138,2.6089277267456055,0.4527070224285126,-2.018681049346924,-0.17984801530838013,0.5281634330749512,0.19662250578403473,-0.4056121626105059,1.3636019622659086,1.9746973411022273,0.8992084264755249,0.39458131790161133,-0.18902358412742615
1729110022264,7i,4.16846165626421,1.0s : 0.4s,-13.677437513734304,0.11828432388466535,2.2096632559811384,0.6784279857185895,2.680177688598633,0.4469892382621765,-2.1593129634857178,-0.1391986608505249,0.6444234848022461,0.16002073884010315,-0.42055285710037443,1.3548977344625746,1.9418291605982798,0.8916707634925842,0.40826520323753357,-0.19555841386318207
1729110022274,7i,4.16846165626421,1.0s : 0.4s,-13.677437513734304,0.1251501015986347,2.274974895225505,0.7496668702592237,2.784306764602661,0.4442794919013977,-2.277992010116577,-0.06075119972229004,0.7350362539291382,0.13428109884262085,-0.43616316582837195,1.3449047484296401,1.9070374743904872,0.8833525776863098,0.4224649667739868,-0.20300665497779846
1729110022284,7i,4.16846165626421,1.0s : 0.4s,-13.677437513734304,0.13209800250581175,2.3367063123434573,0.7105257336199764,2.771257162094116,0.4197404682636261,-2.4250330924987793,-0.05631542205810547,0.6914270520210266,0.15363600850105286,-0.4526917230086665,1.3338218013396306,1.871135088515749,0.8741409182548523,0.43738770484924316,-0.21111588180065155
1729110022294,7i,4.16846165626421,1.0s : 0.4s,-13.677437513734304,0.13909150667213835,2.4062869391809096,0.6885675917559954,2.8305671215057373,0.42252853512763977,-2.5526211261749268,-0.05465942621231079,0.6738365888595581,0.1306978464126587,-0.47015565324155956,1.321506699725083,1.8340984890273677,0.8639398813247681,0.45302504301071167,-0.2199464589357376
1729110022304,7i,4.16846165626421,1.0s : 0.4s,-13.677437513734304,0.14611113543659887,2.468508358937415,0.6844976945505223,2.8180785179138184,0.42681241035461426,-2.6650333404541016,-0.029402732849121094,0.6703009605407715,0.13553300499916077,-0.4882061223888279,1.3080865481232962,1.7957392756056907,0.8528739809989929,0.4690423309803009,-0.22935928404331207
1729110022314,7i,4.16846165626421,1.0s : 0.4s,-13.677437513734304,0.15310349417560795,2.52118291980222,0.6529573947616216,2.7859725952148438,0.3821224272251129,-2.771434783935547,0.010820388793945312,0.6351373791694641,0.1511184573173523,-0.5069508779576766,1.2935680819598816,1.7568010345207876,0.840848982334137,0.4855138659477234,-0.23926842212677002
1729110022324,7i,4.16846165626421,1.0s : 0.4s,-13.677437513734304,0.16005073266607137,2.5758458239716466,0.6636479424594983,2.8015942573547363,0.34520581364631653,-2.884335994720459,0.07229667901992798,0.6424972414970398,0.14966320991516113,-0.5262489954178802,1.2774475991010046,1.7168144055165753,0.8277583122253418,0.5022934079170227,-0.25003546476364136
1729110022334,7i,4.16846165626421,1.0s : 0.4s,-13.677437513734304,0.16690308912100335,2.630913946169262,0.6990606437894888,2.812624931335449,0.3081687092781067,-2.9928953647613525,0.10643231868743896,0.6720191240310669,0.16046258807182312,-0.5459549598080615,1.2595962778575998,1.6754749363952879,0.813581109046936,0.5192344784736633,-0.26168933510780334
1729110022344,7i,4.16846165626421,1.0s : 0.4s,-13.677437513734304,0.17365264211656783,2.6924530686049617,0.7037697715357281,2.846649408340454,0.2542058527469635,-3.1221213340759277,0.14109045267105103,0.6719344258308411,0.15456229448318481,-0.5660318903890567,1.239706138622059,1.6325087407377932,0.7981948852539062,0.5362870693206787,-0.27437424659729004
1729110022354,7i,4.16846165626421,1.0s : 0.4s,-13.677437513734304,0.1802928127095828,2.7606872651699352,0.7230316132524186,2.8914425373077393,0.2131527066230774,-3.252164125442505,0.18471825122833252,0.6824180483818054,0.1515238881111145,-0.5864486391982009,1.2174992864219127,1.5874853965532485,0.7814683318138123,0.5534065365791321,-0.2881815731525421
1729110022364,7i,4.16846165626421,1.0s : 0.4s,-13.677437513734304,0.1868131017877325,2.8221167932428672,0.7304422285100296,2.8722546100616455,0.16304399073123932,-3.3628554344177246,0.23400551080703735,0.6757946610450745,0.14862316846847534,-0.6070929040904064,1.1930313254272151,1.5406060592549327,0.7634005546569824,0.5704822540283203,-0.30293527245521545
1729110022374,7i,4.16846165626421,1.0s : 0.4s,-13.677437513734304,0.19330097406290095,2.8692874358155707,0.7040327260170655,2.8052713871002197,0.10546752065420151,-3.4498395919799805,0.29518479108810425,0.620669960975647,0.1526329517364502,-0.6278787966987583,1.1664013488736813,1.4923888923823343,0.7439998388290405,0.5874294638633728,-0.3184196352958679
1729110022384,7i,4.16846165626421,1.0s : 0.4s,-13.677437513734304,0.19972366905964117,2.9065265119914048,0.7025583182033848,2.714134693145752,0.021061917766928673,-3.5541136264801025,0.34309589862823486,0.5929836630821228,0.15570411086082458,-0.6487113162658851,1.137763134387234,1.4432912907638176,0.7233104705810547,0.6041600108146667,-0.3343845009803772
1729110022394,7i,4.16846165626421,1.0s : 0.4s,-13.677437513734304,0.20588810337290223,2.942575828164224,0.7562447454217585,2.6610803604125977,-0.0621165931224823,-3.6561436653137207,0.39177000522613525,0.6372504234313965,0.11105978488922119,-0.6695955932119649,1.1066190734107875,1.392869192081218,0.701110303401947,0.6206689476966858,-0.3510194420814514
1729110022404,7i,4.16846165626421,1.0s : 0.4s,-13.677437513734304,0.21185240179440346,2.976648736328003,0.776750588535726,2.6249754428863525,-0.13592122495174408,-3.7325148582458496,0.44349557161331177,0.6281849145889282,0.10971266031265259,-0.6900826505939813,1.072790362341774,1.340686713351022,0.6775219440460205,0.636600911617279,-0.3683796226978302
1729110022414,7i,4.16846165626421,1.0s : 0.4s,-13.677437513734304,0.2176359534433528,3.006355317521145,0.7865682262061199,2.5446228981018066,-0.23272393643856049,-3.8205158710479736,0.4880513548851013,0.6050747036933899,0.11991685628890991,-0.7101659551025383,1.036302017920396,1.286918850684005,0.652497410774231,0.6519595980644226,-0.3862590193748474
1729110022424,7i,4.16846165626421,1.0s : 0.4s,-13.677437513734304,0.22342491051328006,3.0384739980046165,0.8474148375465473,2.5206782817840576,-0.32119396328926086,-3.8954734802246094,0.5432385206222534,0.6431340575218201,0.09686279296875,-0.7297051557680787,0.996810583814302,1.23127976416892,0.6259204149246216,0.6666498780250549,-0.4047240614891052
1729110022434,7i,4.16846165626421,1.0s : 0.4s,-13.677437513734304,0.22922273808087895,3.073853686785921,0.880715433964861,2.5416266918182373,-0.38545870780944824,-3.9481852054595947,0.6035712957382202,0.634934663772583,0.09066057205200195,-0.7479801101415376,0.9541330242072029,1.1731711751550389,0.5980432033538818,0.6801594495773315,-0.42394304275512695
1729110022444,7i,4.16846165626421,1.0s : 0.4s,-13.677437513734304,0.2349376586814442,3.1039465959671584,0.8664080236246966,2.462639093399048,-0.45872974395751953,-4.02288818359375,0.6319416165351868,0.5833545923233032,0.10492891073226929,-0.7650248060080925,0.9084841106800751,1.1127961061936502,0.5688488483428955,0.6925548911094666,-0.4435977041721344
1729110022454,7i,4.16846165626421,1.0s : 0.4s,-13.677437513734304,0.2406813197901934,3.1361038554811147,0.9065678354191309,2.441565752029419,-0.5447728037834167,-4.088944911956787,0.6786592602729797,0.5903756618499756,0.11288678646087646,-0.7809453815160838,0.8599081336267042,1.0504613048079552,0.5382139682769775,0.7039511799812317,-0.4634421765804291
1729110022464,7i,4.16846165626421,1.0s : 0.4s,-13.677437513734304,0.24660410430143775,3.1714896247161493,0.9697796603637312,2.493633985519409,-0.5902788043022156,-4.121953010559082,0.7363077402114868,0.6271823048591614,0.07046884298324585,-0.7947651203075965,0.8080758729973034,0.9853782336330978,0.506398618221283,0.7136991024017334,-0.48393622040748596
1729110022474,7i,4.16846165626421,1.0s : 0.4s,-13.677437513734304,0.252572767679108,3.1968358169795215,0.9636033937171312,2.4612250328063965,-0.6487008333206177,-4.135595321655273,0.7695678472518921,0.57430100440979,0.08046853542327881,-0.8062172007998606,0.7536587529000364,0.9182402272528892,0.4737030565738678,0.7216737866401672,-0.5047696232795715
1729110022484,7i,4.16846165626421,1.0s : 0.4s,-13.677437513734304,0.2585852497556586,3.212996815770973,0.9777153346057681,2.342839241027832,-0.8013542294502258,-4.174455642700195,0.8017562627792358,0.558218777179718,0.038806796073913574,-0.8158313543884569,0.6967922082654447,0.8498715137302558,0.43977510929107666,0.7282955646514893,-0.5255315899848938
1729110022494,7i,4.16846165626421,1.0s : 0.4s,-13.677437513734304,0.2647265243025196,3.2157738924313297,0.9297835733260413,2.170259475708008,-0.9196960926055908,-4.206169128417969,0.7955965995788574,0.48105794191360474,0.010334432125091553,-0.8238552798204941,0.6378921076012894,0.7810243802943408,0.4045834243297577,0.7337705492973328,-0.5457957983016968
1729110022504,7i,4.16846165626421,1.0s : 0.4s,-13.677437513734304,0.2709584795793602,3.2130573684712553,0.9087805249195938,1.9814822673797607,-0.9881484508514404,-4.233999252319336,0.7967002391815186,0.43017274141311646,0.07811647653579712,-0.8310436795860201,0.5777221003767898,0.7122813680681598,0.36814048886299133,0.7386353015899658,-0.5647040009498596
1729110022514,7i,4.16846165626421,1.0s : 0.4s,-13.677437513734304,0.277151560221124,3.2060155825647905,0.9574921493553601,1.8818957805633545,-1.08822500705719,-4.235085964202881,0.8296715021133423,0.4723953604698181,0.07265698909759521,-0.8366494792550565,0.516501884478166,0.6436463884866851,0.3308510184288025,0.7424026131629944,-0.5825598835945129
1729110022524,7i,4.16846165626421,1.0s : 0.4s,-13.677437513734304,0.283573433024645,3.2074752837957576,1.0013673519792952,1.9298380613327026,-1.162057876586914,-4.2496137619018555,0.8435420989990234,0.5395987629890442,0.0025447607040405273,-0.8396325972362171,0.45363728635985767,0.5742332834820442,0.29262736439704895,0.7443978190422058,-0.6002009510993958
1729110022534,7i,4.16846165626421,1.0s : 0.4s,-13.677437513734304,0.2902396109905281,3.218313148988095,0.9879026538084864,1.9745213985443115,-1.2175663709640503,-4.2554192543029785,0.8284651041030884,0.5375097990036011,0.026085257530212402,-0.8392420147917735,0.38950929531281725,0.5041231621809928,0.2536729872226715,0.7441369891166687,-0.6179889440536499
1729110022544,7i,4.16846165626421,1.0s : 0.4s,-13.677437513734304,0.2971017735244026,3.2298425008496823,0.9662168021987073,1.9948009252548218,-1.268713116645813,-4.247270107269287,0.8270644545555115,0.4991315007209778,0.020175278186798096,-0.8354618842923256,0.3251550311093644,0.43425756806660565,0.21430213749408722,0.7416064143180847,-0.6356843113899231
1729110022554,7i,4.16846165626421,1.0s : 0.4s,-13.677437513734304,0.3041208840771414,3.241075157569584,0.9597947503210043,1.991106629371643,-1.322959542274475,-4.247903823852539,0.8314749002456665,0.4786830544471741,-0.026795268058776855,-0.8286208752793979,0.261191554602905,0.36527496946982263,0.1745370775461197,0.7369999289512634,-0.6529685258865356
1729110022564,7i,4.16846165626421,1.0s : 0.4s,-13.677437513734304,0.31100104836944287,3.252172225411391,0.912078413544633,1.9726271629333496,-1.392791748046875,-4.2520036697387695,0.8057309985160828,0.42732787132263184,-0.008687973022460938,-0.8190894593577444,0.19807237636781155,0.29777134445248116,0.13437828421592712,0.7305243611335754,-0.6695346832275391
1729110022574,7i,4.16846165626421,1.0s : 0.4s,-13.677437513734304,0.3178812955234688,3.2670423428005004,0.9113086248426758,2.015573740005493,-1.4532760381698608,-4.250794887542725,0.8055798411369324,0.42526429891586304,-0.025977015495300293,-0.8064877298694239,0.1360100525656006,0.2319184889855105,0.09383421391248703,0.7218610048294067,-0.6856470704078674
1729110022584,7i,4.16846165626421,1.0s : 0.4s,-13.677437513734304,0.3248267388229557,3.2710492132702345,0.9109473248599154,1.9326441287994385,-1.5079188346862793,-4.243012428283691,0.8125640153884888,0.41005176305770874,-0.03771340847015381,-0.7912394360703606,0.07573651988976328,0.1683943156501458,0.053189195692539215,0.7112250924110413,-0.7009493112564087
1729110022594,7i,4.16846165626421,1.0s : 0.4s,-13.677437513734304,0.3318390138417949,3.280177795993755,0.9082386354129428,1.9085958003997803,-1.5948110818862915,-4.25084924697876,0.8206280469894409,0.38912737369537354,-0.006849408149719238,-0.7741579460121952,0.017016149780781493,0.10724560932459809,0.012166130356490612,0.6991142630577087,-0.7149065136909485
1729110022604,7i,4.16846165626421,1.0s : 0.4s,-13.677437513734304,0.3389981864283882,3.2841895334121856,0.9411740135084452,1.9841562509536743,-1.633424162864685,-4.194863796234131,0.8370482921600342,0.4298556447029114,-0.0195654034614563,-0.7541811875503074,-0.039365493175000224,0.049079287870158084,-0.028683440759778023,0.6846921443939209,-0.7282678484916687
1729110022614,7i,4.16846165626421,1.0s : 0.4s,-13.677437513734304,0.34605716340544174,3.295479663672529,0.8889023812614064,1.9798285961151123,-1.7264952659606934,-4.201150894165039,0.806587815284729,0.37357062101364136,0.0029207468032836914,-0.7315923716190993,-0.0934289549909284,-0.00601228222424294,-0.0694204717874527,0.6680553555488586,-0.7408663034439087
1729110022624,7i,4.16846165626421,1.0s : 0.4s,-13.677437513734304,0.3531077318941439,3.311431384629448,0.8829575701985651,1.9631266593933105,-1.815556526184082,-4.21879768371582,0.8015565276145935,0.3700418472290039,-0.013792574405670166,-0.7069328853533138,-0.14566192905813077,-0.058465257103189866,-0.1103639155626297,0.6495047211647034,-0.7523054480552673
1729110022634,7i,4.16846165626421,1.0s : 0.4s,-13.677437513734304,0.3602635298418557,3.3144425665507224,0.90713367525989,1.8898733854293823,-1.8887966871261597,-4.183465480804443,0.8131844401359558,0.3887280821800232,-0.10253316164016724,-0.6807604287749668,-0.19581628401754606,-0.10803011563143221,-0.1511971354484558,0.6293841600418091,-0.7622434496879578
1729110022644,7i,4.16846165626421,1.0s : 0.4s,-13.677437513734304,0.3674766872482547,3.3142713306385336,0.8852044146973228,1.8526283502578735,-1.94698166847229,-4.150364875793457,0.7994368076324463,0.3662302494049072,-0.10179907083511353,-0.6534976687505598,-0.24386962049574248,-0.15463298927645303,-0.1917097419500351,0.6079671382904053,-0.7704695463180542
1729110022654,7i,4.16846165626421,1.0s : 0.4s,-13.677437513734304,0.3745568041461197,3.317241048909515,0.8479906375177,1.863919973373413,-2.009131669998169,-4.1448493003845215,0.7689232230186462,0.3461918234825134,-0.08942270278930664,-0.6246245162086499,-0.2897537182411597,-0.1983943002026273,-0.23176808655261993,0.5847927331924438,-0.7773680686950684
1729110022664,7i,4.16846165626421,1.0s : 0.4s,-13.677437513734304,0.38164974131017393,3.3159672109557743,0.8563834912883809,1.8277511596679688,-2.062645196914673,-4.092773914337158,0.7802913784980774,0.34533506631851196,-0.07267558574676514,-0.5943666755189877,-0.33355850421600497,-0.2392921828261815,-0.2712581753730774,0.5599841475486755,-0.7828389406204224
1729110022674,7i,4.16846165626421,1.0s : 0.4s,-13.677437513734304,0.3888279476775083,3.2981742253181023,0.8784436103035028,1.7329505681991577,-2.122437000274658,-4.019450664520264,0.8050285577774048,0.344190776348114,-0.07158845663070679,-0.5635932519011857,-0.37534445573357866,-0.27740234088732846,-0.3098961114883423,0.534227192401886,-0.7864894866943359
1729110022684,7i,4.16846165626421,1.0s : 0.4s,-13.677437513734304,0.39604065955121326,3.2708762011556716,0.8594716163224713,1.561275601387024,-2.2033674716949463,-3.960780143737793,0.8015252351760864,0.3015223741531372,-0.07302749156951904,-0.5330055382437127,-0.4155163514401955,-0.3130629073465055,-0.3476678729057312,0.5081242322921753,-0.787995457649231
1729110022694,7i,4.16846165626421,1.0s : 0.4s,-13.677437513734304,0.40330213547462396,3.242281508861849,0.8691609672299678,1.412331461906433,-2.282623291015625,-3.9172306060791016,0.8019577264785767,0.31334975361824036,-0.11881297826766968,-0.5029874796571496,-0.45479759422208305,-0.34703066370842534,-0.38487401604652405,0.48204514384269714,-0.7870860695838928
1729110022704,7i,4.16846165626421,1.0s : 0.4s,-13.677437513734304,0.41064434733324395,3.2139767648612376,0.902082073484523,1.2895896434783936,-2.356459617614746,-3.8662331104278564,0.8228587508201599,0.34391820430755615,-0.1355574131011963,-0.4731622846318543,-0.4930642749876607,-0.3791996185542122,-0.4213237166404724,0.45570340752601624,-0.7841050624847412
1729110022714,7i,4.16846165626421,1.0s : 0.4s,-13.677437513734304,0.4180394272275204,3.1894862495928327,0.8668142754612939,1.1784324645996094,-2.404522180557251,-3.841823101043701,0.7990623712539673,0.31567084789276123,-0.11497056484222412,-0.44359241610113587,-0.5305335920956953,-0.4099505037523768,-0.45702141523361206,0.42918694019317627,-0.7790571451187134
1729110022724,7i,4.16846165626421,1.0s : 0.4s,-13.677437513734304,0.42527331981588956,3.168555380915123,0.8270461376389634,1.1119040250778198,-2.4346959590911865,-3.8150439262390137,0.7577610015869141,0.2982245981693268,-0.14444953203201294,-0.41385138796130483,-0.5669521307781948,-0.43935102339907406,-0.49172401428222656,0.4021385610103607,-0.7723290324211121
1729110022734,7i,4.16846165626421,1.0s : 0.4s,-13.677437513734304,0.43244304323311133,3.1453840359911744,0.8336749951936859,1.0329396724700928,-2.4998652935028076,-3.7427937984466553,0.7615519762039185,0.276604562997818,-0.19632244110107422,-0.38404201357428774,-0.6023977231438117,-0.46710258164485724,-0.5253459215164185,0.3746711015701294,-0.7639589309692383
1729110022744,7i,4.16846165626421,1.0s : 0.4s,-13.677437513734304,0.4394721826454152,3.122007075732157,0.8250104108672379,0.9016738533973694,-2.554532051086426,-3.697932243347168,0.7808424830436707,0.21688106656074524,-0.15456324815750122,-0.3545248942884246,-0.6372321228167926,-0.4935444713975615,-0.5579726099967957,0.34714484214782715,-0.7537619471549988
1729110022754,7i,4.16846165626421,1.0s : 0.4s,-13.677437513734304,0.44652003903777077,3.099093007683473,0.8369020363390821,0.7930533289909363,-2.60312819480896,-3.648530960083008,0.7985040545463562,0.21959689259529114,-0.1207207441329956,-0.3254714842507272,-0.6715091271457677,-0.519014767135277,-0.5895044207572937,0.31975555419921875,-0.7417823076248169
1729110022764,7i,4.16846165626421,1.0s : 0.4s,-13.677437513734304,0.45357846021088577,3.075144190114214,0.8868488020279874,0.7152764201164246,-2.6567435264587402,-3.575395107269287,0.8429116010665894,0.23551857471466064,-0.14328932762145996,-0.29670891496875396,-0.7052359506726692,-0.5432674318722072,-0.6198891401290894,0.29237452149391174,-0.7281858921051025
1729110022774,7i,4.16846165626421,1.0s : 0.4s,-13.677437513734304,0.4606390849602316,3.048785293222095,0.8985308608053452,0.6163640022277832,-2.6845703125,-3.5119950771331787,0.8649564981460571,0.20702975988388062,-0.12785398960113525,-0.2682839514760961,-0.7384038423049659,-0.5663548854372571,-0.6490293741226196,0.2650771737098694,-0.71308833360672
1729110022784,7i,4.16846165626421,1.0s : 0.4s,-13.677437513734304,0.46772616121863414,3.021596619338098,0.8696917780106087,0.5282456874847412,-2.697298288345337,-3.459578275680542,0.8487004041671753,0.1623515486717224,-0.0985565185546875,-0.24025213685852045,-0.7708945380768567,-0.5885665392060715,-0.6767643094062805,0.2379475235939026,-0.6966857314109802
1729110022794,7i,4.16846165626421,1.0s : 0.4s,-13.677437513734304,0.4748378404368426,2.994360853868647,0.8786270707826404,0.48209843039512634,-2.7088913917541504,-3.4017128944396973,0.8594626188278198,0.14833682775497437,-0.10632836818695068,-0.212355964329084,-0.8027177912341354,-0.6097565119489158,-0.7030906081199646,0.21076352894306183,-0.6791483163833618
1729110022804,7i,4.16846165626421,1.0s : 0.4s,-13.677437513734304,0.481877674191603,2.959507970184902,0.9081032232536972,0.4193153381347656,-2.6859331130981445,-3.3255064487457275,0.89690762758255,0.12444235384464264,-0.0687187910079956,-0.1847116745095246,-0.8336720411936751,-0.6298128515839743,-0.7278097867965698,0.18366311490535736,-0.6607275605201721
1729110022814,7i,4.16846165626421,1.0s : 0.4s,-13.677437513734304,0.48893101396699357,2.9222791462633704,0.8768101205355365,0.3862071931362152,-2.6638143062591553,-3.262470245361328,0.8718577027320862,0.0902843326330185,-0.022558212280273438,-0.157358304877151,-0.8636481924867893,-0.6488579529668966,-0.750825047492981,0.1567097008228302,-0.6416415572166443
1729110022824,7i,4.16846165626421,1.0s : 0.4s,-13.677437513734304,0.495979607229291,2.878758709022447,0.8776197738610164,0.3175026774406433,-2.6351318359375,-3.1808555126190186,0.8756744265556335,0.05832439661026001,-0.0030051469802856445,-0.13030700535249634,-0.892737617486123,-0.6668706333683709,-0.7721893787384033,0.12993855774402618,-0.6219642758369446
1729110022834,7i,4.16846165626421,1.0s : 0.4s,-13.677437513734304,0.5030140804236576,2.8297092562393673,0.8798626413643374,0.2935928404331207,-2.591529607772827,-3.097118377685547,0.8773574233055115,0.03167830407619476,0.05829840898513794,-0.10373100243711865,-0.9208669335330195,-0.6839882709309731,-0.7918471693992615,0.10354507714509964,-0.6018774509429932
1729110022844,7i,4.16846165626421,1.0s : 0.4s,-13.677437513734304,0.5100264320321357,2.7675159149548016,0.8707858651508087,0.3049224615097046,-2.5300514698028564,-2.964688777923584,0.8688638210296631,0.018116340041160583,0.05491340160369873,-0.07754238947346498,-0.9479256319053875,-0.6996867478656558,-0.8097665309906006,0.07746470719575882,-0.581616222858429
1729110022854,7i,4.16846165626421,1.0s : 0.4s,-13.677437513734304,0.5169825329552298,2.6960222164970515,0.8635449646438685,0.2778618037700653,-2.4381396770477295,-2.861809492111206,0.8537676334381104,-0.026433035731315613,0.12685436010360718,-0.051969136449319074,-0.9736800912645754,-0.71397331475326,-0.8258439898490906,0.05194574594497681,-0.5615009665489197
1729110022864,7i,4.16846165626421,1.0s : 0.4s,-13.677437513734304,0.5238287185928869,2.6104512621728144,0.8574857046789234,0.23563870787620544,-2.3334109783172607,-2.7224977016448975,0.8263296484947205,-0.08858724683523178,0.2112187147140503,-0.02728082454467568,-0.9980877930213757,-0.7272383521685399,-0.8401236534118652,0.027277439832687378,-0.541708767414093
1729110022874,7i,4.16846165626421,1.0s : 0.4s,-13.677437513734304,0.5305594660100549,2.5105974742895922,0.8748241678322787,0.21855880320072174,-2.2253828048706055,-2.5543127059936523,0.8279622793197632,-0.12267684936523438,0.2544527053833008,-0.003719345788632525,-1.021078855019965,-0.7393660571921259,-0.8526662588119507,0.003719337284564972,-0.5224427580833435
1729110022884,7i,4.16846165626421,1.0s : 0.4s,-13.677437513734304,0.5367169879319407,2.3983941904789954,0.8956328573469373,0.19341643154621124,-2.0996334552764893,-2.386507511138916,0.8216493725776672,-0.16895754635334015,0.31385326385498047,0.018512986494807693,-1.0426219788878381,-0.7502743091414639,-0.863580584526062,-0.018511928617954254,-0.503870964050293
1729110022894,7i,4.16846165626421,1.0s : 0.4s,-13.677437513734304,0.5423446140546426,2.2766801986750593,0.9014844656844324,0.18701311945915222,-1.97637140750885,-2.2090654373168945,0.7985270023345947,-0.22006790339946747,0.35580751299858093,0.03940272753328004,-1.0627226947779336,-0.7600254855618838,-0.873005211353302,-0.03939253091812134,-0.48611751198768616
1729110022904,7i,4.16846165626421,1.0s : 0.4s,-13.677437513734304,0.5475557305970095,2.1474802435347637,0.9379290080465784,0.21770140528678894,-1.848024606704712,-2.0269694328308105,0.810835063457489,-0.2706203758716583,0.3860335946083069,0.05897312100117036,-1.0814411229785912,-0.7684008741843652,-0.8811018466949463,-0.05893894284963608,-0.469239741563797
1729110022914,7i,4.16846165626421,1.0s : 0.4s,-13.677437513734304,0.5523746090213143,2.0122223209307992,0.9503851447441051,0.2511512339115143,-1.7142271995544434,-1.8432676792144775,0.797311007976532,-0.3223637640476227,0.40448570251464844,0.07718797464739124,-1.0987974265071256,-0.7752925939413454,-0.8880093693733215,-0.07711134850978851,-0.45331382751464844
1729110022924,7i,4.16846165626421,1.0s : 0.4s,-13.677437513734304,0.5568386113130838,1.8686975317158827,0.9923117851085276,0.29137909412384033,-1.5552394390106201,-1.6529991626739502,0.7910038232803345,-0.37895774841308594,0.46409767866134644,0.09402007068082353,-1.1147091478747737,-0.7807192439494093,-0.8938176035881042,-0.09388161450624466,-0.43849340081214905
1729110022934,7i,4.16846165626421,1.0s : 0.4s,-13.677437513734304,0.56093155799753,1.711855504005556,1.0267617126311928,0.308254212141037,-1.3646923303604126,-1.441781997680664,0.7675409913063049,-0.4403685927391052,0.5207647681236267,0.10924125636722527,-1.1288975617613908,-0.7847470750698565,-0.8985529541969299,-0.10902411490678787,-0.4251073896884918
1729110022944,7i,4.16846165626421,1.0s : 0.4s,-13.677437513734304,0.5646414973634503,1.5413812597000756,1.0788813380711166,0.31927675008773804,-1.1671607494354248,-1.2070153951644897,0.7571477293968201,-0.5178736448287964,0.5679076910018921,0.12255439051219738,-1.1412484722160536,-0.787517946290004,-0.9023352265357971,-0.1222478374838829,-0.41333621740341187
1729110022954,7i,4.16846165626421,1.0s : 0.4s,-13.677437513734304,0.5681001005278433,1.3552068246847422,1.15316700122569,0.3005227744579315,-0.9412204623222351,-0.9599592089653015,0.773536205291748,-0.5717010498046875,0.6360768675804138,0.1335140500814653,-1.15150818729579,-0.7891564806967577,-0.9052501916885376,-0.13311773538589478,-0.4034872055053711
1729110022964,7i,4.16846165626421,1.0s : 0.4s,-13.677437513734304,0.5713380459660428,1.1546073758333188,1.2253022947759744,0.28682321310043335,-0.7083500027656555,-0.6933228373527527,0.7743803262710571,-0.642554521560669,0.6991598606109619,0.14225705618970647,-1.1596571279157981,-0.7898539171257769,-0.9074064493179321,-0.14177772402763367,-0.3956167697906494
1729110022974,7i,4.16846165626421,1.0s : 0.4s,-13.677437513734304,0.5745039132523077,0.9433627577271793,1.2953702061208001,0.32618874311447144,-0.45383065938949585,-0.4241800308227539,0.8021310567855835,-0.6913847923278809,0.7460273504257202,0.14860861580473084,-1.1655639597295206,-0.7892503100161729,-0.9088815450668335,-0.14806222915649414,-0.38988712430000305
1729110022984,7i,4.16846165626421,1.0s : 0.4s,-13.677437513734304,0.5776700542291601,0.724636901651436,1.372523305346129,0.3889234662055969,-0.1755751520395279,-0.1447862833738327,0.8174266815185547,-0.7510643005371094,0.8071779608726501,0.15258808712102337,-1.1690387371039812,-0.7870976072325504,-0.9096813201904297,-0.1519966572523117,-0.38649314641952515
1729110022994,7i,4.16846165626421,1.0s : 0.4s,-13.677437513734304,0.5808620436589432,0.511556538042518,1.440066720581664,0.48742368817329407,0.1087455153465271,0.1584572046995163,0.8288338780403137,-0.821465015411377,0.8438138365745544,0.15424351122407495,-1.170020915215262,-0.7829427191909916,-0.9098275303840637,-0.15363264083862305,-0.38550078868865967
1729110023004,7i,4.16846165626421,1.0s : 0.4s,-13.677437513734304,0.58410339006155,0.37568836899522284,1.51859936521826,0.5066733956336975,0.39889705181121826,0.4631548821926117,0.8362616300582886,-0.8970835208892822,0.8955733776092529,0.15335199978599456,-1.1683833923858777,-0.7770324574611188,-0.9093207120895386,-0.15275165438652039,-0.38704362511634827
1729110023014,7i,4.16846165626421,1.0s : 0.4s,-13.677437513734304,0.587553678800106,0.2914231390314046,1.5933513777915405,0.49687618017196655,0.6907150149345398,0.7809978127479553,0.8656928539276123,-0.9419078230857849,0.949817955493927,0.14962271978695132,-1.1640267703561091,-0.7699039754558821,-0.9081427454948425,-0.1490650773048401,-0.3912241458892822
1729110023024,7i,4.16846165626421,1.0s : 0.4s,-13.677437513734304,0.5914189640256851,0.44509924616634067,1.6168207224426272,0.547389805316925,0.9847273230552673,1.0956897735595703,0.9028158187866211,-0.9416748881340027,0.9551341533660889,0.14310255259169247,-1.1569027209404368,-0.761346732436757,-0.9062032699584961,-0.14261463284492493,-0.39806628227233887
1729110023034,7i,4.16846165626421,1.0s : 0.4s,-13.677437513734304,0.5959091437108905,0.6979430355359075,1.629375133607094,0.611056387424469,1.2867779731750488,1.4273558855056763,0.9566456079483032,-0.9229559898376465,0.9422551393508911,0.13394749271913528,-1.1469819480410859,-0.7508138983606296,-0.9033619165420532,-0.13354730606079102,-0.4075566530227661
1729110023044,7i,4.16846165626421,1.0s : 0.4s,-13.677437513734304,0.601201698549136,0.9752880284660667,1.694033866515688,0.6373891830444336,1.5944827795028687,1.755614161491394,1.0327823162078857,-0.9326155185699463,0.9660950899124146,0.12210050489090803,-1.1341671791574193,-0.7384099023167867,-0.899435818195343,-0.1217973381280899,-0.41973888874053955
1729110023054,7i,4.16846165626421,1.0s : 0.4s,-13.677437513734304,0.6074814175841653,1.2645048386674622,1.754634459492079,0.6680837273597717,1.907568335533142,2.0917749404907227,1.126628041267395,-0.9314525127410889,0.9704883098602295,0.1075425220487321,-1.1182944506171941,-0.7241657650683906,-0.8941603899002075,-0.10733534395694733,-0.4346911311149597
1729110023064,7i,4.16846165626421,1.0s : 0.4s,-13.677437513734304,0.6149611378737065,1.5660220049648546,1.842022718074428,0.7205227017402649,2.2197418212890625,2.4611716270446777,1.2571289539337158,-0.9385993480682373,0.9652490615844727,0.09025542751567316,-1.099283313252471,-0.7076898711365467,-0.8872559666633606,-0.090132936835289,-0.45238587260246277
1729110023074,7i,4.16846165626421,1.0s : 0.4s,-13.677437513734304,0.6237847354473272,1.8786060442906372,1.9672668019468773,0.7527546882629395,2.5675785541534424,2.827608823776245,1.3950077295303345,-0.9791792631149292,0.9824968576431274,0.0702559712572722,-1.0768557283115638,-0.6887878708631848,-0.8782994151115417,-0.0701981857419014,-0.47292956709861755
1729110023084,7i,4.16846165626421,1.0s : 0.4s,-13.677437513734304,0.6341098053360023,2.204986493077856,2.110789916800683,0.783284604549408,2.9247496128082275,3.227579355239868,1.5436763763427734,-1.022890329360962,1.0130116939544678,0.047516297506713615,-1.0507092220021803,-0.6674325349746999,-0.8667964339256287,-0.047498419880867004,-0.4963948130607605
1729110023094,7i,4.16846165626421,1.0s : 0.4s,-13.677437513734304,0.6462116644121867,2.5392289815921636,2.2752831313058866,0.7896700501441956,3.269841194152832,3.6319100856781006,1.7410852909088135,-1.0486750602722168,1.0226514339447021,0.02203593792903856,-1.020600047164423,-0.6431883742617421,-0.8522149920463562,-0.02203415520489216,-0.5227276086807251
1729110023104,7i,4.16846165626421,1.0s : 0.4s,-13.677437513734304,0.6603371838378329,2.8828856540258183,2.441228025860849,0.7990496158599854,3.625805139541626,4.050355911254883,1.9473462104797363,-1.0567573308944702,1.0250370502471924,-0.006113416733692251,-0.9863532437533211,-0.6158698994586551,-0.8340039253234863,0.006113378796726465,-0.5517246723175049
1729110023114,7i,4.16846165626421,1.0s : 0.4s,-13.677437513734304,0.676699365114917,3.234859880404604,2.6204695581656052,0.8142480254173279,4.001652240753174,4.460078716278076,2.162972927093506,-1.060805082321167,1.0310680866241455,-0.03656705675496576,-0.9475692990340946,-0.5850494851502321,-0.8114563822746277,0.036558907479047775,-0.583268404006958
1729110023124,7i,4.16846165626421,1.0s : 0.4s,-13.677437513734304,0.6955103702869269,3.592389419157102,2.820315252721297,0.8431114554405212,4.373838424682617,4.8679680824279785,2.3973193168640137,-1.0615366697311401,1.039316177368164,-0.0688541946809123,-0.9038540714525282,-0.5504034029344737,-0.7838550806045532,0.06879980117082596,-0.617120623588562
1729110023134,7i,4.16846165626421,1.0s : 0.4s,-13.677437513734304,0.7171485909710591,3.9652100950482665,3.0608489531933643,0.8932486772537231,4.787160873413086,5.311846733093262,2.7050249576568604,-1.014086365699768,1.0115656852722168,-0.10247667942823022,-0.8546818808636734,-0.511102690341868,-0.7504046559333801,0.10229741781949997,-0.6530146598815918
1729110023144,7i,4.16846165626421,1.0s : 0.4s,-13.677437513734304,0.7419619533757402,4.355100435411827,3.3575946009701423,0.9050271511077881,5.214500427246094,5.793194770812988,3.042724132537842,-0.9943217635154724,1.0132105350494385,-0.13722332372327298,-0.7993425222937742,-0.46656150660838297,-0.7101588249206543,0.1367930769920349,-0.6906245350837708
1729110023154,7i,4.16846165626421,1.0s : 0.4s,-13.677437513734304,0.770411764811607,4.770129277408984,3.730946174231965,0.8701786398887634,5.704665184020996,6.313568592071533,3.4435527324676514,-0.9837153553962708,1.0460439920425415,-0.17283755020428043,-0.737024215650338,-0.41625887426815894,-0.6620738506317139,0.17197830975055695,-0.729439377784729
1729110023164,7i,4.16846165626421,1.0s : 0.4s,-13.677437513734304,0.8031300693058919,5.2226170921275195,4.185765944620093,0.7835320234298706,6.221502304077148,6.9485955238342285,3.9291372299194336,-0.9394668936729431,1.0954082012176514,-0.2092710760691077,-0.6665797257503232,-0.3593137088890409,-0.6048117876052856,0.2077469378709793,-0.7687938809394836
1729110023174,7i,4.16846165626421,1.0s : 0.4s,-13.677437513734304,0.8408324870601308,5.721217263447227,4.723604995406414,0.5885612368583679,6.811421871185303,7.659892559051514,4.501349449157715,-0.8701437711715698,1.1371662616729736,-0.24640905948864125,-0.5868056052872839,-0.29442485664778006,-0.5369789600372314,0.24392306804656982,-0.8075612187385559
1729110023184,7i,4.16846165626421,1.0s : 0.4s,-13.677437513734304,0.8842162900822794,6.2956818381645245,5.330855441227262,0.1372949630022049,7.553813457489014,8.537679672241211,5.113746643066406,-0.822172224521637,1.2616052627563477,-0.2848559791476761,-0.4956389688233168,-0.22059909931603702,-0.4564284086227417,0.2810192406177521,-0.8442163467407227
1729110023194,7i,4.16846165626421,1.0s : 0.4s,-13.677437513734304,0.933934842262152,6.945414721212996,6.021634357674427,-0.5254113674163818,8.345321655273438,9.493663787841797,5.787898540496826,-0.8720120191574097,1.4141802787780762,-0.3253214533861635,-0.39079370086778703,-0.13605092509261196,-0.3609422743320465,0.31961339712142944,-0.8761096000671387
1729110023204,7i,4.16846165626421,1.0s : 0.4s,-13.677437513734304,0.9907734746227657,7.656408124135166,6.813246175844352,-1.241111397743225,9.094915390014648,10.488280296325684,6.601674556732178,-0.8857430219650269,1.4330651760101318,-0.3660787720873182,-0.27037495829089736,-0.0384832929282431,-0.2493947297334671,0.35795679688453674,-0.8998162150382996
