timestamp,club,max_speed,tempo,w.rotation,l.speed,t.spped,acc,rotation.x,rotation.y,rotation.z,userAcceleration.x,userAcceleration.y,userAcceleration.z,pitch,roll,yaw,gravity.x,gravity.y,gravity.z,impactIndex,minDownIndex,StartIndex,endIndex
1730926867324,6i,13.373392926384264,0.7s : 0.2s,-27.120452168221995,4.629576243400301e-06,0.00033131971485307,0.004139204666553686,0.00037239352241158485,-0.0021635862067341805,-0.004422120284289122,0.0018586516380310059,-0.002796769142150879,-0.0024200230836868286,-0.24020759490493454,1.4466150781102767,0.2123126260322902,0.9638093709945679,0.23790426552295685,-0.1203061044216156, 314, 294, 231, 294
1730926867334,6i,13.373392926384264,0.7s : 0.2s,-27.120452168221995,2.1354139598314027e-05,0.0005657421577316469,0.0071900797220251335,0.0026825524400919676,0.0030755174811929464,-0.003810492344200611,-0.00286179780960083,0.002597332000732422,-0.006063103675842285,-0.2402624332679972,1.446641177532295,0.21229596656959288,0.9637994766235352,0.23795752227306366,-0.12027931958436966, 314, 294, 231, 294
1730926867344,6i,13.373392926384264,0.7s : 0.2s,-27.120452168221995,5.728611927274843e-05,0.0006552043547434442,0.00943495856286078,0.0005355121102184057,0.0050364029593765736,7.399404421448708e-05,-0.005211174488067627,9.219348430633545e-05,-0.007864706218242645,-0.2402966182303695,1.4467045615279264,0.21228835017303152,0.9637989401817322,0.23799073696136475,-0.1202172115445137, 314, 294, 231, 294
1730926867354,6i,13.373392926384264,0.7s : 0.2s,-27.120452168221995,0.00010668111923185558,0.0011364699820825342,0.010411541595355199,-0.006856624037027359,0.010074215941131115,0.0007259361445903778,-0.004338383674621582,-0.007791757583618164,-0.005372814834117889,-0.24035448139602056,1.4467928575233073,0.2123122686474414,0.9637959003448486,0.23804692924022675,-0.12013041228055954, 314, 294, 231, 294
1730926867364,6i,13.373392926384264,0.7s : 0.2s,-27.120452168221995,0.00017266656820111046,0.0017473198006374173,0.012887347168877688,0.00032112770713865757,0.011720049194991589,0.0021941368468105793,-0.002560257911682129,-0.011345922946929932,-0.00554966926574707,-0.2403847079413792,1.4469120942698395,0.2123504043890545,0.9638031125068665,0.23807628452777863,-0.12001460045576096, 314, 294, 231, 294
1730926867374,6i,13.373392926384264,0.7s : 0.2s,-27.120452168221995,0.00025566748358356236,0.002212811335122082,0.012297880180870312,0.008997040800750256,0.009279217571020126,0.00306275999173522,-0.0020708441734313965,-0.011150985956192017,-0.00475446879863739,-0.24035682612895137,1.4469744684717403,0.21229614645139808,0.9638171195983887,0.2380492091178894,-0.11995530128479004, 314, 294, 231, 294
1730926867384,6i,13.373392926384264,0.7s : 0.2s,-27.120452168221995,0.00034902036882810154,0.0029271232136569313,0.009335129310779285,0.018545007333159447,0.006976649165153503,0.0038398702163249254,0.0022584199905395508,-0.007350817322731018,-0.005292415618896484,-0.24029325605686613,1.4470121458272824,0.21214647488801236,0.9638367295265198,0.2379874736070633,-0.11992086470127106, 314, 294, 231, 294
1730926867394,6i,13.373392926384264,0.7s : 0.2s,-27.120452168221995,0.00044125401230137967,0.0036412065123489195,0.006007473889377562,0.016789715737104416,0.005276309326291084,0.0023231999948620796,0.004111230373382568,-0.0032420605421066284,-0.0029456019401550293,-0.2401947358272678,1.4470182880812297,0.21196407680612664,0.9638607501983643,0.2378917783498764,-0.1199178397655487, 314, 294, 231, 294
1730926867404,6i,13.373392926384264,0.7s : 0.2s,-27.120452168221995,0.0005328951664578992,0.003710465324329843,0.005431564395720216,0.009740062989294529,-0.002170954365283251,0.003241191618144512,0.0026640892028808594,-0.004483118653297424,-0.0015186071395874023,-0.24012141219923097,1.4469806075220113,0.21183058112993333,0.963873565196991,0.2378205507993698,-0.11995631456375122, 314, 294, 231, 294
1730926867414,6i,13.373392926384264,0.7s : 0.2s,-27.120452168221995,0.0006215787283570688,0.0029694205966290872,0.008143661165111825,-0.0049010650254786015,-0.004742813296616077,0.004740651696920395,0.002763032913208008,-0.0071350932121276855,0.0027884244918823242,-0.24010258104801227,1.4468820408075955,0.21179536795755377,0.9638661742210388,0.23780226707458496,-0.12005186825990677, 314, 294, 231, 294
1730926867424,6i,13.373392926384264,0.7s : 0.2s,-27.120452168221995,0.0007141579102982956,0.001928722445642931,0.009309613429466316,-0.013765929266810417,-0.006434720009565353,0.005414697341620922,0.0035942792892456055,-0.008539855480194092,0.0009060502052307129,-0.2400721586508249,1.446762023974133,0.2118821817660102,0.9638588428497314,0.23777271807193756,-0.12016844004392624, 314, 294, 231, 294
1730926867434,6i,13.373392926384264,0.7s : 0.2s,-27.120452168221995,0.0008077431062401309,0.0019868958638522166,0.006505780044963132,-0.019584137946367264,-0.005897382274270058,0.01211574301123619,0.001759648323059082,-0.0061187297105789185,0.001337893307209015,-0.23995159945622005,1.446681778096576,0.21205032864715992,0.9638777375221252,0.2376556098461151,-0.12024933844804764, 314, 294, 231, 294
1730926867444,6i,13.373392926384264,0.7s : 0.2s,-27.120452168221995,0.0008990253416876459,0.0033167284758479887,0.003323583915694455,-0.021877652034163475,-0.006325352005660534,0.010770048014819622,0.0023201704025268555,-0.0019004493951797485,-0.0014322400093078613,-0.2397717988494356,1.446616726432253,0.21225639024590415,0.963912308216095,0.23748095333576202,-0.12031733989715576, 314, 294, 231, 294
1730926867454,6i,13.373392926384264,0.7s : 0.2s,-27.120452168221995,0.0009842723664265475,0.004933231303611783,0.0053111446551161075,-0.023532671853899956,-0.007945042103528976,0.010578067973256111,-0.0020431876182556152,0.0024212896823883057,-0.004262745380401611,-0.23961109736319883,1.4465504518864571,0.21248288630906983,0.9639422297477722,0.23732484877109528,-0.12038595229387283, 314, 294, 231, 294
1730926867464,6i,13.373392926384264,0.7s : 0.2s,-27.120452168221995,0.0010632674360512749,0.006112411940069824,0.008642622615414222,-0.02470606192946434,-0.007058475632220507,0.006904236972332001,-0.003894627094268799,0.004076957702636719,-0.006550207734107971,-0.23949319809520397,1.4464892600602477,0.21272583316412,0.9639626741409302,0.23721031844615936,-0.12044841051101685, 314, 294, 231, 294
1730926867474,6i,13.373392926384264,0.7s : 0.2s,-27.120452168221995,0.0011341422685121829,0.0070153784475931015,0.006485235921953626,-0.020026488229632378,-0.007512588985264301,0.008458823896944523,-0.003497898578643799,0.0035573989152908325,-0.004143416881561279,-0.2394154572331749,1.44646422602785,0.2129657398253606,0.9639777541160583,0.23713479936122894,-0.12047480791807175, 314, 294, 231, 294
1730926867484,6i,13.373392926384264,0.7s : 0.2s,-27.120452168221995,0.0011937834123266701,0.00697203789209622,0.007457473297968648,-0.006394033320248127,-0.011726242490112782,0.0028307654429227114,-0.0032783150672912598,0.005631595849990845,-0.003626525402069092,-0.23933794817564658,1.4463894108241426,0.2130966977327379,0.9639871120452881,0.23705950379371643,-0.12054922431707382, 314, 294, 231, 294
1730926867494,6i,13.373392926384264,0.7s : 0.2s,-27.120452168221995,0.0012394490859774616,0.0063543986831873225,0.011418908324726874,0.0022101078648120165,-0.009548930451273918,-0.0009799515828490257,-0.0026097893714904785,0.009803131222724915,-0.005242049694061279,-0.23928474206347874,1.4463099817842426,0.2131091397863736,0.9639899730682373,0.23700781166553497,-0.12062735110521317, 314, 294, 231, 294
1730926867504,6i,13.373392926384264,0.7s : 0.2s,-27.120452168221995,0.0012792070048522131,0.005922056789537779,0.012140250827179332,0.0003059476148337126,-0.007263406179845333,0.00012126518413424492,-0.0026916861534118652,0.009189173579216003,-0.007463216781616211,-0.23922563243208292,1.4462415190079563,0.21310620994175,0.9639955163002014,0.23695038259029388,-0.1206950768828392, 314, 294, 231, 294
1730926867514,6i,13.373392926384264,0.7s : 0.2s,-27.120452168221995,0.0013185441490827302,0.006280722443675167,0.007111998196627344,-0.010870940051972866,-0.010729821398854256,0.0013773120008409023,-0.004919767379760742,0.003929108381271362,-0.003307342529296875,-0.23918986951449367,1.4461736732216184,0.213165348138683,0.9639958143234253,0.23691563308238983,-0.12076154351234436, 314, 294, 231, 294
1730926867524,6i,13.373392926384264,0.7s : 0.2s,-27.120452168221995,0.0013649349998240312,0.007146391485599908,0.004800308192721794,-0.021713733673095703,-0.010113565251231194,0.00017942208796739578,-0.0031716227531433105,-0.003457680344581604,-0.0010140091180801392,-0.23919149696234976,1.4461056360251054,0.21334926288912728,0.9639872908592224,0.23691721260547638,-0.1208270937204361, 314, 294, 231, 294
1730926867534,6i,13.373392926384264,0.7s : 0.2s,-27.120452168221995,0.0014169732668157756,0.007367317878033478,0.0054444691756150255,-0.01077799592167139,-0.010587608441710472,-0.0008034175261855125,-0.0009965896606445312,-0.005351349711418152,-0.00011004507541656494,-0.23924022212905613,1.4460052971716755,0.21352286537303453,0.9639638066291809,0.23696455359458923,-0.12092238664627075, 314, 294, 231, 294
1730926867544,6i,13.373392926384264,0.7s : 0.2s,-27.120452168221995,0.0014621899622777122,0.006704134872331171,0.001974864313352304,0.0039383661933243275,-0.008166261948645115,-0.0021395254880189896,-0.0008131265640258789,0.001719444990158081,0.0005314350128173828,-0.23929685934746237,1.4458605024394044,0.2135434836045969,0.9639328122138977,0.2370195835828781,-0.12106027454137802, 314, 294, 231, 294
1730926867554,6i,13.373392926384264,0.7s : 0.2s,-27.120452168221995,0.0014906544045929643,0.005284605848132384,0.014200396180483825,0.02223854511976242,-0.006162500008940697,-0.002080470323562622,0.00011229515075683594,0.013972386717796326,-0.0025320053100585938,-0.23932816952861122,1.44571334309483,0.2133938329480016,0.9639075994491577,0.23704999685287476,-0.12120119482278824, 314, 294, 231, 294
1730926867564,6i,13.373392926384264,0.7s : 0.2s,-27.120452168221995,0.0015068744139937976,0.004689864736933625,0.021172375822439332,0.020805763080716133,-0.010417965240776539,-0.004129239823669195,-0.0011988282203674316,0.020259767770767212,-0.0060310959815979,-0.2393744777882545,1.4455427540651438,0.2131599887445612,0.9638760685920715,0.23709498345851898,-0.12136425822973251, 314, 294, 231, 294
1730926867574,6i,13.373392926384264,0.7s : 0.2s,-27.120452168221995,0.0015261854780528568,0.004770142579679416,0.016030271446138417,0.013046776875853539,-0.011389974504709244,-0.003686256241053343,-0.0029686689376831055,0.014520719647407532,-0.006107807159423828,-0.23947054838578946,1.445350262071767,0.21296780141007238,0.9638300538063049,0.23718830943107605,-0.12154694646596909, 314, 294, 231, 294
1730926867584,6i,13.373392926384264,0.7s : 0.2s,-27.120452168221995,0.0015505016699596805,0.004899539700818944,0.005798531792665546,0.011386295780539513,-0.00928634312003851,-0.005072164814919233,-0.0018810629844665527,0.005427628755569458,-0.0007908344268798828,-0.239579326646772,1.4451497627250647,0.2128284755130379,0.9637800455093384,0.23729398846626282,-0.12173695117235184, 314, 294, 231, 294
1730926867594,6i,13.373392926384264,0.7s : 0.2s,-27.120452168221995,0.0015826516646680704,0.0051282238919847945,0.004993669822653093,0.013686866499483585,-0.008374610915780067,-0.004670926369726658,-0.004730880260467529,0.0015933364629745483,-0.0001295730471611023,-0.2396465595247638,1.4449999128123237,0.21269343844438532,0.9637459516525269,0.23735930025577545,-0.12187936156988144, 314, 294, 231, 294
1730926867604,6i,13.373392926384264,0.7s : 0.2s,-27.120452168221995,0.001626586884660204,0.017372185052644595,0.006927237205351087,0.01437316369265318,0.0898214653134346,-0.04202175885438919,-0.005741298198699951,0.002724885940551758,-0.002756647765636444,-0.2397540747151116,1.445110036235633,0.21251157576697113,0.963733971118927,0.23746374249458313,-0.12177002429962158, 314, 294, 231, 294
1730926867614,6i,13.373392926384264,0.7s : 0.2s,-27.120452168221995,0.0016885093510444222,0.2061324709309003,0.010745240265332757,-0.0027677398175001144,0.7430262565612793,-0.6167462468147278,-0.009661257266998291,0.000898405909538269,-0.0046166181564331055,-0.24014210048126727,1.445096446853066,0.21231183192754693,0.9636409878730774,0.2378406524658203,-0.12177158147096634, 314, 294, 231, 294
1730926867624,6i,13.373392926384264,0.7s : 0.2s,-27.120452168221995,0.0016699607201991424,0.34572730069966423,0.04387033788364106,0.04219414293766022,0.7993260025978088,-0.601196825504303,0.04379618167877197,-0.0025475919246673584,-0.00010388344526290894,-0.23924419179821305,1.4440674156253759,0.21256645855812586,0.9637265205383301,0.23696841299533844,-0.12279006093740463, 314, 294, 231, 294
1730926867634,6i,13.373392926384264,0.7s : 0.2s,-27.120452168221995,0.001656999098479918,0.2895384826488161,0.024840822765948498,-0.0095084672793746,0.17536965012550354,-0.15933480858802795,-0.018978655338287354,-0.008352324366569519,0.013679027557373047,-0.23936072324386426,1.444043551401064,0.21264454309398206,0.9636962413787842,0.2370816171169281,-0.12280957400798798, 314, 294, 231, 294
1730926867644,6i,13.373392926384264,0.7s : 0.2s,-27.120452168221995,0.001666251767318473,0.19662367711593579,0.02165674617696037,-0.011638996191322803,-0.029298534616827965,0.011345057748258114,-0.019439339637756348,-0.00936610996723175,-0.001844644546508789,-0.23974455551117133,1.4443065314264443,0.21265083907480048,0.9636381268501282,0.23745448887348175,-0.12254464626312256, 314, 294, 231, 294
1730926867654,6i,13.373392926384264,0.7s : 0.2s,-27.120452168221995,0.0016687278202483825,0.13691714436305494,0.010216375436727631,0.005266751162707806,-0.014087356626987457,-0.011201863177120686,0.0034537315368652344,-0.007251337170600891,0.006313808262348175,-0.239766639785574,1.4441843459326755,0.21267085592302892,0.9636179208755493,0.2374759465456009,-0.12266172468662262, 314, 294, 231, 294
1730926867664,6i,13.373392926384264,0.7s : 0.2s,-27.120452168221995,0.0016688984644124473,0.09567014973608745,0.004929306367332869,0.0006040885346010327,-0.006457666400820017,-0.006076876074075699,-0.0004886984825134277,-0.0030733197927474976,0.003822818398475647,-0.23984818909660408,1.444138241654341,0.21268479920849861,0.9635930061340332,0.23755516111850739,-0.12270369380712509, 314, 294, 231, 294
1730926867674,6i,13.373392926384264,0.7s : 0.2s,-27.120452168221995,0.001666306287661733,0.06635599139553265,0.005856381794861504,-0.0015191166894510388,-0.007249380461871624,-0.0034645479172468185,-0.003783106803894043,-0.00305214524269104,0.003266453742980957,-0.2398892234139525,1.44408092131888,0.21266411472725077,0.9635763764381409,0.23759502172470093,-0.12275771051645279, 314, 294, 231, 294
1730926867684,6i,13.373392926384264,0.7s : 0.2s,-27.120452168221995,0.0016609091756195086,0.04585305850862063,0.008270998727076062,-0.005631836596876383,-0.006279457360506058,-0.002269321121275425,-0.0073094964027404785,-0.0032047778367996216,0.002170272171497345,-0.23992069918568862,1.444029894367799,0.2127107455498726,0.9635627269744873,0.2376255989074707,-0.12280593067407608, 314, 294, 231, 294
1730926867694,6i,13.373392926384264,0.7s : 0.2s,-27.120452168221995,0.0016550890284945594,0.032905026993626206,0.0037731497716506105,-0.007571017369627953,0.0017545453738421202,-0.0035374187864363194,0.0014707446098327637,-0.0026519745588302612,0.0022451281547546387,-0.2399485180493398,1.4440304903597725,0.21276318149064619,0.9635562896728516,0.23765261471271515,-0.12280452996492386, 314, 294, 231, 294
1730926867704,6i,13.373392926384264,0.7s : 0.2s,-27.120452168221995,0.001645126483113445,0.023819500034221532,0.005507550346066953,-0.004589342046529055,0.003160960739478469,-0.0018601599149405956,-0.005133688449859619,-0.00015138089656829834,0.001988828182220459,-0.2399818592191513,1.4440737394721042,0.21282406776296894,0.9635536670684814,0.23768500983715057,-0.12276184558868408, 314, 294, 231, 294
1730926867714,6i,13.373392926384264,0.7s : 0.2s,-27.120452168221995,0.0016348900766727293,0.018193019469674533,0.004715569022425632,-0.0016136589692905545,-0.0005543709266930819,-0.0005152970552444458,-0.004659533500671387,0.000706598162651062,-0.00016142427921295166,-0.23999398446930123,1.4440879624331433,0.21285317180252944,0.963552713394165,0.2376967817544937,-0.12274779379367828, 314, 294, 231, 294
1730926867724,6i,13.373392926384264,0.7s : 0.2s,-27.120452168221995,0.0016307538380890127,0.015852570658193593,0.003937096459020116,0.003220511134713888,-0.002798350527882576,-0.0019089290872216225,0.001676023006439209,0.002652078866958618,-0.002378687262535095,-0.24000182139798124,1.4440767822324236,0.21284797486278145,0.9635492563247681,0.23770439624786377,-0.12275830656290054, 314, 294, 231, 294
1730926867734,6i,13.373392926384264,0.7s : 0.2s,-27.120452168221995,0.0016334422383582283,0.014314978399740658,0.003788004374781474,0.0036941543221473694,0.00032380642369389534,-0.0011192681267857552,0.0015580058097839355,0.0018040239810943604,-0.0029439926147460938,-0.2400109417985865,1.4440613888055487,0.21281336747568663,0.9635453224182129,0.23771324753761292,-0.12277287244796753, 314, 294, 231, 294
1730926867744,6i,13.373392926384264,0.7s : 0.2s,-27.120452168221995,0.001646199920338803,0.012768989087300257,0.004492907609168438,0.006424160674214363,-0.0029284460470080376,-0.0009602773934602737,0.0008272528648376465,-0.0011980831623077393,-0.004250466823577881,-0.24000692287740022,1.4440396898554753,0.21276205757156832,0.9635436534881592,0.23770934343338013,-0.12279391288757324, 314, 294, 231, 294
1730926867754,6i,13.373392926384264,0.7s : 0.2s,-27.120452168221995,0.0016720353125874278,0.03125234715754171,0.006337829558193171,-0.0021482883021235466,0.1122111901640892,-0.028974201530218124,0.0012424588203430176,-0.002046063542366028,-0.005868390202522278,-0.24009449390316073,1.4443067167610293,0.21270687371769967,0.9635558724403381,0.2377944141626358,-0.12253399938344955, 314, 294, 231, 294
1730926867794,6i,13.373392926384264,0.7s : 0.2s,-27.120452168221995,0.0017448826572375356,0.026026457087087947,0.014802328499575239,-0.00351635436527431,-0.018708741292357445,0.016939494758844376,-0.012583315372467041,0.007037222385406494,-0.003353595733642578,-0.24059275172399192,1.443660631991213,0.21290247935570886,0.9633586406707764,0.2382783442735672,-0.12314145267009735, 314, 294, 231, 294
1730926867824,6i,13.373392926384264,0.7s : 0.2s,-27.120452168221995,0.001782614316862404,0.032339611293460344,0.008966690419355272,0.003500276245176792,0.03417462483048439,-0.07514489442110062,-0.008178174495697021,-0.003504529595375061,0.001112326979637146,-0.24071636062885532,1.443440095685752,0.21296005707098348,0.9633023738861084,0.23839838802814484,-0.12335018068552017, 314, 294, 231, 294
1730926867814,6i,13.373392926384264,0.7s : 0.2s,-27.120452168221995,0.001757026359970614,0.022575812837115475,0.011975944337710437,-0.0007956689223647118,-0.005384235642850399,-0.005022530443966389,0.01132112741470337,-0.0014953315258026123,-0.003608226776123047,-0.24067434232325538,1.443494710994008,0.2129934946807872,0.9633190035820007,0.23835758864879608,-0.12329883128404617, 314, 294, 231, 294
1730926867854,6i,13.373392926384264,0.7s : 0.2s,-27.120452168221995,0.001882153020007515,0.09708144208613545,0.0042521797900435246,0.011722253635525703,0.22868125140666962,-0.33355724811553955,0.0021020174026489258,-0.0024847686290740967,-0.002736508846282959,-0.24064041513162632,1.4430819373304806,0.2127728356896804,0.9632759690284729,0.23832464218139648,-0.12369748204946518, 314, 294, 231, 294
1730926867864,6i,13.373392926384264,0.7s : 0.2s,-27.120452168221995,0.0019200578735521071,0.17189335036500206,0.00834906628939752,0.01218271441757679,0.29851120710372925,-0.4210466146469116,-0.002968311309814453,-0.007178083062171936,-0.003061234951019287,-0.24066528463078046,1.4431647411808235,0.21278278798907602,0.963280439376831,0.2383487969636917,-0.12361697107553482, 314, 294, 231, 294
1730926867874,6i,13.373392926384264,0.7s : 0.2s,-27.120452168221995,0.0019636461243169867,0.24696533480523206,0.007125987993167492,0.015169980935752392,0.3682544231414795,-0.5097517967224121,-0.0030832886695861816,-0.005510672926902771,-0.003302350640296936,-0.24072379399028435,1.4430963814946396,0.21276239081492787,0.9632581472396851,0.23840561509132385,-0.12368103861808777, 314, 294, 231, 294
1730926867884,6i,13.373392926384264,0.7s : 0.2s,-27.120452168221995,0.0020129628646765336,0.3215523482428406,0.006640506525119833,0.015588364563882351,0.432882696390152,-0.5981181263923645,-0.0010022521018981934,-0.0059266239404678345,-0.002822577953338623,-0.24071218180786358,1.4430264186793547,0.21276199119269856,0.9632521867752075,0.2383943349123001,-0.123748779296875, 314, 294, 231, 294
1730926867894,6i,13.373392926384264,0.7s : 0.2s,-27.120452168221995,0.002065068935020448,0.3977879393861006,0.005201739677416201,0.017157630994915962,0.5112433433532715,-0.6886816620826721,3.600120544433594e-05,-0.0049381256103515625,-0.0016345381736755371,-0.2406998652147864,1.4429973822368578,0.2127808584414145,0.963251531124115,0.23838236927986145,-0.1237771287560463, 314, 294, 231, 294
1730926867904,6i,13.373392926384264,0.7s : 0.2s,-27.120452168221995,0.002113753655076197,0.4736718856504298,0.004894546758978439,0.021161161363124847,0.5809228420257568,-0.7761672735214233,-0.001663804054260254,-0.004508212208747864,0.000929713249206543,-0.24066569247613787,1.4429817830230414,0.2127948070697656,0.9632576107978821,0.23834918439388275,-0.12379318475723267, 314, 294, 231, 294
1730926867914,6i,13.373392926384264,0.7s : 0.2s,-27.120452168221995,0.0021588711520783574,0.5497299985214157,0.002685813472780429,0.034539949148893356,0.6567827463150024,-0.8613547086715698,-0.0024785399436950684,-0.001016363501548767,-0.00019349157810211182,-0.24062109745199728,1.4429453654925568,0.2127479918296437,0.963263750076294,0.23830588161945343,-0.12382963299751282, 314, 294, 231, 294
1730926867924,6i,13.373392926384264,0.7s : 0.2s,-27.120452168221995,0.0022029870588792188,0.6036545738858896,0.006105531660206523,0.036278460174798965,0.6797900199890137,-0.8479896187782288,-0.0013488531112670898,0.004762202501296997,-0.003574848175048828,-0.2405157537503726,1.44286314993327,0.21264248894800683,0.9632783532142639,0.23820357024669647,-0.1239120215177536, 314, 294, 231, 294
1730926867844,6i,13.373392926384264,0.7s : 0.2s,-27.120452168221995,0.0018515949789348674,0.48207305119025085,0.0050559276669588865,0.00848065409809351,0.16175761818885803,-0.24819709360599518,0.0031278133392333984,0.0026273727416992188,-0.002979278564453125,-0.24073424541840077,1.4431092015978595,0.21279528838858025,0.9632572531700134,0.23841576278209686,-0.1236683800816536, 314, 294, 231, 294
1730926867984,6i,13.373392926384264,0.7s : 0.2s,-27.120452168221995,0.0023902438818354534,0.5101304345692667,0.010557974888772883,0.031492363661527634,0.603338360786438,-0.6156628131866455,-0.004350483417510986,0.00908544659614563,-0.003162086009979248,-0.24008639424707695,1.442749195788011,0.2126030060944877,0.9633654952049255,0.23778654634952545,-0.1240348294377327, 314, 294, 231, 294
1730926868014,6i,13.373392926384264,0.7s : 0.2s,-27.120452168221995,0.002494242660807901,0.5068752930196848,0.0012550121188795477,0.007489425595849752,0.5393983721733093,-0.49875110387802124,-0.0008184313774108887,0.0008231103420257568,0.00047719478607177734,-0.23990542134868978,1.4427152514927692,0.21257295441881985,0.9634040594100952,0.23761075735092163,-0.12407302856445312, 314, 294, 231, 294
1730926868004,6i,13.373392926384264,0.7s : 0.2s,-27.120452168221995,0.0024633853171760985,0.5086044584391662,0.004310040912116819,0.012586448341608047,0.5628828406333923,-0.5374757647514343,4.6193599700927734e-05,0.004183292388916016,-0.001036524772644043,-0.23994921057016472,1.4427170105763893,0.2124950535405957,0.9633939266204834,0.23765328526496887,-0.12407000362873077, 314, 294, 231, 294
1730926868034,6i,13.373392926384264,0.7s : 0.2s,-27.120452168221995,0.0025532136398652523,0.48557470222908,0.0030493257118249374,0.00887573417276144,0.489761084318161,-0.423953115940094,-0.0012192130088806152,0.002284020185470581,-0.0016109496355056763,-0.23986238419865485,1.442666656072613,0.2127280962489877,0.9634082317352295,0.2375689595937729,-0.12412115931510925, 314, 294, 231, 294
1730926868044,6i,13.373392926384264,0.7s : 0.2s,-27.120452168221995,0.002579263444516553,0.4611048601046561,0.005098506563699035,0.0158177949488163,0.46510207653045654,-0.38681560754776,-0.00012409687042236328,0.005045011639595032,-0.0007261037826538086,-0.23983180496722944,1.4426361155015577,0.21274059181495839,0.9634115695953369,0.23753924667835236,-0.12415150552988052, 314, 294, 231, 294
1730926868054,6i,13.373392926384264,0.7s : 0.2s,-27.120452168221995,0.0026001875332581754,0.4353184384217646,0.005434748869842978,0.015914201736450195,0.436842679977417,-0.35196322202682495,-0.000947117805480957,0.0053513795137405396,-4.690885543823242e-05,-0.23981489329868494,1.4425968807962526,0.21269668411704204,0.9634106755256653,0.23752282559871674,-0.1241898238658905, 314, 294, 231, 294
1730926868024,6i,13.373392926384264,0.7s : 0.2s,-27.120452168221995,0.002545499303124315,0.4439707279265372,0.0020646458195554065,0.006378620862960815,0.5147953033447266,-0.46215659379959106,-0.0019828081130981445,-0.0005541890859603882,0.00015527009963989258,-0.23987813894274174,1.4427017733185992,0.21267071871909088,0.9634087681770325,0.23758426308631897,-0.12408684194087982, 314, 294, 231, 294
1730926868064,6i,13.373392926384264,0.7s : 0.2s,-27.120452168221995,0.0025904531531727535,0.414623818212231,0.0070773863671202055,0.016678795218467712,0.4095974564552307,-0.31571120023727417,-0.00013703107833862305,0.007030397653579712,0.0008025765419006348,-0.23979862234259908,1.4425551049452408,0.21264223281402037,0.9634093046188354,0.23750701546669006,-0.12423055619001389, 314, 294, 231, 294
1730926868074,6i,13.373392926384264,0.7s : 0.2s,-27.120452168221995,0.0025959053730033738,0.38629985249175947,0.008792972197163301,0.014598600566387177,0.3846403658390045,-0.28434109687805176,-0.0017988085746765137,0.008512139320373535,0.0012744143605232239,-0.23979688341424232,1.442540460578937,0.21257407965973868,0.9634078145027161,0.23750533163547516,-0.12424470484256744, 314, 294, 231, 294
1730926868084,6i,13.373392926384264,0.7s : 0.2s,-27.120452168221995,0.0025987307177034557,0.3577124945441706,0.008060684214251258,0.013915233314037323,0.35549259185791016,-0.25023478269577026,-0.004257559776306152,0.00683574378490448,0.0003470182418823242,-0.23979475720350807,1.4425529259460725,0.2125238122860611,0.963409960269928,0.2375032603740692,-0.12423277646303177, 314, 294, 231, 294
1730926868094,6i,13.373392926384264,0.7s : 0.2s,-27.120452168221995,0.0025948706015725296,0.32963439769393343,0.0076456766399377145,0.010567772202193737,0.32486364245414734,-0.22353754937648773,-0.0025463104248046875,0.006666705012321472,0.002743668854236603,-0.23981169998338536,1.4425670846797136,0.21248044595178595,0.9634076356887817,0.23751972615718842,-0.12421860545873642, 314, 294, 231, 294
1730926868224,6i,13.373392926384264,0.7s : 0.2s,-27.120452168221995,0.0027802390376642323,0.23307670895663563,0.004114021246666983,0.009936603717505932,0.013530688360333443,-0.0009546186774969101,-0.003732144832611084,0.0014096051454544067,-0.001004628837108612,-0.24032268452881725,1.4432581755940712,0.21258514820840915,0.9633728265762329,0.2380160540342331,-0.1235373318195343, 314, 294, 231, 294
1730926868234,6i,13.373392926384264,0.7s : 0.2s,-27.120452168221995,0.002809320001010303,0.16541662027004309,0.003923511588304725,0.006769439671188593,0.01466515101492405,0.001149844378232956,-0.0037960410118103027,-0.0005676895380020142,-0.0008134767413139343,-0.24031619029463552,1.4433926168188782,0.2124961685387616,0.9633908867835999,0.2380097359418869,-0.1234080046415329, 314, 294, 231, 294
1730926868244,6i,13.373392926384264,0.7s : 0.2s,-27.120452168221995,0.002831556170010606,0.11767361652159054,0.0053368572465560035,0.0026503284461796284,0.012605728581547737,0.0015210891142487526,0.0013570785522460938,-0.0050648897886276245,0.0009936168789863586,-0.24029622516194174,1.4435131386119064,0.21244989524346344,0.963410496711731,0.2379903495311737,-0.12329249829053879, 314, 294, 231, 294
1730926868254,6i,13.373392926384264,0.7s : 0.2s,-27.120452168221995,0.002848735692070489,0.084153036736152,0.010494127775861341,-1.962378155440092e-05,0.011876067146658897,0.0014070062898099422,0.006625175476074219,-0.007941216230392456,-0.001780688762664795,-0.24030414049346235,1.4436208756622986,0.2124355711650787,0.9634220004081726,0.23799803853034973,-0.12318847328424454, 314, 294, 231, 294
1730926868264,6i,13.373392926384264,0.7s : 0.2s,-27.120452168221995,0.0028603599219118874,0.060696918922872684,0.01149509049118837,0.006009240169078112,0.011206548660993576,0.0012440208811312914,0.007860183715820312,-0.008165806531906128,-0.0019168257713317871,-0.24026826973986065,1.4436840781685907,0.21240393059644477,0.9634382128715515,0.23796319961547852,-0.12312866002321243, 314, 294, 231, 294
1730926868274,6i,13.373392926384264,0.7s : 0.2s,-27.120452168221995,0.002870463683869156,0.04401721082425325,0.00794965725398753,0.01599782519042492,0.008694076910614967,0.0024179755710065365,0.0065361857414245605,-0.003951758146286011,-0.002204298973083496,-0.24018704077642303,1.4437474526028593,0.21229174677294566,0.9634652733802795,0.2378842979669571,-0.12307006120681763, 314, 294, 231, 294
1730926868284,6i,13.373392926384264,0.7s : 0.2s,-27.120452168221995,0.0028846387516760622,0.03220947903098581,0.006527966417216908,0.010912785306572914,0.008568376302719116,0.00441028643399477,0.0050803422927856445,0.0031516999006271362,-0.0026213079690933228,-0.24011589574585973,1.4437865487074952,0.21216027239044757,0.9634868502616882,0.23781520128250122,-0.1230345368385315, 314, 294, 231, 294
1730926868294,6i,13.373392926384264,0.7s : 0.2s,-27.120452168221995,0.0029062836264657755,0.024508946084886397,0.005491661608533603,0.005372079089283943,0.007426323834806681,0.007096683606505394,0.0006966590881347656,0.004477694630622864,-0.003102138638496399,-0.2400545836434187,1.4438282883265356,0.2120792813253087,0.9635065197944641,0.2377556413412094,-0.12299617379903793, 314, 294, 231, 294
1730926868304,6i,13.373392926384264,0.7s : 0.2s,-27.120452168221995,0.0029358170587473493,0.021746455923288634,0.004528078356610835,-0.001183558371849358,0.009428221732378006,0.009854919277131557,0.00013959407806396484,0.0017922669649124146,-0.004155933856964111,-0.23999161143228456,1.4438945698714323,0.21206667211771307,0.9635294079780579,0.23769447207450867,-0.12293419241905212, 314, 294, 231, 294
1730926868314,6i,13.373392926384264,0.7s : 0.2s,-27.120452168221995,0.0029736955794956734,0.019600646904498902,0.004954824784485658,-0.009993561543524265,0.006505047902464867,0.010326764546334743,-0.0005910992622375488,0.0007460564374923706,-0.00486253947019577,-0.23990619535765695,1.443965446522391,0.21211942827828958,0.9635581374168396,0.23761150240898132,-0.12286845594644547, 314, 294, 231, 294
1730926868324,6i,13.373392926384264,0.7s : 0.2s,-27.120452168221995,0.003027186246134256,0.0177748797701951,0.008587447486611914,-0.009336027316749096,0.006839540787041187,0.009401582181453705,-0.0017637014389038086,0.0021242350339889526,-0.008131496608257294,-0.23977550469426898,1.4440682492051007,0.2122345525260586,0.9636015892028809,0.23748455941677094,-0.12277332693338394, 314, 294, 231, 294
1730926868334,6i,13.373392926384264,0.7s : 0.2s,-27.120452168221995,0.0030975892651722435,0.016166698689052635,0.010329360724625779,-0.00014559132978320122,0.005585857667028904,0.010722876526415348,-0.0037659406661987305,0.004117637872695923,-0.008692435920238495,-0.239592664561749,1.4441176259440733,0.21230692176604649,0.9636507034301758,0.23730695247650146,-0.12273123115301132, 314, 294, 231, 294
1730926868344,6i,13.373392926384264,0.7s : 0.2s,-27.120452168221995,0.003184528348158637,0.0149031215859881,0.012054354004030678,0.007741093635559082,0.005629267543554306,0.006500967312604189,-0.004311621189117432,0.007466733455657959,-0.00842408835887909,-0.23942793103961507,1.4441451927759725,0.2122768862422689,0.9636927843093872,0.23714691400527954,-0.12270959466695786, 314, 294, 231, 294
1730926868354,6i,13.373392926384264,0.7s : 0.2s,-27.120452168221995,0.0032879453914946796,0.013637172811615222,0.014367634756060182,0.014262775890529156,0.0017673728289082646,0.007714803330600262,-0.006233930587768555,0.01006808876991272,-0.008136376738548279,-0.23929469441654244,1.444135720266883,0.21217197492092893,0.9637230038642883,0.23701748251914978,-0.12272272258996964, 314, 294, 231, 294
1730926868364,6i,13.373392926384264,0.7s : 0.2s,-27.120452168221995,0.0034021239542274613,0.012372257899158693,0.013302393082451267,0.024653099477291107,-0.005601593758910894,0.007031702436506748,-0.003720581531524658,0.011219590902328491,-0.006101779639720917,-0.23922458235122254,1.4440376137210271,0.21196814038110115,0.9637274146080017,0.2369493693113327,-0.12281936407089233, 314, 294, 231, 294
1730926868374,6i,13.373392926384264,0.7s : 0.2s,-27.120452168221995,0.00352335250943959,0.01143646330001647,0.011276882113803776,0.02372884936630726,-0.006006171926856041,0.0072248149663209915,0.0020676255226135254,0.009288817644119263,-0.00605069100856781,-0.23917014721137878,1.4438912891760631,0.21171053027272002,0.9637222290039062,0.23689647018909454,-0.12296201288700104, 314, 294, 231, 294
1730926868384,6i,13.373392926384264,0.7s : 0.2s,-27.120452168221995,0.003648517930844779,0.010734039279327137,0.008597690803402926,0.020572204142808914,-0.0056615592911839485,0.006440247409045696,0.0008329153060913086,0.006758183240890503,-0.005249142646789551,-0.23908925474012374,1.4437270254204988,0.2114747183670948,0.9637210965156555,0.2368178814649582,-0.12312275171279907, 314, 294, 231, 294
1730926868414,6i,13.373392926384264,0.7s : 0.2s,-27.120452168221995,0.0039917093816597814,0.008851250390774997,0.006429218792084064,-0.007550910115242004,-0.009354786947369576,0.0016822107136249542,-0.002425253391265869,-0.005710572004318237,-0.0016859322786331177,-0.23899744786908003,1.4432466794446892,0.2113673740683551,0.9636834859848022,0.23672868311405182,-0.1235884353518486, 314, 294, 231, 294
1730926868404,6i,13.373392926384264,0.7s : 0.2s,-27.120452168221995,0.0038827738322232495,0.0074060509435849384,0.005022106570187608,-0.0051079923287034035,-0.006641291547566652,0.006214378401637077,-0.0033332109451293945,-0.0023570656776428223,-0.002924978733062744,-0.23898524836051374,1.4434085569405724,0.2113052377634696,0.9637063145637512,0.2367168366909027,-0.12343279272317886, 314, 294, 231, 294
1730926868424,6i,13.373392926384264,0.7s : 0.2s,-27.120452168221995,0.004072216992944105,0.006256794360358555,0.0052201188643676375,0.0002723917132243514,-0.008187789469957352,0.0012004449963569641,0.00011444091796875,-0.005213871598243713,-0.0002282261848449707,-0.23906731886367893,1.44307776402665,0.2113953816876826,0.9636461138725281,0.236796572804451,-0.12374909222126007, 314, 294, 231, 294
1730926868434,6i,13.373392926384264,0.7s : 0.2s,-27.120452168221995,0.004160314245533426,0.0062756066783544,0.001725739815494801,0.014866114594042301,-0.0012762208934873343,0.0002783583477139473,0.0009594559669494629,0.0002189725637435913,-0.0014176294207572937,-0.23914507738914995,1.442931974229348,0.2112988211811201,0.9636097550392151,0.2368721216917038,-0.12388723343610764, 314, 294, 231, 294
1730926868444,6i,13.373392926384264,0.7s : 0.2s,-27.120452168221995,0.004249701500384569,0.007207020092476115,0.008054899803210945,0.029001109302043915,-0.00041415542364120483,-9.102234616875648e-05,-0.001876235008239746,0.007622554898262024,-0.001804940402507782,-0.2392204422418213,1.4428090125113668,0.21105663852737505,0.9635767340660095,0.23694534599781036,-0.12400343269109726, 314, 294, 231, 294
1730926868454,6i,13.373392926384264,0.7s : 0.2s,-27.120452168221995,0.0043367728808617,0.008011445953862413,0.012570144424093916,0.027950624004006386,-0.005480509251356125,0.00158826750703156,-0.0031186938285827637,0.012038767337799072,0.0018303990364074707,-0.2392452629225373,1.4426618078080953,0.21075283468301426,0.9635528326034546,0.236969456076622,-0.1241445392370224, 314, 294, 231, 294
1730926868464,6i,13.373392926384264,0.7s : 0.2s,-27.120452168221995,0.004419617420290827,0.008552321135556616,0.010746057578757467,0.02219286933541298,-0.0028935137670487165,0.00016560684889554977,-0.0023193955421447754,0.010213866829872131,0.0024031400680541992,-0.2392546290100925,1.4425104930831618,0.21048304828122558,0.9635317921638489,0.23697856068611145,-0.12429004907608032, 314, 294, 231, 294
1730926868474,6i,13.373392926384264,0.7s : 0.2s,-27.120452168221995,0.004495903322571843,0.00908321224321784,0.008809352713958664,0.020986458286643028,0.0018107823561877012,-0.0004665609449148178,-0.005691170692443848,0.005991220474243164,0.0030529573559761047,-0.23926615054241884,1.4424058594886797,0.210247663388254,0.9635159969329834,0.23698975145816803,-0.12439051270484924, 314, 294, 231, 294
1730926868484,6i,13.373392926384264,0.7s : 0.2s,-27.120452168221995,0.0045635154202436756,0.00947504958886567,0.006798121519337854,0.019264990463852882,0.0028763131704181433,0.0004090862348675728,-0.0063356757164001465,0.00035944581031799316,0.0024381279945373535,-0.23922036658959858,1.4423485869736723,0.2100398605414494,0.9635196924209595,0.2369452714920044,-0.12444708496332169, 314, 294, 231, 294
1730926868504,6i,13.373392926384264,0.7s : 0.2s,-27.120452168221995,0.004696405538203478,0.009577949291087722,0.009617704443343408,0.016232183203101158,-0.0006471376400440931,-0.006733844522386789,-0.00959235429763794,0.0005993396043777466,0.0003574490547180176,-0.23914623767400883,1.442261589610012,0.20961853212979234,0.9635262489318848,0.23687325417995453,-0.12453316152095795, 314, 294, 231, 294
1730926868514,6i,13.373392926384264,0.7s : 0.2s,-27.120452168221995,0.004756245082029558,0.008910253859197213,0.008512834858057228,0.004367800895124674,-0.0015485291369259357,-0.007245105225592852,-0.007878541946411133,-0.002909049391746521,0.0013908147811889648,-0.2392078825434299,1.4422165350297915,0.2095093795227719,0.9635061621665955,0.2369331419467926,-0.1245747059583664, 314, 294, 231, 294
1730926868494,6i,13.373392926384264,0.7s : 0.2s,-27.120452168221995,0.004648266136158956,0.009502246174181876,0.005730989575869579,0.021921494975686073,0.0015608890680596232,-0.004035795573145151,-0.005273580551147461,-0.0022315531969070435,-0.00023186206817626953,-0.2391702081326199,1.4423023446072998,0.20982091349696855,0.9635257124900818,0.23689652979373932,-0.12449316680431366, 314, 294, 231, 294
1730926868534,6i,13.373392926384264,0.7s : 0.2s,-27.120452168221995,0.004780165971929965,0.008673143608041528,0.01068466922344654,0.0011267338413745165,-0.0014099560212343931,-0.007652768865227699,-0.00514298677444458,-0.006447851657867432,0.006792426109313965,-0.23953643938484406,1.4421902977354644,0.2094700916778146,0.9634256362915039,0.23725232481956482,-0.12458998709917068, 314, 294, 231, 294
1730926868544,6i,13.373392926384264,0.7s : 0.2s,-27.120452168221995,0.00480853031544475,0.007775934899262372,0.007006317815201427,-0.0016988799907267094,0.0016185907879844308,-0.005316910333931446,-0.005674898624420166,-0.0033185184001922607,0.002423107624053955,-0.23969218439662288,1.442222615298939,0.2094767944901034,0.963392972946167,0.23740361630916595,-0.1245541125535965, 314, 294, 231, 294
1730926868524,6i,13.373392926384264,0.7s : 0.2s,-27.120452168221995,0.00479751929058542,0.007148840078450434,0.011249561224839322,5.853991024196148e-05,-0.0001937788911163807,-0.009256856516003609,-0.0038437843322753906,-0.007700085639953613,0.007244765758514404,-0.23934903049136547,1.4421860204422932,0.20948147996741318,0.9634691476821899,0.2370702624320984,-0.12459980696439743, 314, 294, 231, 294
1730926868554,6i,13.373392926384264,0.7s : 0.2s,-27.120452168221995,0.004789666374929285,0.006143773514781787,0.006916187655367604,-0.006309344433248043,0.004558454267680645,-0.0021917568519711494,-0.0046370625495910645,-0.002150624990463257,0.004658982157707214,-0.239793759023807,1.4422901165183812,0.20952038296949285,0.9633775353431702,0.2375022917985916,-0.12448599934577942, 314, 294, 231, 294
1730926868564,6i,13.373392926384264,0.7s : 0.2s,-27.120452168221995,0.004779229841297928,0.0053541593945477485,0.007240628533477226,-0.00484886672347784,0.00520373834297061,-0.001222898717969656,-0.003417670726776123,-0.002629116177558899,0.00581669807434082,-0.2398307663832193,1.4423701956652817,0.20958974818746437,0.9633787870407104,0.23753823339939117,-0.12440772354602814, 314, 294, 231, 294
1730926868574,6i,13.373392926384264,0.7s : 0.2s,-27.120452168221995,0.004756530585670895,0.005125642731975693,0.007218001480795873,0.003942627459764481,0.004042821936309338,0.000668844673782587,5.3822994232177734e-05,-0.0016861408948898315,0.007018089294433594,-0.2398182261629352,1.4424064912537147,0.2095857343150628,0.9633862972259521,0.2375260591506958,-0.12437314540147781, 314, 294, 231, 294
1730926868584,6i,13.373392926384264,0.7s : 0.2s,-27.120452168221995,0.004734922405334701,0.005690769187545396,0.005525231115462446,0.01585041917860508,0.004772528074681759,-0.0008275858126580715,0.00151824951171875,0.004380807280540466,0.0030052661895751953,-0.23982443218307,1.442421849766638,0.20948534513870834,0.9633867144584656,0.2375320941209793,-0.1243581548333168, 314, 294, 231, 294
1730926868594,6i,13.373392926384264,0.7s : 0.2s,-27.120452168221995,0.004725913119145546,0.006111164507859658,0.007859561256951595,0.013389259576797485,0.0073228152468800545,-0.0003656935878098011,0.001294255256652832,0.007581949234008789,-0.001616060733795166,-0.23979628099270076,1.4424522947821237,0.20933510503294567,0.9633970856666565,0.2375047355890274,-0.12432967871427536, 314, 294, 231, 294
1730926868604,6i,13.373392926384264,0.7s : 0.2s,-27.120452168221995,0.004729330737788,0.006260675015995313,0.0051447110485029115,0.011043280363082886,0.003511832095682621,-0.00015130918473005295,-0.0019989013671875,0.0037852227687835693,-0.002853862941265106,-0.23973064030216473,1.4425513207287894,0.20922479314915038,0.963424801826477,0.23744097352027893,-0.12423626333475113, 314, 294, 231, 294
1730926868614,6i,13.373392926384264,0.7s : 0.2s,-27.120452168221995,0.0047378865934555306,0.005769057683635233,0.004488566386594745,0.0022304807789623737,0.00014936947263777256,0.00048615154810249805,-0.003117978572845459,-0.002270609140396118,-0.0022955983877182007,-0.23968154749784112,1.442622794513742,0.20917531832295697,0.9634451866149902,0.23739328980445862,-0.12416888773441315, 314, 294, 231, 294
1730926868624,6i,13.373392926384264,0.7s : 0.2s,-27.120452168221995,0.004748735062001144,0.004921171508922066,0.005418151490847285,-0.0030646822415292263,-0.0034698662348091602,0.0003189048729836941,-0.0012601613998413086,-0.004314213991165161,-0.0030258744955062866,-0.23966472733334837,1.4426210420242933,0.20919566568137235,0.9634489417076111,0.23737694323062897,-0.12417108565568924, 314, 294, 231, 294
1730926868634,6i,13.373392926384264,0.7s : 0.2s,-27.120452168221995,0.004761152129432199,0.004136535644217602,0.007996031869378487,-0.005507200490683317,-0.000691878842189908,-0.003919749055057764,-0.0025716423988342285,-0.006725519895553589,-0.003477148711681366,-0.23968093282755346,1.4426454933310857,0.2092535699882218,0.9634482264518738,0.23739269375801086,-0.12414705008268356, 314, 294, 231, 294
1730926868644,6i,13.373392926384264,0.7s : 0.2s,-27.120452168221995,0.004782129219402139,0.0031064488818877104,0.009147262232565576,-0.008342668414115906,-0.005757211707532406,-0.00027974043041467667,-0.00483018159866333,-0.005434975028038025,-0.005550026893615723,-0.2397032567013354,1.4426898981084617,0.20933896158336138,0.9634485244750977,0.2374143749475479,-0.1241035908460617, 314, 294, 231, 294
1730926868654,6i,13.373392926384264,0.7s : 0.2s,-27.120452168221995,0.004808448531026847,0.0018629228093780769,0.007180798119453942,-0.01643281988799572,-0.005431063007563353,-0.003056618385016918,-0.0014452338218688965,-0.004563972353935242,-0.005352132022380829,-0.23971764366266635,1.44273745417519,0.20948288424430486,0.9634509682655334,0.23742835223674774,-0.1240573301911354, 314, 294, 231, 294
1730926868664,6i,13.373392926384264,0.7s : 0.2s,-27.120452168221995,0.0048329847189769555,0.0013279695576905654,0.009770014443713225,-0.024045731872320175,-0.006595396902412176,-0.001238744705915451,0.0006009936332702637,-0.008550435304641724,-0.0046885013580322266,-0.23980026222267276,1.4427587552396688,0.20970525541423388,0.9634342789649963,0.2375086098909378,-0.12403431534767151, 314, 294, 231, 294
1730926868674,6i,13.373392926384264,0.7s : 0.2s,-27.120452168221995,0.004855882262296198,0.0021907155232285566,0.008585047347714661,-0.019235795363783836,-0.005096303299069405,0.001594459405168891,-0.0007197260856628418,-0.00785738229751587,-0.0033832788467407227,-0.23988793847641304,1.4427474595086476,0.20992966370051852,0.9634122252464294,0.23759377002716064,-0.12404254078865051, 314, 294, 231, 294
1730926868684,6i,13.373392926384264,0.7s : 0.2s,-27.120452168221995,0.004883197702667797,0.002831368044534254,0.005808561363713674,-0.013309729285538197,-0.0036483427975326777,0.0006823267322033644,0.0018429756164550781,-0.0021647214889526367,-0.005065254867076874,-0.23993387140062872,1.4427179482580317,0.21010650454718643,0.9633976221084595,0.23763839900493622,-0.12406955659389496, 314, 294, 231, 294
1730926868694,6i,13.373392926384264,0.7s : 0.2s,-27.120452168221995,0.004922282776392587,0.00317068589198641,0.008868302566452149,-0.007505903020501137,-0.0066328588873147964,-0.0014812257140874863,0.003102123737335205,0.0024570077657699585,-0.007936418056488037,-0.2399355828192403,1.4426571675518778,0.21020631863489966,0.9633897542953491,0.23764005303382874,-0.1241280809044838, 314, 294, 231, 294
1730926868704,6i,13.373392926384264,0.7s : 0.2s,-27.120452168221995,0.004975926034657388,0.003024795906323062,0.010137809008083632,-7.674866355955601e-05,-0.004817115142941475,-0.002310267649590969,0.0021764039993286133,0.004236102104187012,-0.008949518203735352,-0.2399105286056635,1.4425691448940519,0.21023869047241603,0.9633846879005432,0.23761571943759918,-0.12421362847089767, 314, 294, 231, 294
1730926868714,6i,13.373392926384264,0.7s : 0.2s,-27.120452168221995,0.005040654845541328,0.002962353348651168,0.008366540185907647,-0.0015960820019245148,-0.0047249700874090195,-7.247971370816231e-05,0.0008043646812438965,0.003878653049468994,-0.007369399070739746,-0.2398700922831164,1.4424824556128726,0.21023109575584678,0.9633834362030029,0.2375764399766922,-0.12429837882518768, 314, 294, 231, 294
1730926868724,6i,13.373392926384264,0.7s : 0.2s,-27.120452168221995,0.00511508785343521,0.003300182067082579,0.007050182722588105,-0.008133609779179096,-0.0057966262102127075,0.0012404588051140308,-0.0029161572456359863,0.0020126402378082275,-0.00609511137008667,-0.23982755850485213,1.4423806045916425,0.2102549587425716,0.9633808135986328,0.23753511905670166,-0.12439779192209244, 314, 294, 231, 294
1730926868734,6i,13.373392926384264,0.7s : 0.2s,-27.120452168221995,0.005196613606449134,0.004235266372966007,0.007226856457319822,-0.0183861143887043,-0.006568721029907465,0.0009383561555296183,-0.003036320209503174,-0.0011843442916870117,-0.006450235843658447,-0.23978858288190336,1.4422912204322764,0.21037598958721856,0.9633789658546448,0.2374972701072693,-0.12448509782552719, 314, 294, 231, 294
1730926868744,6i,13.373392926384264,0.7s : 0.2s,-27.120452168221995,0.005284966896150773,0.00548044674140066,0.01137948825952346,-0.025083165615797043,-0.005471498239785433,-6.000511348247528e-06,-0.005971252918243408,-0.006538107991218567,-0.007147729396820068,-0.2397393476577028,1.4422406293624215,0.2105870354599843,0.9633840918540955,0.23744943737983704,-0.12453532218933105, 314, 294, 231, 294
1730926868764,6i,13.373392926384264,0.7s : 0.2s,-27.120452168221995,0.005473817055536603,0.005411922959746981,0.00783331541490793,-0.0035724136978387833,-0.008750692941248417,-0.0017074611969292164,-0.005726814270019531,-0.0017101466655731201,-0.005063578486442566,-0.23971722323089237,1.442073662260926,0.21085056411662734,0.9633684754371643,0.2374279499053955,-0.12469684332609177, 314, 294, 231, 294
1730926868754,6i,13.373392926384264,0.7s : 0.2s,-27.120452168221995,0.005382163416461029,0.00586783319278261,0.010637566528406833,-0.012758455239236355,-0.007167709991335869,-0.0029535540379583836,-0.006276726722717285,-0.008031100034713745,-0.003043346107006073,-0.23970542733807323,1.4421785756501284,0.2107842700943151,0.9633843898773193,0.23741649091243744,-0.12459613382816315, 314, 294, 231, 294
1730926868774,6i,13.373392926384264,0.7s : 0.2s,-27.120452168221995,0.005597104239610358,0.005735814570567302,0.011057086943558324,-0.0019779792055487633,-0.00902837235480547,-0.003951639868319035,-0.004858195781707764,0.004182055592536926,-0.009009301662445068,-0.239761981249833,1.4419231139303965,0.21085711451383618,0.9633392095565796,0.23747141659259796,-0.12484051287174225, 314, 294, 231, 294
1730926868784,6i,13.373392926384264,0.7s : 0.2s,-27.120452168221995,0.005707965990215895,0.005556815654452675,0.006574052087450533,0.0016889270627871156,-0.01095490250736475,-0.004466162994503975,-0.004513740539550781,0.003244653344154358,-0.0035094916820526123,-0.23983158195922194,1.4417398062807516,0.21083076091724645,0.9632998108863831,0.23753903806209564,-0.12501496076583862, 314, 294, 231, 294
1730926868794,6i,13.373392926384264,0.7s : 0.2s,-27.120452168221995,0.005810268799586886,0.005285078273999122,0.0030928222283501546,0.004904161673039198,-0.009629802778363228,-0.005049461964517832,-0.003056466579437256,-0.0002216249704360962,0.00041766464710235596,-0.23989704068573123,1.4415576438751736,0.21079034988477133,0.9632617235183716,0.2376026213169098,-0.1251884400844574, 314, 294, 231, 294
1730926868814,6i,13.373392926384264,0.7s : 0.2s,-27.120452168221995,0.0059932850282850446,0.004613777306964023,0.0053433507320932525,0.011270847171545029,-0.005446197930723429,-0.000636969693005085,-0.0035893917083740234,0.0023639649152755737,0.0031747967004776,-0.23992144479977118,1.4412290612096181,0.21054245600659863,0.9632147550582886,0.2376263290643692,-0.12550419569015503, 314, 294, 231, 294
1730926868824,6i,13.373392926384264,0.7s : 0.2s,-27.120452168221995,0.00607795367481364,0.004063346113061489,0.00514982846065943,0.009217550978064537,-0.0033942325972020626,0.0009798354003578424,-0.002992391586303711,0.0038186311721801758,0.0017275363206863403,-0.23985338038755255,1.4410862442219567,0.21041755858999867,0.963212788105011,0.2375602126121521,-0.12564384937286377, 314, 294, 231, 294
1730926868834,6i,13.373392926384264,0.7s : 0.2s,-27.120452168221995,0.00614893184083128,0.003663869466569157,0.004129855966935662,0.006782089360058308,-0.0019909243565052748,-0.0011801882646977901,-0.0012894272804260254,0.0009281784296035767,0.0038120299577713013,-0.2397815681736331,1.4409996739100193,0.2103313554353796,0.9632188677787781,0.2374904453754425,-0.12572944164276123, 314, 294, 231, 294
1730926868854,6i,13.373392926384264,0.7s : 0.2s,-27.120452168221995,0.006261639539017569,0.003297873753767517,0.005252029797714365,0.017236461862921715,-0.0009911293163895607,-0.00047408463433384895,-0.00128173828125,0.000744938850402832,0.005038455128669739,-0.23981307791949555,1.4407550831439573,0.2100437479410995,0.963180661201477,0.23752105236053467,-0.12596406042575836, 314, 294, 231, 294
1730926868844,6i,13.373392926384264,0.7s : 0.2s,-27.120452168221995,0.006218862728511132,0.0034320767245382753,0.0053223381131440334,0.012931328266859055,-0.003369909478351474,-0.0024260152131319046,-0.0017207860946655273,-0.0021344274282455444,0.0045618414878845215,-0.23977702464779943,1.4409025707399818,0.2102133883585468,0.9632077217102051,0.23748603463172913,-0.12582311034202576, 314, 294, 231, 294
1730926868864,6i,13.373392926384264,0.7s : 0.2s,-27.120452168221995,0.006283753750782542,0.0036659470684238336,0.005036199819023498,0.01461644284427166,-0.0016015260480344296,-0.0015950091183185577,0.0014954805374145508,0.0033939778804779053,0.003407016396522522,-0.23983498858841762,1.440673877807067,0.2098606952963456,0.963165283203125,0.23754234611988068,-0.12604160606861115, 314, 294, 231, 294
1730926868874,6i,13.373392926384264,0.7s : 0.2s,-27.120452168221995,0.006307032084371785,0.003139407634171825,0.0031502987333311165,-0.0026994296349585056,0.002045318018645048,-0.0022490150295197964,3.534555435180664e-05,-0.0007422119379043579,0.0030614137649536133,-0.23985175934371797,1.440667791600982,0.20979453651164334,0.9631605744361877,0.23755863308906555,-0.12604695558547974, 314, 294, 231, 294
1730926868884,6i,13.373392926384264,0.7s : 0.2s,-27.120452168221995,0.006318317619680771,0.0026555393540242576,0.008763684813976972,-0.019485067576169968,-0.0021251922007650137,-0.004479678813368082,-0.002995610237121582,-0.006472393870353699,0.005092799663543701,-0.23990726277854604,1.4407273731733277,0.20991981842581087,0.9631550312042236,0.2376125454902649,-0.12598785758018494, 314, 294, 231, 294
1730926868894,6i,13.373392926384264,0.7s : 0.2s,-27.120452168221995,0.0063134749266707734,0.003438307346443052,0.014750115764737544,-0.024893682450056076,-0.004751334898173809,-0.005943684838712215,-0.004868626594543457,-0.011578172445297241,0.007733583450317383,-0.24001115430332104,1.4407704793256584,0.2101557851819441,0.9631359577178955,0.23771345615386963,-0.1259431391954422, 314, 294, 231, 294
1730926868904,6i,13.373392926384264,0.7s : 0.2s,-27.120452168221995,0.006293589749216862,0.004039182706186536,0.012849663998847231,-0.014703894034028053,-0.003852251684293151,-0.005954870022833347,-0.0031795501708984375,-0.009588077664375305,0.007941856980323792,-0.24013021222539987,1.4407880994300615,0.21036960410395555,0.963110089302063,0.23782910406589508,-0.12592248618602753, 314, 294, 231, 294
1730926868914,6i,13.373392926384264,0.7s : 0.2s,-27.120452168221995,0.00627315326828509,0.003903367701819196,0.009404188064256339,-0.0029736021533608437,0.0013035834999755025,-0.005724606569856405,-0.006737172603607178,-0.004311725497245789,0.004945531487464905,-0.24021199385231354,1.44083884588141,0.21045327269901595,0.9630972146987915,0.23790854215621948,-0.12587109208106995, 314, 294, 231, 294
1730926868924,6i,13.373392926384264,0.7s : 0.2s,-27.120452168221995,0.006263171666198186,0.0034839667500078213,0.009651955647214945,0.002664043568074703,0.003342499490827322,-0.005209817085415125,-0.009129464626312256,0.0018829405307769775,0.002503529191017151,-0.24025956791145578,1.4409013076357569,0.21045490706959766,0.9630938172340393,0.2379547506570816,-0.1258094757795334, 314, 294, 231, 294
1730926868934,6i,13.373392926384264,0.7s : 0.2s,-27.120452168221995,0.006264128649794207,0.0037500325185425023,0.009691504455682481,-0.012755125761032104,0.00683550164103508,-0.004843899514526129,-0.009004473686218262,0.0028985589742660522,0.002107858657836914,-0.24032932526623407,1.4410088756807842,0.21049934477985674,0.9630909562110901,0.23802250623703003,-0.12570372223854065, 314, 294, 231, 294
1730926868944,6i,13.373392926384264,0.7s : 0.2s,-27.120452168221995,0.0062613954886252664,0.008922685365375261,0.012144810516518138,-0.038513489067554474,0.007565474137663841,-0.0075499373488128185,-0.007835865020751953,-0.006361708045005798,0.006754577159881592,-0.2404531500229805,1.4411708193555188,0.21075706613590645,0.9630820751190186,0.23814275860786438,-0.12554395198822021, 314, 294, 231, 294
1730926868954,6i,13.373392926384264,0.7s : 0.2s,-27.120452168221995,0.006241500137209193,0.018170806507754343,0.024059293869775625,-0.05817573517560959,0.008299396373331547,-0.009966522455215454,-0.007983684539794922,-0.01913096010684967,0.012211337685585022,-0.24059211995623053,1.441394343423567,0.21125907038965538,0.963077187538147,0.23827773332595825,-0.12532439827919006, 314, 294, 231, 294
1730926868964,6i,13.373392926384264,0.7s : 0.2s,-27.120452168221995,0.006203746510018626,0.021351062260882105,0.028767253696908853,-0.05199800059199333,0.012490945868194103,-0.010655748657882214,-0.007639288902282715,-0.025075078010559082,0.011850595474243164,-0.240710775429152,1.4416700476161828,0.21183308305164064,0.9630837440490723,0.23839296400547028,-0.1250552386045456, 314, 294, 231, 294
1730926868974,6i,13.373392926384264,0.7s : 0.2s,-27.120452168221995,0.0061624205249346305,0.02234042875211301,0.022299438891014357,-0.04174136742949486,0.018128590658307076,-0.01559591293334961,-0.006924331188201904,-0.018823906779289246,0.009745724499225616,-0.24081011884367395,1.4419987263436493,0.21230421582949105,0.9631012678146362,0.23848944902420044,-0.12473563104867935, 314, 294, 231, 294
1730926868984,6i,13.373392926384264,0.7s : 0.2s,-27.120452168221995,0.006134184068118427,0.02324012405432701,0.0153119787730266,-0.04101432487368584,0.018570676445961,-0.016933884471654892,-0.008717894554138184,-0.011608600616455078,0.0048677921295166016,-0.2409537314471491,1.442337672271073,0.21271799564979868,0.96310955286026,0.23862890899181366,-0.12440480291843414, 314, 294, 231, 294
1730926868994,6i,13.373392926384264,0.7s : 0.2s,-27.120452168221995,0.006116241764371969,0.025832331515452455,0.015545112230637457,-0.0543888583779335,0.020477278158068657,-0.01522024068981409,-0.0074770450592041016,-0.012271419167518616,0.00592929869890213,-0.24114916610881612,1.442671018813167,0.2131868359043174,0.9631046056747437,0.2388187050819397,-0.12407777458429337, 314, 294, 231, 294
1730926869004,6i,13.373392926384264,0.7s : 0.2s,-27.120452168221995,0.006097344937842447,0.029442818665918837,0.022666945755937817,-0.06092984601855278,0.025291472673416138,-0.013919019140303135,-0.004197895526885986,-0.019887983798980713,0.01003175973892212,-0.24140308199075505,1.4430454565344293,0.2137686630444015,0.9630908966064453,0.2390652596950531,-0.12370942533016205, 314, 294, 231, 294
1730926869014,6i,13.373392926384264,0.7s : 0.2s,-27.120452168221995,0.006084303762686939,0.030898345820052027,0.02489852419698809,-0.05807134136557579,0.02631550282239914,-0.010650156065821648,-0.005566000938415527,-0.022229328751564026,0.009737201035022736,-0.24163004320627457,1.4434392237195837,0.214359192393052,0.9630856513977051,0.2392856329679489,-0.12332328408956528, 314, 294, 231, 294
1730926869054,6i,13.373392926384264,0.7s : 0.2s,-27.120452168221995,0.006140489388624124,0.030243046475534066,0.010962756090533732,-0.03348570317029953,0.023231783881783485,0.00982991885393858,0.008054614067077637,-0.005659729242324829,-0.0048241764307022095,-0.24147441199290468,1.4451754237752694,0.21631432425966493,0.9633354544639587,0.2391345202922821,-0.12165567278862, 314, 294, 231, 294
1730926869104,6i,13.373392926384264,0.7s : 0.2s,-27.120452168221995,0.006508880797090915,0.026724668404108653,0.01899532240081504,0.014239206910133362,0.027238866314291954,0.02715318277478218,0.0033975839614868164,-0.00014550983905792236,-0.01868843287229538,-0.23988152153259526,1.4466276792994632,0.21641694206417797,0.9638876914978027,0.23758754134178162,-0.12030354142189026, 314, 294, 231, 294
1730926869114,6i,13.373392926384264,0.7s : 0.2s,-27.120452168221995,0.006603391006911002,0.023520534140486805,0.015830400459842405,0.016550032421946526,0.02137591689825058,0.029697900637984276,0.005968332290649414,-0.0046387165784835815,-0.013909094035625458,-0.2395589712560216,1.44682400939408,0.21629292547957513,0.9639872312545776,0.23727421462535858,-0.12012375891208649, 314, 294, 231, 294
1730926869124,6i,13.373392926384264,0.7s : 0.2s,-27.120452168221995,0.006689392299601895,0.020204320815028282,0.019972054983582576,0.027846628800034523,0.017718598246574402,0.03345215693116188,0.012938141822814941,-0.002251148223876953,-0.015047252178192139,-0.23920606356358667,1.4469232233382052,0.21610035904521052,0.9640823006629944,0.23693136870861053,-0.1200384721159935, 314, 294, 231, 294
1730926869094,6i,13.373392926384264,0.7s : 0.2s,-27.120452168221995,0.0064412904572100325,0.018828504234395135,0.019625748671871557,0.012541175819933414,0.028316913172602654,0.024361124262213707,0.004786968231201172,0.006447002291679382,-0.017907850444316864,-0.2402578453923225,1.4463445636003645,0.21651508824964213,0.9637647867202759,0.2379530668258667,-0.12056531757116318, 314, 294, 231, 294
1730926869134,6i,13.373392926384264,0.7s : 0.2s,-27.120452168221995,0.006662400859671581,0.01495260317748801,0.02453070666546841,0.03848795220255852,0.010819723829627037,0.03919842839241028,0.017941832542419434,0.008331820368766785,-0.014506101608276367,-0.23875739765517098,1.4469452874333149,0.2157906616118956,0.9641902446746826,0.23649545013904572,-0.12003031373023987, 314, 294, 231, 294
1730926869144,6i,13.373392926384264,0.7s : 0.2s,-27.120452168221995,0.006691564582223417,0.014361446505322728,0.026392000613202748,0.02749469131231308,0.003896037582308054,0.038923852145671844,0.019734084606170654,0.011919781565666199,-0.012846104800701141,-0.23829980172248408,1.446883363887285,0.2154709600475821,0.9642900824546814,0.2360508143901825,-0.1201033815741539, 314, 294, 231, 294
1730926869154,6i,13.373392926384264,0.7s : 0.2s,-27.120452168221995,0.006696382191582484,0.014588411414509384,0.020462784134360344,0.012940915301442146,-0.0013992590829730034,0.037324659526348114,0.018760859966278076,0.0035295039415359497,-0.00736873596906662,-0.23790515411921878,1.4467218019721941,0.21528763864549147,0.9643630385398865,0.23566730320453644,-0.12027069181203842, 314, 294, 231, 294
1730926869164,6i,13.373392926384264,0.7s : 0.2s,-27.120452168221995,0.006691382666689405,0.015352309791078305,0.009890209709775824,0.007459864020347595,0.0015224951785057783,0.04013988748192787,0.009389996528625488,-0.003091663122177124,0.00029297173023223877,-0.23755857083562748,1.44657215844681,0.21520888856976889,0.9644259810447693,0.2353304624557495,-0.12042510509490967, 314, 294, 231, 294
1730926869174,6i,13.373392926384264,0.7s : 0.2s,-27.120452168221995,0.0066852444819304946,0.016906005250471208,0.002910169227890176,0.012219731695950031,-0.002196697983890772,0.04546967148780823,0.002730250358581543,0.0010071545839309692,-2.139061689376831e-05,-0.2371720767751145,1.4463876985579311,0.2151255090842724,0.964493989944458,0.2349548041820526,-0.12061428278684616, 314, 294, 231, 294
1730926869234,6i,13.373392926384264,0.7s : 0.2s,-27.120452168221995,0.006865849316754705,0.0180400464535818,0.017481935457080877,-0.0029725367203354836,-0.013513090088963509,0.04556781053543091,-0.013712406158447266,0.0065135657787323,-0.008669570088386536,-0.23431804174427517,1.4454104137771904,0.21524683868299563,0.9650371074676514,0.23217971622943878,-0.12164019048213959, 314, 294, 231, 294
1730926869244,6i,13.373392926384264,0.7s : 0.2s,-27.120452168221995,0.006922288533363055,0.01965588268655156,0.012767008970383454,-0.023906847462058067,-0.017750179395079613,0.04387164115905762,-0.010904014110565186,0.0019237995147705078,-0.006355941295623779,-0.2338756219259963,1.4453189777934716,0.2154433255105202,0.9651278853416443,0.23174937069416046,-0.12174127995967865, 314, 294, 231, 294
1730926869254,6i,13.373392926384264,0.7s : 0.2s,-27.120452168221995,0.007005340890885559,0.02348221708834284,0.018388376964035214,-0.03964826092123985,-0.019387757405638695,0.0448029488325119,-0.016169250011444092,-0.008695602416992188,-0.0010364651679992676,-0.23349839084610802,1.4452415034519734,0.2158346680144843,0.9652050733566284,0.23138238489627838,-0.12182699143886566, 314, 294, 231, 294
1730926869344,6i,13.373392926384264,0.7s : 0.2s,-27.120452168221995,0.007488143791057797,0.023475353753349353,0.01996984787419324,-0.02702128142118454,-0.0012302813120186329,0.026645150035619736,-0.008127331733703613,0.010879263281822205,0.014641821384429932,-0.23150918599326395,1.445387956133093,0.22229653861797877,0.9656776189804077,0.22944670915603638,-0.12174294888973236, 314, 294, 231, 294
1730926869354,6i,13.373392926384264,0.7s : 0.2s,-27.120452168221995,0.00748133016490531,0.02263145782356278,0.024463721697674502,0.007754809223115444,0.008594918996095657,0.027738578617572784,0.0037537217140197754,0.018818438053131104,0.015173979103565216,-0.2312222324369818,1.4453984719184951,0.22240120576643246,0.9657440781593323,0.2291674017906189,-0.12174101918935776, 314, 294, 231, 294
1730926869374,6i,13.373392926384264,0.7s : 0.2s,-27.120452168221995,0.007428713243757644,0.021300201876651374,0.015332818075916348,0.03034493885934353,0.01892225816845894,0.023859651759266853,-0.0023636221885681152,0.012973874807357788,0.007822223007678986,-0.23053304013010573,1.4456053424083968,0.22206838686049601,0.9659256935119629,0.2284964919090271,-0.12156092375516891, 314, 294, 231, 294
1730926869384,6i,13.373392926384264,0.7s : 0.2s,-27.120452168221995,0.0073750143388987555,0.02016284138515401,0.01978024902641128,0.04580831900238991,0.027973011136054993,0.02304738759994507,-0.0012664198875427246,0.015487849712371826,0.012238502502441406,-0.23019203997964213,1.4457350627922254,0.22170399059588247,0.966018795967102,0.22816450893878937,-0.12144533544778824, 314, 294, 231, 294
1730926869424,6i,13.373392926384264,0.7s : 0.2s,-27.120452168221995,0.007123870461331974,0.025537983623205633,0.014609883554691084,0.05831518769264221,0.013477647677063942,0.03894822299480438,0.004941582679748535,-0.008965447545051575,0.010423541069030762,-0.22888473845170212,1.4463410030148285,0.21942390293935723,0.9663873314857483,0.22689148783683777,-0.12089689075946808, 314, 294, 231, 294
1730926869414,6i,13.373392926384264,0.7s : 0.2s,-27.120452168221995,0.0072134664198810995,0.03288065266677105,0.016441743018270095,0.07166960835456848,0.017963740974664688,0.03497771546244621,0.004851937294006348,0.0037944167852401733,0.015244409441947937,-0.229210196417761,1.446174573062817,0.22001200658328315,0.96629399061203,0.2272084504365921,-0.12104855477809906, 314, 294, 231, 294
1730926869434,6i,13.373392926384264,0.7s : 0.2s,-27.120452168221995,0.00703616947699556,0.03357094786551666,0.02302732896809004,0.03794187307357788,0.017258314415812492,0.042535003274679184,0.0072293877601623535,-0.019993558526039124,0.008845984935760498,-0.22858299205962807,1.4465454063285081,0.2190299376106612,0.9664798974990845,0.2265976071357727,-0.12070783227682114, 314, 294, 231, 294
1730926869444,6i,13.373392926384264,0.7s : 0.2s,-27.120452168221995,0.00696934278425158,0.0341619723607885,0.028805241972838236,0.02795075811445713,0.00908747036010027,0.054219089448451996,0.0028076171875,-0.02750292420387268,0.008090019226074219,-0.228209134035159,1.4467068473714015,0.21877781658655487,0.9665834903717041,0.22623345255851746,-0.12056228518486023, 314, 294, 231, 294
1730926869454,6i,13.373392926384264,0.7s : 0.2s,-27.120452168221995,0.0069496992580509115,0.03461130683022554,0.03326866322689784,0.019131699576973915,0.005189402028918266,0.06043443828821182,0.002200782299041748,-0.03296242654323578,0.003929242491722107,-0.227736000683496,1.446810205368008,0.21862383017468864,0.9667021036148071,0.22577255964279175,-0.12047561258077621, 314, 294, 231, 294
1730926869494,6i,13.373392926384264,0.7s : 0.2s,-27.120452168221995,0.0073253634483845705,0.04193295883557625,0.036037342814652484,0.030453994870185852,-0.017346223816275597,0.08894441276788712,-0.0004356503486633301,-0.03204827010631561,-0.016474485397338867,-0.2250284644229571,1.446969635886655,0.21845019476780658,0.9673241972923279,0.2231341153383255,-0.12039653956890106, 314, 294, 231, 294
1730926869504,6i,13.373392926384264,0.7s : 0.2s,-27.120452168221995,0.007511600617927946,0.05227458892351746,0.03545887483705665,0.05650210753083229,-0.02457670494914055,0.09813178330659866,-0.0017756223678588867,-0.030204936861991882,-0.018488936126232147,-0.22402983384885194,1.4467618013905565,0.21814908523365686,0.9675197601318359,0.22216054797172546,-0.1206250786781311, 314, 294, 231, 294
1730926869484,6i,13.373392926384264,0.7s : 0.2s,-27.120452168221995,0.007058981101743787,0.052427261167801525,0.037192749492559504,0.01642552763223648,-0.007924225181341171,0.08232378959655762,0.0010887980461120605,-0.03556594252586365,-0.010824918746948242,-0.2258665503770299,1.4470048956733848,0.2185385858453899,0.9671425223350525,0.22395098209381104,-0.1203392967581749, 314, 294, 231, 294
1730926869524,6i,13.373392926384264,0.7s : 0.2s,-27.120452168221995,0.008199807184710091,0.07025140447231085,0.03541328067036625,0.13172762095928192,-0.04133952781558037,0.10678472369909286,-0.004495859146118164,-0.026476368308067322,-0.023084402084350586,-0.22153663848373945,1.4459362962355211,0.21664657491897235,0.9679664969444275,0.2197289615869522,-0.12149234116077423, 314, 294, 231, 294
1730926869534,6i,13.373392926384264,0.7s : 0.2s,-27.120452168221995,0.008551199046627713,0.09219479120929579,0.03175675776224608,0.17071722447872162,-0.049792446196079254,0.12521830201148987,-0.01135033369064331,-0.022682100534439087,-0.019109785556793213,-0.2199937452965111,1.445215750487709,0.2152564062357562,0.9682139158248901,0.21822351217269897,-0.12223208695650101, 314, 294, 231, 294
1730926869544,6i,13.373392926384264,0.7s : 0.2s,-27.120452168221995,0.00895552134208413,0.11455687004772226,0.03653866037055993,0.1967344433069229,-0.05526124686002731,0.14361834526062012,-0.014864444732666016,-0.025383859872817993,-0.021674446761608124,-0.2181813431883293,1.4443069783929567,0.21356462038015556,0.9684931635856628,0.21645444631576538,-0.12316161394119263, 314, 294, 231, 294
1730926869554,6i,13.373392926384264,0.7s : 0.2s,-27.120452168221995,0.009404024418450929,0.1366295228035865,0.03677308142902832,0.22733429074287415,-0.0634833574295044,0.15322692692279816,-0.015283048152923584,-0.030440136790275574,-0.01385951042175293,-0.21618700905674726,1.4432579358710804,0.21155898873806353,0.9687896966934204,0.21450695395469666,-0.12423219531774521, 314, 294, 231, 294
1730926869564,6i,13.373392926384264,0.7s : 0.2s,-27.120452168221995,0.009897782892049282,0.1549270130028247,0.040912104893286935,0.2409885972738266,-0.06769195199012756,0.15633749961853027,-0.02185046672821045,-0.033083125948905945,-0.010092779994010925,-0.2141441964139668,1.4420420898109125,0.20934945948637151,0.9690703749656677,0.21251125633716583,-0.125465989112854, 314, 294, 231, 294
1730926869574,6i,13.373392926384264,0.7s : 0.2s,-27.120452168221995,0.010429842041132464,0.16554848415350085,0.04088809973098959,0.22505170106887817,-0.06486251950263977,0.15997923910617828,-0.026242971420288086,-0.030160441994667053,-0.008572682738304138,-0.21210618723252334,1.4408144598003572,0.20717832089409052,0.9693430662155151,0.21051935851573944,-0.12671144306659698, 314, 294, 231, 294
1730926869584,6i,13.373392926384264,0.7s : 0.2s,-27.120452168221995,0.010991593472156534,0.17080172998531584,0.040850568251905424,0.21748752892017365,-0.0661725252866745,0.16369621455669403,-0.028306901454925537,-0.029057160019874573,-0.004813492298126221,-0.21008839472613508,1.4395906674623593,0.20511013354538116,0.9696064591407776,0.20854635536670685,-0.1279529333114624, 314, 294, 231, 294
1730926869594,6i,13.373392926384264,0.7s : 0.2s,-27.120452168221995,0.011576202646332542,0.17270028428167258,0.03996219332875175,0.2096189558506012,-0.06759856641292572,0.1682596653699875,-0.02649623155593872,-0.0298612117767334,-0.0017985105514526367,-0.20805581182971142,1.438395488777734,0.2031762385446869,0.9698710441589355,0.20655803382396698,-0.12916739284992218, 314, 294, 231, 294
1730926869604,6i,13.373392926384264,0.7s : 0.2s,-27.120452168221995,0.01218661395147446,0.1774183623841132,0.039903917163068195,0.23122304677963257,-0.06137049198150635,0.1627914011478424,-0.02413201332092285,-0.031242921948432922,-0.00581793487071991,-0.2060374729114734,1.4372318171489122,0.20114622134763196,0.9701312780380249,0.2045827955007553,-0.13035115599632263, 314, 294, 231, 294
1730926869614,6i,13.373392926384264,0.7s : 0.2s,-27.120452168221995,0.012828635674153894,0.17918055901170393,0.041890323631766625,0.22870557010173798,-0.07208714634180069,0.15660767257213593,-0.027873635292053223,-0.02528098225593567,-0.018404662609100342,-0.20412477893106956,1.436057022055273,0.19901427235800848,0.9703634977340698,0.20271018147468567,-0.1315430998802185, 314, 294, 231, 294
1730926869624,6i,13.373392926384264,0.7s : 0.2s,-27.120452168221995,0.0134768707784131,0.18564020003777668,0.037581086210607635,0.25227534770965576,-0.058572933077812195,0.15857096016407013,-0.030665874481201172,-0.010061725974082947,-0.019253671169281006,-0.20220217226574735,1.434878875364519,0.19681480000367793,0.970592200756073,0.20082712173461914,-0.13273881375789642, 314, 294, 231, 294
1730926869634,6i,13.373392926384264,0.7s : 0.2s,-27.120452168221995,0.01411372145181728,0.1901155717057195,0.02716206906584774,0.25331929326057434,-0.06252461671829224,0.16365087032318115,-0.02029341459274292,-0.00863298773765564,-0.015856444835662842,-0.20019896558518976,1.4337617179904765,0.19445220600123114,0.97083979845047,0.19886432588100433,-0.1338777095079422, 314, 294, 231, 294
1730926869644,6i,13.373392926384264,0.7s : 0.2s,-27.120452168221995,0.014758617229351996,0.1958351090295937,0.0331149831881103,0.27013716101646423,-0.06506793200969696,0.15507282316684723,-0.01756995916366577,-0.01760481297969818,-0.021862506866455078,-0.1982061419601398,1.4326169940229163,0.19205864466176475,0.9710766673088074,0.19691091775894165,-0.13504330813884735, 314, 294, 231, 294
1730926869654,6i,13.373392926384264,0.7s : 0.2s,-27.120452168221995,0.015394572770590139,0.21240439449105358,0.025899445334304588,0.3363941013813019,-0.055634889751672745,0.1602310836315155,-0.015357375144958496,-0.01295413076877594,-0.016343891620635986,-0.19620213033551556,1.4314369471486212,0.18923351269765776,0.9713054299354553,0.19494573771953583,-0.13624367117881775, 314, 294, 231, 294
1730926869664,6i,13.373392926384264,0.7s : 0.2s,-27.120452168221995,0.01602937947795602,0.23966904728988508,0.03594537265394224,0.4176087975502014,-0.04284399375319481,0.17692776024341583,-0.022611916065216064,-0.005417808890342712,-0.027412012219429016,-0.1939795348127908,1.430263591993249,0.18569894983538168,0.9715715050697327,0.19276531040668488,-0.13744360208511353, 314, 294, 231, 294
1730926869674,6i,13.373392926384264,0.7s : 0.2s,-27.120452168221995,0.01665998313079438,0.27614429059280593,0.04469098450128513,0.5073347091674805,-0.04107281565666199,0.18624715507030487,-0.024094462394714355,0.0042581707239151,-0.03739798069000244,-0.1915211593253676,1.4290039587852321,0.18129160310724812,0.9718638062477112,0.1903524547815323,-0.1387338787317276, 314, 294, 231, 294
1730926869684,6i,13.373392926384264,0.7s : 0.2s,-27.120452168221995,0.017271317917294648,0.3196561713570532,0.03876964764838719,0.6014326810836792,-0.03261221945285797,0.18976040184497833,-0.020229816436767578,0.008489638566970825,-0.03196507692337036,-0.18889019711261157,1.4276315569125277,0.17595749395768293,0.9721648097038269,0.18776895105838776,-0.14013849198818207, 314, 294, 231, 294
1730926869694,6i,13.373392926384264,0.7s : 0.2s,-27.120452168221995,0.0178602478546229,0.3688537903718912,0.03035448223052796,0.6966056227684021,-0.015305797569453716,0.19760803878307343,-0.01690959930419922,0.00536559522151947,-0.024630680680274963,-0.18604398580931727,1.4262241743755015,0.16975218751865728,0.9724916219711304,0.1849725991487503,-0.14158299565315247, 314, 294, 231, 294
1730926869704,6i,13.373392926384264,0.7s : 0.2s,-27.120452168221995,0.018405886710588237,0.4359148504637916,0.02718894219672201,0.8607993721961975,-0.006693401373922825,0.21059280633926392,-0.009790301322937012,0.013562232255935669,-0.021434888243675232,-0.18290575545311538,1.424734215770531,0.16220970481510252,0.9728488922119141,0.18188762664794922,-0.1431155651807785, 314, 294, 231, 294
1730926869714,6i,13.373392926384264,0.7s : 0.2s,-27.120452168221995,0.018881153092464662,0.5091783973762105,0.044248205269143914,0.9886307120323181,0.005520787555724382,0.23227258026599884,-0.001741170883178711,0.03390367329120636,-0.02837979793548584,-0.1793364166944276,1.4231238104419837,0.15322759728172186,0.9732531905174255,0.1783766746520996,-0.14477667212486267, 314, 294, 231, 294
1730926869724,6i,13.373392926384264,0.7s : 0.2s,-27.120452168221995,0.019217269782017796,0.5735498962430963,0.050580340763359856,1.0591299533843994,0.018203293904662132,0.21428506076335907,0.01200336217880249,0.0415574312210083,-0.02621583640575409,-0.17559107167310692,1.4214873128112788,0.14326691240581463,0.9736686944961548,0.1746901571750641,-0.14646753668785095, 314, 294, 231, 294
1730926869734,6i,13.373392926384264,0.7s : 0.2s,-27.120452168221995,0.01948388352479947,0.6342011931513577,0.03590529691421577,1.1422334909439087,0.030780469998717308,0.19154702126979828,0.022569239139556885,0.02363593876361847,-0.014871522784233093,-0.1719427521704085,1.4199004481463706,0.13253369151076216,0.9740586280822754,0.1710967719554901,-0.14810726046562195, 314, 294, 231, 294
1730926869744,6i,13.373392926384264,0.7s : 0.2s,-27.120452168221995,0.0196066565517932,0.6914782727949366,0.047394951117901984,1.2229315042495728,0.026264015585184097,0.15400630235671997,0.038874804973602295,0.02544434368610382,-0.009360358119010925,-0.16842025080894002,1.4182359570496275,0.1209199169838231,0.974400520324707,0.16762515902519226,-0.1498190313577652, 314, 294, 231, 294
1730926869754,6i,13.373392926384264,0.7s : 0.2s,-27.120452168221995,0.01924690164708188,0.7473418054614639,0.1024878516024291,1.3081783056259155,0.03622889891266823,0.1023702397942543,0.07569319009780884,0.06568215787410736,-0.02145121991634369,-0.16523230220943286,1.416493064121033,0.10847913614801222,0.9746609330177307,0.16448147594928741,-0.15159843862056732, 314, 294, 231, 294
1730926869764,6i,13.373392926384264,0.7s : 0.2s,-27.120452168221995,0.018392151779482658,0.8078198449467359,0.14970850527569965,1.4164304733276367,0.035354048013687134,0.06781172752380371,0.09089702367782593,0.11451596021652222,-0.03219413757324219,-0.16228805524881154,1.4146445432932448,0.09493191270798253,0.9748532772064209,0.16157661378383636,-0.15347450971603394, 314, 294, 231, 294
1730926869774,6i,13.373392926384264,0.7s : 0.2s,-27.120452168221995,0.01720468443073509,0.8685377926934402,0.17879658472201915,1.5086750984191895,0.029278181493282318,0.03252474218606949,0.07460755109786987,0.15886946022510529,-0.03409437835216522,-0.1595093665671144,1.412642793711415,0.0803564243740007,0.9749836921691895,0.1588338166475296,-0.15549573302268982, 314, 294, 231, 294
1730926869784,6i,13.373392926384264,0.7s : 0.2s,-27.120452168221995,0.01589053941804677,0.9240284959841197,0.2276398824621673,1.5714138746261597,0.06881494075059891,0.01027776300907135,0.05167967081069946,0.21945691108703613,-0.03142915666103363,-0.1568723798246147,1.410665378589939,0.06497532435395255,0.9750843644142151,0.15622976422309875,-0.157489612698555, 314, 294, 231, 294
1730926869794,6i,13.373392926384264,0.7s : 0.2s,-27.120452168221995,0.014817632023333745,0.9694622159836556,0.258655875302978,1.602337121963501,0.0678447037935257,0.014294775202870369,0.032972097396850586,0.25646811723709106,-0.00630931556224823,-0.15420706741714738,1.4089610855664882,0.04915030144310627,0.9752219915390015,0.15359662473201752,-0.1592177301645279, 314, 294, 231, 294
1730926869804,6i,13.373392926384264,0.7s : 0.2s,-27.120452168221995,0.014565140928035326,1.0000653767801724,0.2588204915312217,1.5963695049285889,0.06136523187160492,-0.001823208760470152,0.01839601993560791,0.2576669156551361,0.01604349911212921,-0.15154285132603046,1.407152377166296,0.033159997884025835,0.9753327369689941,0.15096348524093628,-0.16104745864868164, 314, 294, 231, 294
1730926869814,6i,13.373392926384264,0.7s : 0.2s,-27.120452168221995,0.015929475777844482,1.0122194956883517,0.2644038756694782,1.5490666627883911,0.08422061800956726,-0.00982004962861538,-0.005046367645263672,0.26319366693496704,-0.02475959062576294,-0.1490397031130222,1.4055581717048733,0.01746222406494662,0.9754444360733032,0.14848855137825012,-0.1626637876033783, 314, 294, 231, 294
1730926869824,6i,13.373392926384264,0.7s : 0.2s,-27.120452168221995,0.018689088428957636,1.0101669145482854,0.26598234236129453,1.4832626581192017,0.07239405065774918,-0.04207226261496544,-0.04801982641220093,0.2616102695465088,0.0008772611618041992,-0.14676833082487764,1.404126638311061,0.0023067715267402456,0.9755407571792603,0.14624197781085968,-0.1641155481338501, 314, 294, 231, 294
1730926869834,6i,13.373392926384264,0.7s : 0.2s,-27.120452168221995,0.02234219755573967,1.005683083092055,0.256455324078766,1.4706873893737793,0.07339615374803543,-0.08726600557565689,-0.0796288251876831,0.2435920536518097,0.009565293788909912,-0.14497686526132897,1.4027105769272668,-0.012475852342589713,0.9755640625953674,0.14446954429149628,-0.16554035246372223, 314, 294, 231, 294
1730926869844,6i,13.373392926384264,0.7s : 0.2s,-27.120452168221995,0.026820689307331884,1.0154221186441914,0.2753734773276827,1.5428802967071533,0.07820449024438858,-0.13660664856433868,-0.09311491250991821,0.25769326090812683,-0.027465403079986572,-0.14352536476479966,1.4012737895301417,-0.02763885254365716,0.9755308628082275,0.14303311705589294,-0.16697706282138824, 314, 294, 231, 294
1730926869854,6i,13.373392926384264,0.7s : 0.2s,-27.120452168221995,0.03220272131950007,1.0346689886661922,0.32788618347095294,1.5972874164581299,0.09305640310049057,-0.22217807173728943,-0.12265604734420776,0.296893835067749,-0.06571829319000244,-0.14263048165260162,1.3998872444914494,-0.04358858960409078,0.9754241704940796,0.14214737713336945,-0.1683512181043625, 314, 294, 231, 294
1730926869864,6i,13.373392926384264,0.7s : 0.2s,-27.120452168221995,0.038608077551085564,1.05942798981327,0.3963739471522642,1.6429760456085205,0.09044064581394196,-0.3000886142253876,-0.18141871690750122,0.33611947298049927,-0.10593986511230469,-0.14243486950219486,1.3984677963794083,-0.060199629595195515,0.9752116203308105,0.1419537514448166,-0.16974039375782013, 314, 294, 231, 294
1730926869874,6i,13.373392926384264,0.7s : 0.2s,-27.120452168221995,0.04605410991167198,1.0843827627823646,0.4481995200231238,1.6688885688781738,0.08169066160917282,-0.36512717604637146,-0.20964473485946655,0.3752872049808502,-0.1268519163131714,-0.1428526524642194,1.396915732563332,-0.07724883041729518,0.9748885035514832,0.14236728847026825,-0.17124348878860474, 314, 294, 231, 294
1730926869884,6i,13.373392926384264,0.7s : 0.2s,-27.120452168221995,0.05424543792369654,1.1119950806180459,0.4487194837139331,1.699530839920044,0.07687725871801376,-0.46226173639297485,-0.20015984773635864,0.38528013229370117,-0.11333326995372772,-0.14397968756646853,1.3952124619406145,-0.09473787023480523,0.9744366407394409,0.1434827446937561,-0.17287558317184448, 314, 294, 231, 294
1730926869894,6i,13.373392926384264,0.7s : 0.2s,-27.120452168221995,0.0629518142750888,1.141487655131554,0.44794524676753456,1.720990538597107,0.07538574934005737,-0.5765026807785034,-0.20916807651519775,0.3786729574203491,-0.11623446643352509,-0.14609247274595216,1.3933738460731464,-0.11264999070344814,0.9738165736198425,0.14557334780693054,-0.17461301386356354, 314, 294, 231, 294
1730926869904,6i,13.373392926384264,0.7s : 0.2s,-27.120452168221995,0.07230204667806249,1.1830691278903074,0.48973723056950996,1.7905722856521606,0.07831309735774994,-0.6910950541496277,-0.22822421789169312,0.4148126244544983,-0.12524674832820892,-0.14921713873348955,1.3914188790965187,-0.13125627359477637,0.9730210304260254,0.14866401255130768,-0.1764344424009323, 314, 294, 231, 294
1730926869914,6i,13.373392926384264,0.7s : 0.2s,-27.120452168221995,0.08246876525714981,1.2351817186644491,0.5419142161238333,1.868830680847168,0.08035992085933685,-0.7980279326438904,-0.23053663969039917,0.4733732044696808,-0.12822513282299042,-0.15327921405139527,1.3892692432153286,-0.15079688321493073,0.9720376133918762,0.1526797115802765,-0.1784151792526245, 314, 294, 231, 294
1730926869924,6i,13.373392926384264,0.7s : 0.2s,-27.120452168221995,0.09347009684162184,1.2978809552301322,0.5802582669484576,1.9589648246765137,0.08155062049627304,-0.9122751355171204,-0.23431754112243652,0.5139599442481995,-0.1328161209821701,-0.15820809623361737,1.3868938704193985,-0.17141933539029772,0.9708594083786011,0.1575489342212677,-0.18058383464813232, 314, 294, 231, 294
1730926869934,6i,13.373392926384264,0.7s : 0.2s,-27.120452168221995,0.10525175891353637,1.3698059265403284,0.6105052079104936,2.0488295555114746,0.09321019798517227,-1.0442453622817993,-0.25871020555496216,0.5358367562294006,-0.1366184800863266,-0.16413331247710192,1.384278478309858,-0.19319513130138463,0.9694494605064392,0.16339735686779022,-0.18294605612754822, 314, 294, 231, 294
1730926869944,6i,13.373392926384264,0.7s : 0.2s,-27.120452168221995,0.11779253656056558,1.4479501640008992,0.6439043557101981,2.1375088691711426,0.09833971410989761,-1.1692091226577759,-0.29805493354797363,0.5510098934173584,-0.1488763689994812,-0.17110691341550316,1.3814127911468463,-0.216147152433618,0.9677786231040955,0.17027319967746735,-0.18550443649291992, 314, 294, 231, 294
1730926869954,6i,13.373392926384264,0.7s : 0.2s,-27.120452168221995,0.1310725432705088,1.527735745503801,0.677413900763622,2.205303192138672,0.10991767793893814,-1.3010716438293457,-0.33175331354141235,0.57320636510849,-0.1423509567975998,-0.17910781567358922,1.3782405747202484,-0.24018877843630884,0.9658171534538269,0.17815172672271729,-0.1883067488670349, 314, 294, 231, 294
1730926869964,6i,13.373392926384264,0.7s : 0.2s,-27.120452168221995,0.14497560655472316,1.6093970585548343,0.693202430177315,2.269437313079834,0.09549586474895477,-1.4436031579971313,-0.33838582038879395,0.591795027256012,-0.12571114301681519,-0.18824558521883414,1.3747033588538937,-0.26521615650735747,0.9635080695152283,0.1871357560157776,-0.19139668345451355, 314, 294, 231, 294
1730926869974,6i,13.373392926384264,0.7s : 0.2s,-27.120452168221995,0.1594238953471287,1.68598237096802,0.710495961065486,2.28890061378479,0.07986803352832794,-1.5928503274917603,-0.3451956510543823,0.6113471388816833,-0.10908322036266327,-0.19864203935040345,1.3706511142318258,-0.29106969502790836,0.9607658386230469,0.1973382532596588,-0.19490213692188263, 314, 294, 231, 294
1730926869984,6i,13.373392926384264,0.7s : 0.2s,-27.120452168221995,0.17430706749331046,1.7572619993112555,0.7181156551625046,2.292161464691162,0.03455967456102371,-1.7427253723144531,-0.3451842665672302,0.6220676898956299,-0.09782487154006958,-0.2103986963211685,1.3658895163895826,-0.3174330507953625,0.9574890732765198,0.20884981751441956,-0.19898882508277893, 314, 294, 231, 294
1730926869994,6i,13.373392926384264,0.7s : 0.2s,-27.120452168221995,0.18933075408296893,1.823012292492282,0.7013577649578788,2.2846903800964355,-0.014619722962379456,-1.8812291622161865,-0.31637078523635864,0.6205945611000061,-0.08169841766357422,-0.2234384763566162,1.3602559102559781,-0.3441685684314289,0.953608512878418,0.22158393263816833,-0.20379327237606049, 314, 294, 231, 294
1730926870004,6i,13.373392926384264,0.7s : 0.2s,-27.120452168221995,0.20439849314184053,1.8862539879194493,0.6907549181908884,2.2820777893066406,-0.05742364376783371,-2.0151681900024414,-0.2821881175041199,0.6248582005500793,-0.08405029773712158,-0.2376478123996933,1.3536634461944685,-0.37137029075084904,0.9490736722946167,0.2354172021150589,-0.20937594771385193, 314, 294, 231, 294
1730926870014,6i,13.373392926384264,0.7s : 0.2s,-27.120452168221995,0.2194878980241308,1.940340174492622,0.6825723823762173,2.2325971126556396,-0.11031939089298248,-2.1415772438049316,-0.24924951791763306,0.6286106109619141,-0.09288936853408813,-0.25295425614443007,1.3461976491082148,-0.39878449021662954,0.9438602924346924,0.25026530027389526,-0.2156277745962143, 314, 294, 231, 294
1730926870024,6i,13.373392926384264,0.7s : 0.2s,-27.120452168221995,0.23442230951292134,1.9965379722735315,0.647403233050905,2.1955044269561768,-0.17123441398143768,-2.307645082473755,-0.21458935737609863,0.6054666042327881,-0.0805763304233551,-0.26961437041086134,1.3377165927393382,-0.42628433108153807,0.937810480594635,0.26635974645614624,-0.2226308435201645, 314, 294, 231, 294
1730926870034,6i,13.373392926384264,0.7s : 0.2s,-27.120452168221995,0.24905648979964554,2.0719129344987457,0.6310895733257501,2.28597354888916,-0.21537333726882935,-2.4556539058685303,-0.1928989291191101,0.5965498685836792,-0.07205766439437866,-0.28752242911567777,1.3279610132638187,-0.4546914344432822,0.9308141469955444,0.28357723355293274,-0.23058491945266724, 314, 294, 231, 294
1730926870044,6i,13.373392926384264,0.7s : 0.2s,-27.120452168221995,0.26369395143841207,2.1595030360234153,0.667630529753555,2.3736724853515625,-0.25943613052368164,-2.6008522510528564,-0.1629210114479065,0.6424673199653625,-0.08014369010925293,-0.30630019052488383,1.3167560579861222,-0.48487882619576717,0.9228546619415283,0.3015331029891968,-0.23961928486824036, 314, 294, 231, 294
1730926870054,6i,13.373392926384264,0.7s : 0.2s,-27.120452168221995,0.27840756963285707,2.2467963707795415,0.6938443701965684,2.4052741527557373,-0.3126547336578369,-2.7397310733795166,-0.1104351282119751,0.6790118217468262,-0.09037166833877563,-0.32596744637192426,1.3040642794277766,-0.5164169292798426,0.9138410687446594,0.32022544741630554,-0.24970071017742157, 314, 294, 231, 294
1730926870064,6i,13.373392926384264,0.7s : 0.2s,-27.120452168221995,0.29311120747692543,2.3260452120036685,0.6836878436653884,2.395808458328247,-0.3933461308479309,-2.8582804203033447,-0.07608741521835327,0.6747753024101257,-0.07948625087738037,-0.34642523881692056,1.2898260875677856,-0.548915976077611,0.9037090539932251,0.3395375907421112,-0.2608150243759155, 314, 294, 231, 294
1730926870074,6i,13.373392926384264,0.7s : 0.2s,-27.120452168221995,0.30773018574420036,2.3934899258634736,0.6563889313404229,2.335477828979492,-0.45383328199386597,-2.978140115737915,-0.039067983627319336,0.6506442427635193,-0.0773446261882782,-0.36766981546978006,1.2740079528120674,-0.5820472065964675,0.8923700451850891,0.35944196581840515,-0.2729053199291229, 314, 294, 231, 294
1730926870084,6i,13.373392926384264,0.7s : 0.2s,-27.120452168221995,0.3217633243164687,2.448236819894964,0.6262926348763608,2.2731692790985107,-0.527222216129303,-3.06227707862854,0.046719491481781006,0.6236327886581421,-0.03379198908805847,-0.3895971606382496,1.2567710214607577,-0.6154334793593234,0.879824697971344,0.3798157870769501,-0.2857420742511749, 314, 294, 231, 294
1730926870094,6i,13.373392926384264,0.7s : 0.2s,-27.120452168221995,0.3351762815402242,2.496600828759292,0.6064925885675033,2.2307755947113037,-0.5919274687767029,-3.1427483558654785,0.06046295166015625,0.6031359434127808,-0.020112812519073486,-0.4118580666310793,1.2379399400573305,-0.6493300595260649,0.8660813570022583,0.40031272172927856,-0.2994212210178375, 314, 294, 231, 294
1730926870104,6i,13.373392926384264,0.7s : 0.2s,-27.120452168221995,0.3481667651869574,2.544104953496751,0.5986884429378981,2.1582140922546387,-0.6760393977165222,-3.2622711658477783,0.12426489591598511,0.584367573261261,-0.03873792290687561,-0.43461885826143465,1.2174216322538085,-0.6838001527179985,0.8509854078292847,0.42106473445892334,-0.3138924241065979, 314, 294, 231, 294
1730926870114,6i,13.373392926384264,0.7s : 0.2s,-27.120452168221995,0.3610216497775722,2.5944275587847487,0.619841037255909,2.1234912872314453,-0.7443581223487854,-3.3712477684020996,0.16751307249069214,0.5926666855812073,-0.06991767883300781,-0.4580498720057963,1.1951153396766838,-0.7190714257956793,0.8343638777732849,0.44219985604286194,-0.329084187746048, 314, 294, 231, 294
1730926870124,6i,13.373392926384264,0.7s : 0.2s,-27.120452168221995,0.37355012992986825,2.644868303768191,0.6714088115222051,2.1223971843719482,-0.8280999064445496,-3.4400277137756348,0.21551614999771118,0.6335251331329346,-0.05466705560684204,-0.481585865090148,1.1707007182688463,-0.7555670643046778,0.8162680268287659,0.46318525075912476,-0.34520456194877625, 314, 294, 231, 294
1730926870134,6i,13.373392926384264,0.7s : 0.2s,-27.120452168221995,0.3858673012465154,2.6891370436574378,0.7238534845942235,2.0731468200683594,-0.9078941345214844,-3.502976179122925,0.30123764276504517,0.656714677810669,-0.04410874843597412,-0.504960924612976,1.1441897107598682,-0.7932282963518459,0.7967544198036194,0.48377323150634766,-0.3621410131454468, 314, 294, 231, 294
1730926870144,6i,13.373392926384264,0.7s : 0.2s,-27.120452168221995,0.3978782534885786,2.723961917903904,0.7511770642578953,1.9661637544631958,-0.9875999093055725,-3.568197727203369,0.3852936029434204,0.6437849998474121,-0.036833345890045166,-0.5283611775057518,1.115739687259004,-0.8316321251479898,0.7757477760314941,0.5041186809539795,-0.37957876920700073, 314, 294, 231, 294
1730926870154,6i,13.373392926384264,0.7s : 0.2s,-27.120452168221995,0.40957112130853474,2.7519304666003475,0.7683039355236949,1.8624866008758545,-1.0741392374038696,-3.6215155124664307,0.44298917055130005,0.627287745475769,-0.02369844913482666,-0.5518312689646653,1.0853785893832193,-0.8705172542365495,0.7531932592391968,0.5242475271224976,-0.3973219096660614, 314, 294, 231, 294
1730926870164,6i,13.373392926384264,0.7s : 0.2s,-27.120452168221995,0.42102182839392577,2.774387526102259,0.8040980267911457,1.7757104635238647,-1.1451327800750732,-3.6592609882354736,0.5090511441230774,0.6223162412643433,-0.012769699096679688,-0.5753299462249715,1.0530815655184533,-0.9101040999853285,0.7290623784065247,0.5441116690635681,-0.4152239263057709, 314, 294, 231, 294
1730926870174,6i,13.373392926384264,0.7s : 0.2s,-27.120452168221995,0.4323128819785087,2.7975159411616217,0.8294303650017532,1.74105703830719,-1.2135368585586548,-3.6929378509521484,0.5569397807121277,0.6145834922790527,0.0077422261238098145,-0.5980649297806642,1.018753288318085,-0.9507492106715889,0.7036651968955994,0.5630443096160889,-0.43340128660202026, 314, 294, 231, 294
1730926870184,6i,13.373392926384264,0.7s : 0.2s,-27.120452168221995,0.4434197374886743,2.8244081816034132,0.8432813966602458,1.7469844818115234,-1.292992353439331,-3.721325159072876,0.6036680936813354,0.5885905027389526,0.016418486833572388,-0.6198766696512449,0.9820141003766788,-0.9930901250496577,0.676895260810852,0.5809347629547119,-0.4520261585712433, 314, 294, 231, 294
1730926870194,6i,13.373392926384264,0.7s : 0.2s,-27.120452168221995,0.4544237101797892,2.8494267535315747,0.8659304523781223,1.6974693536758423,-1.3787314891815186,-3.749464273452759,0.6520318984985352,0.5697124600410461,-0.010847330093383789,-0.6406762402703247,0.942735352331446,-1.037035478739793,0.6487036347389221,0.597737729549408,-0.4710555374622345, 314, 294, 231, 294
1730926870204,6i,13.373392926384264,0.7s : 0.2s,-27.120452168221995,0.4655100569264228,2.8697550716569142,0.8901220683535321,1.5843271017074585,-1.449220061302185,-3.7907984256744385,0.6867823600769043,0.5643149614334106,-0.04686054587364197,-0.660827726181976,0.9013058281498457,-1.0821692757598327,0.6190647482872009,0.6137705445289612,-0.4899434745311737, 314, 294, 231, 294
1730926870214,6i,13.373392926384264,0.7s : 0.2s,-27.120452168221995,0.4766107014867365,2.883614509705703,0.8963844225009537,1.4120368957519531,-1.5472922325134277,-3.824620246887207,0.7176217436790466,0.5362575054168701,-0.030853748321533203,-0.6806136207105378,0.8579023575185347,-1.1279024422447286,0.5879202485084534,0.6292700171470642,-0.5083001255989075, 314, 294, 231, 294
1730926870224,6i,13.373392926384264,0.7s : 0.2s,-27.120452168221995,0.4874302276448414,2.8972420034685125,0.908548555176786,1.2435415983200073,-1.6576945781707764,-3.865056276321411,0.775738000869751,0.472919762134552,-0.006158709526062012,-0.7001455174690936,0.8123471327061187,-1.1742880954283859,0.5551336407661438,0.6443289518356323,-0.5259913802146912, 314, 294, 231, 294
1730926870234,6i,13.373392926384264,0.7s : 0.2s,-27.120452168221995,0.498009274970765,2.9101669178295735,0.9485467677582277,1.213875412940979,-1.688694715499878,-3.870804786682129,0.840051531791687,0.4404810070991516,0.005556702613830566,-0.7190103655379885,0.7648663470194031,-1.221431283080979,0.521032452583313,0.6586403250694275,-0.542879581451416, 314, 294, 231, 294
1730926870244,6i,13.373392926384264,0.7s : 0.2s,-27.120452168221995,0.5088156599657709,2.9187870538634586,0.9780374190113815,1.02578866481781,-1.7270556688308716,-3.9108355045318604,0.8604904413223267,0.4647520184516907,-0.010906636714935303,-0.7367584835742257,0.7156742642047434,-1.269969447696108,0.48596033453941345,0.6718906164169312,-0.5589326024055481, 314, 294, 231, 294
1730926870254,6i,13.373392926384264,0.7s : 0.2s,-27.120452168221995,0.5201993502162284,2.938931524642138,0.9749850770760736,1.1445223093032837,-1.7766404151916504,-3.9210593700408936,0.8412272930145264,0.49046146869659424,-0.048786163330078125,-0.7532007200807587,0.6641101226717719,-1.3204087857213587,0.44963574409484863,0.6839771866798401,-0.5744588375091553, 314, 294, 231, 294
1730926870264,6i,13.373392926384264,0.7s : 0.2s,-27.120452168221995,0.5320045745032262,2.9638420223975213,0.9567737099344756,1.082324743270874,-1.724005937576294,-4.021008014678955,0.8373401761054993,0.4626467227935791,0.01534181833267212,-0.7681329575917781,0.6099607567295149,-1.3735851349774837,0.41198840737342834,0.6947936415672302,-0.5895145535469055, 314, 294, 231, 294
1730926870274,6i,13.373392926384264,0.7s : 0.2s,-27.120452168221995,0.5448270399065548,2.9875636812430444,0.9899768678256745,1.1696999073028564,-1.787667989730835,-4.000487327575684,0.8199689388275146,0.5496125221252441,-0.07504141330718994,-0.7806975776860678,0.5534828727649534,-1.429202658124453,0.3734361529350281,0.70377516746521,-0.6043559908866882, 314, 294, 231, 294
1730926870284,6i,13.373392926384264,0.7s : 0.2s,-27.120452168221995,0.5587538973157048,3.0028612967082897,1.0462260762995854,1.0597378015518188,-1.79654061794281,-4.021303176879883,0.8569697737693787,0.5994362831115723,0.029461026191711426,-0.7910985737626091,0.49512451077937825,-1.4862477965281882,0.33405497670173645,0.7111260890960693,-0.6186332702636719, 314, 294, 231, 294
1730926870294,6i,13.373392926384264,0.7s : 0.2s,-27.120452168221995,0.5731431575140105,3.012720898592664,1.0662160242141263,0.9431195855140686,-1.8150628805160522,-4.039571285247803,0.9288750886917114,0.5210423469543457,0.050225019454956055,-0.8002044504286552,0.4357720992334742,-1.5441400364316742,0.2940253019332886,0.7174985408782959,-0.6314626336097717, 314, 294, 231, 294
1730926870304,6i,13.373392926384264,0.7s : 0.2s,-27.120452168221995,0.5877958699505256,3.0225279778277074,1.0316661593748286,0.8578113317489624,-1.8106662034988403,-4.077267169952393,0.9092220664024353,0.4742320775985718,0.1129346489906311,-0.808007171136651,0.3752102306985599,-1.6030102038973457,0.2532077133655548,0.7229116559028625,-0.6428722143173218, 314, 294, 231, 294
1730926870314,6i,13.373392926384264,0.7s : 0.2s,-27.120452168221995,0.6028916737000763,3.0229272216207663,1.024623943216598,0.8171405792236328,-1.7763293981552124,-4.068965435028076,0.8952972292900085,0.49618369340896606,0.04581308364868164,-0.8138859858274072,0.31388732056717483,-1.6628237491416726,0.21201781928539276,0.726961076259613,-0.6531280279159546, 314, 294, 231, 294
1730926870324,6i,13.373392926384264,0.7s : 0.2s,-27.120452168221995,0.6184329963312303,3.0226902829442484,1.0231312193334838,0.7892226576805115,-1.7703837156295776,-4.067493438720703,0.884493887424469,0.5118647217750549,0.04962420463562012,-0.8175669113999944,0.25231574717609856,-1.7230707287329297,0.17075814306735992,0.7294837832450867,-0.6623407006263733, 314, 294, 231, 294
1730926870334,6i,13.373392926384264,0.7s : 0.2s,-27.120452168221995,0.6343661815690437,3.0233112323478384,1.0094865181381378,0.7894716858863831,-1.7915560007095337,-4.071014881134033,0.871735692024231,0.5052922964096069,0.06180298328399658,-0.8188333334006975,0.1902384228862581,-1.7836988989407456,0.12916448712348938,0.7303494215011597,-0.6707505583763123, 314, 294, 231, 294
1730926870344,6i,13.373392926384264,0.7s : 0.2s,-27.120452168221995,0.6506813116047242,3.0311871170462257,1.0284399273063713,0.8762073516845703,-1.8052529096603394,-4.07808780670166,0.8956747651100159,0.503081202507019,0.04862821102142334,-0.817090452131742,0.127910262954658,-1.8444181500985402,0.08729633688926697,0.7291578054428101,-0.6787550449371338, 314, 294, 231, 294
1730926870354,6i,13.373392926384264,0.7s : 0.2s,-27.120452168221995,0.6674677147743413,3.0409140499022373,1.0464196814539863,0.9499976634979248,-1.7814838886260986,-4.094516277313232,0.9102497100830078,0.5159703493118286,-0.014636039733886719,-0.8119827064298416,0.06593123041557213,-1.9050295081832525,0.04533185437321663,0.725652813911438,-0.686566174030304, 314, 294, 231, 294
1730926870364,6i,13.373392926384264,0.7s : 0.2s,-27.120452168221995,0.6846444705603121,3.053462107052328,1.0246410361035114,0.9783843159675598,-1.8107259273529053,-4.1068854331970215,0.8772215247154236,0.526392936706543,-0.057289838790893555,-0.8037672333962801,0.004714017849485075,-1.9648183782945152,0.003271513618528843,0.7199756503105164,-0.6939917206764221, 314, 294, 231, 294
1730926870374,6i,13.373392926384264,0.7s : 0.2s,-27.120452168221995,0.7021331994210464,3.071090344434238,1.009556896151423,1.0353294610977173,-1.833498477935791,-4.132455348968506,0.8712229132652283,0.5038337111473083,-0.07954466342926025,-0.7926496085687792,-0.05546907848313911,-2.023449936196842,-0.03891715407371521,0.7122156620025635,-0.7008811831474304, 314, 294, 231, 294
1730926870384,6i,13.373392926384264,0.7s : 0.2s,-27.120452168221995,0.7198602594384701,3.0949202303534165,1.0122507647109704,1.1210135221481323,-1.866235613822937,-4.160717487335205,0.8921186923980713,0.4717617630958557,-0.07884597778320312,-0.7784239677786583,-0.11444934117022125,-2.080580616984582,-0.08131256699562073,0.7021581530570984,-0.7073630094528198, 314, 294, 231, 294
1730926870394,6i,13.373392926384264,0.7s : 0.2s,-27.120452168221995,0.7378339131858789,3.116291449113635,1.0186509685915497,1.2093875408172607,-1.8773974180221558,-4.1584930419921875,0.8914860486984253,0.47784924507141113,-0.12067526578903198,-0.7610219809250498,-0.17150974865308574,-2.135584482574307,-0.12358763813972473,0.6896618604660034,-0.7135072946548462, 314, 294, 231, 294
1730926870404,6i,13.373392926384264,0.7s : 0.2s,-27.120452168221995,0.7561716342918917,3.1264771614263216,1.04419749127573,1.5720504522323608,-1.558610200881958,-4.166749000549316,0.8996211290359497,0.5193312764167786,-0.10642015933990479,-0.7394006777456219,-0.22496093627469335,-2.1876138100424303,-0.16481904685497284,0.6738452315330505,-0.7202550768852234, 314, 294, 231, 294
1730926870414,6i,13.373392926384264,0.7s : 0.2s,-27.120452168221995,0.7750978601859694,3.1917494238260256,1.0614853022446586,2.144409656524658,-1.9430166482925415,-4.1230902671813965,0.9012412428855896,0.5515004992485046,-0.1017962098121643,-0.7124028326370835,-0.27499546010407405,-2.2350766713670818,-0.20550164580345154,0.6536540985107422,-0.7283580303192139, 314, 294, 231, 294
1730926870424,6i,13.373392926384264,0.7s : 0.2s,-27.120452168221995,0.7955915946827452,3.2641577949648215,1.2046837944681352,2.103241205215454,-2.064481258392334,-4.206833362579346,0.9205663204193115,0.6982210874557495,-0.34103959798812866,-0.6793881495839714,-0.3230661736681564,-2.278508303951702,-0.24698248505592346,0.6283171772956848,-0.7377108335494995, 314, 294, 231, 294
1730926870434,6i,13.373392926384264,0.7s : 0.2s,-27.120452168221995,0.8168648876343413,3.3122741481608826,1.1616700738709957,1.9844321012496948,-2.192448616027832,-4.169593811035156,0.9407353401184082,0.6407331228256226,-0.2322831153869629,-0.6457216873877962,-0.36974592160004566,-2.319726689591862,-0.28862065076828003,0.6017749905586243,-0.7446912527084351, 314, 294, 231, 294
1730926870444,6i,13.373392926384264,0.7s : 0.2s,-27.120452168221995,0.836736156654929,3.3266900013732315,1.0106492734172452,1.6758135557174683,-2.3066298961639404,-4.125942707061768,0.9564465880393982,0.325602650642395,0.02459251880645752,-0.6129794065470628,-0.4149787373899119,-2.358591769568415,-0.3297683000564575,0.5753069519996643,-0.7485150694847107, 314, 294, 231, 294
1730926870464,6i,13.373392926384264,0.7s : 0.2s,-27.120452168221995,0.8764963766804317,3.314048675707206,1.0636063922450547,1.553429126739502,-2.3890342712402344,-3.992802858352661,1.0110702514648438,0.3223676085472107,-0.07123643159866333,-0.5484345624492907,-0.5013417399018625,-2.429254410984938,-0.4101182520389557,0.5213519930839539,-0.7483282685279846, 314, 294, 231, 294
1730926870494,6i,13.373392926384264,0.7s : 0.2s,-27.120452168221995,0.9339128045273621,3.2686735133172333,1.0059506088649246,1.5690338611602783,-2.4276034832000732,-3.737720489501953,0.9674713611602783,0.2685592770576477,-0.06173902750015259,-0.4466441346850685,-0.6137143665169317,-2.51232411206917,-0.5194123983383179,0.43194130063056946,-0.7373177409172058, 314, 294, 231, 294
1730926870504,6i,13.373392926384264,0.7s : 0.2s,-27.120452168221995,0.9528460716033134,3.2270606433015168,1.0122256636475477,1.5502996444702148,-2.4666523933410645,-3.654662609100342,0.9839434623718262,0.23722538352012634,-0.013422906398773193,-0.4122462600068413,-0.6476579930762819,-2.5350289578981116,-0.552776038646698,0.4006684124469757,-0.7306870222091675, 314, 294, 231, 294
1730926870514,6i,13.373392926384264,0.7s : 0.2s,-27.120452168221995,0.9716733136667136,3.1809323706375716,1.0223984951655094,1.555728554725647,-2.448665142059326,-3.5519607067108154,0.9993024468421936,0.21354782581329346,-0.03302466869354248,-0.3777712113975225,-0.6801345974008701,-2.5554187376603115,-0.5845535397529602,0.3688497543334961,-0.7226666808128357, 314, 294, 231, 294
1730926870524,6i,13.373392926384264,0.7s : 0.2s,-27.120452168221995,0.990404680753094,3.128521067606623,1.0376137310043192,1.5951024293899536,-2.3930771350860596,-3.440265655517578,1.0191779136657715,0.1840389370918274,-0.06362628936767578,-0.3433105414966611,-0.7106861465732507,-2.573359523086849,-0.6142861843109131,0.33660629391670227,-0.7136867642402649, 314, 294, 231, 294
1730926870534,6i,13.373392926384264,0.7s : 0.2s,-27.120452168221995,1.0089908945339923,3.074662792616688,1.0200477845476372,1.6195441484451294,-2.385319471359253,-3.3226847648620605,1.0082762241363525,0.1534104347229004,-0.018487215042114258,-0.3088109615737735,-0.7395370465185255,-2.588823154786147,-0.6420654058456421,0.3039260506629944,-0.7038331031799316, 314, 294, 231, 294
1730926870544,6i,13.373392926384264,0.7s : 0.2s,-27.120452168221995,1.0274371566969371,3.0161791928105357,1.0240938017335042,1.6299402713775635,-2.371072292327881,-3.190720796585083,1.0152465105056763,0.1342802345752716,0.003384709358215332,-0.27466259165423595,-0.7671408904370914,-2.6020247708653623,-0.6680635213851929,0.27122220396995544,-0.6929140090942383, 314, 294, 231, 294
1730926870554,6i,13.373392926384264,0.7s : 0.2s,-27.120452168221995,1.0455868575482934,2.945803861903764,1.0513264664054973,1.6183228492736816,-2.3749823570251465,-2.997591495513916,1.0426316261291504,0.12856259942054749,0.040966928005218506,-0.24134253281470885,-0.7936777426816396,-2.6129562487492812,-0.6922747492790222,0.23900645971298218,-0.6809051036834717, 314, 294, 231, 294
1730926870564,6i,13.373392926384264,0.7s : 0.2s,-27.120452168221995,1.0629188860737064,2.8565438730489303,1.0678181547214665,1.5354769229888916,-2.330235481262207,-2.800612688064575,1.0609217882156372,0.05306278169155121,0.10892617702484131,-0.20942050788060046,-0.8192024734940306,-2.621805598409475,-0.7146390676498413,0.20789310336112976,-0.667885959148407, 314, 294, 231, 294
1730926870574,6i,13.373392926384264,0.7s : 0.2s,-27.120452168221995,1.0791231313495941,2.7490371513955694,1.0966336568383632,1.453137993812561,-2.296994686126709,-2.558239698410034,1.078749656677246,-0.07659144699573517,0.1817644238471985,-0.179544332350184,-0.8437131327059432,-2.6289835869186553,-0.7351066470146179,0.17858125269412994,-0.6540085077285767, 314, 294, 231, 294
1730926870584,6i,13.373392926384264,0.7s : 0.2s,-27.120452168221995,1.0940533220701683,2.625100750489899,1.0957403708197848,1.3661680221557617,-2.217909336090088,-2.324474811553955,1.0514534711837769,-0.16226549446582794,0.2622259855270386,-0.1518931552465585,-0.8672212120521863,-2.6344211423862807,-0.753754734992981,0.1513097584247589,-0.639499306678772, 314, 294, 231, 294
1730926870594,6i,13.373392926384264,0.7s : 0.2s,-27.120452168221995,1.1077702749606693,2.4904016827708553,1.11587367957456,1.3122490644454956,-2.124447822570801,-2.086656332015991,1.0384423732757568,-0.23156039416790009,0.3364391326904297,-0.12638211241142683,-0.8894714420016016,-2.6382858110290335,-0.7705440521240234,0.12604594230651855,-0.6247994899749756, 314, 294, 231, 294
1730926870604,6i,13.373392926384264,0.7s : 0.2s,-27.120452168221995,1.1202067148484272,2.343381391611111,1.16062278283361,1.2441102266311646,-2.037804365158081,-1.8108714818954468,1.0306257009506226,-0.32996267080307007,0.41950035095214844,-0.10312517218217163,-0.9105515710135568,-2.640355031338015,-0.7856460213661194,0.10294248163700104,-0.6100519299507141, 314, 294, 231, 294
1730926870614,6i,13.373392926384264,0.7s : 0.2s,-27.120452168221995,1.1313104012197646,2.1778702494043034,1.2257308714440556,1.106868863105774,-1.910232424736023,-1.5329678058624268,1.030929684638977,-0.4449296295642853,0.49156665802001953,-0.08271930994740738,-0.930427473612306,-2.6411188015950966,-0.7991336584091187,0.08262500911951065,-0.5954483151435852, 314, 294, 231, 294
1730926870624,6i,13.373392926384264,0.7s : 0.2s,-27.120452168221995,1.1409879644975494,2.0003364630038645,1.3051984438358977,1.0333887338638306,-1.7364354133605957,-1.2630854845046997,1.0230765342712402,-0.5708020329475403,0.5753628611564636,-0.06514133464724614,-0.9486715417579026,-2.640755315879297,-0.8109185099601746,0.06509527564048767,-0.5815271735191345, 314, 294, 231, 294
1730926870634,6i,13.373392926384264,0.7s : 0.2s,-27.120452168221995,1.1492454920308928,1.8090625921967927,1.3665493232268955,1.0208492279052734,-1.4989111423492432,-0.9711357355117798,0.9890381097793579,-0.666363000869751,0.6672488451004028,-0.0500356492517126,-0.9647917586089692,-2.638795016176908,-0.8209017515182495,0.05001477524638176,-0.568875253200531, 314, 294, 231, 294
1730926870644,6i,13.373392926384264,0.7s : 0.2s,-27.120452168221995,1.1561633564407447,1.5943348561375945,1.4150929024131338,0.9497937560081482,-1.2180826663970947,-0.6384294629096985,0.9431541562080383,-0.7419242262840271,0.7499977350234985,-0.03789282820681269,-0.9782520934240252,-2.6352269263858403,-0.8289270401000977,0.03788376227021217,-0.5580724477767944, 314, 294, 231, 294
1730926870654,6i,13.373392926384264,0.7s : 0.2s,-27.120452168221995,1.1618896913283252,1.3629600283464913,1.4902580480113072,0.9230976104736328,-0.9029554724693298,-0.27221205830574036,0.918573796749115,-0.8265553712844849,0.8330050706863403,-0.028906238893391046,-0.9886868570108608,-2.6299400278770104,-0.8349558711051941,0.028902214020490646,-0.5495575666427612, 314, 294, 231, 294
1730926870664,6i,13.373392926384264,0.7s : 0.2s,-27.120452168221995,1.166750507139389,1.1295088003046623,1.5645949086642605,0.9075511693954468,-0.5726521611213684,0.08368267118930817,0.9017842411994934,-0.8798595070838928,0.927679717540741,-0.023340100227216692,-0.9958808811488425,-2.6228182137817595,-0.8390097618103027,0.02333798073232174,-0.5436157584190369, 314, 294, 231, 294
1730926870674,6i,13.373392926384264,0.7s : 0.2s,-27.120452168221995,1.1710837904527802,0.9000017087122919,1.6561645039674227,0.8629448413848877,-0.186311274766922,0.48414358496665955,0.8967880606651306,-0.9320139288902283,1.0344090461730957,-0.02091318987089324,-0.9995010414009989,-2.6138446390821404,-0.8410173654556274,0.02091166563332081,-0.5406038761138916, 314, 294, 231, 294
1730926870684,6i,13.373392926384264,0.7s : 0.2s,-27.120452168221995,1.175284228924194,0.7133345085656982,1.7853514308815859,0.7919061183929443,0.22671544551849365,0.9286102652549744,0.9250661134719849,-1.0015588998794556,1.1526544094085693,-0.02234322604052798,-0.9990759221380489,-2.6030347133267124,-0.8407614827156067,0.022341366857290268,-0.5409446358680725, 314, 294, 231, 294
1730926870694,6i,13.373392926384264,0.7s : 0.2s,-27.120452168221995,1.1795225377449474,0.6524781812622242,1.9165503996391249,0.6815811395645142,0.653776228427887,1.3771485090255737,0.9314676523208618,-1.090451717376709,1.271396279335022,-0.028077533662774545,-0.9943677024468176,-2.5906378012589037,-0.8380841016769409,0.02807384543120861,-0.5448183417320251, 314, 294, 231, 294
1730926870704,6i,13.373392926384264,0.7s : 0.2s,-27.120452168221995,1.1841271813273841,0.7960162123665586,2.0759068742122806,0.6687292456626892,1.0984277725219727,1.8251910209655762,0.9802658557891846,-1.207513451576233,1.3749107122421265,-0.03775321747266963,-0.9851189085510978,-2.5762250622429734,-0.8327441215515137,0.037744250148534775,-0.5523701906204224, 314, 294, 231, 294
1730926870714,6i,13.373392926384264,0.7s : 0.2s,-27.120452168221995,1.1896882409967358,1.0730097070792257,2.2264182400955965,0.5642309784889221,1.5674262046813965,2.2871484756469727,1.0588206052780151,-1.3035527467727661,1.4617069959640503,-0.051378136418349644,-0.9710955698636993,-2.559606042011822,-0.8244153261184692,0.05135553702712059,-0.5636507868766785, 314, 294, 231, 294
1730926870724,6i,13.373392926384264,0.7s : 0.2s,-27.120452168221995,1.196855560471113,1.4310214823756062,2.3226237724996737,0.531438410282135,2.061486005783081,2.7762467861175537,1.1355319023132324,-1.3558611869812012,1.5055859088897705,-0.06900500617498334,-0.9517926821922627,-2.540660399451197,-0.8125187754631042,0.06895025819540024,-0.5788431763648987, 314, 294, 231, 294
1730926870734,6i,13.373392926384264,0.7s : 0.2s,-27.120452168221995,1.206309772247497,1.8323118635691695,2.3672219818775697,0.518329918384552,2.555058479309082,3.2719943523406982,1.208182692527771,-1.3468172550201416,1.5264723300933838,-0.09034835516619898,-0.9269763103461013,-2.5184961301341757,-0.7965465188026428,0.09022548794746399,-0.5978069305419922, 314, 294, 231, 294
1730926870744,6i,13.373392926384264,0.7s : 0.2s,-27.120452168221995,1.2188580957377406,2.2627699828423884,2.4292941391431078,0.5223987102508545,3.09480619430542,3.7630555629730225,1.3477338552474976,-1.3421523571014404,1.5111950635910034,-0.11494256109981908,-0.8960987012494738,-2.4927153192371034,-0.7757430672645569,0.11468962579965591,-0.6205393671989441, 314, 294, 231, 294
1730926870754,6i,13.373392926384264,0.7s : 0.2s,-27.120452168221995,1.2354595303002145,2.7220317732094004,2.5638827212246293,0.4859257936477661,3.642606735229492,4.321590423583984,1.552278757095337,-1.3435461521148682,1.535841464996338,-0.14279809841307767,-0.8585762486731651,-2.462752128049293,-0.7492088675498962,0.14231328666210175,-0.6468641757965088, 314, 294, 231, 294
1730926870764,6i,13.373392926384264,0.7s : 0.2s,-27.120452168221995,1.256782384253948,3.210184367173013,2.7133582292373797,0.48042502999305725,4.248264312744141,4.887905120849609,1.7469935417175293,-1.3427661657333374,1.5834473371505737,-0.1737013534234972,-0.8136554523973591,-2.427885522574258,-0.7158657908439636,0.17282918095588684,-0.6765105128288269, 314, 294, 231, 294
1730926870774,6i,13.373392926384264,0.7s : 0.2s,-27.120452168221995,1.2836238732552585,3.7345465659718506,2.938389567671516,0.4075992703437805,4.877469539642334,5.547851085662842,2.002415657043457,-1.3727304935455322,1.6553174257278442,-0.20745203730372117,-0.7603274263297706,-2.387202577545367,-0.6743824481964111,0.2059672325849533,-0.7090740203857422, 314, 294, 231, 294
1730926870784,6i,13.373392926384264,0.7s : 0.2s,-27.120452168221995,1.316972449701489,4.296400330446751,3.2229218785427136,0.2347172498703003,5.648817539215088,6.171581745147705,2.318355083465576,-1.4056949615478516,1.742548942565918,-0.24403218406190752,-0.6972106031863851,-2.3401412791237557,-0.6230579018592834,0.24161729216575623,-0.7439220547676086, 314, 294, 231, 294
1730926870794,6i,13.373392926384264,0.7s : 0.2s,-27.120452168221995,1.3579887702038176,4.927101695446559,3.5339634503221875,-0.07526510953903198,6.50837516784668,6.993719100952148,2.6801559925079346,-1.3790509700775146,1.8449606895446777,-0.2835940959624619,-0.6223064685381119,-2.28576844652563,-0.5596269965171814,0.279807984828949,-0.7800801992416382, 314, 294, 231, 294
1730926870804,6i,13.373392926384264,0.7s : 0.2s,-27.120452168221995,1.4078479943542141,5.642230167126652,3.9216151533999453,-0.501964271068573,7.492314338684082,7.927927494049072,3.0909106731414795,-1.3590271472930908,1.9945881366729736,-0.3266909433059345,-0.5332071833769607,-2.2219563235599664,-0.48141375184059143,0.3209107518196106,-0.8156329393386841, 314, 294, 231, 294
1730926870814,6i,13.373392926384264,0.7s : 0.2s,-27.120452168221995,1.4681899549306239,6.458785895191732,4.449299297499665,-1.0292614698410034,8.621304512023926,8.985255241394043,3.65785813331604,-1.386278748512268,2.120039939880371,-0.3725272778512469,-0.42665433255946905,-2.145898118480358,-0.38544315099716187,0.3639705181121826,-0.8479145169258118, 314, 294, 231, 294
1730926870824,6i,13.373392926384264,0.7s : 0.2s,-27.120452168221995,1.5407265670309058,7.380226417539364,5.075099325038949,-1.4462816715240479,9.819367408752441,10.190900802612305,4.319908142089844,-1.4323540925979614,2.245748996734619,-0.4182590189912247,-0.29889531347015946,-2.0536839188072618,-0.26908108592033386,0.40617015957832336,-0.8732818365097046, 314, 294, 231, 294
1730926870834,6i,13.373392926384264,0.7s : 0.2s,-27.120452168221995,1.627324887790112,8.364554866040857,5.795168631000927,-1.9100444316864014,10.977585792541504,11.352350234985352,5.1021599769592285,-1.4652049541473389,2.3248908519744873,-0.45831653864737937,-0.1470804844149541,-1.9415207508061811,-0.13142652809619904,0.4424390196800232,-0.887116014957428, 314, 294, 231, 294
1730926870844,6i,13.373392926384264,0.7s : 0.2s,-27.120452168221995,1.7302796123962338,9.328694345640665,6.669245731225123,-2.582148551940918,11.797323226928711,12.357549667358398,6.080290794372559,-1.4694552421569824,2.3129210472106934,-0.4880691055490371,0.027214041707186255,-1.8097443588169064,0.0240335613489151,0.46892133355140686,-0.8829128742218018, 314, 294, 231, 294
1730926870864,6i,13.373392926384264,0.7s : 0.2s,-27.120452168221995,1.9964618754625667,10.23730985934442,9.128162226018679,-5.912944793701172,12.453999519348145,12.618432998657227,8.696422576904297,-0.8273919820785522,2.64782977104187,-0.5080741334531722,0.4118823862971334,-1.5107895093058845,0.34976592659950256,0.4864955544471741,-0.8006160259246826, 314, 294, 231, 294
1730926870874,6i,13.373392926384264,0.7s : 0.2s,-27.120452168221995,2.159027467897874,11.096127366477877,10.290765878827079,-8.981112480163574,12.939859390258789,12.372601509094238,9.87523078918457,-0.23888009786605835,2.884894371032715,-0.5103685376483721,0.6212844800473097,-1.3436848449293974,0.5079025030136108,0.48849886655807495,-0.7095097899436951, 314, 294, 231, 294
1730926870884,6i,13.373392926384264,0.7s : 0.2s,-27.120452168221995,2.3452015236284205,11.64389593011111,10.764009423231304,-12.732988357543945,11.856124877929688,10.452996253967285,10.359199523925781,0.6117033958435059,2.8594934940338135,-0.5144855795946116,0.8363314656954183,-1.1618566275079025,0.6461101770401001,0.49208709597587585,-0.5834313631057739, 314, 294, 231, 294
1730926870894,6i,13.373392926384264,0.7s : 0.2s,-27.120452168221995,2.5534174837657297,11.257793930829214,11.65916735845628,-14.547394752502441,6.480885982513428,7.0027055740356445,11.224297523498535,1.6035679578781128,2.716596841812134,-0.5266598762501893,1.0237567394842992,-0.9728760338546225,0.7383341193199158,0.502648651599884,-0.4496745467185974, 314, 294, 231, 294
1730926870904,6i,13.373392926384264,0.7s : 0.2s,-27.120452168221995,2.7909593691164645,11.994057438350906,13.941783426000288,-20.901390075683594,1.942038893699646,10.290739059448242,13.161914825439453,3.4062867164611816,3.087804079055786,-0.5324948505643285,1.18025872633452,-0.7446130777255622,0.7966729402542114,0.5076843500137329,-0.32797709107398987, 314, 294, 231, 294
