timestamp,club,max_speed,tempo,w.rotation,l.speed,t.spped,acc,rotation.x,rotation.y,rotation.z,userAcceleration.x,userAcceleration.y,userAcceleration.z,pitch,roll,yaw,gravity.x,gravity.y,gravity.z,impactIndex,minDownIndex,StartIndex,endIndex
1730928407819,9i,8.8796677070583,0.9s : 0.3s,-26.993302055769533,0.0004485655329198699,0.0513252299011398,0.09748467405468264,0.04045669734477997,0.034234315156936646,0.09451143443584442,0.04771220684051514,-0.0478505939245224,0.07026469707489014,-0.18391066139356782,1.5840692585608032,2.960093659906377,0.9830498695373535,0.18287567794322968,0.013048719614744186, 291, 214, 165, 257
1730928407829,9i,8.8796677070583,0.9s : 0.3s,-26.993302055769533,0.0016548957878266134,0.05984930460231937,0.0884900618135993,0.07043883204460144,0.033110104501247406,0.09249475598335266,0.037808001041412354,-0.040580227971076965,0.06895136833190918,-0.18297215814464254,1.5842231201953814,2.9594631664872,0.9832187294960022,0.18195292353630066,0.013202267698943615, 291, 214, 165, 257
1730928407839,9i,8.8796677070583,0.9s : 0.3s,-26.993302055769533,0.00286791085820029,0.06088270351369034,0.05946461721038108,0.07293608039617538,0.023122452199459076,0.07268376648426056,0.014853298664093018,-0.03242117166519165,0.04758453369140625,-0.18218530413301054,1.5842257991334625,2.958688361621128,0.9833616018295288,0.18117913603782654,0.01320682093501091, 291, 214, 165, 257
1730928407849,9i,8.8796677070583,0.9s : 0.3s,-26.993302055769533,0.003735433450566681,0.06024460591474096,0.019306665264149505,0.06840617209672928,-0.0009015239775180817,0.049860309809446335,-0.01883023977279663,0.0010931938886642456,0.0041199903935194016,-0.18165163972760143,1.5840459510671845,2.9579454814447907,0.9834604263305664,0.18065428733825684,0.013031243346631527, 291, 214, 165, 257
1730928407859,9i,8.8796677070583,0.9s : 0.3s,-26.993302055769533,0.004163905368736385,0.05867120261612395,0.06770746136222561,0.05528983846306801,-0.012782150879502296,0.042454324662685394,-0.031186699867248535,0.034458085894584656,-0.04923748970031738,-0.1812699550766053,1.5837166502925055,2.9572639230614683,0.9835336208343506,0.18027886748313904,0.012708280235528946, 291, 214, 165, 257
1730928407869,9i,8.8796677070583,0.9s : 0.3s,-26.993302055769533,0.003957653179449379,0.04503806858376539,0.07879597376389096,-0.016556521877646446,-0.016194505617022514,0.03816480189561844,-0.020285308361053467,0.03911322355270386,-0.06532585620880127,-0.1808964307722421,1.5835198088402214,2.9570362736829634,0.983603298664093,0.17991144955158234,0.012515534646809101, 291, 214, 165, 257
1730928407879,9i,8.8796677070583,0.9s : 0.3s,-26.993302055769533,0.003468864498678129,0.032766039129380184,0.05370584880672635,-0.09853900969028473,-0.030534297227859497,0.02645355463027954,-0.01862698793411255,0.019557759165763855,-0.04642033576965332,-0.18053330049873456,1.58347260943489,2.9576379352786466,0.9836692810058594,0.17955423891544342,0.012469938024878502, 291, 214, 165, 257
1730928407889,9i,8.8796677070583,0.9s : 0.3s,-26.993302055769533,0.00297113700154361,0.04383465227475044,0.03353859482556456,-0.15699712932109833,-0.03509828820824623,0.017968356609344482,-0.012270808219909668,0.003766581416130066,-0.030985116958618164,-0.18023690112131524,1.5835251358212712,2.9589942654355363,0.9837218523025513,0.17926263809204102,0.01252228394150734, 291, 214, 165, 257
1730928407899,9i,8.8796677070583,0.9s : 0.3s,-26.993302055769533,0.0025245482435163765,0.06286530134932401,0.016273457730368184,-0.167446568608284,-0.034506265074014664,0.017481530085206032,0.007245779037475586,0.006051674485206604,-0.01325523853302002,-0.17997701911554226,1.58363405505162,2.9606923774209344,0.983767032623291,0.17900696396827698,0.01263002771884203, 291, 214, 165, 257
1730928407909,9i,8.8796677070583,0.9s : 0.3s,-26.993302055769533,0.0021647615983191866,0.0760362756696482,0.02436844386472556,-0.15976561605930328,-0.027185991406440735,0.014301151037216187,0.019915521144866943,0.013640925288200378,-0.003334401175379753,-0.17973868681556152,1.5837703327699555,2.962375944640438,0.9838079214096069,0.1787724792957306,0.012764645740389824, 291, 214, 165, 257
1730928407919,9i,8.8796677070583,0.9s : 0.3s,-26.993302055769533,0.0018940232194058436,0.07705601892777637,0.025191234362116198,-0.12934991717338562,-0.016999132931232452,0.008212098851799965,0.015996456146240234,0.018063589930534363,-0.007240055128931999,-0.1795704904632479,1.5839245257923285,2.9638890851263557,0.9838360548019409,0.17860698699951172,0.012916737236082554, 291, 214, 165, 257
1730928407929,9i,8.8796677070583,0.9s : 0.3s,-26.993302055769533,0.0016930257637812226,0.07604381788905878,0.029809182527146438,-0.10043065249919891,-0.013094940222799778,0.004713637288659811,-0.0023556947708129883,0.025576472282409668,-0.015128850936889648,-0.1795028042514284,1.584001890249085,2.9650461484232427,0.9838469624519348,0.1785403937101364,0.012993008829653263, 291, 214, 165, 257
1730928407939,9i,8.8796677070583,0.9s : 0.3s,-26.993302055769533,0.0015785824569460433,0.07514015327649005,0.039758270850791956,-0.09981546550989151,-0.016547992825508118,0.003519742051139474,-0.013617396354675293,0.027281150221824646,-0.025515200570225716,-0.17950717585844236,1.5838883844455143,2.966010738485092,0.9838476181030273,0.17854468524456024,0.01288132555782795, 291, 214, 165, 257
1730928407949,9i,8.8796677070583,0.9s : 0.3s,-26.993302055769533,0.001615523003647177,0.0760290978990108,0.03477912440619429,-0.1248483806848526,-0.01602548360824585,0.00929693691432476,-0.008785009384155273,0.023085936903953552,-0.024483680725097656,-0.17949071746776177,1.58375482608066,2.967115528203481,0.9838523864746094,0.17852850258350372,0.012749963440001011, 291, 214, 165, 257
1730928407959,9i,8.8796677070583,0.9s : 0.3s,-26.993302055769533,0.0018201355882522716,0.08979245940264984,0.026365389128684417,-0.17963865399360657,-0.02864886447787285,0.012496724724769592,-0.002103865146636963,0.014647364616394043,-0.021821141242980957,-0.17939813628518306,1.5836849975979366,2.9686116667823867,0.9838698506355286,0.17843739688396454,0.012681476771831512, 291, 214, 165, 257
1730928407969,9i,8.8796677070583,0.9s : 0.3s,-26.993302055769533,0.0021254234743053537,0.11410463428154477,0.01804373868395541,-0.2607205808162689,0.03961988911032677,-0.005638635717332363,-0.0013989806175231934,-0.004974067211151123,-0.01728808879852295,-0.17931918599066082,1.5838231588363312,2.9707977920318815,0.9838821291923523,0.178359717130661,0.012817592360079288, 291, 214, 165, 257
1730928407979,9i,8.8796677070583,0.9s : 0.3s,-26.993302055769533,0.002443501686176827,0.22001756225803587,0.023666979426237914,-0.3718987703323364,0.6273598074913025,-0.49796682596206665,-0.006315171718597412,-0.02129790186882019,-0.00816357135772705,-0.17979684498065546,1.584088154612672,2.973690172788948,0.9837934374809265,0.17882969975471497,0.01307718362659216, 291, 214, 165, 257
1730928407989,9i,8.8796677070583,0.9s : 0.3s,-26.993302055769533,0.002702090504892948,0.3341862562725779,0.04084213299700549,-0.32884955406188965,0.6682493686676025,-0.5599894523620605,-0.028519034385681152,-0.029191046953201294,-0.0016208896413445473,-0.17907239004738215,1.5832679979742073,2.9771847257067527,0.9839329719543457,0.17811687290668488,0.012271924875676632, 291, 214, 165, 257
1730928407999,9i,8.8796677070583,0.9s : 0.3s,-26.993302055769533,0.0029663274946219596,0.3065648747516419,0.028305558624478037,-0.33725103735923767,0.11876895278692245,-0.1748945116996765,0.026934266090393066,-0.0060546547174453735,0.006252288818359375,-0.1792543296412915,1.5833463033294815,2.9810851448485685,0.983899712562561,0.17829589545726776,0.012348566204309464, 291, 214, 165, 257
1730928408009,9i,8.8796677070583,0.9s : 0.3s,-26.993302055769533,0.003204591012201783,0.26584573715718546,0.004880795265075607,-0.40090301632881165,-0.0718466266989708,-0.0012641274370253086,0.0006595849990844727,-0.0008172690868377686,0.0047664642333984375,-0.17983994708154386,1.5836015394838359,2.984998894851719,0.9837919473648071,0.17887210845947266,0.012598353438079357, 291, 214, 165, 257
1730928408019,9i,8.8796677070583,0.9s : 0.3s,-26.993302055769533,0.003434696187982329,0.2593550650226704,0.019204799210631528,-0.38899335265159607,-0.07680996507406235,-0.021735846996307373,-0.01653468608856201,0.003536120057106018,-0.009106279350817204,-0.17994380586423533,1.583526822769379,2.988908637162926,0.9837741851806641,0.17897428572177887,0.012524610385298729, 291, 214, 165, 257
1730928408029,9i,8.8796677070583,0.9s : 0.3s,-26.993302055769533,0.003676026601874872,0.2526655427053879,0.013925325888318239,-0.36271485686302185,-0.07857492566108704,-0.005010329652577639,0.007705211639404297,0.0005210191011428833,-0.011587620712816715,-0.17999959351922612,1.5834434767416086,2.992720706222122,0.9837653040885925,0.1790291666984558,0.012442490085959435, 291, 214, 165, 257
1730928408039,9i,8.8796677070583,0.9s : 0.3s,-26.993302055769533,0.003911128838172853,0.24749868860561902,0.01712058605535281,-0.36040350794792175,-0.08854793012142181,-0.014263216406106949,-0.01150059700012207,-0.0045091211795806885,-0.011854052543640137,-0.1800407864088863,1.5832491234723116,2.9963927120267964,0.9837602972984314,0.17906969785690308,0.012251200154423714, 291, 214, 165, 257
1730928408049,9i,8.8796677070583,0.9s : 0.3s,-26.993302055769533,0.004178400877450382,0.24294907288730064,0.02810659772336211,-0.3516857922077179,-0.10441810637712479,-0.015382642857730389,-0.011131525039672852,0.005777761340141296,-0.025153279304504395,-0.18016237078125336,1.5829481266378975,2.9999925486120373,0.9837422370910645,0.17918932437896729,0.01195482723414898, 291, 214, 165, 257
1730928408059,9i,8.8796677070583,0.9s : 0.3s,-26.993302055769533,0.004487885009861897,0.24131417011896894,0.0323926869233747,-0.3828974962234497,-0.12100347131490707,-0.015933651477098465,-0.009853363037109375,0.006431668996810913,-0.030179977416992188,-0.18025767457171868,1.5824896246097038,3.003704132040418,0.9837304949760437,0.17928308248519897,0.01150357723236084, 291, 214, 165, 257
1730928408069,9i,8.8796677070583,0.9s : 0.3s,-26.993302055769533,0.004851573969779719,0.25351640516317964,0.037934236604300994,-0.4201328754425049,-0.1427028626203537,-0.03107515163719654,-0.006499230861663818,-0.004773050546646118,-0.037067294120788574,-0.1804486539133656,1.581906331029477,3.0077943733044843,0.9837027192115784,0.179470956325531,0.010929390788078308, 291, 214, 165, 257
1730928408079,9i,8.8796677070583,0.9s : 0.3s,-26.993302055769533,0.005265132765627438,0.2722603881261932,0.04284878882608737,-0.45618462562561035,-0.14862200617790222,-0.035972170531749725,-0.011917173862457275,-0.015325680375099182,-0.03819847106933594,-0.1807367756743645,1.581241871049378,3.012237471644212,0.9836580753326416,0.17975439131259918,0.010275217704474926, 291, 214, 165, 257
1730928408089,9i,8.8796677070583,0.9s : 0.3s,-26.993302055769533,0.0057367353607151094,0.28603462188993484,0.049719618145377134,-0.4550507962703705,-0.13825294375419617,-0.0413050539791584,-0.014042139053344727,-0.02525259554386139,-0.04046189785003662,-0.18108693852257562,1.5806427563230045,3.0169218318997983,0.9836012125015259,0.18009884655475616,0.0096852732822299, 291, 214, 165, 257
1730928408099,9i,8.8796677070583,0.9s : 0.3s,-26.993302055769533,0.006255629522845235,0.2868606941261732,0.04341596096338668,-0.41744109988212585,-0.1408900022506714,-0.03273553401231766,-0.01534581184387207,-0.01059548556804657,-0.03920698165893555,-0.18141936245109938,1.5800501399734677,3.02136936863725,0.9835466146469116,0.18042582273483276,0.009101816453039646, 291, 214, 165, 257
1730928408109,9i,8.8796677070583,0.9s : 0.3s,-26.993302055769533,0.006807342721269458,0.28264017143668124,0.033478402184991256,-0.37135401368141174,-0.14277774095535278,-0.02248276397585869,-0.010882854461669922,0.009398460388183594,-0.030233025550842285,-0.18166257224851245,1.5793659808400298,3.025374841498524,0.9835086464881897,0.1806650310754776,0.008428535424172878, 291, 214, 165, 257
1730928408119,9i,8.8796677070583,0.9s : 0.3s,-26.993302055769533,0.007357465054302161,0.26435850736537364,0.02355213412311033,-0.32769760489463806,-0.055602364242076874,-0.0029016053304076195,0.002576768398284912,0.015767306089401245,-0.01730477809906006,-0.18178066195989281,1.5787880497921547,3.028902923995214,0.9834921360015869,0.18078118562698364,0.007859963923692703, 291, 214, 165, 257
1730928408129,9i,8.8796677070583,0.9s : 0.3s,-26.993302055769533,0.007877369931223694,0.25963906522832886,0.009041359089551452,-0.3309671878814697,0.5055788159370422,-0.199133962392807,0.0010889172554016113,0.0024327337741851807,-0.00863957405090332,-0.18202724493405464,1.5779057965094716,3.031864784407849,0.9834540486335754,0.1810237020254135,0.0069919549860060215, 291, 214, 165, 257
1730928408139,9i,8.8796677070583,0.9s : 0.3s,-26.993302055769533,0.00833953372245977,0.24674751089006344,0.0328587071579991,-0.19244419038295746,0.3899172246456146,-0.01208338513970375,-0.028147757053375244,-0.016571268439292908,0.0035765166394412518,-0.18225140470497794,1.576112579954827,3.0341893943727705,0.9834244251251221,0.1812441498041153,0.005228182766586542, 291, 214, 165, 257
1730928408149,9i,8.8796677070583,0.9s : 0.3s,-26.993302055769533,0.008714038781099626,0.18688311713685957,0.022439198571113976,-0.07087968289852142,0.01307976059615612,-0.017581215128302574,0.01075667142868042,-0.0019648373126983643,0.019594669342041016,-0.18215446207796196,1.5754644669647881,3.0356670409634345,0.9834452271461487,0.18114881217479706,0.004590893629938364, 291, 214, 165, 257
1730928408159,9i,8.8796677070583,0.9s : 0.3s,-26.993302055769533,0.009047803029732062,0.12310604143138287,0.015192317604855959,-0.004870305303484201,-0.09348343312740326,0.030133575201034546,0.006686508655548096,0.01314634084701538,0.003642916213721037,-0.181854600038659,1.5748034998893998,3.0360954948996977,0.983502209186554,0.18085390329360962,0.00394108472391963, 291, 214, 165, 257
1730928408169,9i,8.8796677070583,0.9s : 0.3s,-26.993302055769533,0.00938981231097861,0.07479823121278849,0.027617779603208586,0.03456179052591324,-0.0806354507803917,0.017361389473080635,-0.008344888687133789,0.021802246570587158,-0.014756917953491211,-0.1816952591830761,1.5738856761534514,3.0358970660689737,0.9835343360900879,0.18069718778133392,0.003038490889593959, 291, 214, 165, 257
1730928408179,9i,8.8796677070583,0.9s : 0.3s,-26.993302055769533,0.009731864647585709,0.06110546139772879,0.021991955996732548,0.07897160202264786,-0.07205022126436234,0.0456572063267231,0.006547868251800537,0.015590399503707886,-0.01406097412109375,-0.18137099355826675,1.572991858762043,3.0352404097724657,0.9835950136184692,0.1803782433271408,0.0021595177240669727, 291, 214, 165, 257
1730928408189,9i,8.8796677070583,0.9s : 0.3s,-26.993302055769533,0.010068940614476536,0.050344893013683126,0.02920516675582676,0.07105734944343567,-0.01811477541923523,-0.03183102607727051,-0.02407616376876831,-0.011834830045700073,-0.011541962623596191,-0.18095744454486673,1.572245669391861,3.0344848001350186,0.9836710691452026,0.17997147142887115,0.0014256774447858334, 291, 214, 165, 257
1730928408199,9i,8.8796677070583,0.9s : 0.3s,-26.993302055769533,0.010385411395706038,0.040790488915924496,0.0322628544200733,0.03701869025826454,0.034314077347517014,-0.11998165398836136,-0.019926607608795166,-0.024738118052482605,-0.005643367767333984,-0.18053289864155214,1.5714301792972902,3.033938405302162,0.983748197555542,0.1795538365840912,0.000623551313765347, 291, 214, 165, 257
1730928408209,9i,8.8796677070583,0.9s : 0.3s,-26.993302055769533,0.010676222107244093,0.07236589633765543,0.02337279895006249,-7.115595508366823e-05,0.11193377524614334,-0.21451301872730255,0.011524081230163574,-0.01951146125793457,-0.0057259202003479,-0.18012132578322523,1.5706610510297117,3.0338083076603004,0.983822226524353,0.17914894223213196,-0.00013308730558492243, 291, 214, 165, 257
1730928408219,9i,8.8796677070583,0.9s : 0.3s,-26.993302055769533,0.010921284010973155,0.1219266271683479,0.02043647725350947,-0.020925303921103477,0.18794171512126923,-0.304118812084198,0.003598630428314209,-0.019231826066970825,0.005902230739593506,-0.17974403878200887,1.570024240092283,3.0340035293618475,0.9838893413543701,0.17877773940563202,-0.0007596479845233262, 291, 214, 165, 257
1730928408229,9i,8.8796677070583,0.9s : 0.3s,-26.993302055769533,0.011119473392512718,0.17863228785977725,0.02963366650310517,-0.029507074505090714,0.26086002588272095,-0.3837292194366455,-0.011049926280975342,-0.025277242064476013,0.010821938514709473,-0.1793127941939675,1.5694129748193681,3.0343961112612248,0.9839656949043274,0.1783534288406372,-0.0013611718313768506, 291, 214, 165, 257
1730928408239,9i,8.8796677070583,0.9s : 0.3s,-26.993302055769533,0.011263753601763989,0.24097173347667764,0.02648730455662264,-0.014194698072969913,0.345664918422699,-0.4628432095050812,0.006804943084716797,-0.02117672562599182,0.014381110668182373,-0.1788052415051658,1.5688354539102964,3.0347788505422595,0.98405522108078,0.17785398662090302,-0.0019296096870675683, 291, 214, 165, 257
1730928408249,9i,8.8796677070583,0.9s : 0.3s,-26.993302055769533,0.011359642906022883,0.3080368003788924,0.019344971810465763,0.01034686341881752,0.4327767491340637,-0.5430775880813599,0.0071735382080078125,-0.009452402591705322,0.015278100967407227,-0.17821040836733837,1.568280886883487,3.0349694860132934,0.9841597676277161,0.1772686094045639,-0.002475599991157651, 291, 214, 165, 257
1730928408259,9i,8.8796677070583,0.9s : 0.3s,-26.993302055769533,0.011425571569049048,0.38080977649560055,0.011182165325681824,0.03215229511260986,0.5303347110748291,-0.6281195282936096,0.0014175176620483398,-0.004132121801376343,0.010293543338775635,-0.17757986520816335,1.5677954461079657,3.0349422376164576,0.984269917011261,0.17664802074432373,-0.0029536853544414043, 291, 214, 165, 257
1730928408269,9i,8.8796677070583,0.9s : 0.3s,-26.993302055769533,0.011451410796203884,0.45701809933019805,0.021318849579031053,0.039993174374103546,0.6307242512702942,-0.7062261700630188,-0.0044869184494018555,-0.011795416474342346,0.017182230949401855,-0.17688573375712752,1.5674787021346004,3.0348028933662947,0.9843912720680237,0.17596475780010223,-0.0032658528070896864, 291, 214, 165, 257
1730928408279,9i,8.8796677070583,0.9s : 0.3s,-26.993302055769533,0.011434605302732777,0.533967962283346,0.022355794932460073,0.06376215815544128,0.713519811630249,-0.7873668670654297,-0.005097329616546631,-0.0069706737995147705,0.02062058448791504,-0.17618523361988617,1.5672259488131568,3.034537324391871,0.9845134019851685,0.17527514696121216,-0.003515099873766303, 291, 214, 165, 257
1730928408289,9i,8.8796677070583,0.9s : 0.3s,-26.993302055769533,0.011396623440936846,0.5855296159024505,0.020699605311270897,0.11719608306884766,0.7237390875816345,-0.7582331895828247,0.0030038952827453613,0.017408207058906555,0.010789096355438232,-0.1753840832451319,1.5667973910249606,3.0339197082949765,0.9846518635749817,0.17448633909225464,-0.003937580622732639, 291, 214, 165, 257
1730928408299,9i,8.8796677070583,0.9s : 0.3s,-26.993302055769533,0.011374735120116945,0.6139891496581783,0.03496699322671217,0.1476709097623825,0.7116137146949768,-0.7118629813194275,0.02206498384475708,0.026201605796813965,-0.007021606434136629,-0.1745119769579323,1.566306008679232,3.032839938473627,0.9848017692565918,0.17362754046916962,-0.004422103054821491, 291, 214, 165, 257
1730928408309,9i,8.8796677070583,0.9s : 0.3s,-26.993302055769533,0.011374215807268847,0.6274439931150815,0.013626744097072992,0.14904774725437164,0.699481725692749,-0.675945520401001,0.005208373069763184,0.007875204086303711,-0.009825587272644043,-0.173644978606607,1.5658846866191127,3.0315838406155193,0.984950065612793,0.17277365922927856,-0.004837759304791689, 291, 214, 165, 257
1730928408319,9i,8.8796677070583,0.9s : 0.3s,-26.993302055769533,0.011390117094349991,0.6277995642483047,0.016590480074597437,0.1494019478559494,0.6759665012359619,-0.6392858028411865,-0.014417409896850586,-0.006860584020614624,-0.004507184028625488,-0.1728196839504388,1.565505208451715,3.0303239074472734,0.9850901961326599,0.171960711479187,-0.005212277639657259, 291, 214, 165, 257
1730928408329,9i,8.8796677070583,0.9s : 0.3s,-26.993302055769533,0.011433746308627982,0.6235360423951529,0.01550008543844029,0.19625841081142426,0.6484344005584717,-0.6025810837745667,-0.004874229431152344,0.007683262228965759,-0.012548387050628662,-0.17204301357060828,1.5650720429883798,3.0287967638073954,0.9852211475372314,0.17119555175304413,-0.005639746785163879, 291, 214, 165, 257
1730928408339,9i,8.8796677070583,0.9s : 0.3s,-26.993302055769533,0.011704887392321584,0.6102145686239786,0.04904863784684611,0.23694752156734467,0.621134340763092,-0.5615167617797852,-0.0024527311325073242,0.032998740673065186,-0.0362054705619812,-0.17128300230963148,1.5645368611383341,3.0268179892961995,0.9853478670120239,0.1704467236995697,-0.00616783183068037, 291, 214, 165, 257
1730928408349,9i,8.8796677070583,0.9s : 0.3s,-26.993302055769533,0.012209744019907863,0.5943515635277768,0.05570367755862798,0.2938772439956665,0.5968000888824463,-0.515563428401947,-0.004134833812713623,0.030712738633155823,-0.046287477016448975,-0.17052140111235534,1.563945193769427,3.0242689102056626,0.9854735136032104,0.16969621181488037,-0.006751715671271086, 291, 214, 165, 257
1730928408359,9i,8.8796677070583,0.9s : 0.3s,-26.993302055769533,0.01278601765115377,0.5773294777400715,0.04924800964850926,0.3288852870464325,0.5716007351875305,-0.4750958979129791,-0.007899284362792969,0.01727519929409027,-0.04543715715408325,-0.16971081450832112,1.56333112156973,3.0212825410444872,0.9856064915657043,0.1688973307609558,-0.007357891649007797, 291, 214, 165, 257
1730928408369,9i,8.8796677070583,0.9s : 0.3s,-26.993302055769533,0.01345486929335592,0.5629753782076915,0.056809131815235156,0.3951888084411621,0.5376361608505249,-0.45042115449905396,-0.006152749061584473,0.033405184745788574,-0.0455358624458313,-0.16899726866375894,1.5626426784150826,3.01776835410299,0.9857214093208313,0.168193981051445,-0.008037404157221317, 291, 214, 165, 257
1730928408379,9i,8.8796677070583,0.9s : 0.3s,-26.993302055769533,0.014340881772485532,0.5576240652323918,0.08437185242980313,0.4871120750904083,0.49962061643600464,-0.41993221640586853,-0.007405221462249756,0.06504477560520172,-0.05322545766830444,-0.16840082049745475,1.5617758657089313,3.0134395332185253,0.9858142733573914,0.16760601103305817,-0.008892740122973919, 291, 214, 165, 257
1730928408389,9i,8.8796677070583,0.9s : 0.3s,-26.993302055769533,0.015385316543157137,0.5549421378328914,0.08902024468709265,0.5779277086257935,0.48358550667762756,-0.37738683819770813,0.0005177855491638184,0.07434603571891785,-0.048959195613861084,-0.16781940064426953,1.560777075007237,3.0081060798695254,0.9859021306037903,0.16703277826309204,-0.009878331795334816, 291, 214, 165, 257
1730928408399,9i,8.8796677070583,0.9s : 0.3s,-26.993302055769533,0.016467569436417306,0.5513560696867931,0.07609142091873349,0.6505715847015381,0.4633883833885193,-0.33257222175598145,0.0024346113204956055,0.06935055553913116,-0.03121662139892578,-0.1671753732614364,1.5598066174370029,3.0019629813299233,0.9859994053840637,0.16639776527881622,-0.010836283676326275, 291, 214, 165, 257
1730928408409,9i,8.8796677070583,0.9s : 0.3s,-26.993302055769533,0.017561917057588795,0.5558432057206038,0.07739653533248657,0.7142641544342041,0.4354049861431122,-0.3029904067516327,-0.006860256195068359,0.07549922168254852,-0.015589358285069466,-0.16654159687128972,1.5587997428645861,2.9950765680611386,0.9860933423042297,0.16577279567718506,-0.011830318719148636, 291, 214, 165, 257
1730928408419,9i,8.8796677070583,0.9s : 0.3s,-26.993302055769533,0.018675970004631233,0.5563755511696119,0.08252702669881862,0.7250888347625732,0.3847580552101135,-0.2721744179725647,-0.009153544902801514,0.08071894943714142,-0.014538705348968506,-0.16596789114020882,1.5576581614738807,2.9877784157012592,0.9861740469932556,0.16520699858665466,-0.012957262806594372, 291, 214, 165, 257
1730928408429,9i,8.8796677070583,0.9s : 0.3s,-26.993302055769533,0.01980093871696956,0.5523012476778418,0.07054753286759646,0.6931775212287903,0.33681246638298035,-0.2386809140443802,0.007913053035736084,0.06833010911941528,-0.01566314697265625,-0.16544055256868515,1.5563394352362745,2.9806120747909035,0.9862430691719055,0.1646868884563446,-0.014259002171456814, 291, 214, 165, 257
1730928408439,9i,8.8796677070583,0.9s : 0.3s,-26.993302055769533,0.02088482900267999,0.5364369050719583,0.042571676154188914,0.6725302934646606,0.2997884154319763,-0.21093504130840302,0.023920178413391113,0.03291235864162445,-0.012527941726148129,-0.16494764447329693,1.5549564635439017,2.9737124924370724,0.9863033890724182,0.16420069336891174,-0.015624217689037323, 291, 214, 165, 257
1730928408449,9i,8.8796677070583,0.9s : 0.3s,-26.993302055769533,0.021800488871323898,0.5161735541404452,0.024972706926103795,0.6417606472969055,0.2482873946428299,-0.19147399067878723,0.017207980155944824,0.00545993447303772,-0.017254292964935303,-0.1645319126672895,1.553484048003794,2.9670442218817286,0.986347496509552,0.16379058361053467,-0.017077628523111343, 291, 214, 165, 257
1730928408459,9i,8.8796677070583,0.9s : 0.3s,-26.993302055769533,0.022750374325732247,0.5037193579465543,0.053729095739778465,0.6670164465904236,0.20315054059028625,-0.18903586268424988,0.012581706047058105,0.019207686185836792,-0.048575520515441895,-0.1643312568415038,1.5518087640054783,2.9604654165688578,0.9863502979278564,0.1635926365852356,-0.018730638548731804, 291, 214, 165, 257
1730928408469,9i,8.8796677070583,0.9s : 0.3s,-26.993302055769533,0.02407423302682233,0.506803965863358,0.09889348900498315,0.7367371320724487,0.21266162395477295,-0.16316968202590942,0.0029445290565490723,0.05884018540382385,-0.0794297456741333,-0.1642638960892859,1.5501391971436655,2.9533285878365803,0.986328661441803,0.16352617740631104,-0.020377617329359055, 291, 214, 165, 257
1730928408479,9i,8.8796677070583,0.9s : 0.3s,-26.993302055769533,0.025453377136052058,0.5066720343624589,0.08648524380235553,0.7301164865493774,0.19937671720981598,-0.1268281787633896,-0.030272364616394043,0.06726133823394775,-0.045157432556152344,-0.16409549617778463,1.5487618213796284,2.945844550522016,0.9863272309303284,0.16336004436016083,-0.02173675037920475, 291, 214, 165, 257
1730928408489,9i,8.8796677070583,0.9s : 0.3s,-26.993302055769533,0.026773586633930088,0.492737741877202,0.0565650548851584,0.6756168603897095,0.13592152297496796,-0.11830189824104309,-0.031832337379455566,0.04626059532165527,-0.006801841780543327,-0.16396099113448484,1.5472667863836782,2.9386883781483975,0.9863155484199524,0.16322734951972961,-0.023211834952235222, 291, 214, 165, 257
1730928408499,9i,8.8796677070583,0.9s : 0.3s,-26.993302055769533,0.027793445031090377,0.4723924044342715,0.027336303511026977,0.6288613677024841,0.10791652649641037,-0.08460012823343277,0.016958177089691162,0.020748063921928406,0.005404772236943245,-0.16386802936762113,1.5456585960053868,2.932093344145152,0.9862920641899109,0.16313563287258148,-0.02479836903512478, 291, 214, 165, 257
1730928408509,9i,8.8796677070583,0.9s : 0.3s,-26.993302055769533,0.028650482828600228,0.4521065765126261,0.0401105282023921,0.6044709086418152,0.08859151601791382,-0.04786298796534538,0.021940886974334717,-0.00013905763626098633,0.03357726335525513,-0.16358746639522262,1.5441388927138455,2.925823804550926,0.9862989783287048,0.16285881400108337,-0.02629842981696129, 291, 214, 165, 257
1730928408519,9i,8.8796677070583,0.9s : 0.3s,-26.993302055769533,0.029361946894647193,0.4306429147680436,0.029702844931896767,0.5691755414009094,0.06970757246017456,-0.03125658258795738,-0.0011646747589111328,-0.014714628458023071,0.025775613263249397,-0.16323524503350095,1.5427216450570018,2.919859914067966,0.986318051815033,0.16251128911972046,-0.027697842568159103, 291, 214, 165, 257
1730928408529,9i,8.8796677070583,0.9s : 0.3s,-26.993302055769533,0.029947918567884917,0.40593381423104513,0.03554891410140771,0.5211881399154663,0.05636944621801376,-0.013062896206974983,-0.017513811588287354,-0.02703559398651123,0.015035569667816162,-0.1628713425676047,1.5414216429043783,2.914312736347709,0.9863402843475342,0.1621522158384323,-0.0289817713201046, 291, 214, 165, 257
1730928408539,9i,8.8796677070583,0.9s : 0.3s,-26.993302055769533,0.03036957422639067,0.38389987320605395,0.05147457891748592,0.498337984085083,0.04174789413809776,7.28790182620287e-05,-0.026268362998962402,-0.03994229435920715,0.01908450946211815,-0.16249799809412405,1.5402733054363136,2.909152052324787,0.9863669276237488,0.16178379952907562,-0.030116252601146698, 291, 214, 165, 257
1730928408549,9i,8.8796677070583,0.9s : 0.3s,-26.993302055769533,0.030453504694691925,0.36317385082263204,0.05639713838026298,0.4727323353290558,0.026027029380202293,0.017188183963298798,-0.02822566032409668,-0.04378809034824371,0.021599825471639633,-0.1620811181967566,1.5392104437624354,2.9042065909414867,0.9864016771316528,0.16137239336967468,-0.03116673231124878, 291, 214, 165, 257
1730928408559,9i,8.8796677070583,0.9s : 0.3s,-26.993302055769533,0.030370782610631156,0.3425190166541602,0.04434127312825808,0.44172781705856323,0.010473369620740414,0.023742489516735077,-0.020739197731018066,-0.0384453684091568,0.007614973932504654,-0.1616614499975037,1.5382150626485345,2.8995503759665517,0.9864375591278076,0.1609582155942917,-0.0321507602930069, 291, 214, 165, 257
1730928408569,9i,8.8796677070583,0.9s : 0.3s,-26.993302055769533,0.030221729588520124,0.3185430321149607,0.03964527757157727,0.3937472403049469,-0.004916683305054903,0.03457336500287056,-0.010100245475769043,-0.038094207644462585,0.004308644682168961,-0.16121290322573387,1.5373000107136,2.8953273195176177,0.9864798188209534,0.16051550209522247,-0.033055804669857025, 291, 214, 165, 257
1730928408579,9i,8.8796677070583,0.9s : 0.3s,-26.993302055769533,0.029956594351433195,0.2900222298320408,0.04754081025714399,0.3344213366508484,-0.02155584655702114,0.03288066014647484,-0.0007753372192382812,-0.04668383300304413,0.008952498435974121,-0.16076354828618808,1.536461961481695,2.8916476996745293,0.9865238070487976,0.1600719541311264,-0.033884983509778976, 291, 214, 165, 257
1730928408589,9i,8.8796677070583,0.9s : 0.3s,-26.993302055769533,0.029644106555952777,0.2643078506594844,0.04396758070378548,0.30435237288475037,-0.01884448155760765,0.02934930846095085,0.002086937427520752,-0.04285162687301636,0.009619299322366714,-0.1603747956884,1.5357263363450668,2.888465744998821,0.9865606427192688,0.15968820452690125,-0.03461286425590515, 291, 214, 165, 257
1730928408599,9i,8.8796677070583,0.9s : 0.3s,-26.993302055769533,0.0293235039054002,0.2438445652010767,0.02884022684634361,0.2906394898891449,-0.019464466720819473,0.04024909436702728,-0.0015170574188232422,-0.02798648178577423,0.006798092275857925,-0.15992343427529576,1.5350621841883245,2.885482319292797,0.9866093993186951,0.15924261510372162,-0.035270653665065765, 291, 214, 165, 257
1730928408609,9i,8.8796677070583,0.9s : 0.3s,-26.993302055769533,0.029009260019139085,0.22773154334911924,0.020255288508683113,0.28006061911582947,-0.02271530032157898,0.04918166995048523,0.006277620792388916,-0.018740937113761902,0.004432320594787598,-0.15936835250594422,1.5343701139624328,2.882611397082898,0.9866729974746704,0.15869459509849548,-0.03595666587352753, 291, 214, 165, 257
1730928408619,9i,8.8796677070583,0.9s : 0.3s,-26.993302055769533,0.028707190591563164,0.21776556491170906,0.016985172658340545,0.285286009311676,-0.02240743860602379,0.053370557725429535,0.008005797863006592,-0.014638841152191162,0.003179248422384262,-0.158752769622596,1.5336797639793611,2.8797653060689337,0.9867454767227173,0.15808677673339844,-0.036641426384449005, 291, 214, 165, 257
1730928408629,9i,8.8796677070583,0.9s : 0.3s,-26.993302055769533,0.02843954598080828,0.2186555690274107,0.012645828346580689,0.33431297540664673,-0.014757951721549034,0.046377163380384445,0.007232367992401123,-0.008707895874977112,-0.0056375861167907715,-0.1581394553349593,1.5330002420954663,2.876692566690427,0.9868168830871582,0.1574811488389969,-0.03731558471918106, 291, 214, 165, 257
1730928408639,9i,8.8796677070583,0.9s : 0.3s,-26.993302055769533,0.028233193574539288,0.23173423141842694,0.017584930277496285,0.38820281624794006,-0.015400838106870651,0.04228974133729935,0.009439647197723389,0.007077127695083618,-0.013039827346801758,-0.15754478400993033,1.532278874672219,2.8730754302493975,0.9868831634521484,0.15689387917518616,-0.03803103417158127, 291, 214, 165, 257
1730928408649,9i,8.8796677070583,0.9s : 0.3s,-26.993302055769533,0.02809988014808968,0.24660637545808595,0.031247190689372577,0.41670408844947815,-0.019213197752833366,0.041720326989889145,0.014234304428100586,0.023666471242904663,-0.014617443084716797,-0.15697008656320371,1.5314381806877861,2.8690072904756807,0.9869408011436462,0.1563262641429901,-0.03886423259973526, 291, 214, 165, 257
1730928408659,9i,8.8796677070583,0.9s : 0.3s,-26.993302055769533,0.028022213175889644,0.2547262228007195,0.03229716885611395,0.4045124053955078,-0.02157408930361271,0.047254107892513275,0.01896589994430542,0.023738399147987366,-0.010949436575174332,-0.15637203472728173,1.530585601108526,2.864832168910694,0.987000584602356,0.1557355374097824,-0.039709415286779404, 291, 214, 165, 257
1730928408669,9i,8.8796677070583,0.9s : 0.3s,-26.993302055769533,0.027956492264466004,0.25352504256520775,0.01575874963962323,0.3577033579349518,-0.030168643221259117,0.04649057984352112,0.014203310012817383,0.006826192140579224,-8.529797196388245e-05,-0.15574427701223584,1.5297240104251588,2.8609866755315023,0.9870635271072388,0.15511541068553925,-0.04056379571557045, 291, 214, 165, 257
1730928408679,9i,8.8796677070583,0.9s : 0.3s,-26.993302055769533,0.02786917397538546,0.24075135367571193,0.019971511238430193,0.30890679359436035,-0.029450124129652977,0.05408697947859764,0.013209760189056396,-0.013797029852867126,0.005831420421600342,-0.15511969565526074,1.528897093585227,2.8576304344520103,0.9871261119842529,0.15449835360050201,-0.04138404503464699, 291, 214, 165, 257
1730928408689,9i,8.8796677070583,0.9s : 0.3s,-26.993302055769533,0.027738480115778088,0.21801210205070812,0.029610162401226783,0.23765870928764343,-0.038660574704408646,0.0590595006942749,0.006330907344818115,-0.025861307978630066,0.012956622987985611,-0.15443471080155127,1.5281294075325573,2.854876639142971,0.9871994853019714,0.15382155776023865,-0.042146340012550354, 291, 214, 165, 257
1730928408699,9i,8.8796677070583,0.9s : 0.3s,-26.993302055769533,0.027568385788256298,0.18843797249664146,0.03270476489038665,0.16539490222930908,-0.04969325289130211,0.0626736730337143,0.0033140182495117188,-0.0313546359539032,0.008689403533935547,-0.15375543150651352,1.5273713227178676,2.8528785698576185,0.9872714877128601,0.15315033495426178,-0.042899239808321, 291, 214, 165, 257
1730928408709,9i,8.8796677070583,0.9s : 0.3s,-26.993302055769533,0.027380337090382942,0.16183705418280345,0.032722745430886706,0.1338871866464615,-0.048823773860931396,0.05828888341784477,0.0024341940879821777,-0.032521381974220276,0.0026856064796447754,-0.15308323773529867,1.5266412004093328,2.851410403269907,0.9873425960540771,0.15248602628707886,-0.04362459108233452, 291, 214, 165, 257
1730928408719,9i,8.8796677070583,0.9s : 0.3s,-26.993302055769533,0.027195034584976074,0.14030756739855166,0.030417600321347937,0.1189763993024826,-0.04175841063261032,0.054810527712106705,-0.008023202419281006,-0.02918083965778351,-0.0030556879937648773,-0.15246682067249184,1.5260158711877134,2.8501824958617794,0.9874086976051331,0.1518767923116684,-0.044246189296245575, 291, 214, 165, 257
1730928408729,9i,8.8796677070583,0.9s : 0.3s,-26.993302055769533,0.027052172608438126,0.12986694066848226,0.026779299267933543,0.1394011229276657,-0.05641879886388779,0.05308789759874344,-0.020749151706695557,-0.011434018611907959,-0.012484662234783173,-0.15186389180715598,1.5253391177296916,2.8489084696715685,0.9874697327613831,0.15128083527088165,-0.04491856321692467, 291, 214, 165, 257
1730928408739,9i,8.8796677070583,0.9s : 0.3s,-26.993302055769533,0.026974672060612978,0.12721343657318707,0.024201553885732332,0.1455540806055069,-0.06937827169895172,0.05071954429149628,-0.011079370975494385,0.0010153204202651978,-0.021492600440979004,-0.15127921777201112,1.524498662455879,2.8474877920062562,0.9875199794769287,0.15070286393165588,-0.04575256258249283, 291, 214, 165, 257
1730928408749,9i,8.8796677070583,0.9s : 0.3s,-26.993302055769533,0.026964833252648823,0.1263908163898513,0.02731732776084799,0.16109202802181244,-0.0699966624379158,0.036586083471775055,-0.0017739534378051758,0.0006043165922164917,-0.02725296840071678,-0.15076889062442658,1.5235522440811842,2.845972241347671,0.9875529408454895,0.1501983404159546,-0.04669077694416046, 291, 214, 165, 257
1730928408759,9i,8.8796677070583,0.9s : 0.3s,-26.993302055769533,0.027019381986872627,0.12665474978499033,0.02719440025706087,0.1805914342403412,-0.06577741354703903,0.028162237256765366,-0.005484580993652344,0.008249670267105103,-0.025325831025838852,-0.1503514619050282,1.5226082061344859,2.844260029154148,0.9875709414482117,0.14978563785552979,-0.047626055777072906, 291, 214, 165, 257
1730928408769,9i,8.8796677070583,0.9s : 0.3s,-26.993302055769533,0.027132635906446788,0.12891915077618404,0.031000598716855968,0.20148193836212158,-0.06648168712854385,0.024555817246437073,-0.010666370391845703,0.020988672971725464,-0.020167827606201172,-0.1499832064358542,1.5216524358684098,2.8423390466588647,0.9875800013542175,0.14942152798175812,-0.04857263341546059, 291, 214, 165, 257
1730928408779,9i,8.8796677070583,0.9s : 0.3s,-26.993302055769533,0.027294686362704344,0.1355372185798944,0.03167294594718509,0.21898476779460907,-0.0647042915225029,0.023592552170157433,-0.008765697479248047,0.02581380307674408,-0.016124069690704346,-0.14945517048789014,1.5208063648230088,2.8402559000616514,0.9876171946525574,0.1488993912935257,-0.049412116408348083, 291, 214, 165, 257
1730928408789,9i,8.8796677070583,0.9s : 0.3s,-26.993302055769533,0.027530738639143394,0.14736944224210413,0.03468608187212703,0.2518267333507538,-0.06381901353597641,0.029823385179042816,-0.008015453815460205,0.02637973427772522,-0.021047241985797882,-0.14885204215368245,1.5198785182689876,2.837906635062182,0.9876605868339539,0.14830297231674194,-0.050333019345998764, 291, 214, 165, 257
1730928408799,9i,8.8796677070583,0.9s : 0.3s,-26.993302055769533,0.027820965842033037,0.16085774523158478,0.03300362726651203,0.2814498841762543,-0.05329100787639618,0.02773653157055378,-0.005786240100860596,0.020831912755966187,-0.02493572235107422,-0.14821297262530386,1.5188921735511367,2.8352194856479396,0.9877048134803772,0.1476709395647049,-0.05131207033991814, 291, 214, 165, 257
1730928408809,9i,8.8796677070583,0.9s : 0.3s,-26.993302055769533,0.028126656567663416,0.17280428123068958,0.023473289686898293,0.2973690629005432,-0.039081308990716934,0.022140732035040855,-0.015079259872436523,0.005410030484199524,-0.01715642213821411,-0.14776078595673361,1.5179096623733992,2.8323166469326244,0.9877204298973083,0.14722369611263275,-0.052285995334386826, 291, 214, 165, 257
1730928408819,9i,8.8796677070583,0.9s : 0.3s,-26.993302055769533,0.02843397442388864,0.1856218662555289,0.02725804427659663,0.321897029876709,-0.02521369792521,0.016478849574923515,-0.02374088764190674,-0.0029760003089904785,-0.013058125972747803,-0.1474458857635432,1.516929906105363,2.829161828482094,0.9877150654792786,0.14691221714019775,-0.05325619503855705, 291, 214, 165, 257
1730928408829,9i,8.8796677070583,0.9s : 0.3s,-26.993302055769533,0.02873745942733031,0.19380788124861043,0.02174053519459133,0.3175171911716461,-0.015895476564764977,0.021280065178871155,-0.018540620803833008,-0.0028659850358963013,-0.01098555326461792,-0.14708785659367496,1.5160085394215952,2.825883202901475,0.9877181053161621,0.14655806124210358,-0.054169099777936935, 291, 214, 165, 257
1730928408839,9i,8.8796677070583,0.9s : 0.3s,-26.993302055769533,0.029000284936083132,0.19100150152815956,0.01735649987893076,0.26180705428123474,-0.011044793762266636,0.02274799719452858,-0.010285615921020508,-0.013868182897567749,0.0017685294151306152,-0.14679539063923025,1.5152252925220246,2.8229113334225806,0.9877181053161621,0.14626874029636383,-0.05494508519768715, 291, 214, 165, 257
1730928408849,9i,8.8796677070583,0.9s : 0.3s,-26.993302055769533,0.029091457557402427,0.1731431435428225,0.04267117356497395,0.195378378033638,-0.0006602858193218708,0.02446710132062435,-0.010385870933532715,-0.03613117337226868,0.0201866552233696,-0.14664158931547377,1.5147005501949435,2.8205928793966906,0.9877116680145264,0.14611659944057465,-0.05546464025974274, 291, 214, 165, 257
1730928408859,9i,8.8796677070583,0.9s : 0.3s,-26.993302055769533,0.028877226327758937,0.15156338208680378,0.06153123267252653,0.15021222829818726,0.0078019085340201855,0.02301754243671894,-0.015195488929748535,-0.05220663547515869,0.028803765773773193,-0.14651079112069423,1.5144122401661189,2.8188873226086195,0.9877146482467651,0.14598719775676727,-0.05575048178434372, 291, 214, 165, 257
1730928408869,9i,8.8796677070583,0.9s : 0.3s,-26.993302055769533,0.028575047650918634,0.13588439584074355,0.052160091961193235,0.14616407454013824,0.01539604552090168,0.030174288898706436,-0.015317082405090332,-0.04479725658893585,0.021892189979553223,-0.14633217950888888,1.5142123222552009,2.8174078201904513,0.9877294301986694,0.14581049978733063,-0.055949412286281586, 291, 214, 165, 257
1730928408879,9i,8.8796677070583,0.9s : 0.3s,-26.993302055769533,0.028285132380517924,0.12512932756502498,0.027399290404181747,0.1448330283164978,0.023726146668195724,0.039626382291316986,-0.011631011962890625,-0.02348591387271881,0.007990777492523193,-0.14601354350097945,1.514045658747572,2.8159173017243635,0.987766444683075,0.14549526572227478,-0.05611666291952133, 291, 214, 165, 257
1730928408889,9i,8.8796677070583,0.9s : 0.3s,-26.993302055769533,0.02801544927330058,0.11333614559967406,0.020648582482555553,0.12184436619281769,0.019947120919823647,0.040944114327430725,-0.009936213493347168,-0.017144441604614258,0.005805492401123047,-0.1455725448222122,1.5139754323039838,2.8145720785918913,0.987826406955719,0.14505894482135773,-0.05618966370820999, 291, 214, 165, 257
1730928408899,9i,8.8796677070583,0.9s : 0.3s,-26.993302055769533,0.027754642777905666,0.09974222877626329,0.02509645845566604,0.09496907144784927,0.014843439683318138,0.0366782620549202,-0.010437548160552979,-0.020696774125099182,0.009619425982236862,-0.14513770676931428,1.5139025998703879,2.8134910370014485,0.9878851175308228,0.14462868869304657,-0.05626518651843071, 291, 214, 165, 257
1730928408909,9i,8.8796677070583,0.9s : 0.3s,-26.993302055769533,0.027511282478321925,0.08784773287018645,0.017642178943324652,0.08182597160339355,0.012314013205468655,0.03831447288393974,-0.006678640842437744,-0.01511356234550476,0.006182432174682617,-0.1447229096557522,1.5138326594177438,2.8126327608752955,0.9879410862922668,0.14421823620796204,-0.05633769556879997, 291, 214, 165, 257
1730928408919,9i,8.8796677070583,0.9s : 0.3s,-26.993302055769533,0.027294281888256475,0.07937569877685473,0.00824003918406503,0.0780448168516159,0.014475168660283089,0.04441657289862633,-0.002146422863006592,-0.007707163691520691,0.001972496509552002,-0.144208116827312,1.513866284380197,2.8118615769919373,0.9880169630050659,0.14370881021022797,-0.05630869418382645, 291, 214, 165, 257
1730928408929,9i,8.8796677070583,0.9s : 0.3s,-26.993302055769533,0.02711343237798235,0.07774284972014961,0.009710281731516189,0.08694110810756683,0.005662058480083942,0.043045513331890106,-0.006113171577453613,-0.006892770528793335,-0.003067314624786377,-0.1435239663561816,1.5140153554567475,2.811087100787834,0.9881232976913452,0.14303173124790192,-0.05616697669029236, 291, 214, 165, 257
1730928408939,9i,8.8796677070583,0.9s : 0.3s,-26.993302055769533,0.026981622103675874,0.07718003376849439,0.013707440715557278,0.09832372516393661,-0.002956463024020195,0.04624743387103081,-0.00766444206237793,-0.004941701889038086,-0.010233759880065918,-0.14273983286416192,1.514109173966829,2.810212512171263,0.9882401823997498,0.14225561916828156,-0.05608060583472252, 291, 214, 165, 257
1730928408949,9i,8.8796677070583,0.9s : 0.3s,-26.993302055769533,0.0268832969104986,0.0765400751931775,0.015088669604989705,0.09241922944784164,-0.006301304325461388,0.056185685098171234,-0.0009273290634155273,-0.012302398681640625,-0.008686713874340057,-0.1419288568932052,1.514094396159049,2.8092952431624645,0.9883542060852051,0.1414528340101242,-0.0561017282307148, 291, 214, 165, 257
1730928408959,9i,8.8796677070583,0.9s : 0.3s,-26.993302055769533,0.026799476663501593,0.07598078342798197,0.024121339922095544,0.09258114546537399,-0.012759469449520111,0.056069836020469666,-0.00045484304428100586,-0.023847639560699463,-0.00359475240111351,-0.14119871607771686,1.5139041257583934,2.8084082457955373,0.9884462952613831,0.14073000848293304,-0.05629563704133034, 291, 214, 165, 257
1730928408969,9i,8.8796677070583,0.9s : 0.3s,-26.993302055769533,0.026734082629029175,0.07609387701900878,0.026073483432047344,0.10145160555839539,-0.010310160927474499,0.056932367384433746,-0.007237553596496582,-0.024746239185333252,-0.0038817524909973145,-0.14051894800245138,1.5137059881747754,2.807501838197722,0.9885305166244507,0.14005696773529053,-0.05649693310260773, 291, 214, 165, 257
1730928408979,9i,8.8796677070583,0.9s : 0.3s,-26.993302055769533,0.026696411279005405,0.07669377234064233,0.016463450662089665,0.10532809793949127,-0.018819227814674377,0.06615063548088074,-0.009286582469940186,-0.012207776308059692,-0.0059812031686306,-0.13973734908702287,1.5134744394730169,2.806496285937712,0.9886263608932495,0.13928303122520447,-0.05673207715153694, 291, 214, 165, 257
1730928408989,9i,8.8796677070583,0.9s : 0.3s,-26.993302055769533,0.02669759148467125,0.07573955557410594,0.020332621396889086,0.0777880847454071,-0.014261404983699322,0.07070490717887878,0.0042572021484375,-0.011372461915016174,-0.016308244317770004,-0.13894007824146917,1.5132461661550565,2.8056071922811547,0.988723874092102,0.13849347829818726,-0.056964121758937836, 291, 214, 165, 257
1730928408999,9i,8.8796677070583,0.9s : 0.3s,-26.993302055769533,0.026719317695229585,0.07259474766330215,0.028985053716542367,0.0480368509888649,-0.019766956567764282,0.07349483668804169,0.0002880096435546875,-0.027074426412582397,-0.010345328599214554,-0.1381704067439219,1.5130241764318195,2.805021296958052,0.9888172745704651,0.13773119449615479,-0.05718974024057388, 291, 214, 165, 257
1730928409009,9i,8.8796677070583,0.9s : 0.3s,-26.993302055769533,0.026771517908580983,0.06921008703421837,0.035992723888537394,0.0344652459025383,-0.023730050772428513,0.07460833340883255,-0.006603837013244629,-0.032598793506622314,-0.013754423707723618,-0.13741629185210918,1.5127281376773807,2.8046650859124234,0.9889037609100342,0.1369842290878296,-0.05748848244547844, 291, 214, 165, 257
1730928409019,9i,8.8796677070583,0.9s : 0.3s,-26.993302055769533,0.02689629482158725,0.0672341398149794,0.04253431896673454,0.030767982825636864,-0.025562040507793427,0.08419597893953323,-0.005563616752624512,-0.02962765097618103,-0.03000694513320923,-0.136604309078048,1.512350832039694,2.804373723634897,0.9889927506446838,0.1361798495054245,-0.057868074625730515, 291, 214, 165, 257
1730928409029,9i,8.8796677070583,0.9s : 0.3s,-26.993302055769533,0.027164061171094538,0.06627429020680774,0.05075430570209869,0.040707431733608246,-0.024852130562067032,0.08631458878517151,-0.0008155703544616699,-0.02740532159805298,-0.04271162301301956,-0.1356703418916663,1.5119666951669741,2.80405892432957,0.9890971779823303,0.13525451719760895,-0.05825544148683548, 291, 214, 165, 257
1730928409039,9i,8.8796677070583,0.9s : 0.3s,-26.993302055769533,0.027593618311291288,0.06566935684805061,0.05675280774023898,0.04138121381402016,-0.023295778781175613,0.0882088914513588,-0.00047904253005981445,-0.029282450675964355,-0.048612650483846664,-0.1346234606352387,1.5116315509894749,2.8036948165850677,0.9892181754112244,0.13421718776226044,-0.05859525874257088, 291, 214, 165, 257
1730928409049,9i,8.8796677070583,0.9s : 0.3s,-26.993302055769533,0.028101113150204665,0.06570156128858409,0.05402617569568265,0.04756028205156326,-0.027514759451150894,0.09066000580787659,-0.003577589988708496,-0.02977524697780609,-0.04493843764066696,-0.13355023317172368,1.5112886049916927,2.803289581164408,0.9893412590026855,0.13315358757972717,-0.05894303694367409, 291, 214, 165, 257
1730928409059,9i,8.8796677070583,0.9s : 0.3s,-26.993302055769533,0.02865544989633558,0.06599854990157034,0.04975195861273337,0.04548754170536995,-0.0326666459441185,0.0952419713139534,-0.003120720386505127,-0.02926073968410492,-0.04011642560362816,-0.13255390409417395,1.5108799251550364,2.802871139063159,0.9894490242004395,0.1321660727262497,-0.059355270117521286, 291, 214, 165, 257
1730928409069,9i,8.8796677070583,0.9s : 0.3s,-26.993302055769533,0.029243322259864906,0.0670262221766421,0.05159062343900089,0.04051421955227852,-0.04295865073800087,0.1057034358382225,0.005423128604888916,-0.034448474645614624,-0.03801953047513962,-0.13146073535621416,1.510280724260183,2.8024932154200903,0.9895568490028381,0.1310824155807495,-0.05995683744549751, 291, 214, 165, 257
1730928409079,9i,8.8796677070583,0.9s : 0.3s,-26.993302055769533,0.029859441296838426,0.06732658253660972,0.05134656775207704,0.019200677052140236,-0.0380866639316082,0.1123938262462616,0.008339881896972656,-0.034539684653282166,-0.037066515535116196,-0.1301830223038126,1.509759741511723,2.8022249601554403,0.9896919131278992,0.12981562316417694,-0.06048253923654556, 291, 214, 165, 257
1730928409089,9i,8.8796677070583,0.9s : 0.3s,-26.993302055769533,0.030499941908965218,0.06782355364482047,0.04692142634520371,-0.0009702391689643264,-0.04816588759422302,0.11736278980970383,-0.0011862516403198242,-0.03332465887069702,-0.03301030397415161,-0.12881924289761498,1.5092028590067592,2.8021963685975932,0.9898338913917542,0.1284632533788681,-0.061044517904520035, 291, 214, 165, 257
1730928409099,9i,8.8796677070583,0.9s : 0.3s,-26.993302055769533,0.031155125673956386,0.06912969187829233,0.045036450348752956,-0.010707022622227669,-0.05974531173706055,0.1155577003955841,-0.001613318920135498,-0.03451482951641083,-0.028886079788208008,-0.1274653437727112,1.5083769101360864,2.8023018286748256,0.9899557828903198,0.1271204650402069,-0.06187283992767334, 291, 214, 165, 257
1730928409109,9i,8.8796677070583,0.9s : 0.3s,-26.993302055769533,0.03182673919251386,0.07238079000451988,0.043481977580430535,0.00026520120445638895,-0.06549613922834396,0.11725972592830658,0.004902184009552002,-0.028857558965682983,-0.03215419501066208,-0.12611548264307193,1.5073578596507462,2.8023672195376736,0.9900625348091125,0.12578143179416656,-0.06289243698120117, 291, 214, 165, 257
1730928409119,9i,8.8796677070583,0.9s : 0.3s,-26.993302055769533,0.03251959090471426,0.07628126152557925,0.04066345247082674,0.008440306410193443,-0.07107280194759369,0.11921874433755875,0.006631433963775635,-0.015833139419555664,-0.03686261177062988,-0.12472257702835372,1.5062220675146591,2.80234832597956,0.9901643991470337,0.12439946830272675,-0.06402815133333206, 291, 214, 165, 257
1730928409129,9i,8.8796677070583,0.9s : 0.3s,-26.993302055769533,0.03322107665195656,0.0810752779689652,0.03492072132712022,0.0204843208193779,-0.07718364894390106,0.12274053692817688,0.007097721099853516,-0.003464996814727783,-0.034015774726867676,-0.12331469197681927,1.5050535999092425,2.802238018139247,0.9902626872062683,0.12300239503383636,-0.06519652903079987, 291, 214, 165, 257
1730928409139,9i,8.8796677070583,0.9s : 0.3s,-26.993302055769533,0.03392472650248887,0.0850885818091585,0.03363644513401398,0.03361903131008148,-0.07742200046777725,0.1251712143421173,0.008265972137451172,-0.004694931209087372,-0.032265178859233856,-0.12187880962663646,1.503883146990202,2.8020216945893517,0.9903609156608582,0.12157729268074036,-0.06636727601289749, 291, 214, 165, 257
1730928409149,9i,8.8796677070583,0.9s : 0.3s,-26.993302055769533,0.03462532230506603,0.09128325775362611,0.032187032229036586,0.07018396258354187,-0.07702137529850006,0.12659673392772675,0.008815944194793701,-0.002162069082260132,-0.03088057041168213,-0.12035714509495131,1.5027287499286943,2.8015790076363483,0.9904671311378479,0.12006677687168121,-0.06752301007509232, 291, 214, 165, 257
1730928409159,9i,8.8796677070583,0.9s : 0.3s,-26.993302055769533,0.03532505251997739,0.10017164316939332,0.03742994353713478,0.12469487637281418,-0.06800124794244766,0.12767504155635834,0.004894673824310303,0.014936067163944244,-0.0339699387550354,-0.11881195622884655,1.5015932917686259,2.8006435308515667,0.9905736446380615,0.11853262037038803,-0.06866034120321274, 291, 214, 165, 257
1730928409169,9i,8.8796677070583,0.9s : 0.3s,-26.993302055769533,0.03601586030256676,0.11352702640724663,0.0430280481317255,0.16465294361114502,-0.06969110667705536,0.13699977099895477,0.0057874321937561035,0.026825129985809326,-0.03314107656478882,-0.11718069846775746,1.500477450542988,2.7992082371400144,0.9906879663467407,0.11691270768642426,-0.06977911293506622, 291, 214, 165, 257
1730928409179,9i,8.8796677070583,0.9s : 0.3s,-26.993302055769533,0.03668977392768682,0.12223429097164352,0.03734326672270192,0.15385594964027405,-0.07383285462856293,0.1313496083021164,0.00923079252243042,0.021216392517089844,-0.029311716556549072,-0.11553035617568448,1.499352069267835,2.797667796200174,0.9907999634742737,0.11527352780103683,-0.07090765237808228, 291, 214, 165, 257
1730928409189,9i,8.8796677070583,0.9s : 0.3s,-26.993302055769533,0.037319660515689676,0.12265479103749694,0.012925146400197608,0.115078866481781,-0.07127094268798828,0.1310626119375229,0.003849029541015625,0.0037750378251075745,-0.01174706220626831,-0.11394887883217687,1.4982546038001527,2.7963802139709117,0.9909021854400635,0.1137024462223053,-0.07200810313224792, 291, 214, 165, 257
1730928409199,9i,8.8796677070583,0.9s : 0.3s,-26.993302055769533,0.03788691095688958,0.12230609310256962,0.007421431571587457,0.10344219207763672,-0.0748201385140419,0.12379539012908936,-0.0011892914772033691,-0.005926594138145447,-0.004305660724639893,-0.11253303688669347,1.497147312920583,2.7953608161571655,0.9909813404083252,0.11229567229747772,-0.07311704754829407, 291, 214, 165, 257
1730928409209,9i,8.8796677070583,0.9s : 0.3s,-26.993302055769533,0.03841854083425089,0.1219262694445772,0.00983791341325147,0.1003262922167778,-0.07113175094127655,0.12707507610321045,5.4895877838134766e-05,0.0015980824828147888,-0.009707093238830566,-0.11122576555348238,1.4960956409738961,2.7944080645428,0.9910494089126587,0.11099657416343689,-0.0741700828075409, 291, 214, 165, 257
1730928409219,9i,8.8796677070583,0.9s : 0.3s,-26.993302055769533,0.038928693428606616,0.12171983188649442,0.017945538241338255,0.09960723668336868,-0.07311366498470306,0.12942717969417572,-0.006653249263763428,0.008317254483699799,-0.014442987740039825,-0.10988478289069151,1.4950656091249774,2.793470979837428,0.9911201596260071,0.10966377705335617,-0.07520206272602081, 291, 214, 165, 257
1730928409229,9i,8.8796677070583,0.9s : 0.3s,-26.993302055769533,0.03942284085892479,0.12160051562387682,0.01835841461297348,0.10554421693086624,-0.06835593283176422,0.12829093635082245,-0.01220005750656128,0.0012747347354888916,-0.013658881187438965,-0.10855755774214985,1.4940700548840522,2.792521922349564,0.9911888837814331,0.10834446549415588,-0.07619981467723846, 291, 214, 165, 257
1730928409239,9i,8.8796677070583,0.9s : 0.3s,-26.993302055769533,0.03990273376094013,0.12216058636434687,0.019816407126594826,0.1285049319267273,-0.07449771463871002,0.11924204230308533,-0.013146400451660156,0.004212088882923126,-0.014216907322406769,-0.10738340586606644,1.493026535442707,2.7914155187369913,0.9912351369857788,0.10717714577913284,-0.07724393904209137, 291, 214, 165, 257
1730928409249,9i,8.8796677070583,0.9s : 0.3s,-26.993302055769533,0.04038280221997613,0.12352303962486733,0.03148117578174873,0.15196391940116882,-0.07025539129972458,0.11533758789300919,-0.013206839561462402,0.01742897927761078,-0.02264673262834549,-0.10633705181153381,1.4919802686250176,2.790078838802209,0.9912649989128113,0.1061367616057396,-0.07828977704048157, 291, 214, 165, 257
1730928409259,9i,8.8796677070583,0.9s : 0.3s,-26.993302055769533,0.040858260436643534,0.1271268962941669,0.03312177085054963,0.1679316908121109,-0.07625921815633774,0.10968822240829468,-0.014089345932006836,0.02146025002002716,-0.02092844247817993,-0.10527528765403495,1.490917729651062,2.7885219858985395,0.9912929534912109,0.10508093982934952,-0.07935193181037903, 291, 214, 165, 257
1730928409269,9i,8.8796677070583,0.9s : 0.3s,-26.993302055769533,0.04132703965411919,0.1289269551301404,0.027516642616316374,0.1701398491859436,-0.07397506386041641,0.10460588335990906,-0.01065152883529663,0.016326285898685455,-0.01942068338394165,-0.10414695882565772,1.489960446625251,2.786931012988175,0.991334080696106,0.10395878553390503,-0.08031036704778671, 291, 214, 165, 257
1730928409279,9i,8.8796677070583,0.9s : 0.3s,-26.993302055769533,0.041774281009258646,0.1307504461369343,0.019063100647155513,0.17149487137794495,-0.07613275945186615,0.1056799367070198,-0.01034688949584961,0.01129799336194992,-0.011344559490680695,-0.10298925789949065,1.489057814637217,2.78530121015676,0.9913805723190308,0.10280729085206985,-0.08121491968631744, 291, 214, 165, 257
1730928409289,9i,8.8796677070583,0.9s : 0.3s,-26.993302055769533,0.042199825163039405,0.13487160109012145,0.01813703490919685,0.18244139850139618,-0.08089631050825119,0.10631433129310608,-0.012566447257995605,0.009152345359325409,-0.009341895580291748,-0.10184828985326275,1.488094044077334,2.7836225640715098,0.9914180040359497,0.10167229920625687,-0.0821799784898758, 291, 214, 165, 257
1730928409299,9i,8.8796677070583,0.9s : 0.3s,-26.993302055769533,0.04260523936631974,0.1420856607219623,0.01352346542194756,0.19802461564540863,-0.08603142201900482,0.10502536594867706,-0.004805445671081543,0.007343485951423645,-0.01028907299041748,-0.10075235226568444,1.4870117207867746,2.7817908240317113,0.9914389252662659,0.10058198124170303,-0.08326224237680435, 291, 214, 165, 257
1730928409309,9i,8.8796677070583,0.9s : 0.3s,-26.993302055769533,0.04299470751579994,0.15356274348639135,0.011650991619519225,0.23674790561199188,-0.08058521151542664,0.10655198246240616,-0.004918992519378662,0.0018390342593193054,-0.010400339961051941,-0.09959816983261571,1.4859025758148776,2.779718785289701,0.9914608597755432,0.09943358600139618,-0.08437161147594452, 291, 214, 165, 257
1730928409319,9i,8.8796677070583,0.9s : 0.3s,-26.993302055769533,0.04336447034315834,0.1741218554711763,0.010874502647008523,0.3110154867172241,-0.07276883721351624,0.1070803552865982,-0.008485913276672363,-0.0010598301887512207,-0.006717205047607422,-0.09838649469145061,1.484814292768505,2.7770945161727334,0.9914878010749817,0.0982278436422348,-0.0854608416557312, 291, 214, 165, 257
1730928409329,9i,8.8796677070583,0.9s : 0.3s,-26.993302055769533,0.043717797852000334,0.2085387950813107,0.01623872332822599,0.4128193259239197,-0.08432215452194214,0.11276920139789581,-0.013003051280975342,0.006222642958164215,-0.007476329803466797,-0.0971405562458003,1.483589944980375,2.7735873735964613,0.9915035963058472,0.09698785096406937,-0.08668529987335205, 291, 214, 165, 257
1730928409339,9i,8.8796677070583,0.9s : 0.3s,-26.993302055769533,0.0440734310038347,0.25384301546815335,0.028058592671385447,0.5184749364852905,-0.09762251377105713,0.11625261604785919,-0.011294245719909668,0.018795602023601532,-0.017505712807178497,-0.09580714411227441,1.4821283175515276,2.7689710907769216,0.991503894329071,0.09566064178943634,-0.08814579993486404, 291, 214, 165, 257
1730928409349,9i,8.8796677070583,0.9s : 0.3s,-26.993302055769533,0.044421663877677146,0.2949208914570143,0.01571937508378079,0.558635413646698,-0.11055847257375717,0.12808243930339813,0.0022541284561157227,0.0065037161111831665,-0.014132209122180939,-0.09426762664234083,1.4805088363687133,2.7636410195415575,0.9915053844451904,0.0941280722618103,-0.08976458013057709, 291, 214, 165, 257
1730928409359,9i,8.8796677070583,0.9s : 0.3s,-26.993302055769533,0.0447432349764591,0.3252631241815267,0.021966766477247334,0.5634602308273315,-0.1191471666097641,0.1308755725622177,0.0060386061668396,-0.02103891223669052,-0.0018542483448982239,-0.09247503488187744,1.4788368111120909,2.7581560686305897,0.9915202856063843,0.0923432856798172,-0.09143762290477753, 291, 214, 165, 257
1730928409369,9i,8.8796677070583,0.9s : 0.3s,-26.993302055769533,0.04500183777247649,0.3477825983686538,0.040033015630641475,0.5720581412315369,-0.10441876947879791,0.13463185727596283,-0.0024172067642211914,-0.03848124295473099,0.010770022869110107,-0.09062250277897801,1.4772006689311479,2.752622681874888,0.991537868976593,0.09049851447343826,-0.09307558089494705, 291, 214, 165, 257
1730928409379,9i,8.8796677070583,0.9s : 0.3s,-26.993302055769533,0.04519407732171212,0.3732042266817289,0.03276895937745238,0.6235143542289734,-0.09706844389438629,0.1346595585346222,-0.0032085776329040527,-0.025252357125282288,0.020635604858398438,-0.08870793649681187,1.4756849615676304,2.7468075092850275,0.9915663599967957,0.08859164267778397,-0.09459464251995087, 291, 214, 165, 257
1730928409389,9i,8.8796677070583,0.9s : 0.3s,-26.993302055769533,0.045351325961285396,0.41733241022406664,0.011805914927103783,0.7627689838409424,-0.09399320930242538,0.11935096979141235,0.008322417736053467,0.007034681737422943,0.004542052745819092,-0.08679380307646131,1.4741424672835468,2.740055853640329,0.9915862679481506,0.08668487519025803,-0.09614020586013794, 291, 214, 165, 257
1730928409399,9i,8.8796677070583,0.9s : 0.3s,-26.993302055769533,0.04553501821378485,0.4854670885815613,0.06389034627030307,0.9531716704368591,-0.07953917235136032,0.11917813122272491,0.023304462432861328,0.05434560030698776,-0.024195745587348938,-0.08477881831281645,1.472549213126657,2.7315918001390416,0.9916037321090698,0.08467729389667511,-0.09773687273263931, 291, 214, 165, 257
1730928409409,9i,8.8796677070583,0.9s : 0.3s,-26.993302055769533,0.04586319366831244,0.5604924704639902,0.10915000456775037,1.0861377716064453,-0.07703220099210739,0.1402130126953125,0.01709514856338501,0.09739760309457779,-0.04620807617902756,-0.08250558660469268,1.470930846648958,2.7214458453452615,0.9916330575942993,0.08241201192140579,-0.09936044365167618, 291, 214, 165, 257
1730928409419,9i,8.8796677070583,0.9s : 0.3s,-26.993302055769533,0.04629364568570111,0.6322740494882346,0.11704927394825425,1.1862460374832153,-0.10942395776510239,0.08575163036584854,0.019956588745117188,0.10697860270738602,-0.04310273379087448,-0.08001169609154203,1.469297071108151,2.710186508102996,0.9916707873344421,0.07992634922266006,-0.10100092738866806, 291, 214, 165, 257
1730928409429,9i,8.8796677070583,0.9s : 0.3s,-26.993302055769533,0.04683474510205542,0.6980458127930305,0.11160717484992898,1.2631807327270508,-0.09120860695838928,0.09607280790805817,0.047890543937683105,0.08921574056148529,-0.04693835228681564,-0.07796227535686243,1.467319154279604,2.698219256424506,0.9916298985481262,0.07788332551717758,-0.10297887027263641, 291, 214, 165, 257
1730928409439,9i,8.8796677070583,0.9s : 0.3s,-26.993302055769533,0.04763976282914456,0.7518083798504078,0.1420900512994829,1.3007866144180298,-0.0892847403883934,0.10118794441223145,0.04728215932846069,0.11452551931142807,-0.06955491006374359,-0.0756406444572935,1.4654481820182428,2.685436444743599,0.9916126132011414,0.0755685344338417,-0.10485272854566574, 291, 214, 165, 257
1730928409449,9i,8.8796677070583,0.9s : 0.3s,-26.993302055769533,0.048584309414764354,0.7799753301979034,0.13665530528620184,1.256056785583496,-0.08583288639783859,0.07062148302793503,0.046471357345581055,0.11638200283050537,-0.05450059473514557,-0.07344238576975656,1.4636406915962759,2.672748833691635,0.9915844202041626,0.0733763799071312,-0.10666241496801376, 291, 214, 165, 257
1730928409459,9i,8.8796677070583,0.9s : 0.3s,-26.993302055769533,0.04956631285325387,0.7882191319328651,0.12525240693843384,1.1968408823013306,-0.11440407484769821,0.05999067425727844,0.04587298631668091,0.115150086581707,-0.018008112907409668,-0.07144945271215514,1.4617701381204105,2.6606214482127393,0.9915265440940857,0.07138867676258087,-0.10853273421525955, 291, 214, 165, 257
1730928409469,9i,8.8796677070583,0.9s : 0.3s,-26.993302055769533,0.05062523699193314,0.7889891631584404,0.14063957663860657,1.182055950164795,-0.1146729588508606,0.020208973437547684,0.04861265420913696,0.1267351508140564,-0.036803558468818665,-0.06976316072781381,1.4597792022076372,2.648827032426619,0.9914267659187317,0.06970658898353577,-0.11051976680755615, 291, 214, 165, 257
1730928409479,9i,8.8796677070583,0.9s : 0.3s,-26.993302055769533,0.05195187915986381,0.7853091287332433,0.190914559727835,1.140134334564209,-0.13280509412288666,-0.005199181381613016,0.029958248138427734,0.1809411197900772,-0.053020596504211426,-0.06837978979985385,1.4577705938882437,2.637257079896787,0.9912974238395691,0.06832651048898697,-0.11252167820930481, 291, 214, 165, 257
1730928409489,9i,8.8796677070583,0.9s : 0.3s,-26.993302055769533,0.05364208696904928,0.7724362904151676,0.22635460278525923,1.103609561920166,-0.10815807431936264,-0.04293111339211464,0.0011083483695983887,0.21947747468948364,-0.05536077916622162,-0.0673624499529042,1.455782948447569,2.6260914733301743,0.9911403059959412,0.06731151789426804,-0.11449971050024033, 291, 214, 165, 257
1730928409499,9i,8.8796677070583,0.9s : 0.3s,-26.993302055769533,0.055689310460408536,0.7691877587882612,0.23996424434669567,1.1195043325424194,-0.0888110026717186,-0.06104486808180809,-0.02712690830230713,0.23362913727760315,-0.04758566617965698,-0.06659101895266614,1.4540714809254225,2.614982061707994,0.9909942746162415,0.06654181331396103,-0.11620187759399414, 291, 214, 165, 257
1730928409509,9i,8.8796677070583,0.9s : 0.3s,-26.993302055769533,0.05825757932695435,0.7700729011694637,0.2713776029681453,1.158676028251648,-0.0702386125922203,-0.0964243933558464,-0.07380938529968262,0.2537635564804077,-0.06166064739227295,-0.06604772234820531,1.45251155725476,2.6035370179661275,0.9908475875854492,0.06599971652030945,-0.11775185912847519, 291, 214, 165, 257
1730928409519,9i,8.8796677070583,0.9s : 0.3s,-26.993302055769533,0.06145039542741621,0.7701903545116928,0.3148432044601285,1.1473450660705566,-0.06890596449375153,-0.13665996491909027,-0.10201841592788696,0.2904815077781677,-0.06587093323469162,-0.06582828322142867,1.4510644435833653,2.5918915088090406,0.9906904697418213,0.06578075140714645,-0.11918732523918152, 291, 214, 165, 257
1730928409529,9i,8.8796677070583,0.9s : 0.3s,-26.993302055769533,0.06504880058847966,0.7698860283902877,0.31447386291092505,1.1396737098693848,-0.054739054292440414,-0.1892290711402893,-0.11161863803863525,0.291910856962204,-0.03497344255447388,-0.06607796973584446,1.449693114586083,2.5803198292960854,0.9905098676681519,0.06602989137172699,-0.12054380029439926, 291, 214, 165, 257
1730928409539,9i,8.8796677070583,0.9s : 0.3s,-26.993302055769533,0.06888608110941463,0.7755166413705371,0.30433379949429296,1.1628820896148682,-0.049807414412498474,-0.24821676313877106,-0.1138036847114563,0.28210681676864624,-0.009139299392700195,-0.06685053031473569,1.4483762491994543,2.5686349233280437,0.9902992844581604,0.06680075079202652,-0.12184178829193115, 291, 214, 165, 257
1730928409549,9i,8.8796677070583,0.9s : 0.3s,-26.993302055769533,0.07322551415932976,0.7868672568196111,0.3345307879182297,1.1854599714279175,-0.0328436978161335,-0.30863624811172485,-0.13013726472854614,0.3067933917045593,-0.02920539677143097,-0.0681526439857514,1.4471487292377294,2.5565569846642147,0.99006187915802,0.06809989362955093,-0.12304648756980896, 291, 214, 165, 257
1730928409559,9i,8.8796677070583,0.9s : 0.3s,-26.993302055769533,0.078215176535238,0.7883028180551498,0.3722134520765082,1.1389368772506714,-0.036121517419815063,-0.38005128502845764,-0.15380042791366577,0.33687612414360046,-0.03745342791080475,-0.07013335578584994,1.4459993211017212,2.544556688942499,0.9897840619087219,0.0700758770108223,-0.12416736036539078, 291, 214, 165, 257
1730928409569,9i,8.8796677070583,0.9s : 0.3s,-26.993302055769533,0.08374842520290181,0.7863391601558198,0.38084027613922494,1.0813329219818115,-0.044717490673065186,-0.44817641377449036,-0.16784203052520752,0.3407966196537018,-0.026944994926452637,-0.07285738416711579,1.4447615460699015,2.5330099439085174,0.9894365072250366,0.07279294729232788,-0.1253679245710373, 291, 214, 165, 257
1730928409579,9i,8.8796677070583,0.9s : 0.3s,-26.993302055769533,0.08976111933355813,0.7969958265507763,0.3787939897428551,1.1318386793136597,-0.05208645761013031,-0.528199315071106,-0.18310195207595825,0.3296932876110077,-0.035509124398231506,-0.07631041072134688,1.4434060847439911,2.5214738265621714,0.9890104532241821,0.07623636722564697,-0.1266762763261795, 291, 214, 165, 257
1730928409589,9i,8.8796677070583,0.9s : 0.3s,-26.993302055769533,0.09661447814890553,0.8358671046247562,0.4271468033718656,1.258372187614441,-0.03128157556056976,-0.6026522517204285,-0.2043142318725586,0.3637087047100067,-0.09179359674453735,-0.08040876052179369,1.4419705137806997,2.508835908728429,0.9885094165802002,0.08032213896512985,-0.12805472314357758, 291, 214, 165, 257
1730928409599,9i,8.8796677070583,0.9s : 0.3s,-26.993302055769533,0.10463741044562541,0.8852813712043061,0.5091550642102556,1.3397034406661987,-0.025712642818689346,-0.675839364528656,-0.22464513778686523,0.4400556683540344,-0.12298150360584259,-0.08505611735614749,1.4405913291486643,2.4950208588414324,0.9879510998725891,0.08495359867811203,-0.12936806678771973, 291, 214, 165, 257
1730928409609,9i,8.8796677070583,0.9s : 0.3s,-26.993302055769533,0.11352656333470808,0.9314570665281553,0.521681374372111,1.3587584495544434,-0.03651309013366699,-0.7614469528198242,-0.2469240427017212,0.44743192195892334,-0.10480767488479614,-0.09041103737652206,1.4390146041878626,2.480637355467364,0.9872806668281555,0.09028791636228561,-0.1308639794588089, 291, 214, 165, 257
1730928409619,9i,8.8796677070583,0.9s : 0.3s,-26.993302055769533,0.12296173013514536,0.9804540823020056,0.4988329931174243,1.397885799407959,-0.04896097257733345,-0.8569726943969727,-0.24978643655776978,0.4138845205307007,-0.12304753065109253,-0.09662659465362515,1.4371952578082985,2.4658745645541296,0.9864657521247864,0.09647630155086517,-0.1325826495885849, 291, 214, 165, 257
1730928409629,9i,8.8796677070583,0.9s : 0.3s,-26.993302055769533,0.13300120596112489,1.0350543588012948,0.5224119077341367,1.4581010341644287,-0.04962622746825218,-0.9470531940460205,-0.25057339668273926,0.4312654137611389,-0.15536189079284668,-0.10363383018993368,1.4351461163571348,2.4504412252499908,0.9854979515075684,0.10344842821359634,-0.13450904190540314, 291, 214, 165, 257
1730928409639,9i,8.8796677070583,0.9s : 0.3s,-26.993302055769533,0.14362846969347287,1.0895197706982902,0.5452978107806252,1.4928867816925049,-0.06255161762237549,-1.038527250289917,-0.2501645088195801,0.45617014169692993,-0.16332857310771942,-0.11147400134117999,1.4328778125946797,2.434351233609274,0.9843565821647644,0.11124327033758163,-0.1366283893585205, 291, 214, 165, 257
1730928409649,9i,8.8796677070583,0.9s : 0.3s,-26.993302055769533,0.1545436089670674,1.1444547920976424,0.5325946500548091,1.5218573808670044,-0.08957764506340027,-1.1399627923965454,-0.2391124963760376,0.4481496214866638,-0.16013804078102112,-0.1201631223666793,1.4302061859437012,2.4178108751081555,0.9829937815666199,0.11987415701150894,-0.1391170173883438, 291, 214, 165, 257
1730928409659,9i,8.8796677070583,0.9s : 0.3s,-26.993302055769533,0.16557379943776093,1.2081120010990565,0.5267142938165432,1.5928564071655273,-0.10620615631341934,-1.2499017715454102,-0.2251415252685547,0.4475911855697632,-0.16248498857021332,-0.12979943951835093,1.427093721686171,2.400616547784287,0.9813672304153442,0.12943527102470398,-0.1420038491487503, 291, 214, 165, 257
1730928409669,9i,8.8796677070583,0.9s : 0.3s,-26.993302055769533,0.17697525595934552,1.2930598522166175,0.5541163486236259,1.7575898170471191,-0.10563738644123077,-1.3592112064361572,-0.23188191652297974,0.4750739336013794,-0.16607366502285004,-0.14029991793359275,1.4235258677375524,2.3820142016141537,0.9794558882713318,0.13984009623527527,-0.1452968716621399, 291, 214, 165, 257
1730928409679,9i,8.8796677070583,0.9s : 0.3s,-26.993302055769533,0.18900050036158447,1.385327912346142,0.6071320901342776,1.8824642896652222,-0.10996262729167938,-1.462320327758789,-0.24876052141189575,0.5202040672302246,-0.19004027545452118,-0.15153316938204578,1.4194826229040736,2.3616493729068577,0.9772458076477051,0.15095390379428864,-0.14900965988636017, 291, 214, 165, 257
1730928409689,9i,8.8796677070583,0.9s : 0.3s,-26.993302055769533,0.2016594031572517,1.4748322644317342,0.6391337217514031,1.9456802606582642,-0.11205533891916275,-1.582879900932312,-0.2594338059425354,0.5550884008407593,-0.18183201551437378,-0.16365888656299118,1.4150108980317062,2.3400985119593005,0.974689781665802,0.16292928159236908,-0.15308286249637604, 291, 214, 165, 257
1730928409699,9i,8.8796677070583,0.9s : 0.3s,-26.993302055769533,0.21458795031194933,1.5579357527395317,0.6185023290043921,1.9912041425704956,-0.12980930507183075,-1.6865919828414917,-0.2639543414115906,0.5400562882423401,-0.1456449180841446,-0.17671295156949599,1.4100345643174403,2.317751334639439,0.971733570098877,0.17579467594623566,-0.15757744014263153, 291, 214, 165, 257
1730928409709,9i,8.8796677070583,0.9s : 0.3s,-26.993302055769533,0.2275743793426441,1.6362185629849508,0.6074408429324384,2.021583080291748,-0.1576112061738968,-1.8034206628799438,-0.25646424293518066,0.5329769849777222,-0.13836908340454102,-0.19066470384646086,1.404402650869323,2.2947368183111965,0.968317449092865,0.18951159715652466,-0.1626255363225937, 291, 214, 165, 257
1730928409719,9i,8.8796677070583,0.9s : 0.3s,-26.993302055769533,0.24082363706870255,1.7116871432668972,0.6311658388973498,2.039375066757202,-0.19130419194698334,-1.9352869987487793,-0.2510584592819214,0.5619579553604126,-0.13979707658290863,-0.2056632739746581,1.3979905760623694,2.27109115425576,0.9643459916114807,0.20421649515628815,-0.16832335293293, 291, 214, 165, 257
1730928409729,9i,8.8796677070583,0.9s : 0.3s,-26.993302055769533,0.25439492267629227,1.7800443220878954,0.6515443927503224,2.041450023651123,-0.2352295219898224,-2.0405161380767822,-0.23794829845428467,0.5896892547607422,-0.14197635650634766,-0.22166140173686183,1.3907550290144557,2.246964490930847,0.9597654938697815,0.21985067427158356,-0.17468902468681335, 291, 214, 165, 257
1730928409739,9i,8.8796677070583,0.9s : 0.3s,-26.993302055769533,0.2680217041510107,1.8431674203109856,0.6373847415482826,2.010847806930542,-0.28596246242523193,-2.173542022705078,-0.20668023824691772,0.5887577533721924,-0.13002651929855347,-0.2386508505444437,1.3825822965628887,2.222514729869639,0.9544984102249146,0.23639193177223206,-0.18180182576179504, 291, 214, 165, 257
1730928409749,9i,8.8796677070583,0.9s : 0.3s,-26.993302055769533,0.281681590454037,1.905665965094397,0.6304965700116245,1.9993380308151245,-0.3535017669200897,-2.2988674640655518,-0.18536192178726196,0.5869934558868408,-0.1364022195339203,-0.2567767806598056,1.3733613625489414,2.197848275443549,0.9484235644340515,0.2539643347263336,-0.18972358107566833, 291, 214, 165, 257
1730928409759,9i,8.8796677070583,0.9s : 0.3s,-26.993302055769533,0.2955280846017823,1.9791234058640723,0.6571009785711015,2.055619478225708,-0.4055827856063843,-2.4349446296691895,-0.15874963998794556,0.6214535236358643,-0.14274370670318604,-0.2758774203129572,1.3628050136876948,2.1723780363142593,0.9414494633674622,0.27239128947257996,-0.19868668913841248, 291, 214, 165, 257
1730928409769,9i,8.8796677070583,0.9s : 0.3s,-26.993302055769533,0.30964375634931784,2.057637109164443,0.6822607621183848,2.0947792530059814,-0.42779621481895447,-2.572890281677246,-0.12690091133117676,0.653762936592102,-0.14822256565093994,-0.29594227182540195,1.3511248174163735,2.1456407129385724,0.9335417151451111,0.2916412949562073,-0.20843608677387238, 291, 214, 165, 257
1730928409779,9i,8.8796677070583,0.9s : 0.3s,-26.993302055769533,0.3240955154640283,2.1317408550595323,0.708857856029579,2.0613691806793213,-0.4934242367744446,-2.7130937576293945,-0.11809277534484863,0.6851754188537598,-0.138087660074234,-0.31702634646757244,1.338204769685726,2.1180943677640607,0.9245811104774475,0.31174248456954956,-0.2190135419368744, 291, 214, 165, 257
1730928409789,9i,8.8796677070583,0.9s : 0.3s,-26.993302055769533,0.33863077803806235,2.1887887687414236,0.6978635157705606,1.9262195825576782,-0.5584394931793213,-2.8382160663604736,-0.06937932968139648,0.6832515001296997,-0.12396524846553802,-0.33928839723480286,1.3240974207403664,2.090713973097604,0.9144416451454163,0.33281615376472473,-0.2302825152873993, 291, 214, 165, 257
1730928409799,9i,8.8796677070583,0.9s : 0.3s,-26.993302055769533,0.352984557818954,2.2364166074956424,0.6438007077229942,1.798627257347107,-0.6080845594406128,-2.9617624282836914,-0.012871026992797852,0.6369646787643433,-0.09268055856227875,-0.3626955852149421,1.3089870965387496,2.063749466074186,0.9030841588973999,0.35479575395584106,-0.24199019372463226, 291, 214, 165, 257
1730928409809,9i,8.8796677070583,0.9s : 0.3s,-26.993302055769533,0.36692662256426356,2.2877092247445128,0.6284777211637725,1.7397595643997192,-0.6593663692474365,-3.088514566421509,0.020460903644561768,0.6226675510406494,-0.08276906609535217,-0.38714498913544043,1.2927541847477806,2.0367892194724937,0.890427827835083,0.3775462508201599,-0.25415995717048645, 291, 214, 165, 257
1730928409819,9i,8.8796677070583,0.9s : 0.3s,-26.993302055769533,0.38081047034542626,2.3480251500737,0.6850534746821131,1.7373145818710327,-0.6960447430610657,-3.2167327404022217,0.06078803539276123,0.6745862364768982,-0.10264739394187927,-0.41248147549125014,1.2751865117275463,2.009053185030815,0.8763916492462158,0.40088391304016113,-0.2668897211551666, 291, 214, 165, 257
1730928409829,9i,8.8796677070583,0.9s : 0.3s,-26.993302055769533,0.39487842966745096,2.4158272584232408,0.7516624606708753,1.7560267448425293,-0.755990743637085,-3.335331916809082,0.12006443738937378,0.735798716545105,-0.09581875801086426,-0.4385052764607795,1.2559328617699388,1.9799410020876518,0.860877513885498,0.42458662390708923,-0.28038644790649414, 291, 214, 165, 257
1730928409839,9i,8.8796677070583,0.9s : 0.3s,-26.993302055769533,0.40913277691886746,2.4845173324970085,0.7900182009928949,1.7389057874679565,-0.8177616596221924,-3.4497218132019043,0.1842135787010193,0.7639186382293701,-0.08137831091880798,-0.46506837864910416,1.234712230543415,1.9494453825743432,0.8437864184379578,0.4484839141368866,-0.2947658598423004, 291, 214, 165, 257
1730928409849,9i,8.8796677070583,0.9s : 0.3s,-26.993302055769533,0.4234412698999299,2.5527202446559976,0.8045710463625797,1.7125531435012817,-0.8879837989807129,-3.5592591762542725,0.25013238191604614,0.7603633403778076,-0.08133849501609802,-0.49212667006335914,1.211583793319271,1.917741737279439,0.8250783085823059,0.4725012481212616,-0.3098202645778656, 291, 214, 165, 257
1730928409859,9i,8.8796677070583,0.9s : 0.3s,-26.993302055769533,0.43774959572373545,2.623183148655567,0.8204063917674277,1.6991227865219116,-0.9793016910552979,-3.669802665710449,0.30771535634994507,0.7555538415908813,-0.08669659495353699,-0.5196220011637546,1.1861702472790434,1.8844935131827378,0.8045893907546997,0.49655207991600037,-0.32568714022636414, 291, 214, 165, 257
1730928409869,9i,8.8796677070583,0.9s : 0.3s,-26.993302055769533,0.4520832480167296,2.6918357768616716,0.8547914744563404,1.7297087907791138,-1.050784945487976,-3.7422239780426025,0.3712043762207031,0.7665692567825317,-0.07243859767913818,-0.5471977869757131,1.158267156789163,1.8495756938174726,0.7823449969291687,0.5202962160110474,-0.3423866033554077, 291, 214, 165, 257
1730928409879,9i,8.8796677070583,0.9s : 0.3s,-26.993302055769533,0.46645381824569515,2.76304392266468,0.9051619652486733,1.8166499137878418,-1.1109126806259155,-3.812647819519043,0.45802944898605347,0.7784860730171204,-0.05904778838157654,-0.574389031077305,1.1273094011917393,1.8118862731802179,0.7583097219467163,0.543321967124939,-0.36023297905921936, 291, 214, 165, 257
1730928409889,9i,8.8796677070583,0.9s : 0.3s,-26.993302055769533,0.4807130668554909,2.8318328564551356,0.933446326079521,1.8262287378311157,-1.1930567026138306,-3.8917927742004395,0.543575644493103,0.7573633193969727,-0.04741692543029785,-0.6008330047471659,1.0935171488023299,1.7716798653417407,0.7326847910881042,0.5653297901153564,-0.37891340255737305, 291, 214, 165, 257
1730928409899,9i,8.8796677070583,0.9s : 0.3s,-26.993302055769533,0.4947846414797813,2.896121304900563,0.9508547463268031,1.8295185565948486,-1.275432825088501,-3.9566709995269775,0.6069083213806152,0.731178343296051,-0.034136027097702026,-0.6267052212681788,1.0566360231121867,1.7291372934330027,0.705240786075592,0.5864793062210083,-0.39834359288215637, 291, 214, 165, 257
1730928409909,9i,8.8796677070583,0.9s : 0.3s,-26.993302055769533,0.5085150256697141,2.952390808676017,0.9699913749116768,1.8455607891082764,-1.3305493593215942,-3.994858741760254,0.6834782958030701,0.6879466772079468,-0.021680772304534912,-0.65157738461422,1.016804214584867,1.6842344099694333,0.6762019395828247,0.6064413785934448,-0.41830626130104065, 291, 214, 165, 257
1730928409919,9i,8.8796677070583,0.9s : 0.3s,-26.993302055769533,0.5219297663246736,3.003361482320882,0.9906588724139539,1.846205234527588,-1.394170880317688,-4.03920316696167,0.7428483366966248,0.6551654934883118,-0.018426239490509033,-0.6752701262759577,0.9739893621560601,1.6368155236947912,0.645609974861145,0.6251081824302673,-0.43866583704948425, 291, 214, 165, 257
1730928409929,9i,8.8796677070583,0.9s : 0.3s,-26.993302055769533,0.535306711552478,3.049835318390656,1.0288232018475096,1.82462477684021,-1.5026328563690186,-4.073777675628662,0.7899167537689209,0.6590400338172913,-0.013226360082626343,-0.697622611228794,0.9279615213449298,1.5870246243968684,0.6134035587310791,0.6423975229263306,-0.45941439270973206, 291, 214, 165, 257
1730928409939,9i,8.8796677070583,0.9s : 0.3s,-26.993302055769533,0.5486089523308417,3.093946684401038,1.0806677865802086,1.8196734189987183,-1.5802743434906006,-4.11323356628418,0.8802251219749451,0.6268845796585083,-0.007894515991210938,-0.7185410256282115,0.8785837905042431,1.5348698516447044,0.5795069932937622,0.6582871079444885,-0.48044756054878235, 291, 214, 165, 257
1730928409949,9i,8.8796677070583,0.9s : 0.3s,-26.993302055769533,0.5618743200080307,3.133484654229902,1.1243666009465247,1.8257639408111572,-1.6251298189163208,-4.141834735870361,0.9537989497184753,0.5953119993209839,-0.008452236652374268,-0.7375752290601293,0.8262115052379652,1.479906310458502,0.5442480444908142,0.6724953055381775,-0.5015420913696289, 291, 214, 165, 257
1730928409959,9i,8.8796677070583,0.9s : 0.3s,-26.993302055769533,0.5759045196211001,3.1908284626626235,1.2084218898400894,2.0170400142669678,-1.7802462577819824,-4.166036128997803,1.007719874382019,0.6645361185073853,-0.056354820728302,-0.7538879945645355,0.7696260885622853,1.4219144002705209,0.5073100924491882,0.6844784021377563,-0.5235705375671387, 291, 214, 165, 257
1730928409969,9i,8.8796677070583,0.9s : 0.3s,-26.993302055769533,0.5911004063493613,3.2183980513399253,1.2827961313071,1.8565311431884766,-1.7932168245315552,-4.158893585205078,1.0591590404510498,0.7222765684127808,-0.04543787240982056,-0.7675794143898589,0.709858203226271,1.3612579244213723,0.4689781367778778,0.6943954229354858,-0.5457789897918701, 291, 214, 165, 257
1730928409979,9i,8.8796677070583,0.9s : 0.3s,-26.993302055769533,0.6064639873042348,3.2183437008852347,1.1162450476872154,1.6015385389328003,-1.8424904346466064,-4.140212535858154,1.0109823942184448,0.47134149074554443,0.04189038276672363,-0.7801945254820274,0.64958978301069,1.3009353286699488,0.42992034554481506,0.7034177184104919,-0.5660143494606018, 291, 214, 165, 257
1730928409989,9i,8.8796677070583,0.9s : 0.3s,-26.993302055769533,0.620364810548308,3.2097850578530727,1.033220740074508,1.3304637670516968,-1.9488245248794556,-4.139288902282715,0.9682782888412476,0.3496490716934204,0.08790779113769531,-0.7922724378615142,0.5883130503604451,1.2411385699460413,0.38970813155174255,0.7119508981704712,-0.5841692090034485, 291, 214, 165, 257
1730928409999,9i,8.8796677070583,0.9s : 0.3s,-26.993302055769533,0.6345170602297222,3.1825116514786633,1.0834830271538645,1.054816722869873,-1.973097324371338,-4.117568016052246,1.010034441947937,0.38628089427948,0.06747567653656006,-0.8039956159659722,0.5262366022148091,1.1818849420151472,0.3485012948513031,0.7201341390609741,-0.599961519241333, 291, 214, 165, 257
1730928410009,9i,8.8796677070583,0.9s : 0.3s,-26.993302055769533,0.6489031032490863,3.1530172805898276,1.1091325593440096,0.8166056871414185,-1.9683585166931152,-4.116612911224365,1.0374395847320557,0.3761049509048462,0.11153119802474976,-0.8153866763843702,0.4638408200980716,1.1229678127367313,0.3067223131656647,0.7279907464981079,-0.6131484508514404, 291, 214, 165, 257
1730928410019,9i,8.8796677070583,0.9s : 0.3s,-26.993302055769533,0.6634931373721371,3.118790954786212,1.0717716859914281,0.7192692756652832,-1.9255588054656982,-4.064277172088623,0.9974728226661682,0.3672996163368225,0.13723522424697876,-0.8257051327965308,0.4010616226333285,1.06383940792385,0.2647036612033844,0.7350260615348816,-0.6242345571517944, 291, 214, 165, 257
1730928410029,9i,8.8796677070583,0.9s : 0.3s,-26.993302055769533,0.6779079503943806,3.0861092385483673,1.0487331967646887,0.765830934047699,-1.860568881034851,-4.018831253051758,0.9592554569244385,0.40842002630233765,0.11341679096221924,-0.8333690189219024,0.3380258954324492,1.004042200180761,0.22298023104667664,0.7402008771896362,-0.6343364119529724, 291, 214, 165, 257
1730928410039,9i,8.8796677070583,0.9s : 0.3s,-26.993302055769533,0.692413822506725,3.055940815788865,1.0273880055375297,0.8146677613258362,-1.8199471235275269,-3.9799585342407227,0.9344182014465332,0.4211890697479248,0.07062935829162598,-0.8379001213084245,0.2748323134872035,0.9436370969280716,0.18156376481056213,0.7432398796081543,-0.6439171433448792, 291, 214, 165, 257
1730928410049,9i,8.8796677070583,0.9s : 0.3s,-26.993302055769533,0.7069648725508636,3.0322300406003757,1.0070721629834853,0.7760809063911438,-1.8469654321670532,-3.9603452682495117,0.9257036447525024,0.39447468519210815,0.04070413112640381,-0.839720950811948,0.21148660952450984,0.8831115905489161,0.1401531845331192,0.7444568276405334,-0.6527950167655945, 291, 214, 165, 257
1730928410059,9i,8.8796677070583,0.9s : 0.3s,-26.993302055769533,0.7214435592695847,3.0170209062452997,1.0011860987208987,0.7496882081031799,-1.9004273414611816,-3.9476914405822754,0.9387244582176208,0.3480824828147888,0.0029293298721313477,-0.8392949978637851,0.1478000629935277,0.8228282271860186,0.09836957603693008,0.7441723942756653,-0.660705029964447, 291, 214, 165, 257
1730928410069,9i,8.8796677070583,0.9s : 0.3s,-26.993302055769533,0.7360681637536048,3.0002859578267387,1.001615479720248,0.7944121360778809,-1.8760265111923218,-3.914583683013916,0.9481272101402283,0.32076579332351685,-0.037385404109954834,-0.8362445062107287,0.08455059842979763,0.763128068770512,0.056602947413921356,0.742131233215332,-0.6678604483604431, 291, 214, 165, 257
1730928410079,9i,8.8796677070583,0.9s : 0.3s,-26.993302055769533,0.7506412263941946,2.986015712668198,0.9783319887893996,0.8515313267707825,-1.848892092704773,-3.9008333683013916,0.9256137609481812,0.31412285566329956,-0.04122471809387207,-0.8301489618072291,0.02247893865886864,0.7044651754256979,0.015166744589805603,0.7380318641662598,-0.6745954155921936, 291, 214, 165, 257
1730928410089,9i,8.8796677070583,0.9s : 0.3s,-26.993302055769533,0.7653181569184623,2.9759961556170746,0.9670953710579442,0.9527835249900818,-1.839638590812683,-3.8828306198120117,0.9085423946380615,0.3298380374908447,-0.032109856605529785,-0.8208362882634452,-0.038049107153823675,0.647172215493701,-0.025928379967808723,0.7317160964012146,-0.6811162829399109, 291, 214, 165, 257
1730928410099,9i,8.8796677070583,0.9s : 0.3s,-26.993302055769533,0.7803560812810311,2.9756173748161556,0.9740312560319669,1.1378567218780518,-1.860106348991394,-3.8635218143463135,0.9025411605834961,0.36451828479766846,-0.035815656185150146,-0.8079012892765134,-0.09673468467161472,0.5918852814985369,-0.06674111634492874,0.7228385210037231,-0.6877864599227905, 291, 214, 165, 257
1730928410109,9i,8.8796677070583,0.9s : 0.3s,-26.993302055769533,0.7958213241419272,2.986413898067352,0.9856294760705451,1.3727349042892456,-1.8917346000671387,-3.8514482975006104,0.8950304985046387,0.4016810655593872,-0.09506940841674805,-0.790536313903085,-0.15316617824291853,0.5392773516906706,-0.10732615739107132,0.7107306718826294,-0.6952289342880249, 291, 214, 165, 257
1730928410119,9i,8.8796677070583,0.9s : 0.3s,-26.993302055769533,0.8117066711197375,3.002654642566194,0.9697576959841434,1.547930359840393,-1.8961334228515625,-3.83589768409729,0.867536187171936,0.4050596356391907,-0.15407025814056396,-0.7692374108767368,-0.20697766302175602,0.4897271898724193,-0.1476418823003769,0.6955875754356384,-0.7031073570251465, 291, 214, 165, 257
1730928410129,9i,8.8796677070583,0.9s : 0.3s,-26.993302055769533,0.8279425863222711,3.028303600078879,0.9405010892482776,1.7241671085357666,-1.9543899297714233,-3.8178157806396484,0.8404238224029541,0.3940100073814392,-0.1516120433807373,-0.7444524158115802,-0.2576603071901837,0.44389966854062185,-0.18740880489349365,0.6775692105293274,-0.7111807465553284, 291, 214, 165, 257
1730928410139,9i,8.8796677070583,0.9s : 0.3s,-26.993302055769533,0.8442315436975489,3.055179317341338,0.9231925042587971,1.6215249300003052,-2.057623863220215,-3.8442542552948,0.8382609486579895,0.35466980934143066,-0.1543123722076416,-0.7178291090287718,-0.3067333503727071,0.40066649356207407,-0.22743649780750275,0.6577510237693787,-0.7180782556533813, 291, 214, 165, 257
1730928410149,9i,8.8796677070583,0.9s : 0.3s,-26.993302055769533,0.8607020834517111,3.074631590357485,0.9285489546466693,1.6386600732803345,-2.1062588691711426,-3.812593936920166,0.8337616324424744,0.36069077253341675,-0.1922156810760498,-0.6897958913993611,-0.3537917096970919,0.36009431261881036,-0.2672487497329712,0.6363797783851624,-0.7236014604568481, 291, 214, 165, 257
1730928410159,9i,8.8796677070583,0.9s : 0.3s,-26.993302055769533,0.8771706764196961,3.0831653652015243,0.9063141971172569,1.5273218154907227,-2.179415225982666,-3.784778118133545,0.8252655267715454,0.355998694896698,-0.11664974689483643,-0.6611797897314874,-0.39886175861193385,0.32228062242962685,-0.3065279424190521,0.614048421382904,-0.7273136973381042, 291, 214, 165, 257
1730928410169,9i,8.8796677070583,0.9s : 0.3s,-26.993302055769533,0.8934512198934063,3.092972724486444,0.874500026121378,1.4557043313980103,-2.302562713623047,-3.766176462173462,0.8031314611434937,0.34255772829055786,-0.048829853534698486,-0.6321157514803001,-0.4426627873813678,0.28675884481440445,-0.3455815613269806,0.5908530354499817,-0.7290172576904297, 291, 214, 165, 257
1730928410179,9i,8.8796677070583,0.9s : 0.3s,-26.993302055769533,0.9096408952452989,3.1125527414891527,0.87877785637394,1.4046872854232788,-2.436357021331787,-3.782289743423462,0.8098399639129639,0.33701109886169434,-0.05322849750518799,-0.6024098865152353,-0.4857431766723253,0.25325354888343554,-0.3846845030784607,0.5666297674179077,-0.7286621928215027, 291, 214, 165, 257
1730928410189,9i,8.8796677070583,0.9s : 0.3s,-26.993302055769533,0.9259866848560401,3.1282352304344796,0.9065651086355749,1.2795835733413696,-2.5347816944122314,-3.7773218154907227,0.8314207792282104,0.34028083086013794,-0.12169116735458374,-0.5723041684290878,-0.5283086170064233,0.2213420151770961,-0.42375192046165466,0.5415704846382141,-0.7260411381721497, 291, 214, 165, 257
1730928410199,9i,8.8796677070583,0.9s : 0.3s,-26.993302055769533,0.9425029514592893,3.1389689687534714,0.9181062969769258,1.2333903312683105,-2.5869619846343994,-3.7534873485565186,0.8374879360198975,0.34272176027297974,-0.15516096353530884,-0.5418507838353287,-0.5698345048799568,0.19132847571502343,-0.4622134864330292,0.5157225728034973,-0.7213799953460693, 291, 214, 165, 257
1730928410209,9i,8.8796677070583,0.9s : 0.3s,-26.993302055769533,0.9591577382622984,3.1395879654474266,0.91916563879784,1.1560137271881104,-2.6030075550079346,-3.7322959899902344,0.8476871252059937,0.3269200623035431,-0.13933873176574707,-0.5112206648981794,-0.6100127250207912,0.1629383193786942,-0.49963435530662537,0.48924222588539124,-0.7148481011390686, 291, 214, 165, 257
1730928410219,9i,8.8796677070583,0.9s : 0.3s,-26.993302055769533,0.9759733082075742,3.1398359776358005,0.9420066982531281,1.1511467695236206,-2.6612319946289062,-3.688690185546875,0.8804938197135925,0.3249491751194,-0.08071732521057129,-0.4799652503924267,-0.648895620732689,0.13657249316533826,-0.5360268354415894,0.4617483615875244,-0.7067275643348694, 291, 214, 165, 257
1730928410229,9i,8.8796677070583,0.9s : 0.3s,-26.993302055769533,0.993289011309185,3.124927547251564,1.0178274055925125,1.131252408027649,-2.6686482429504395,-3.589035987854004,0.9578103423118591,0.3365649878978729,-0.0727735161781311,-0.4484582282118632,-0.6863388733724272,0.11250010581122812,-0.571045994758606,0.4335767328739166,-0.6970779895782471, 291, 214, 165, 257
1730928410239,9i,8.8796677070583,0.9s : 0.3s,-26.993302055769533,1.0109247476913275,3.096760304092155,1.0339797698937379,1.0832226276397705,-2.654489517211914,-3.4980642795562744,0.9866457581520081,0.30464160442352295,-0.05327105522155762,-0.4170445145658649,-0.7221378547139891,0.09065544690657508,-0.6043370366096497,0.4050600528717041,-0.6860781908035278, 291, 214, 165, 257
1730928410249,9i,8.8796677070583,0.9s : 0.3s,-26.993302055769533,1.0284536625107135,3.063248427511461,1.013366841329864,1.0847920179367065,-2.636284828186035,-3.4193825721740723,0.9844747185707092,0.23855692148208618,-0.028504014015197754,-0.38579529665703666,-0.7563454088266984,0.07081572760645408,-0.6358268857002258,0.37629610300064087,-0.6738884449005127, 291, 214, 165, 257
1730928410259,9i,8.8796677070583,0.9s : 0.3s,-26.993302055769533,1.0458322067143146,3.0281719874869437,1.0323443349679355,1.1937365531921387,-2.611229181289673,-3.3252999782562256,1.0142126083374023,0.1914476752281189,-0.02134007215499878,-0.3540499580631059,-0.7889182079632235,0.053422538588023386,-0.6655800342559814,0.34669941663742065,-0.6609107255935669, 291, 214, 165, 257
1730928410269,9i,8.8796677070583,0.9s : 0.3s,-26.993302055769533,1.0631637687850184,2.977646419456931,1.0534391472232603,1.2205909490585327,-2.5662519931793213,-3.1803836822509766,1.0392262935638428,0.17198801040649414,-0.012762129306793213,-0.3221896367027748,-0.8196448674952559,0.038816323255243985,-0.6932945251464844,0.3166442811489105,-0.6473634243011475, 291, 214, 165, 257
1730928410279,9i,8.8796677070583,0.9s : 0.3s,-26.993302055769533,1.0803085471684954,2.9165637863055283,1.0639755732594165,1.1556510925292969,-2.5529367923736572,-3.0436177253723145,1.055471658706665,0.12685182690620422,0.0439569354057312,-0.2911543063138982,-0.8490994423478406,0.026091395100928953,-0.7190917730331421,0.28705814480781555,-0.6328544020652771, 291, 214, 165, 257
1730928410289,9i,8.8796677070583,0.9s : 0.3s,-26.993302055769533,1.0970518034479977,2.8348259032145617,1.0847575715402862,1.101466178894043,-2.480299711227417,-2.861344575881958,1.0771846771240234,0.05532488226890564,0.11537468433380127,-0.261345537156287,-0.8773379325712706,0.01508166046517181,-0.7429258823394775,0.25838062167167664,-0.6174954771995544, 291, 214, 165, 257
1730928410299,9i,8.8796677070583,0.9s : 0.3s,-26.993302055769533,1.1128865201298843,2.7328403937026926,1.1205479001625376,1.0327143669128418,-2.3640129566192627,-2.6806230545043945,1.095434308052063,-0.07947757840156555,0.22211390733718872,-0.233149734857256,-0.9039014472448815,0.0055794864116317875,-0.7644866108894348,0.23104317486286163,-0.6018133759498596, 291, 214, 165, 257
1730928410309,9i,8.8796677070583,0.9s : 0.3s,-26.993302055769533,1.1273452371917008,2.6134884103176805,1.1179404263054453,1.0730355978012085,-2.246689796447754,-2.437802314758301,1.051063060760498,-0.19238802790641785,0.32870060205459595,-0.20645537721911128,-0.928597348717384,-0.0018878417379060983,-0.7837749719619751,0.20499184727668762,-0.5862381458282471, 291, 214, 165, 257
1730928410319,9i,8.8796677070583,0.9s : 0.3s,-26.993302055769533,1.1405601404303924,2.478406027066481,1.1201853766293068,1.0539923906326294,-2.1220009326934814,-2.195664405822754,1.021612524986267,-0.2384769320487976,0.3927491307258606,-0.18145720937302046,-0.9514317884765873,-0.006976467714759031,-0.8008790016174316,0.180463045835495,-0.570986807346344, 291, 214, 165, 257
1730928410329,9i,8.8796677070583,0.9s : 0.3s,-26.993302055769533,1.1525055643534337,2.329429874813553,1.2066624959495038,1.0007803440093994,-2.004957675933838,-1.937070369720459,1.045310616493225,-0.35330700874328613,0.4883996844291687,-0.1585975790466049,-0.9726908196624625,-0.010441915146406385,-0.8160324096679688,0.1579335480928421,-0.5560111999511719, 291, 214, 165, 257
1730928410339,9i,8.8796677070583,0.9s : 0.3s,-26.993302055769533,1.1628794072526527,2.1530599040620757,1.3129433926571654,0.8818219900131226,-1.82203209400177,-1.6389247179031372,1.047673225402832,-0.5138643980026245,0.6017844676971436,-0.13845185705592983,-0.9921603528601852,-0.012518192177653138,-0.8291981220245361,0.1380099505186081,-0.541649341583252, 291, 214, 165, 257
1730928410349,9i,8.8796677070583,0.9s : 0.3s,-26.993302055769533,1.171542340564209,1.9572283974932039,1.366321749171082,0.8499047756195068,-1.608532428741455,-1.323969841003418,1.0079257488250732,-0.6414088010787964,0.6629596948623657,-0.12138194714294938,-1.0094163719671776,-0.013296834849568256,-0.8402929306030273,0.12108410149812698,-0.5284380316734314, 291, 214, 165, 257
1730928410359,9i,8.8796677070583,0.9s : 0.3s,-26.993302055769533,1.178606045046466,1.749733259565676,1.3995140639841526,0.8668728470802307,-1.3611202239990234,-1.0233736038208008,0.9554874300956726,-0.7180642485618591,0.7280570864677429,-0.10693989556192567,-1.0241809363288101,-0.012213788612516204,-0.8494086265563965,0.1067361831665039,-0.5168294310569763, 291, 214, 165, 257
1730928410369,9i,8.8796677070583,0.9s : 0.3s,-26.993302055769533,1.1843489078938083,1.5295186311306868,1.4439739515502903,0.9401159286499023,-1.0558034181594849,-0.6922518610954285,0.9255194067955017,-0.779364824295044,0.7880768179893494,-0.09486048108129032,-1.0359092640903544,-0.00882490593467569,-0.8564583659172058,0.09471827745437622,-0.5074521899223328, 291, 214, 165, 257
1730928410379,9i,8.8796677070583,0.9s : 0.3s,-26.993302055769533,1.1890351587556656,1.290537804153751,1.5016923239205129,0.9124875068664551,-0.7283347845077515,-0.32060933113098145,0.8904811143875122,-0.8203352093696594,0.8883543014526367,-0.08582143016614627,-1.0444053356942375,-0.003381255217786259,-0.8614438772201538,0.0857161208987236,-0.5005671381950378, 291, 214, 165, 257
1730928410389,9i,8.8796677070583,0.9s : 0.3s,-26.993302055769533,1.1928673489929105,1.0360122808019279,1.5621547450679956,0.8303995132446289,-0.35943689942359924,0.05552688241004944,0.8654897212982178,-0.879366934299469,0.9581068754196167,-0.08027409447211696,-1.0492116087923862,0.0036133102156840667,-0.8642387390136719,0.08018790930509567,-0.4966503381729126, 291, 214, 165, 257
1730928410399,9i,8.8796677070583,0.9s : 0.3s,-26.993302055769533,1.1959500856388277,0.7814028295638057,1.6449576279507923,0.7252704501152039,0.026906538754701614,0.46503716707229614,0.8374709486961365,-0.9503000974655151,1.0495035648345947,-0.0786924784432271,-1.0502762855961627,0.011592308588750596,-0.8648759722709656,0.07861128449440002,-0.49579235911369324, 291, 214, 165, 257
1730928410409,9i,8.8796677070583,0.9s : 0.3s,-26.993302055769533,1.1987427667818857,0.596407490443655,1.7204075298556405,0.7187409400939941,0.4282457232475281,0.914849579334259,0.8366470336914062,-0.9748952388763428,1.1442915201187134,-0.08109371973197779,-1.0472337537420426,0.02131872281100171,-0.8631975054740906,0.08100486546754837,-0.4983256757259369, 291, 214, 165, 257
1730928410419,9i,8.8796677070583,0.9s : 0.3s,-26.993302055769533,1.2016718624727274,0.5735860504035111,1.8193037545572999,0.6054588556289673,0.8429211974143982,1.3390735387802124,0.8636676669120789,-1.022955298423767,1.231871247291565,-0.08742820161381508,-1.0399296939209073,0.03280827381524052,-0.8590750098228455,0.08731686323881149,-0.5043472647666931, 291, 214, 165, 257
1730928410429,9i,8.8796677070583,0.9s : 0.3s,-26.993302055769533,1.2049332802991537,0.7604048598387618,1.9661001855617632,0.5251835584640503,1.2504490613937378,1.786704659461975,0.9053731560707092,-1.1358784437179565,1.3250017166137695,-0.09797979023886257,-1.028247390307997,0.04569439018000798,-0.8522880673408508,0.09782309830188751,-0.5138442516326904, 291, 214, 165, 257
1730928410439,9i,8.8796677070583,0.9s : 0.3s,-26.993302055769533,1.209232549916609,1.058512073581534,2.065922317888575,0.4922866225242615,1.6618938446044922,2.185831308364868,0.9967853426933289,-1.1967782974243164,1.3572677373886108,-0.11229749405236233,-1.012167143480116,0.06043994972922758,-0.8426413536071777,0.11206161975860596,-0.5266858339309692, 291, 214, 165, 257
1730928410449,9i,8.8796677070583,0.9s : 0.3s,-26.993302055769533,1.2154353986387965,1.404605008268,2.1201681334347633,0.4430207908153534,2.0862114429473877,2.615793466567993,1.1202785968780518,-1.2171415090560913,1.3261430263519287,-0.12993668597294417,-0.9913379887446271,0.07750274902926035,-0.8297055959701538,0.1295713633298874,-0.5429548621177673, 291, 214, 165, 257
1730928410459,9i,8.8796677070583,0.9s : 0.3s,-26.993302055769533,1.2242212790616143,1.7751766561456288,2.1784549445378656,0.38674527406692505,2.5189292430877686,3.0505664348602295,1.2419198751449585,-1.2189061641693115,1.3105604648590088,-0.15116767511191107,-0.9655981253477227,0.09689779325161034,-0.8130107522010803,0.1505925953388214,-0.5624370574951172, 291, 214, 165, 257
1730928410469,9i,8.8796677070583,0.9s : 0.3s,-26.993302055769533,1.2363914592737741,2.175969493132411,2.2715723322819055,0.3970246911048889,2.98142409324646,3.553508996963501,1.413305401802063,-1.2121849060058594,1.3012365102767944,-0.17573460220687112,-0.9344083313845604,0.11954628039428195,-0.7918609380722046,0.17483147978782654,-0.5851413011550903, 291, 214, 165, 257
1730928410479,9i,8.8796677070583,0.9s : 0.3s,-26.993302055769533,1.2526761087815117,2.6031000698781614,2.37987619397368,0.40767785906791687,3.469836711883545,4.083652019500732,1.6015510559082031,-1.1863113641738892,1.3005807399749756,-0.20353722928128193,-0.8970939386555193,0.14650197792716493,-0.7653849124908447,0.20213480293750763,-0.611005425453186, 291, 214, 165, 257
1730928410489,9i,8.8796677070583,0.9s : 0.3s,-26.993302055769533,1.27375727910047,3.0604961174280114,2.5655722910761063,0.42475271224975586,4.013850212097168,4.649147987365723,1.8269622325897217,-1.1929080486297607,1.3495705127716064,-0.2343854691269774,-0.8527648873835347,0.17840858757310407,-0.732510507106781,0.2322452962398529,-0.6399146318435669, 291, 214, 165, 257
1730928410499,9i,8.8796677070583,0.9s : 0.3s,-26.993302055769533,1.3003654739138568,3.5605489293481054,2.8463065070581974,0.44676265120506287,4.62367057800293,5.300532341003418,2.103666305541992,-1.2558796405792236,1.4487287998199463,-0.2679554480236229,-0.8001346431333706,0.21649381136957183,-0.6918472051620483,0.26476040482521057,-0.671751081943512, 291, 214, 165, 257
1730928410509,9i,8.8796677070583,0.9s : 0.3s,-26.993302055769533,1.3332981161738355,4.104413603561315,3.162665499791204,0.332246333360672,5.293344497680664,6.00574254989624,2.4256627559661865,-1.340209722518921,1.5239590406417847,-0.3043439287392054,-0.7377913604002152,0.26172915037135586,-0.6417425870895386,0.2996673285961151,-0.7059504985809326, 291, 214, 165, 257
1730928410519,9i,8.8796677070583,0.9s : 0.3s,-26.993302055769533,1.3736185534960572,4.697909813310261,3.5318193475582267,0.0044463640078902245,6.032195568084717,6.782961368560791,2.7943077087402344,-1.3984349966049194,1.6461992263793945,-0.3441859452230987,-0.6643808825126146,0.31449479262419033,-0.5804102420806885,0.337430477142334,-0.7411240339279175, 291, 214, 165, 257
1730928410529,9i,8.8796677070583,0.9s : 0.3s,-26.993302055769533,1.4226329387737098,5.368428582990856,3.982733381128726,-0.4964078366756439,6.921392917633057,7.688852310180664,3.214534282684326,-1.437679409980774,1.8606483936309814,-0.3881651682877278,-0.5777027157565684,0.3759483221026419,-0.505473792552948,0.37849071621894836,-0.7753973603248596, 291, 214, 165, 257
1730928410539,9i,8.8796677070583,0.9s : 0.3s,-26.993302055769533,1.4819909192717529,6.123704960050547,4.5249114203169185,-1.1860620975494385,7.827815532684326,8.740534782409668,3.7326273918151855,-1.4701523780822754,2.093076229095459,-0.43658840963219697,-0.4746354013253686,0.44885664627675265,-0.4141460657119751,0.4228503406047821,-0.8060277104377747, 291, 214, 165, 257
1730928410549,9i,8.8796677070583,0.9s : 0.3s,-26.993302055769533,1.554097185339386,6.964347759919691,5.231645629940253,-1.8860260248184204,8.719775199890137,9.928227424621582,4.459975719451904,-1.5147753953933716,2.276881217956543,-0.488209130633448,-0.3523578742640681,0.5373668340558495,-0.3047938644886017,0.4690449833869934,-0.8289135098457336, 291, 214, 165, 257
1730928410559,9i,8.8796677070583,0.9s : 0.3s,-26.993302055769533,1.6415233398420968,7.876446507934809,6.033850360300841,-2.3913116455078125,9.561052322387695,11.232183456420898,5.370430946350098,-1.54172682762146,2.2779157161712646,-0.5381011780389727,-0.20681360500171492,0.6473301933802398,-0.17632417380809784,0.5125064253807068,-0.8403850793838501, 291, 214, 165, 257
1730928410569,9i,8.8796677070583,0.9s : 0.3s,-26.993302055769533,1.7462991387584212,8.758129061492578,6.861544849095215,-2.7471673488616943,10.15829849243164,12.236631393432617,6.367403030395508,-1.4766907691955566,2.0871896743774414,-0.5779969414524838,-0.036811148148316666,0.7813237917827679,-0.030824536457657814,0.5463473796844482,-0.8369913101196289, 291, 214, 165, 257
1730928410579,9i,8.8796677070583,0.9s : 0.3s,-26.993302055769533,1.8712005993293364,9.479587080886258,7.941454504274897,-3.3209517002105713,10.31633472442627,12.657066345214844,7.5550079345703125,-1.347228765487671,2.042921781539917,-0.6009356382368729,0.15045255688334083,0.933334301255534,0.12362668663263321,0.5654144287109375,-0.8154894709587097, 291, 214, 165, 257
1730928410589,9i,8.8796677070583,0.9s : 0.3s,-26.993302055769533,2.019624030216023,10.05058768893959,9.207202415928263,-4.688329219818115,10.30896282196045,12.743355751037598,8.881746292114258,-0.95125412940979,2.2321009635925293,-0.6079529865044186,0.3455764322782801,1.0948439841444768,0.2780434787273407,0.5711884498596191,-0.7722924947738647, 291, 214, 165, 257
1730928410599,9i,8.8796677070583,0.9s : 0.3s,-26.993302055769533,2.1933678692757757,10.523237805746122,10.385318821560546,-6.942689418792725,9.921371459960938,12.748260498046875,10.113142013549805,-0.024856209754943848,2.361903429031372,-0.6049925792728436,0.5444234699788454,1.2653160942746056,0.4259966015815735,0.5687559843063354,-0.703593373298645, 291, 214, 165, 257
1730928410609,9i,8.8796677070583,0.9s : 0.3s,-26.993302055769533,2.3919812572067833,10.869493930697024,11.46071934585526,-9.684402465820312,8.62187671661377,12.451862335205078,11.171345710754395,1.3045554161071777,2.2016489505767822,-0.5955560522803015,0.7413102569631107,1.4481260581212971,0.5590009093284607,0.5609691739082336,-0.6105995774269104, 291, 214, 165, 257
1730928410619,9i,8.8796677070583,0.9s : 0.3s,-26.993302055769533,2.613915801302546,11.197979998279742,12.613481116916136,-13.166279792785645,6.415151119232178,12.046528816223145,12.10407829284668,3.1019489765167236,1.7231097221374512,-0.5806640564881316,0.9280713562971399,1.6482517037694147,0.6692680716514587,0.5485792756080627,-0.5011399388313293, 291, 214, 165, 257
1730928410629,9i,8.8796677070583,0.9s : 0.3s,-26.993302055769533,2.8552978433670932,11.676285457037716,13.69469169018562,-16.553932189941406,3.836859941482544,11.680376052856445,12.405344009399414,5.6191582679748535,1.4412081241607666,-0.5579847324959001,1.1012312654311682,1.8729864951888275,0.7565059065818787,0.5294776558876038,-0.3838653564453125, 291, 214, 165, 257
1730928410639,9i,8.8796677070583,0.9s : 0.3s,-26.993302055769533,3.1092204240659105,12.201305624214699,14.567669373004863,-18.0528564453125,0.8410984873771667,11.618300437927246,11.652168273925781,8.551288604736328,1.821929931640625,-0.51794777697764,1.2482877438098468,2.112749687739827,0.8240429162979126,0.49509814381599426,-0.2753751873970032, 291, 214, 165, 257
1730928410649,9i,8.8796677070583,0.9s : 0.3s,-26.993302055769533,3.365947972991935,12.58276680382626,15.216304631066494,-17.006074905395508,-1.3115475177764893,12.311147689819336,9.846403121948242,11.366114616394043,2.322866916656494,-0.4495669803921339,1.3513937181322273,2.3421592267072917,0.8790452480316162,0.4345755875110626,-0.19602026045322418, 291, 214, 165, 257
1730928410659,9i,8.8796677070583,0.9s : 0.3s,-26.993302055769533,3.6141713115231724,12.370883420293556,15.531365664112657,-13.17117977142334,-1.6890583038330078,12.399860382080078,7.144439697265625,13.561108589172363,2.5053212642669678,-0.3564735396666879,1.4108452084258307,2.529369272252563,0.9251709580421448,0.3489716351032257,-0.14925718307495117, 291, 214, 165, 257
1730928410669,9i,8.8796677070583,0.9s : 0.3s,-26.993302055769533,3.8411305906086417,11.927511990824394,14.967246075591715,-10.961493492126465,-2.5267879962921143,12.331988334655762,3.7052247524261475,14.29224681854248,2.4538633823394775,-0.2510619212203256,1.4319419758649465,2.671769731652805,0.9593262076377869,0.2484327256679535,-0.13406936824321747, 291, 214, 165, 257
1730928410679,9i,8.8796677070583,0.9s : 0.3s,-26.993302055769533,4.0418753925085,11.417432360008249,12.492102884231997,-9.11786937713623,-3.372224807739258,12.406529426574707,1.5979411602020264,12.164102554321289,2.3524088859558105,-0.14344172308049835,1.427521709264149,2.792091728006271,0.97958904504776,0.14295032620429993,-0.14131855964660645, 291, 214, 165, 257
1730928410689,9i,8.8796677070583,0.9s : 0.3s,-26.993302055769533,4.209783602152094,11.112962732507912,7.868095301051418,-5.014383792877197,-5.982937335968018,15.078668594360352,0.33518296480178833,7.618861198425293,1.9358538389205933,-0.02306303148338042,1.3894724020651683,2.8914467063038023,0.983344554901123,0.023060986772179604,-0.1802840530872345, 291, 214, 165, 257
1730928410699,9i,8.8796677070583,0.9s : 0.3s,-26.993302055769533,4.3393640766682395,11.689544777440782,2.2893524293577046,-12.919048309326172,1.0082505941390991,14.742154121398926,0.8820200562477112,1.7721283435821533,-1.1501027345657349,0.12937675161466167,1.373532663121949,2.9511026045035886,0.9724113345146179,-0.12901613116264343,-0.19434888660907745, 291, 214, 165, 257
1730928410709,9i,8.8796677070583,0.9s : 0.3s,-26.993302055769533,4.449201528296818,12.868590811293172,7.6158461950524785,-25.424537658691406,-3.722789764404297,6.48865270614624,5.036133289337158,-5.6862287521362305,0.5525190830230713,0.1666224744896058,1.3204680950980392,-3.115229225670452,0.9554135799407959,-0.16585254669189453,-0.24429121613502502, 291, 214, 165, 257
1730928410719,9i,8.8796677070583,0.9s : 0.3s,-26.993302055769533,4.59301721829542,13.96366764395074,16.05202891101346,-23.099306106567383,-8.538802146911621,7.814305782318115,11.32938003540039,-6.776174068450928,9.13215446472168,0.16005551408394877,1.2155106845414205,-2.838606665039818,0.9255640506744385,-0.15937301516532898,-0.3434121012687683, 291, 214, 165, 257
1730928410729,9i,8.8796677070583,0.9s : 0.3s,-26.993302055769533,4.766672299450078,16.367100602665626,11.375609524536895,-34.69086837768555,-3.649475336074829,2.1974525451660156,10.19227409362793,0.9937315583229065,4.953235149383545,0.10870701974523109,1.1129472617022709,-2.5654022426690624,0.8917105793952942,-0.10849304497241974,-0.43941062688827515, 291, 214, 165, 257
1730928410739,9i,8.8796677070583,0.9s : 0.3s,-26.993302055769533,4.953827211235533,15.51299080073319,14.303376331087685,-17.73271942138672,-16.364837646484375,-1.6443744897842407,4.519759654998779,7.181403636932373,11.5145902633667,-0.04410517560709226,1.00916913993863,-2.3162411254891695,0.8455666303634644,0.0440908782184124,-0.5320462584495544, 291, 214, 165, 257
1730928410749,9i,8.8796677070583,0.9s : 0.3s,-26.993302055769533,5.169037575815352,13.838252626732324,17.63782771743562,-10.333909034729004,-13.28982925415039,1.497568964958191,5.309182167053223,14.130821228027344,9.122797966003418,-0.10246620424616022,0.8541187458646406,-2.221775896830577,0.7500376105308533,0.10228699445724487,-0.6534378528594971, 291, 214, 165, 257
1730928410759,9i,8.8796677070583,0.9s : 0.3s,-26.993302055769533,5.372785859008647,12.22004207968059,10.914711546137998,-5.710654258728027,-14.93441390991211,-0.7181740403175354,4.616988182067871,9.888614654541016,-0.17218732833862305,-0.17432414136512445,0.7348444303918773,-2.160715426288647,0.6603101491928101,0.1734425574541092,-0.7306903600692749, 291, 214, 165, 257
1730928410769,9i,8.8796677070583,0.9s : 0.3s,-26.993302055769533,5.522526143409784,11.104254463841743,5.721320276233404,-4.279489517211914,-14.15450382232666,0.5882730484008789,-2.061661720275879,4.582833766937256,2.7350852489471436,-0.20784385018403692,0.5982453047031603,-2.1399258224769504,0.5510724186897278,0.206350639462471,-0.8085410594940186, 291, 214, 165, 257
1730928410779,9i,8.8796677070583,0.9s : 0.3s,-26.993302055769533,5.653039088789954,10.456443622060936,3.689111481467161,-5.468186855316162,-13.039678573608398,-0.8829103708267212,3.3088645935058594,1.5427966117858887,0.5298464298248291,-0.25571164610529074,0.4707961116802841,-2.1155914362457393,0.438846617937088,0.25293397903442383,-0.8622285723686218, 291, 214, 165, 257
1730928410789,9i,8.8796677070583,0.9s : 0.3s,-26.993302055769533,5.775421647828916,10.071769888020738,5.929179815197497,-7.105598449707031,-11.874103546142578,-2.4107444286346436,3.1231236457824707,0.5696989297866821,5.007665634155273,-0.3163013993543422,0.3480456656010737,-2.1061693459617814,0.32414206862449646,0.3110535740852356,-0.8934078812599182, 291, 214, 165, 257
1730928410799,9i,8.8796677070583,0.9s : 0.3s,-26.993302055769533,5.881015072070392,9.739865560497266,4.688079272562581,-6.612130165100098,-11.456335067749023,-4.349310874938965,1.5394843816757202,0.2857973575592041,4.418868064880371,-0.3948874547232349,0.22769944600145195,-2.119651679076451,0.20836421847343445,0.3847043216228485,-0.8992146849632263, 291, 214, 165, 257
1730928410809,9i,8.8796677070583,0.9s : 0.3s,-26.993302055769533,5.974893496654386,9.386585452387388,5.160293477744832,-4.997459888458252,-11.208223342895508,-5.43648624420166,0.9196898937225342,1.0083394050598145,4.976550102233887,-0.4598448188116013,0.095930860730848,-2.1624228195655264,0.08583390712738037,0.44380906224250793,-0.892001211643219, 291, 214, 165, 257
1730928410819,9i,8.8796677070583,0.9s : 0.3s,-26.993302055769533,6.058504861813958,8.989823357564397,3.963563508058053,-2.92475962638855,-10.878067970275879,-6.08553409576416,0.8843841552734375,1.3476885557174683,3.6209716796875,-0.5005608744274943,-0.04438312423728237,-2.2253370666881955,-0.038925133645534515,0.4799176752567291,-0.8764496445655823, 291, 214, 165, 257
1730928410829,9i,8.8796677070583,0.9s : 0.3s,-26.993302055769533,6.1298163832211445,8.692264656716292,3.2107897391792335,-2.0936806201934814,-10.677268028259277,-6.103107452392578,0.34136393666267395,1.0853524208068848,3.002440929412842,-0.5179054280164275,-0.18783147710523432,-2.297360324533086,-0.16224096715450287,0.49506133794784546,-0.853576123714447, 291, 214, 165, 257
1730928410839,9i,8.8796677070583,0.9s : 0.3s,-26.993302055769533,6.188318328644391,8.468122976392673,2.4511031288139287,-1.8347810506820679,-10.238405227661133,-6.3846354484558105,0.1882869005203247,0.3680507242679596,2.415987014770508,-0.5214756790248866,-0.33081359774457675,-2.3679110662837393,-0.2816401720046997,0.4981602132320404,-0.8200703263282776, 291, 214, 165, 257
1730928410849,9i,8.8796677070583,0.9s : 0.3s,-26.993302055769533,6.2374000515073025,8.249674361474057,2.0956224635200518,-1.7297630310058594,-9.928963661193848,-5.93960428237915,0.5648742318153381,-0.18624281883239746,2.009443759918213,-0.5176467675989989,-0.4697593850018458,-2.431458828315924,-0.39336544275283813,0.49483656883239746,-0.7748551368713379, 291, 214, 165, 257
1730928410859,9i,8.8796677070583,0.9s : 0.3s,-26.993302055769533,6.279083014192334,7.99258177486749,1.699201621155067,-1.5897711515426636,-9.900535583496094,-4.707364559173584,0.797561764717102,-0.40159156918525696,1.445650577545166,-0.5077725828724844,-0.6007291690357288,-2.4885148500461822,-0.49392712116241455,0.48623207211494446,-0.7208428382873535, 291, 214, 165, 257
1730928410869,9i,8.8796677070583,0.9s : 0.3s,-26.993302055769533,6.315135364635217,7.619209752768403,1.4043324082209054,-1.2926422357559204,-9.048614501953125,-4.287886619567871,0.9029608368873596,-0.35184362530708313,1.0163745880126953,-0.492067479830669,-0.7198604524074391,-2.5384263205692448,-0.5810614824295044,0.47244909405708313,-0.6626911163330078, 291, 214, 165, 257
1730928410879,9i,8.8796677070583,0.9s : 0.3s,-26.993302055769533,6.3483239125121536,7.1842714928277935,1.3313168202917083,-0.8375570178031921,-8.02143383026123,-4.532323837280273,1.1483701467514038,-0.09640365839004517,0.6666009426116943,-0.4691368175157403,-0.8255116467194862,-2.5823256301850277,-0.6554960608482361,0.4521165192127228,-0.6049096584320068, 291, 214, 165, 257
1730928410889,9i,8.8796677070583,0.9s : 0.3s,-26.993302055769533,6.380885396487754,6.6985091361864075,1.4186263892282416,0.29267948865890503,-7.074603080749512,-4.652824878692627,1.3106193542480469,0.3142058849334717,0.4427780508995056,-0.4358861413142385,-0.9166051467586526,-2.617935074126359,-0.719341516494751,0.4222138524055481,-0.5516190528869629, 291, 214, 165, 257
1730928410899,9i,8.8796677070583,0.9s : 0.3s,-26.993302055769533,6.413776333011113,6.227881205021203,1.6635685128829676,1.4958597421646118,-6.2767720222473145,-4.7195210456848145,1.5215446949005127,0.6462952494621277,0.18618375062942505,-0.39254799428908105,-0.9918572012561889,-2.639256435683998,-0.773375928401947,0.3825438320636749,-0.505519688129425, 291, 214, 165, 257
1730928410909,9i,8.8796677070583,0.9s : 0.3s,-26.993302055769533,6.449840642405473,5.889314941147249,2.1404947805127343,3.073216199874878,-5.917921543121338,-4.7686238288879395,2.0245766639709473,0.6948431730270386,0.000449448823928833,-0.3402645677081414,-1.0547852311393453,-2.6451370793759894,-0.8199259042739868,0.33373650908470154,-0.46512535214424133, 291, 214, 165, 257
1730928410919,9i,8.8796677070583,0.9s : 0.3s,-26.993302055769533,6.489934612577149,5.644624371984295,2.5510026590638324,4.410541534423828,-5.650101661682129,-4.125608921051025,2.4426183700561523,0.7100943326950073,-0.19234371185302734,-0.2816835622692024,-1.1083017855712498,-2.632722169755809,-0.8596716523170471,0.2779732644557953,-0.42859748005867004, 291, 214, 165, 257
1730928410929,9i,8.8796677070583,0.9s : 0.3s,-26.993302055769533,6.53338536499426,5.399309488478845,2.561365927973214,5.145245552062988,-4.976893424987793,-3.3103439807891846,2.4578192234039307,0.7198070287704468,-0.03997403383255005,-0.22081039243888967,-1.1513084517484997,-2.6073613299350646,-0.8911232352256775,0.21902041137218475,-0.39740392565727234, 291, 214, 165, 257
