timestamp,club,max_speed,tempo,w.rotation,l.speed,t.spped,acc,rotation.x,rotation.y,rotation.z,userAcceleration.x,userAcceleration.y,userAcceleration.z,pitch,roll,yaw,gravity.x,gravity.y,gravity.z,impactIndex,minDownIndex,StartIndex,endIndex
1730927636887,6i,10.337933322299293,0.8s : 0.3s,-11.966537636783428,0.00011305913610222448,0.0918969273089812,0.012298772546087328,0.15445131063461304,-0.018574828281998634,0.06521578133106232,-0.005885601043701172,0.010741278529167175,-0.001115545630455017,-0.1667732773652062,1.3985792367280567,0.1403639005062383,0.9715380072593689,0.16600126028060913,-0.16898943483829498, 286, 214, 171, 255
1730927636897,6i,10.337933322299293,0.8s : 0.3s,-11.966537636783428,0.00039314651309500727,0.07345384744947935,0.04423192442921371,0.24494685232639313,-0.0028111336287111044,0.07411067187786102,-0.017052292823791504,0.037946030497550964,-0.015026018023490906,-0.166001333626716,1.397999291271566,0.1384536360091598,0.9715657830238342,0.16523998975753784,-0.1695748269557953, 286, 214, 171, 255
1730927636907,6i,10.337933322299293,0.8s : 0.3s,-11.966537636783428,0.001063679467449999,0.0930732425316968,0.08247076817386889,0.26287657022476196,0.0007817368023097515,0.07455515116453171,-0.03735673427581787,0.07019168138504028,-0.021886751055717468,-0.16503829856563948,1.3974090169818913,0.13597893262311112,0.9716217517852783,0.16429011523723602,-0.17017565667629242, 286, 214, 171, 255
1730927636917,6i,10.337933322299293,0.8s : 0.3s,-11.966537636783428,0.001980724371909061,0.11687622512163409,0.07123457419828066,0.26328563690185547,-0.010831953957676888,0.07929784059524536,-0.04635262489318848,0.05134640634059906,-0.017010152339935303,-0.16386348246050936,1.3968843088318192,0.13349366045316113,0.971721887588501,0.16313114762306213,-0.1707187443971634, 286, 214, 171, 255
1730927636927,6i,10.337933322299293,0.8s : 0.3s,-11.966537636783428,0.002927903388872429,0.1470520801542538,0.04975412097260685,0.31917208433151245,-0.019234493374824524,0.07018636912107468,-0.03700292110443115,0.03267712891101837,-0.006201744079589844,-0.16281976755372773,1.3961084224070073,0.13069805244167998,0.9717563390731812,0.16210132837295532,-0.17150215804576874, 286, 214, 171, 255
1730927636937,6i,10.337933322299293,0.8s : 0.3s,-11.966537636783428,0.00395937725532149,0.18631822604941065,0.06775564370689852,0.4075918197631836,0.0012797038070857525,0.0809483751654625,-0.04246509075164795,0.04760603606700897,-0.022829994559288025,-0.16162329702906578,1.3953540326191443,0.12721234858440184,0.9718168377876282,0.16092056035995483,-0.17226889729499817, 286, 214, 171, 255
1730927636947,6i,10.337933322299293,0.8s : 0.3s,-11.966537636783428,0.005342076092545756,0.23406394738065728,0.09797790360218382,0.503199577331543,0.03474391996860504,0.11382829397916794,-0.04729259014129639,0.07698844373226166,-0.037892743945121765,-0.1599753687063648,1.3948543502793185,0.12287428336750028,0.9719903469085693,0.15929388999938965,-0.17280064523220062, 286, 214, 171, 255
1730927636957,6i,10.337933322299293,0.8s : 0.3s,-11.966537636783428,0.006719466650375318,0.2815160844076714,0.06148512546816951,0.5691195726394653,0.06480954587459564,0.1256767213344574,-0.021296024322509766,0.057253047823905945,-0.006999179720878601,-0.15800315634401946,1.3946023404511776,0.11770215673448961,0.9722541570663452,0.15734654664993286,-0.1731003224849701, 286, 214, 171, 255
1730927636967,6i,10.337933322299293,0.8s : 0.3s,-11.966537636783428,0.00786044102423403,0.3062882795948999,0.07014923762401776,0.5275404453277588,0.0675230398774147,0.1118575856089592,0.011661291122436523,-0.019051149487495422,0.06649799644947052,-0.1558352923453492,1.394448274224211,0.11234845767176702,0.9725610017776489,0.15520532429218292,-0.1733095347881317, 286, 214, 171, 255
1730927636977,6i,10.337933322299293,0.8s : 0.3s,-11.966537636783428,0.00788424828741879,0.30008045560075985,0.14473723520494944,0.4107446074485779,0.03694888576865196,0.08259936422109604,0.02201932668685913,-0.08539864420890808,0.11476536095142365,-0.15403066561010678,1.3942906777737516,0.10781217591129444,0.9728078842163086,0.1534223109483719,-0.17351171374320984, 286, 214, 171, 255
1730927636987,6i,10.337933322299293,0.8s : 0.3s,-11.966537636783428,0.007000966798974787,0.25789852353298076,0.17892159118578083,0.23577147722244263,-0.008238034322857857,0.038652144372463226,0.02622509002685547,-0.1250138133764267,0.12528657913208008,-0.1528760733211477,1.3939380335931262,0.1046891085937155,0.9729204177856445,0.1522812843322754,-0.17388582229614258, 286, 214, 171, 255
1730927636997,6i,10.337933322299293,0.8s : 0.3s,-11.966537636783428,0.005913615867784108,0.20978377989545335,0.11726502703444419,0.14430999755859375,-0.019860779866576195,0.024585595354437828,0.032312750816345215,-0.09087443351745605,0.06669940054416656,-0.1522529991210363,1.393493603280409,0.10292944342836197,0.9729361534118652,0.15166544914245605,-0.17433488368988037, 286, 214, 171, 255
1730927637007,6i,10.337933322299293,0.8s : 0.3s,-11.966537636783428,0.00519270592753421,0.16972166565327304,0.034420834938226695,0.10911578685045242,0.008955689147114754,0.032521285116672516,0.029184460639953613,-0.004198998212814331,-0.01776033639907837,-0.15175345203304338,1.3932431360866595,0.10171645458676926,0.9729670286178589,0.15117166936397552,-0.17459194362163544, 286, 214, 171, 255
1730927637017,6i,10.337933322299293,0.8s : 0.3s,-11.966537636783428,0.004699839285898376,0.13130566027425797,0.033230555259286705,0.05466519296169281,0.028285842388868332,0.03295767307281494,0.008756637573242188,0.013302892446517944,-0.029165461659431458,-0.15125947985273527,1.3933263410568388,0.10095091310448714,0.9730550050735474,0.15068335831165314,-0.17452417314052582, 286, 214, 171, 255
1730927637027,6i,10.337933322299293,0.8s : 0.3s,-11.966537636783428,0.004372317167372721,0.09868118612921169,0.025781383052999138,0.022140273824334145,0.026874633505940437,0.03651086613535881,0.0009932518005371094,-0.006063386797904968,-0.025038540363311768,-0.15086104919637267,1.3935808593072383,0.1006859883652997,0.9731583595275879,0.15028946101665497,-0.17428705096244812, 286, 214, 171, 255
1730927637037,6i,10.337933322299293,0.8s : 0.3s,-11.966537636783428,0.004173167449799124,0.12481139245133009,0.03850380663153503,0.005924418568611145,-0.19564539194107056,0.4015105068683624,0.011552751064300537,0.01866123080253601,-0.031635984778404236,-0.14991420384203974,1.3935653389612954,0.10050752625297701,0.9732952117919922,0.1493532955646515,-0.17432716488838196, 286, 214, 171, 255
1730927637047,6i,10.337933322299293,0.8s : 0.3s,-11.966537636783428,0.0039199007773360155,0.3488581253942959,0.08442924400872258,0.0518607497215271,-0.5094728469848633,1.24356210231781,0.06726789474487305,0.04830515384674072,-0.0164298415184021,-0.14985642808148408,1.3935739576505555,0.09966466555866288,0.9733052253723145,0.14929616451263428,-0.1743202954530716, 286, 214, 171, 255
1730927637057,6i,10.337933322299293,0.8s : 0.3s,-11.966537636783428,0.0037951743826838153,0.372815462908447,0.044456362500925335,0.08759105205535889,-0.3267276883125305,0.5489875078201294,0.00624006986618042,0.04164119064807892,-0.014263272285461426,-0.14958990458092805,1.3938321861111937,0.09887745625800683,0.9733894467353821,0.1490326225757599,-0.17407597601413727, 286, 214, 171, 255
1730927637067,6i,10.337933322299293,0.8s : 0.3s,-11.966537636783428,0.0038060270935774097,0.2670559344509638,0.04514896098443453,0.09381698817014694,-0.07268102467060089,-0.021433360874652863,0.012008726596832275,0.04346431791782379,-0.0022521615028381348,-0.1488881197004271,1.3936761049549191,0.09813046913957045,0.9734649062156677,0.14833864569664001,-0.17424626648426056, 286, 214, 171, 255
1730927637077,6i,10.337933322299293,0.8s : 0.3s,-11.966537636783428,0.003944700480559784,0.19172722739192677,0.05660322910376577,0.10320183634757996,-0.02077801711857319,-0.016649426892399788,0.03805685043334961,0.04110215604305267,-0.008137226104736328,-0.1484994344613004,1.3934307836003987,0.0972031899262515,0.9734787940979004,0.14795425534248352,-0.17449523508548737, 286, 214, 171, 255
1730927637087,6i,10.337933322299293,0.8s : 0.3s,-11.966537636783428,0.0041787719712986235,0.14621570313080892,0.04303895327904231,0.12340004742145538,-0.013648467138409615,0.005248682573437691,0.017878949642181396,0.033267125487327576,-0.02063959836959839,-0.14849133226381275,1.3931074182060887,0.09607748747371347,0.9734235405921936,0.14794623851776123,-0.1748102307319641, 286, 214, 171, 255
1730927637097,6i,10.337933322299293,0.8s : 0.3s,-11.966537636783428,0.004460610598297799,0.11518154933381985,0.045155004107042845,0.11079118400812149,-0.020671091973781586,-0.007693448103964329,0.006129443645477295,0.028704479336738586,-0.034314095973968506,-0.14827562277623985,1.392755324278646,0.09495442204953072,0.9733932614326477,0.1477328985929489,-0.17515859007835388, 286, 214, 171, 255
1730927637107,6i,10.337933322299293,0.8s : 0.3s,-11.966537636783428,0.004748273352745244,0.09310177488540859,0.05400027289224635,0.08181145787239075,-0.03186542168259621,-0.009956070221960545,0.0008642673492431641,0.03187105059623718,-0.0435834676027298,-0.14819042126158682,1.3923418694686895,0.09395560412462586,0.9733332395553589,0.1476486325263977,-0.1755632907152176, 286, 214, 171, 255
1730927637117,6i,10.337933322299293,0.8s : 0.3s,-11.966537636783428,0.004943599009262453,0.07683512201699273,0.06596022511142605,0.05998792126774788,-0.048164766281843185,-0.01833064667880535,-0.005926370620727539,0.030075624585151672,-0.058404505252838135,-0.14821608370219755,1.391844384053585,0.09324420341596543,0.9732420444488525,0.14767400920391083,-0.17604681849479675, 286, 214, 171, 255
1730927637127,6i,10.337933322299293,0.8s : 0.3s,-11.966537636783428,0.005208799454659303,0.06446761821773023,0.0545086630734978,0.037887945771217346,-0.057308465242385864,-0.020536009222269058,-0.0068184733390808105,0.026430487632751465,-0.047181904315948486,-0.14829149358915386,1.3912546244196282,0.09271896979436062,0.9731270670890808,0.14774858951568604,-0.1766187697649002, 286, 214, 171, 255
1730927637137,6i,10.337933322299293,0.8s : 0.3s,-11.966537636783428,0.0055580662287503845,0.05926067050113441,0.051003597495038,-0.002343231812119484,-0.0697200819849968,-0.02134251594543457,-0.006792426109313965,0.02845291793346405,-0.04178111255168915,-0.14848367670702856,1.3905759238412143,0.09251425738403421,0.972978949546814,0.14793866872787476,-0.17727407813072205, 286, 214, 171, 255
1730927637147,6i,10.337933322299293,0.8s : 0.3s,-11.966537636783428,0.005962502346188233,0.05512325595435143,0.04753115192957362,-0.03555817902088165,-0.07909014821052551,-0.024422992020845413,-0.01486361026763916,0.019589051604270935,-0.040676191449165344,-0.14874450831668928,1.3898408547417087,0.0926654302671341,0.9728105068206787,0.14819662272930145,-0.17798230051994324, 286, 214, 171, 255
1730927637157,6i,10.337933322299293,0.8s : 0.3s,-11.966537636783428,0.006403921497893349,0.04816576193644149,0.0474801222445789,-0.07226599007844925,-0.0902056023478508,-0.023343048989772797,-0.01603478193283081,0.013268187642097473,-0.042675554752349854,-0.14905684058606714,1.3890484307427877,0.09313037591822992,0.9726235270500183,0.14850549399852753,-0.17874474823474884, 286, 214, 171, 255
1730927637167,6i,10.337933322299293,0.8s : 0.3s,-11.966537636783428,0.0068673259092133215,0.0532043480650476,0.034703112521177526,-0.11710696667432785,-0.09487572312355042,-0.014835847541689873,-0.012468457221984863,0.005820676684379578,-0.03185848891735077,-0.14941294729016877,1.3882555159094063,0.09404180807706435,0.9724293351173401,0.14885765314102173,-0.17950627207756042, 286, 214, 171, 255
1730927637177,6i,10.337933322299293,0.8s : 0.3s,-11.966537636783428,0.007314820438134882,0.07121506879266568,0.020832283806594812,-0.17655538022518158,-0.0940961241722107,-0.005644811317324638,-0.010622382164001465,-0.007957831025123596,-0.016056835651397705,-0.14975225956943686,1.38751515320672,0.09545766406351314,0.9722465872764587,0.1491931676864624,-0.1802169680595398, 286, 214, 171, 255
1730927637187,6i,10.337933322299293,0.8s : 0.3s,-11.966537636783428,0.0076882474165450975,0.1602676130108337,0.03432027990181219,-0.2973121702671051,-0.36184635758399963,0.3520965576171875,-0.015382766723632812,-0.029460400342941284,-0.008563697338104248,-0.1496935207166594,1.3866210285802865,0.09770126285037996,0.9720935821533203,0.14913508296012878,-0.18108780682086945, 286, 214, 171, 255
1730927637197,6i,10.337933322299293,0.8s : 0.3s,-11.966537636783428,0.007987436256880642,0.3374570768447704,0.05353706496426188,-0.3805592358112335,-0.6682019829750061,0.8552564978599548,0.04203331470489502,-0.028795048594474792,0.01643967628479004,-0.15088794059540897,1.3860908479488374,0.10026858067338494,0.971821665763855,0.1503160446882248,-0.18157032132148743, 286, 214, 171, 255
1730927637207,6i,10.337933322299293,0.8s : 0.3s,-11.966537636783428,0.008230221765882732,0.3396020300254382,0.028768061802855367,-0.3470742404460907,-0.3206820785999298,0.2515559196472168,0.003618955612182617,-0.01431189477443695,0.02469158172607422,-0.15130209873240721,1.385548378924595,0.10343820528978971,0.9716618061065674,0.15072548389434814,-0.1820860058069229, 286, 214, 171, 255
1730927637217,6i,10.337933322299293,0.8s : 0.3s,-11.966537636783428,0.00833377320789637,0.28718599386004556,0.049728585295409675,-0.3235618770122528,-0.10215006023645401,0.007397287525236607,-0.016559302806854248,0.003827020525932312,0.04673409461975098,-0.15206226356382418,1.3847792624182746,0.10661917238775677,0.9714085459709167,0.1514769196510315,-0.18281202018260956, 286, 214, 171, 255
1730927637227,6i,10.337933322299293,0.8s : 0.3s,-11.966537636783428,0.008280270489072735,0.25820217782502,0.05839805198978848,-0.37593162059783936,-0.05678098276257515,-0.029538359493017197,-0.015037834644317627,0.004045560956001282,0.05628347396850586,-0.1526902703284573,1.3844810854335217,0.11004529859499076,0.9712603688240051,0.1520976573228836,-0.18308401107788086, 286, 214, 171, 255
1730927637237,6i,10.337933322299293,0.8s : 0.3s,-11.966537636783428,0.008084836179313323,0.26960776252506136,0.07414868093633745,-0.4972589612007141,-0.03781869634985924,0.016493147239089012,0.004021644592285156,-0.01160341501235962,0.07312464714050293,-0.15362544682015344,1.3844899391204255,0.1143566888420155,0.9711217880249023,0.15302187204360962,-0.18304899334907532, 286, 214, 171, 255
1730927637247,6i,10.337933322299293,0.8s : 0.3s,-11.966537636783428,0.007625171409800274,0.3190112274183776,0.09726442163678616,-0.6789869666099548,-0.028363678604364395,0.029753027483820915,0.00015085935592651367,-0.04996858537197113,0.08344750106334686,-0.15454114598494312,1.3850521365211965,0.12022777163733227,0.9710864424705505,0.15392673015594482,-0.18247704207897186, 286, 214, 171, 255
1730927637257,6i,10.337933322299293,0.8s : 0.3s,-11.966537636783428,0.006980333578934995,0.41090149618809374,0.11708815963895257,-0.9291166067123413,-0.05435284227132797,0.13411086797714233,0.000903010368347168,-0.07595686614513397,0.08910317718982697,-0.1557947063795863,1.3860736618468585,0.12824492064972087,0.9710817933082581,0.15516522526741028,-0.18144935369491577, 286, 214, 171, 255
1730927637267,6i,10.337933322299293,0.8s : 0.3s,-11.966537636783428,0.006353121044447021,0.5377356963034317,0.135133121708255,-1.22284734249115,-0.09791843593120575,0.20770065486431122,-0.0019266605377197266,-0.09925885498523712,0.09167839586734772,-0.15752672410012097,1.387581930585417,0.13905503964410013,0.9710885882377625,0.15687604248523712,-0.1799352467060089, 286, 214, 171, 255
1730927637277,6i,10.337933322299293,0.8s : 0.3s,-11.966537636783428,0.0061486659385590605,0.6924306541266694,0.144004756259357,-1.5388925075531006,-0.13411900401115417,0.28208020329475403,0.0007898211479187012,-0.11394515633583069,0.08805252611637115,-0.159867560466945,1.3896125937655162,0.15294999123759556,0.9710881114006042,0.159187451004982,-0.17789627611637115, 286, 214, 171, 255
1730927637287,6i,10.337933322299293,0.8s : 0.3s,-11.966537636783428,0.006760682335767202,0.8601249590037248,0.13254178884055173,-1.825280785560608,-0.1745644360780716,0.3401184678077698,0.0019110441207885742,-0.10695961117744446,0.07825161516666412,-0.1629161483114367,1.3922142086985014,0.16987868745679538,0.9710655808448792,0.16219642758369446,-0.17528225481510162, 286, 214, 171, 255
1730927637297,6i,10.337933322299293,0.8s : 0.3s,-11.966537636783428,0.008065257493639668,1.0283901670162297,0.1053488291401633,-2.0659921169281006,-0.22664299607276917,0.4060874581336975,-0.001911759376525879,-0.08363278210163116,0.06403341889381409,-0.1666479021111054,1.395290035510348,0.18945896158754477,0.9709972739219666,0.16587762534618378,-0.1721877157688141, 286, 214, 171, 255
1730927637307,6i,10.337933322299293,0.8s : 0.3s,-11.966537636783428,0.009544341140139181,1.1663337690022295,0.06645339854592872,-2.143489360809326,-0.2943408191204071,0.4947419762611389,-0.0018530488014221191,-0.0544099360704422,0.03810746967792511,-0.17074742003023302,1.3985632626788105,0.2106929858910743,0.9708776473999023,0.169918954372406,-0.1688905507326126, 286, 214, 171, 255
1730927637317,6i,10.337933322299293,0.8s : 0.3s,-11.966537636783428,0.01063408016350976,1.2627824930304836,0.03168872021951549,-2.1182661056518555,-0.36185160279273987,0.5619841814041138,0.0009772181510925293,-0.024404600262641907,-0.020189985632896423,-0.1749539440185873,1.4017780426936968,0.23216126520215472,0.9707024097442627,0.1740627884864807,-0.16564682126045227, 286, 214, 171, 255
1730927637327,6i,10.337933322299293,0.8s : 0.3s,-11.966537636783428,0.01156321634207141,1.3095770181930662,0.06332857378509527,-1.9723652601242065,-0.425092875957489,0.6677641272544861,-0.019854247570037842,0.011930331587791443,-0.05894051492214203,-0.17905791070434895,1.404743995461129,0.25276085281650706,0.9704767465591431,0.17810262739658356,-0.16264759004116058, 286, 214, 171, 255
1730927637337,6i,10.337933322299293,0.8s : 0.3s,-11.966537636783428,0.011542018665507359,1.3339933321489272,0.11017582986272886,-1.8788073062896729,-0.4645460546016693,0.7893202900886536,-0.04755812883377075,0.05586846172809601,-0.08219277858734131,-0.18267947367372864,1.407556467740217,0.2720208817974786,0.9702876210212708,0.1816651076078415,-0.15981166064739227, 286, 214, 171, 255
1730927637347,6i,10.337933322299293,0.8s : 0.3s,-11.966537636783428,0.010839467982155635,1.371249059146114,0.1123971131549668,-1.9344490766525269,-0.5316923260688782,0.8712226152420044,-0.055685579776763916,0.05634905397891998,-0.07973086833953857,-0.1861021242878173,1.4103721812878103,0.29096786766388427,0.9701142907142639,0.1850297451019287,-0.15697874128818512, 286, 214, 171, 255
1730927637357,6i,10.337933322299293,0.8s : 0.3s,-11.966537636783428,0.010150185546815477,1.421994479671181,0.055352683276568594,-2.0553855895996094,-0.5700147747993469,0.8601597547531128,-0.0467185378074646,0.009720981121063232,-0.028049960732460022,-0.1894386410045681,1.4131812229740512,0.31071339854978036,0.9699364304542542,0.18830761313438416,-0.15415528416633606, 286, 214, 171, 255
1730927637367,6i,10.337933322299293,0.8s : 0.3s,-11.966537636783428,0.009529702127051985,1.4780789616405532,0.025664322378676385,-2.1726796627044678,-0.6019138693809509,0.8190674185752869,-0.020948052406311035,-0.0017297565937042236,-0.014725640416145325,-0.1929579218049791,1.4159181970496457,0.33127503741036046,0.9696938991546631,0.1917627602815628,-0.15139684081077576, 286, 214, 171, 255
1730927637377,6i,10.337933322299293,0.8s : 0.3s,-11.966537636783428,0.00893114459949209,1.5275136287949096,0.04077931863799591,-2.23809814453125,-0.6070894002914429,0.7867942452430725,-0.021850407123565674,0.00925484299659729,-0.033164143562316895,-0.19661460063634767,1.4186612786717014,0.3523922130914731,0.9694059491157532,0.1953502893447876,-0.1486290693283081, 286, 214, 171, 255
1730927637387,6i,10.337933322299293,0.8s : 0.3s,-11.966537636783428,0.008298010683050626,1.5577461207971364,0.06055728125664267,-2.230041980743408,-0.6145797967910767,0.7363859415054321,-0.018498003482818604,0.01837308704853058,-0.0546574592590332,-0.2004189682177573,1.4214509386318617,0.3736250142595856,0.9690747857093811,0.19907993078231812,-0.14581254124641418, 286, 214, 171, 255
1730927637397,6i,10.337933322299293,0.8s : 0.3s,-11.966537636783428,0.007536288957748699,1.5569056150405969,0.07112252238650296,-2.1198811531066895,-0.5942212343215942,0.698058009147644,-0.018897831439971924,0.036498814821243286,-0.05804413557052612,-0.20422137248430522,1.4241686364291415,0.39399073219397207,0.9687116742134094,0.2028047740459442,-0.14306671917438507, 286, 214, 171, 255
1730927637407,6i,10.337933322299293,0.8s : 0.3s,-11.966537636783428,0.006656302772836963,1.5241610828787828,0.07684953927738403,-1.9718540906906128,-0.5734038352966309,0.6632803082466125,-0.017893970012664795,0.03878794610500336,-0.06388390064239502,-0.20782198861441334,1.4268583529009262,0.4130243766570512,0.9683639407157898,0.20632924139499664,-0.1403549760580063, 286, 214, 171, 255
1730927637417,6i,10.337933322299293,0.8s : 0.3s,-11.966537636783428,0.0058193956779662385,1.46896976251452,0.06311334991977015,-1.81122624874115,-0.5537233948707581,0.635375440120697,-0.008264243602752686,0.02966107428073883,-0.055092811584472656,-0.21114691355229598,1.4293550863434978,0.43039907728224147,0.9680268168449402,0.20958147943019867,-0.13783933222293854, 286, 214, 171, 255
1730927637427,6i,10.337933322299293,0.8s : 0.3s,-11.966537636783428,0.005078323901099202,1.3947201531956264,0.04546708816751217,-1.638846755027771,-0.5259407758712769,0.5947026014328003,0.011016607284545898,0.02638685703277588,-0.035350024700164795,-0.2141687776965577,1.4316771690919576,0.4461053179279248,0.9677126407623291,0.21253527700901031,-0.1355026811361313, 286, 214, 171, 255
1730927637437,6i,10.337933322299293,0.8s : 0.3s,-11.966537636783428,0.004472557661494882,1.3206336860258039,0.03428939774787674,-1.5442718267440796,-0.4834955632686615,0.5544930100440979,0.019339323043823242,0.01621846854686737,-0.023210227489471436,-0.217017862304804,1.4339625172493438,0.4606186612925224,0.9674160480499268,0.21531839668750763,-0.13320763409137726, 286, 214, 171, 255
1730927637447,6i,10.337933322299293,0.8s : 0.3s,-11.966537636783428,0.004098591614363193,1.263273657148448,0.013058648822670178,-1.5398683547973633,-0.46508166193962097,0.49665045738220215,0.010412752628326416,0.005008220672607422,0.006084457039833069,-0.2198574826642512,1.436387028865641,0.4746123406263271,0.9671262502670288,0.21809053421020508,-0.13077926635742188, 286, 214, 171, 255
1730927637457,6i,10.337933322299293,0.8s : 0.3s,-11.966537636783428,0.0038792613549874077,1.203923240742324,0.03283700472081349,-1.451158046722412,-0.4547111690044403,0.45792946219444275,0.008397579193115234,-0.006239578127861023,0.031125828623771667,-0.22275308614093906,1.4386649448053275,0.4884904578101947,0.9667917490005493,0.2209155261516571,-0.12849217653274536, 286, 214, 171, 255
1730927637467,6i,10.337933322299293,0.8s : 0.3s,-11.966537636783428,0.0037239180211815796,1.1499894239892887,0.02722211349288902,-1.4207346439361572,-0.41831666231155396,0.37738800048828125,0.02105337381362915,0.005726277828216553,0.016279086470603943,-0.22561408110110384,1.440930998974106,0.5015854847133607,0.9664497971534729,0.22370491921901703,-0.12621867656707764, 286, 214, 171, 255
1730927637477,6i,10.337933322299293,0.8s : 0.3s,-11.966537636783428,0.0036480642475586224,1.0879264067741374,0.0227476124910629,-1.3025484085083008,-0.359904021024704,0.3872149884700775,0.001222372055053711,0.007117778062820435,0.02157074213027954,-0.22872757664814583,1.4433993655115585,0.5146198411772105,0.9660627841949463,0.22673842310905457,-0.12374363839626312, 286, 214, 171, 255
1730927637487,6i,10.337933322299293,0.8s : 0.3s,-11.966537636783428,0.003864714176585132,1.0029687251022723,0.05753789124364146,-1.0916180610656738,-0.30475661158561707,0.39464229345321655,-0.0292055606842041,-0.007031351327896118,0.04907345771789551,-0.23073778041789358,1.4458763378145572,0.5259165973959943,0.9659121036529541,0.228695809841156,-0.1212933138012886, 286, 214, 171, 255
1730927637497,6i,10.337933322299293,0.8s : 0.3s,-11.966537636783428,0.00405046233089416,0.896797849535743,0.020467028101269734,-0.8672599196434021,-0.2517487406730652,0.3513568043708801,0.012123942375183105,-0.0014166086912155151,0.016428709030151367,-0.2324470836030463,1.4481549256244504,0.535213569157804,0.9657965898513794,0.23035947978496552,-0.11904408782720566, 286, 214, 171, 255
1730927637507,6i,10.337933322299293,0.8s : 0.3s,-11.966537636783428,0.004435900333559641,0.7789844734461059,0.07500861659814873,-0.6600217819213867,-0.20701323449611664,0.2996358275413513,-0.019451439380645752,0.01774546504020691,0.07023555040359497,-0.23376752162309147,1.4502450584446993,0.542380239549939,0.9657405018806458,0.23164421319961548,-0.11698850989341736, 286, 214, 171, 255
1730927637517,6i,10.337933322299293,0.8s : 0.3s,-11.966537636783428,0.005082034716077339,0.6335699876673473,0.09948532339646368,-0.32972535490989685,-0.13819386065006256,0.29907506704330444,-0.019161701202392578,0.06084573268890381,0.07634104788303375,-0.23485588089092846,1.4520130089937826,0.5471587454154764,0.965694785118103,0.2327028214931488,-0.11525098234415054, 286, 214, 171, 255
1730927637527,6i,10.337933322299293,0.8s : 0.3s,-11.966537636783428,0.006006542205986744,0.4768498866649737,0.0989161505813551,-0.035377081483602524,-0.07754302769899368,0.2683080732822418,-0.021179556846618652,0.08337132632732391,0.04883700609207153,-0.23522877274382986,1.453464047838666,0.5488228142178441,0.9657748937606812,0.23306547105312347,-0.11383945494890213, 286, 214, 171, 255
1730927637537,6i,10.337933322299293,0.8s : 0.3s,-11.966537636783428,0.007105059726537294,0.335605445253309,0.0831289098987902,0.14189396798610687,-0.005885131657123566,0.22543594241142273,-0.012077629566192627,0.06656396389007568,0.048309266567230225,-0.23539331093026386,1.454811549468002,0.5480954632489221,0.9658892750740051,0.23322546482086182,-0.11253352463245392, 286, 214, 171, 255
1730927637547,6i,10.337933322299293,0.8s : 0.3s,-11.966537636783428,0.008524964283692716,0.22732751549582592,0.10670781919940503,0.24801534414291382,0.03898673877120018,0.19480346143245697,-0.021565794944763184,0.01820141077041626,0.10290861874818802,-0.23540095280225257,1.456166297347473,0.5460672322978766,0.9660390019416809,0.23323290050029755,-0.11122466623783112, 286, 214, 171, 255
1730927637557,6i,10.337933322299293,0.8s : 0.3s,-11.966537636783428,0.010021728359627375,0.1733738697211006,0.09909389258094105,0.32176974415779114,0.068059042096138,0.17634083330631256,-0.002690553665161133,-0.0036116093397140503,0.0989914983510971,-0.235236840904031,1.4574771244402063,0.5431941348623568,0.9662221670150757,0.23307330906391144,-0.10996261239051819, 286, 214, 171, 255
1730927637567,6i,10.337933322299293,0.8s : 0.3s,-11.966537636783428,0.011532689558750085,0.15562909619098272,0.08935631490958865,0.3911341428756714,0.0871800109744072,0.1604260504245758,0.005378663539886475,-0.021714672446250916,0.08651065826416016,-0.2348665754715243,1.4586705920206486,0.5396894587286591,0.966438353061676,0.2327132225036621,-0.10881902277469635, 286, 214, 171, 255
1730927637577,6i,10.337933322299293,0.8s : 0.3s,-11.966537636783428,0.013043652669799502,0.18440406238202117,0.08132870350199861,0.4554365575313568,0.11859363317489624,0.14845071732997894,0.010933756828308105,-0.011232122778892517,0.07980382442474365,-0.234254977492784,1.4597531556721144,0.5350838837679981,0.9666968584060669,0.2321183830499649,-0.10778848081827164, 286, 214, 171, 255
1730927637587,6i,10.337933322299293,0.8s : 0.3s,-11.966537636783428,0.014519756391105022,0.23057732447684426,0.06627774878145218,0.5159321427345276,0.1453075408935547,0.13342861831188202,0.0061103105545043945,-0.021774128079414368,0.06230001151561737,-0.23348452396635022,1.4608171973864639,0.5304198904512512,0.9669885635375977,0.23136889934539795,-0.10677942633628845, 286, 214, 171, 255
1730927637597,6i,10.337933322299293,0.8s : 0.3s,-11.966537636783428,0.01594658299414403,0.2853566866069455,0.05330835395643754,0.6021896600723267,0.16995388269424438,0.12460806965827942,0.0012884736061096191,-0.01925693452358246,0.04969196021556854,-0.23248136701374067,1.461810175549092,0.5250104662268403,0.9673243165016174,0.23039284348487854,-0.10584435611963272, 286, 214, 171, 255
1730927637607,6i,10.337933322299293,0.8s : 0.3s,-11.966537636783428,0.01725879940612927,0.3436145278140859,0.04139392679636432,0.6958042979240417,0.17632709443569183,0.11178654432296753,0.004752457141876221,-0.00523628294467926,0.040785446763038635,-0.23130765460186298,1.4625926795580304,0.5186237106760343,0.9676747918128967,0.22925055027008057,-0.10511650145053864, 286, 214, 171, 255
1730927637617,6i,10.337933322299293,0.8s : 0.3s,-11.966537636783428,0.01826049926311855,0.3887752167870698,0.013850603595079574,0.7192349433898926,0.1617560237646103,0.092082180082798,0.0028179287910461426,0.0009272247552871704,0.013529181480407715,-0.22999215243068358,1.4630560088617766,0.511598915121717,0.9680225253105164,0.22796988487243652,-0.1047004833817482, 286, 214, 171, 255
1730927637627,6i,10.337933322299293,0.8s : 0.3s,-11.966537636783428,0.018937189848744755,0.41068384498145805,0.01032017627590005,0.6730434894561768,0.1440233588218689,0.07065172493457794,0.007688045501708984,0.002610504627227783,-0.006370656192302704,-0.2287493170771472,1.463263210336444,0.5047252024089257,0.9683250784873962,0.22675959765911102,-0.1045302301645279, 286, 214, 171, 255
1730927637637,6i,10.337933322299293,0.8s : 0.3s,-11.966537636783428,0.019496275817368,0.40952511154190097,0.035270020388161856,0.5852411985397339,0.12285060435533524,0.03583894670009613,0.01531153917312622,-0.0300387442111969,-0.01035398244857788,-0.2277107554543773,1.4632742962785605,0.4984756796100226,0.9685599207878113,0.2257479727268219,-0.10454471409320831, 286, 214, 171, 255
1730927637647,6i,10.337933322299293,0.8s : 0.3s,-11.966537636783428,0.019789727785562445,0.3905802051644875,0.055750499267029685,0.5057170391082764,0.11937651038169861,0.017029574140906334,0.019906342029571533,-0.04467374086380005,-0.0267602801322937,-0.2268982149972934,1.4632662801223344,0.4929832948470188,0.9687411189079285,0.22495633363723755,-0.10457213222980499, 286, 214, 171, 255
1730927637657,6i,10.337933322299293,0.8s : 0.3s,-11.966537636783428,0.019612463904898177,0.36604007567872243,0.0626540038471291,0.44488275051116943,0.12702982127666473,0.010282190516591072,0.0031926631927490234,-0.03526000678539276,-0.05169200152158737,-0.22625715176164887,1.4634070726703923,0.4882264139395514,0.9688990116119385,0.22433164715766907,-0.10445117205381393, 286, 214, 171, 255
1730927637667,6i,10.337933322299293,0.8s : 0.3s,-11.966537636783428,0.019109718581123536,0.34289787607139394,0.06538230110011425,0.4161437749862671,0.11656253039836884,0.004302594345062971,-0.007665097713470459,-0.006479695439338684,-0.06460731476545334,-0.2257068797949176,1.46363198786138,0.483871682204207,0.9690450429916382,0.22379536926746368,-0.10424643754959106, 286, 214, 171, 255
1730927637677,6i,10.337933322299293,0.8s : 0.3s,-11.966537636783428,0.018305250861892705,0.32641720849254846,0.07872318145295316,0.417498916387558,0.10547850281000137,-0.007665884681046009,-0.0003921389579772949,0.006205305457115173,-0.07847725600004196,-0.22529475943242736,1.4638307529163999,0.479647247920179,0.969157338142395,0.22339367866516113,-0.10406365990638733, 286, 214, 171, 255
1730927637687,6i,10.337933322299293,0.8s : 0.3s,-11.966537636783428,0.01727542961536268,0.32690793062510226,0.08333583905167245,0.4872385859489441,0.09355925768613815,-0.020115897059440613,0.001323103904724121,0.009116008877754211,-0.0828251764178276,-0.22493856434191517,1.463744177816168,0.4749756631878685,0.9692273736000061,0.22304648160934448,-0.10415606200695038, 286, 214, 171, 255
1730927637697,6i,10.337933322299293,0.8s : 0.3s,-11.966537636783428,0.016148960758468726,0.35235455935743526,0.09120399544803658,0.6021531820297241,0.12143021076917648,0.0017485232092440128,-0.004122138023376465,0.029244497418403625,-0.08628983795642853,-0.22446683857325142,1.4635993232081106,0.46939680786671195,0.9693169593811035,0.22258660197257996,-0.10430771857500076, 286, 214, 171, 255
1730927637707,6i,10.337933322299293,0.8s : 0.3s,-11.966537636783428,0.015124335642890776,0.40163605739409286,0.09569937201377841,0.7628480195999146,0.11415392905473709,0.00881229154765606,-0.013267219066619873,0.05460883677005768,-0.0774611234664917,-0.22364867087971377,1.4632322196030072,0.46239499005573337,0.9694592356681824,0.2217888981103897,-0.10468306392431259, 286, 214, 171, 255
1730927637717,6i,10.337933322299293,0.8s : 0.3s,-11.966537636783428,0.014207645969618344,0.4502921205716608,0.10193224324646874,0.8357374668121338,0.099543996155262,0.01527358591556549,0.0007364153861999512,0.05963398516178131,-0.08266454935073853,-0.22265776473903348,1.4625013166300873,0.45410547008172203,0.9696005582809448,0.2208225578069687,-0.10541532188653946, 286, 214, 171, 255
1730927637727,6i,10.337933322299293,0.8s : 0.3s,-11.966537636783428,0.013448289639780685,0.48984249526604967,0.07929645675464066,0.8644564747810364,0.08627426624298096,0.007171983830630779,0.0014944672584533691,0.03902246057987213,-0.06901407241821289,-0.2216065032623676,1.46152646404683,0.44543173749598935,0.9697274565696716,0.21979711949825287,-0.106385737657547, 286, 214, 171, 255
1730927637737,6i,10.337933322299293,0.8s : 0.3s,-11.966537636783428,0.012899147818787017,0.5273350538187508,0.06693146141543661,0.9138644933700562,0.0782785639166832,0.0020489278249442577,-0.00020378828048706055,0.03981456160545349,-0.05380129814147949,-0.22059133701408828,1.4603560880616788,0.43627083239505243,0.9698235988616943,0.2188066691160202,-0.1075451448559761, 286, 214, 171, 255
1730927637747,6i,10.337933322299293,0.8s : 0.3s,-11.966537636783428,0.012615063118685209,0.5575063976484171,0.09552552656555559,0.9337750673294067,0.06900996714830399,0.013104508630931377,0.0057277679443359375,0.0723661333322525,-0.062092363834381104,-0.21949213157950845,1.4590361911789613,0.4267006852944631,0.9699192047119141,0.2177339643239975,-0.10885187983512878, 286, 214, 171, 255
1730927637757,6i,10.337933322299293,0.8s : 0.3s,-11.966537636783428,0.012587136728617278,0.5783608196327549,0.08915943458989882,0.9338059425354004,0.050344761461019516,0.009736674837768078,0.009316563606262207,0.06042806804180145,-0.06489264219999313,-0.21832555934579967,1.4575477413614577,0.4171288972563786,0.9700077176094055,0.21659523248672485,-0.11032405495643616, 286, 214, 171, 255
1730927637767,6i,10.337933322299293,0.8s : 0.3s,-11.966537636783428,0.012750823168409885,0.5879125893693774,0.07714284805873302,0.9095024466514587,0.032227542251348495,0.014664587564766407,0.010113060474395752,0.023105919361114502,-0.0729030966758728,-0.2171526151064685,1.4559411071699806,0.4077044277647357,0.9700810313224792,0.2154499888420105,-0.11191140115261078, 286, 214, 171, 255
1730927637777,6i,10.337933322299293,0.8s : 0.3s,-11.966537636783428,0.013064084513333128,0.5943275149739332,0.10068828888051067,0.9124621748924255,0.016833363100886345,0.01836368627846241,0.012932360172271729,0.019450783729553223,-0.0979415774345398,-0.2159268429048714,1.4541939341244874,0.39840254962006155,0.9701457023620605,0.21425284445285797,-0.11363678425550461, 286, 214, 171, 255
1730927637787,6i,10.337933322299293,0.8s : 0.3s,-11.966537636783428,0.013452145823348024,0.5978799754985045,0.12388058407867909,0.9146994948387146,-0.00019462243653833866,-0.0006728558801114559,0.013652443885803223,0.012248888611793518,-0.12251520156860352,-0.21475510648607657,1.4522653235873715,0.3890333064271582,0.9701732397079468,0.21310816705226898,-0.11553719639778137, 286, 214, 171, 255
1730927637797,6i,10.337933322299293,0.8s : 0.3s,-11.966537636783428,0.014092376590867841,0.5976032385554423,0.14298250679935662,0.8881564140319824,-0.006329169496893883,-0.019134720787405968,0.0083390474319458,0.010067671537399292,-0.1423836350440979,-0.21377051499539412,1.450247936807463,0.3796738203401386,0.9701460599899292,0.2121460884809494,-0.11751936376094818, 286, 214, 171, 255
1730927637807,6i,10.337933322299293,0.8s : 0.3s,-11.966537636783428,0.01508373987221405,0.58392560260294,0.12663380082067102,0.8231934309005737,-0.002110189525410533,-0.024961983785033226,7.212162017822266e-05,0.009245753288269043,-0.126295804977417,-0.21294092338610385,1.4483615267516838,0.3709950521648026,0.9700969457626343,0.21133530139923096,-0.11937069147825241, 286, 214, 171, 255
1730927637817,6i,10.337933322299293,0.8s : 0.3s,-11.966537636783428,0.01628230149994475,0.5671872044692113,0.08552477265081668,0.7872230410575867,-0.016535600647330284,-0.035622186958789825,-0.0016985535621643066,-0.012005969882011414,-0.0846608430147171,-0.21225025422974877,1.4465303575553874,0.362732126295557,0.9700214266777039,0.2106601893901825,-0.121164970099926, 286, 214, 171, 255
1730927637827,6i,10.337933322299293,0.8s : 0.3s,-11.966537636783428,0.017363205418238638,0.5663768326627433,0.06616465436571384,0.8325092792510986,-0.015075122937560081,-0.057644665241241455,0.011507749557495117,-0.021815985441207886,-0.06139540672302246,-0.21168691855560592,1.444630762587902,0.354474850082715,0.9699070453643799,0.21010945737361908,-0.12302231043577194, 286, 214, 171, 255
1730927637837,6i,10.337933322299293,0.8s : 0.3s,-11.966537636783428,0.018393670126843432,0.5829784437334855,0.056637240616485666,0.9249256253242493,0.004791392013430595,-0.0658395066857338,0.017581045627593994,-0.009539097547531128,-0.052987635135650635,-0.21119410033781255,1.4426931542196428,0.3452761346098241,0.9697694182395935,0.20962761342525482,-0.12491459399461746, 286, 214, 171, 255
1730927637847,6i,10.337933322299293,0.8s : 0.3s,-11.966537636783428,0.019291793577154697,0.6041201963132062,0.030990949326713903,0.9712420105934143,0.011975536122918129,-0.07644981145858765,0.007401823997497559,-0.0030499547719955444,-0.02993910014629364,-0.2106592488100532,1.4407330216111311,0.33543189368456244,0.9696335792541504,0.20910462737083435,-0.12682972848415375, 286, 214, 171, 255
1730927637857,6i,10.337933322299293,0.8s : 0.3s,-11.966537636783428,0.019963724610231676,0.6299204143394685,0.03926731108881223,1.023445725440979,-0.0029428270645439625,-0.11308488994836807,0.005685746669769287,-0.038243368268013,0.0068584829568862915,-0.2102915941420238,1.4386412925005156,0.325125461395695,0.9694423675537109,0.208745077252388,-0.12886779010295868, 286, 214, 171, 255
1730927637867,6i,10.337933322299293,0.8s : 0.3s,-11.966537636783428,0.02050471313734625,0.6672188480132604,0.05369909099749238,1.1176977157592773,-0.01856200024485588,-0.12432369589805603,0.014283239841461182,-0.048189595341682434,0.01890355348587036,-0.21005502212518465,1.4362177550735964,0.31398190696975753,0.9691762924194336,0.20851370692253113,-0.13122352957725525, 286, 214, 171, 255
1730927637877,6i,10.337933322299293,0.8s : 0.3s,-11.966537636783428,0.02093780589428388,0.7007110653315621,0.040820195675156684,1.1539026498794556,-0.014629088342189789,-0.12643180787563324,0.01825845241546631,-0.0244138240814209,0.02714557945728302,-0.20974032790653208,1.4335949122645024,0.3021412460967101,0.9688935875892639,0.2082059234380722,-0.1337740272283554, 286, 214, 171, 255
1730927637887,6i,10.337933322299293,0.8s : 0.3s,-11.966537636783428,0.02129944905126986,0.7235415457885818,0.025413953285150555,1.1507624387741089,-0.030898606404662132,-0.12386266887187958,0.01080930233001709,-0.012602120637893677,0.019240960478782654,-0.20936454993702805,1.4308974821946379,0.2901488656271278,0.96860671043396,0.20783837139606476,-0.13639797270298004, 286, 214, 171, 255
1730927637897,6i,10.337933322299293,0.8s : 0.3s,-11.966537636783428,0.021644955302583455,0.7402127644767365,0.014796454128123658,1.155858039855957,-0.04034426063299179,-0.10372726619243622,0.00043517351150512695,-0.010752350091934204,-0.01015542447566986,-0.20887741766657905,1.4280528601219835,0.27816218081766814,0.9683147668838501,0.2073618471622467,-0.13916710019111633, 286, 214, 171, 255
1730927637907,6i,10.337933322299293,0.8s : 0.3s,-11.966537636783428,0.02202379454813952,0.7517893589512281,0.032960518878386386,1.1563957929611206,-0.036997467279434204,-0.09236382693052292,-0.00416189432144165,-0.008262738585472107,-0.03163544833660126,-0.2081886757333584,1.4252326952605556,0.26618380919709494,0.9680595397949219,0.2066880315542221,-0.14191803336143494, 286, 214, 171, 255
1730927637917,6i,10.337933322299293,0.8s : 0.3s,-11.966537636783428,0.022476531038320997,0.753217971441931,0.04782740583191089,1.1389216184616089,-0.0253751203417778,-0.06228838115930557,-0.0068801045417785645,0.0038839727640151978,-0.04717032611370087,-0.20726786825423663,1.42255148629354,0.2543216109329734,0.9678633213043213,0.20578701794147491,-0.14454112946987152, 286, 214, 171, 255
1730927637927,6i,10.337933322299293,0.8s : 0.3s,-11.966537636783428,0.022980221151757553,0.754087960824253,0.03834467695665258,1.134655475616455,-0.019021350890398026,-0.054487720131874084,-0.0005434155464172363,0.010831266641616821,-0.03677910566329956,-0.2061407540554635,1.419906815248438,0.24256503059593126,0.9677065014839172,0.20468389987945557,-0.14713510870933533, 286, 214, 171, 255
1730927637937,6i,10.337933322299293,0.8s : 0.3s,-11.966537636783428,0.0235163026071464,0.7412543043702142,0.03994874621660412,1.0612508058547974,-0.025742193683981895,-0.015493514016270638,0.017090678215026855,0.011014729738235474,-0.03438730537891388,-0.20479996261875633,1.4173990879549057,0.23119458153509323,0.9676048755645752,0.2033713012933731,-0.14960318803787231, 286, 214, 171, 255
1730927637947,6i,10.337933322299293,0.8s : 0.3s,-11.966537636783428,0.02404108324242262,0.7157916984836266,0.03449355012130224,0.9778045415878296,-0.054985832422971725,-0.01123298890888691,0.023237943649291992,-0.006873130798339844,-0.024547159671783447,-0.20337100006559708,1.4149079703042229,0.22077380855199571,0.967515230178833,0.20197199285030365,-0.15205809473991394, 286, 214, 171, 255
1730927637957,6i,10.337933322299293,0.8s : 0.3s,-11.966537636783428,0.024495729826325755,0.6974512895867835,0.03549946443580159,0.9753221273422241,-0.05825677141547203,0.013341696001589298,0.026986420154571533,-0.02295064926147461,-0.002283155918121338,-0.2018235016867366,1.4123387669813723,0.21078955305031669,0.9674288630485535,0.2004561573266983,-0.15459245443344116, 286, 214, 171, 255
1730927637967,6i,10.337933322299293,0.8s : 0.3s,-11.966537636783428,0.024919602550847228,0.6850161238652933,0.022312368526572795,0.976972222328186,-0.05301247164607048,0.02583352103829384,0.019864201545715332,-0.005807474255561829,-0.008338376879692078,-0.2000716843547882,1.409806875581761,0.20077946810819952,0.9673793911933899,0.19873958826065063,-0.15709742903709412, 286, 214, 171, 255
1730927637977,6i,10.337933322299293,0.8s : 0.3s,-11.966537636783428,0.025303671323695386,0.6743126935961443,0.01717576920075252,0.9660227298736572,-0.061576709151268005,0.032729409635066986,0.010980665683746338,-0.012559086084365845,-0.004086732864379883,-0.19819555105589354,1.407319296950582,0.1908818443400626,0.9673518538475037,0.19690053164958954,-0.15956377983093262, 286, 214, 171, 255
1730927637987,6i,10.337933322299293,0.8s : 0.3s,-11.966537636783428,0.02561852780337741,0.6661904994246611,0.036841247624127445,0.9620935320854187,-0.06808307766914368,0.025575626641511917,0.018703758716583252,-0.0316118448972702,0.0028527528047561646,-0.19630713860009527,1.4047511171919593,0.18100124320466052,0.9673038721084595,0.1950487345457077,-0.16210874915122986, 286, 214, 171, 255
1730927637997,6i,10.337933322299293,0.8s : 0.3s,-11.966537636783428,0.025851371167990505,0.664874845080577,0.04399091564662443,0.9711510539054871,-0.05891120061278343,0.025766806676983833,0.014732003211975098,-0.040146470069885254,0.010316476225852966,-0.19444566792231338,1.4022240060269762,0.17107129006986052,0.967247486114502,0.19322267174720764,-0.16461336612701416, 286, 214, 171, 255
1730927638007,6i,10.337933322299293,0.8s : 0.3s,-11.966537636783428,0.026013461770659333,0.65713203210855,0.03725262530829237,0.9491477608680725,-0.054890893399715424,0.039983827620744705,-0.008539855480194092,-0.03288771212100983,0.015271782875061035,-0.19247544802289923,1.3998015089137648,0.16125544739410427,0.9672190546989441,0.19128921627998352,-0.16702048480510712, 286, 214, 171, 255
1730927638017,6i,10.337933322299293,0.8s : 0.3s,-11.966537636783428,0.026085258620793268,0.6399490535652383,0.04664358831726873,0.8909714221954346,-0.05822379142045975,0.05225890129804611,-0.01895749568939209,-0.03939683735370636,0.016251981258392334,-0.19043283253866602,1.3975002070554725,0.1518202617627231,0.9672149419784546,0.18928392231464386,-0.16931290924549103, 286, 214, 171, 255
1730927638027,6i,10.337933322299293,0.8s : 0.3s,-11.966537636783428,0.025873227580117255,0.6233907100034103,0.062116469751568114,0.8673416972160339,-0.07329568266868591,0.048134997487068176,-0.016058743000030518,-0.05433960258960724,0.025451526045799255,-0.18840204166394692,1.3952039686976478,0.1428792279850752,0.9672002196311951,0.18728944659233093,-0.17160023748874664, 286, 214, 171, 255
1730927638037,6i,10.337933322299293,0.8s : 0.3s,-11.966537636783428,0.02558629985617343,0.6112999790504245,0.05722287446320518,0.8643118143081665,-0.0673602968454361,0.06498448550701141,-0.01918339729309082,-0.050872549414634705,0.01784484088420868,-0.18633310181110163,1.3928998413652907,0.13404006680392622,0.9671816229820251,0.1852567195892334,-0.17389653623104095, 286, 214, 171, 255
1730927638047,6i,10.337933322299293,0.8s : 0.3s,-11.966537636783428,0.025330501007268483,0.6007129716979511,0.03552829611059948,0.8529244065284729,-0.06646574288606644,0.07568985968828201,-0.026871323585510254,-0.023097366094589233,0.002589106559753418,-0.18409333408386808,1.3906534795574914,0.12524623863541656,0.9671941995620728,0.18305526673793793,-0.176142618060112, 286, 214, 171, 255
1730927638057,6i,10.337933322299293,0.8s : 0.3s,-11.966537636783428,0.025124609062369865,0.5801357488162888,0.024224085052335354,0.7857963442802429,-0.07173573970794678,0.0859224870800972,-0.019254744052886963,-0.013736069202423096,-0.0052327364683151245,-0.18180442386060844,1.388500552823535,0.11695836418382108,0.9672222137451172,0.1808045506477356,-0.17829999327659607, 286, 214, 171, 255
1730927638067,6i,10.337933322299293,0.8s : 0.3s,-11.966537636783428,0.02495997374434774,0.5458227909284865,0.03583103099478444,0.6859235763549805,-0.08267094939947128,0.073598712682724,-0.012346148490905762,-0.032492443919181824,-0.008699223399162292,-0.17968273498988901,1.3864297746261123,0.10958410130716377,0.9672257900238037,0.17871741950511932,-0.180372416973114, 286, 214, 171, 255
1730927638077,6i,10.337933322299293,0.8s : 0.3s,-11.966537636783428,0.024819289053259717,0.5131249783146522,0.04783680554856181,0.640938937664032,-0.09527093172073364,0.07225491106510162,-0.011780261993408203,-0.0461832731962204,-0.004085421562194824,-0.17774827601560517,1.38439120947977,0.10292144727638301,0.9671940803527832,0.1768137812614441,-0.18240752816200256, 286, 214, 171, 255
1730927638087,6i,10.337933322299293,0.8s : 0.3s,-11.966537636783428,0.024726484371351328,0.5002729436628778,0.014087349168809583,0.6893885135650635,-0.10429851710796356,0.07670558243989944,-0.005345821380615234,-0.010127842426300049,-0.00820380449295044,-0.17578082140916484,1.3822318509343856,0.0962402845602182,0.9671378135681152,0.17487697303295135,-0.18456047773361206, 286, 214, 171, 255
1730927638097,6i,10.337933322299293,0.8s : 0.3s,-11.966537636783428,0.024718965332431397,0.4997829058751135,0.03893199277846615,0.726338803768158,-0.10750354826450348,0.07938665896654129,0.0009710788726806641,0.03171670436859131,-0.022556766867637634,-0.17366849827302885,1.3799625443022234,0.08909602651845902,0.9670769572257996,0.1727968156337738,-0.18682436645030975, 286, 214, 171, 255
1730927638107,6i,10.337933322299293,0.8s : 0.3s,-11.966537636783428,0.02486933789030964,0.5001759428818496,0.05133959764668621,0.73843914270401,-0.1107368916273117,0.07954005897045135,-0.011581718921661377,0.03693348169326782,-0.03372737765312195,-0.1714708617089014,1.3776398749424557,0.0817154938807308,0.9670106768608093,0.17063182592391968,-0.18914249539375305, 286, 214, 171, 255
1730927638117,6i,10.337933322299293,0.8s : 0.3s,-11.966537636783428,0.02519716211978295,0.5001512703070822,0.04894056105006008,0.7312882542610168,-0.12417786568403244,0.07624619454145432,-0.014925062656402588,0.027111276984214783,-0.03791305422782898,-0.16926774244795564,1.37524195336076,0.07454273635454686,0.966920793056488,0.16846060752868652,-0.19153334200382233, 286, 214, 171, 255
1730927638127,6i,10.337933322299293,0.8s : 0.3s,-11.966537636783428,0.025566163864251795,0.4910294465723798,0.033121324262406285,0.6855926513671875,-0.12786021828651428,0.06876856833696365,-0.004044592380523682,0.011283114552497864,-0.030876442790031433,-0.1671522445157869,1.3728018939117081,0.06741966834194608,0.9667978286743164,0.16637496650218964,-0.19396178424358368, 286, 214, 171, 255
1730927638137,6i,10.337933322299293,0.8s : 0.3s,-11.966537636783428,0.025936346934701916,0.46822840389339465,0.021227403183540012,0.6018151044845581,-0.12999984622001648,0.06913445144891739,-0.010057687759399414,-0.009087160229682922,-0.01633612811565399,-0.16518709410209123,1.3704706056610416,0.06095156530553968,0.9666616320610046,0.16443687677383423,-0.196279838681221, 286, 214, 171, 255
1730927638147,6i,10.337933322299293,0.8s : 0.3s,-11.966537636783428,0.02628189559842424,0.4419628194140059,0.030804300913151325,0.5476136207580566,-0.13419857621192932,0.07453640550374985,-0.0225943922996521,-0.020626991987228394,-0.003595218062400818,-0.16331984149731685,1.3682291624993101,0.05523353288860125,0.9665182828903198,0.1625947654247284,-0.19850747287273407, 286, 214, 171, 255
1730927638157,6i,10.337933322299293,0.8s : 0.3s,-11.966537636783428,0.02661133122798352,0.41639845598539565,0.040421289977757104,0.5099279284477234,-0.1329536885023117,0.07965204119682312,-0.030187606811523438,-0.026171401143074036,-0.006135702133178711,-0.16148539527868674,1.366057073454995,0.049943494908255205,0.9663753509521484,0.16078445315361023,-0.20066669583320618, 286, 214, 171, 255
1730927638167,6i,10.337933322299293,0.8s : 0.3s,-11.966537636783428,0.026916188684622654,0.3855199206871241,0.056620587807468,0.44288524985313416,-0.13144180178642273,0.08044220507144928,-0.0437045693397522,-0.03559368848800659,-0.005375027656555176,-0.15973090532438333,1.3640027958517342,0.0452611919526195,0.9662356972694397,0.1590525358915329,-0.20270907878875732, 286, 214, 171, 255
1730927638177,6i,10.337933322299293,0.8s : 0.3s,-11.966537636783428,0.027279211201124094,0.3531705385099062,0.07543815144702791,0.38876619935035706,-0.12328069657087326,0.07915006577968597,-0.0610121488571167,-0.04274074733257294,-0.011902138590812683,-0.15808340792981734,1.3620963044237304,0.041150589139681074,0.9661024212837219,0.15742580592632294,-0.204604834318161, 286, 214, 171, 255
1730927638187,6i,10.337933322299293,0.8s : 0.3s,-11.966537636783428,0.027769845875727905,0.33455972477938156,0.08819254799507574,0.41469019651412964,-0.10996408760547638,0.06471546739339828,-0.07030153274536133,-0.0498153418302536,-0.018816262483596802,-0.1565174253750224,1.3603188236511923,0.03716203299140595,0.9659770131111145,0.1558791548013687,-0.20637297630310059, 286, 214, 171, 255
1730927638197,6i,10.337933322299293,0.8s : 0.3s,-11.966537636783428,0.02833886444969011,0.3317429073649836,0.07244072262810888,0.45767974853515625,-0.09601587057113647,0.06804422289133072,-0.06547653675079346,-0.021834805607795715,-0.021993696689605713,-0.15494613605540927,1.3586378600731317,0.03280851735612575,0.9658671617507935,0.1543268859386444,-0.2080477923154831, 286, 214, 171, 255
1730927638207,6i,10.337933322299293,0.8s : 0.3s,-11.966537636783428,0.02897472726189348,0.32581286123610465,0.05541036659338108,0.4474865198135376,-0.07988909631967545,0.06709267199039459,-0.04903155565261841,0.01019442081451416,-0.023712635040283203,-0.15327736916706217,1.3570927205436638,0.028305021361419703,0.9657948613166809,0.15267789363861084,-0.20959427952766418, 286, 214, 171, 255
1730927638217,6i,10.337933322299293,0.8s : 0.3s,-11.966537636783428,0.029590384460187764,0.3113295975878537,0.027678183559467724,0.3994642496109009,-0.09283201396465302,0.05368815362453461,-0.025157809257507324,-0.008306950330734253,-0.008010059595108032,-0.15177226403442814,1.3556250002631454,0.024104769736539446,0.9657096862792969,0.15119026601314545,-0.21106040477752686, 286, 214, 171, 255
1730927638227,6i,10.337933322299293,0.8s : 0.3s,-11.966537636783428,0.030089233709700777,0.2961310243898516,0.02460204585786207,0.3736880421638489,-0.09181734919548035,0.053200796246528625,-0.005154848098754883,-0.018695324659347534,0.01513846218585968,-0.15042654048612802,1.3541204194929795,0.020254843481694262,0.9655887484550476,0.14985987544059753,-0.21255668997764587, 286, 214, 171, 255
1730927638237,6i,10.337933322299293,0.8s : 0.3s,-11.966537636783428,0.030454112548387147,0.27658201656709064,0.015641879515365713,0.3307473659515381,-0.08052124083042145,0.05087249353528023,0.004550814628601074,0.006346151232719421,0.013553038239479065,-0.1491901640099749,1.352769361734867,0.016815051889133018,0.9654808640480042,0.1486373394727707,-0.21390096843242645, 286, 214, 171, 255
1730927638247,6i,10.337933322299293,0.8s : 0.3s,-11.966537636783428,0.03073211451817027,0.2640951723516745,0.033237615158432425,0.3371003270149231,-0.07528573274612427,0.05779298394918442,-0.004381835460662842,0.007384970784187317,0.032109200954437256,-0.1479392341536473,1.3515292760767663,0.013526183681596301,0.9653956294059753,0.14740018546581268,-0.21513836085796356, 286, 214, 171, 255
1730927638257,6i,10.337933322299293,0.8s : 0.3s,-11.966537636783428,0.030967131778699662,0.24951481820536792,0.02516589594971009,0.30983465909957886,-0.07178837805986404,0.04440254345536232,0.0018825531005859375,0.02289298176765442,0.0102805495262146,-0.14674630838366196,1.3503447859343465,0.010413789807159386,0.9653110504150391,0.14622019231319427,-0.21632002294063568, 286, 214, 171, 255
1730927638267,6i,10.337933322299293,0.8s : 0.3s,-11.966537636783428,0.031184732448422247,0.25002525137081705,0.0113088261300439,0.36878931522369385,-0.07292048633098602,0.052737969905138016,-0.0030546188354492188,0.010786011815071106,0.0014902353286743164,-0.14548842725744635,1.3491388821172408,0.007049979862271642,0.9652280807495117,0.1449757069349289,-0.2175241857767105, 286, 214, 171, 255
1730927638277,6i,10.337933322299293,0.8s : 0.3s,-11.966537636783428,0.03141372968656543,0.2469638548588845,0.026535928808559758,0.3364810347557068,-0.05644693225622177,0.05658634006977081,-0.0018236637115478516,0.0222577303647995,-0.014332592487335205,-0.1441189605861866,1.3479977611211598,0.0034681430675439708,0.9651720523834229,0.1436205804347992,-0.21866917610168457, 286, 214, 171, 255
1730927638287,6i,10.337933322299293,0.8s : 0.3s,-11.966537636783428,0.031668035471330624,0.23358303744278733,0.021029774820396082,0.2879891097545624,-0.05753456801176071,0.0728531926870346,-0.002035200595855713,-0.0032172054052352905,-0.020682334899902344,-0.1428319979397049,1.3470303297042132,0.0004932953521887208,0.9651394486427307,0.1423468440771103,-0.21964362263679504, 286, 214, 171, 255
1730927638297,6i,10.337933322299293,0.8s : 0.3s,-11.966537636783428,0.031858640007651734,0.21986178524726693,0.047601318055415176,0.2646166980266571,-0.05865691229701042,0.0733179822564125,0.0025113821029663086,-0.0468234121799469,0.008194297552108765,-0.14151834977974784,1.346069940465031,-0.002093132360042711,0.9651095867156982,0.1410464495420456,-0.22061194479465485, 286, 214, 171, 255
1730927638307,6i,10.337933322299293,0.8s : 0.3s,-11.966537636783428,0.03204882590448577,0.19385281506403843,0.03739233733558427,0.17994548380374908,-0.05859033390879631,0.06736581772565842,0.015099048614501953,-0.032104119658470154,-0.011812329292297363,-0.14032173139065426,1.345194231018325,-0.004289461294112366,0.9650797843933105,0.13986168801784515,-0.22149458527565002, 286, 214, 171, 255
1730927638317,6i,10.337933322299293,0.8s : 0.3s,-11.966537636783428,0.03218486511502497,0.17387154352677314,0.05012767311835997,0.16542619466781616,-0.06247464194893837,0.07839310169219971,0.008901119232177734,-0.04905484616756439,0.005213037133216858,-0.13919506897017356,1.344380457575406,-0.0059400938741789346,0.96505206823349,0.1387460082769394,-0.22231508791446686, 286, 214, 171, 255
1730927638327,6i,10.337933322299293,0.8s : 0.3s,-11.966537636783428,0.03229085645112168,0.1667465059799023,0.028651634702057383,0.1936493217945099,-0.0652051791548729,0.08640708774328232,0.01842212677001953,-0.02134053409099579,0.005111068487167358,-0.13795814620348543,1.3434981865336595,-0.0076414653179688475,0.9650219678878784,0.1375209540128708,-0.22320492565631866, 286, 214, 171, 255
1730927638337,6i,10.337933322299293,0.8s : 0.3s,-11.966537636783428,0.0324172206463069,0.16407518613414412,0.038089475569543806,0.19039253890514374,-0.07380914688110352,0.09130629897117615,0.026801466941833496,0.002658069133758545,-0.0269336998462677,-0.13668314517173957,1.3425916216259588,-0.009370576622934073,0.964989423751831,0.13625794649124146,-0.22411921620368958, 286, 214, 171, 255
1730927638347,6i,10.337933322299293,0.8s : 0.3s,-11.966537636783428,0.03252482308620935,0.1649012443812698,0.025194975636331208,0.22346873581409454,-0.08165828138589859,0.09956423193216324,0.021827220916748047,-0.012009218335151672,-0.003760039806365967,-0.13528527400082244,1.341565485486663,-0.01118344302440444,0.9649434089660645,0.13487298786640167,-0.22515234351158142, 286, 214, 171, 255
1730927638357,6i,10.337933322299293,0.8s : 0.3s,-11.966537636783428,0.03261263682412428,0.17759539206748443,0.0288059520965423,0.28132230043411255,-0.08706649392843246,0.09299291670322418,0.027429521083831787,0.003746926784515381,-0.007960200309753418,-0.13378250853816823,1.3404153826164222,-0.013490797002930347,0.9648800492286682,0.13338379561901093,-0.22630800306797028, 286, 214, 171, 255
1730927638367,6i,10.337933322299293,0.8s : 0.3s,-11.966537636783428,0.03269085400299471,0.20222270946094095,0.03132482964532736,0.36354365944862366,-0.08347681909799576,0.1058165654540062,0.022198498249053955,0.01821427047252655,-0.012518465518951416,-0.1320562977945082,1.3391528210807655,-0.016491543129786453,0.9648162722587585,0.13167281448841095,-0.22757858037948608, 286, 214, 171, 255
1730927638377,6i,10.337933322299293,0.8s : 0.3s,-11.966537636783428,0.032791770998501946,0.2302858112710854,0.039286120984097055,0.4162881076335907,-0.0949682667851448,0.11143017560243607,0.01987689733505249,0.022308021783828735,-0.02550804615020752,-0.1300818477624469,1.3377954941972872,-0.020134437739897145,0.9647575616836548,0.12971529364585876,-0.22894752025604248, 286, 214, 171, 255
1730927638387,6i,10.337933322299293,0.8s : 0.3s,-11.966537636783428,0.03294577931367707,0.25883923861179436,0.0378257748633443,0.46023452281951904,-0.09614938497543335,0.12079518288373947,0.01842111349105835,0.004025280475616455,-0.03279098868370056,-0.1278996825390745,1.336301644924854,-0.024250818797446394,0.9646875262260437,0.12755125761032104,-0.2304536998271942, 286, 214, 171, 255
1730927638397,6i,10.337933322299293,0.8s : 0.3s,-11.966537636783428,0.03314232270538905,0.2875549579846274,0.03784478595685426,0.5063313245773315,-0.08941145241260529,0.12474960833787918,0.015896379947662354,-0.02004857361316681,-0.027885258197784424,-0.12557239871543366,1.3348305078690317,-0.028724869684433073,0.9646334052085876,0.12524265050888062,-0.23194140195846558, 286, 214, 171, 255
1730927638407,6i,10.337933322299293,0.8s : 0.3s,-11.966537636783428,0.03336201546323945,0.32256016059611275,0.023690911583061084,0.5829861164093018,-0.09105941653251648,0.1261989027261734,0.0053255558013916016,-0.011811673641204834,-0.019833862781524658,-0.12305339379387528,1.3333141270457702,-0.0337936267618555,0.9645841121673584,0.12274307757616043,-0.23347733914852142, 286, 214, 171, 255
1730927638417,6i,10.337933322299293,0.8s : 0.3s,-11.966537636783428,0.0336223261712136,0.3758738415273878,0.0333401163846519,0.7332810759544373,-0.08461323380470276,0.12144895642995834,0.001632094383239746,0.008482880890369415,-0.032201558351516724,-0.12031671105926445,1.3316795084036606,-0.039896439589235465,0.9645238518714905,0.12002663314342499,-0.23513242602348328, 286, 214, 171, 255
1730927638427,6i,10.337933322299293,0.8s : 0.3s,-11.966537636783428,0.03395497552173528,0.449596795823266,0.05471801132306393,0.9175941944122314,-0.07742936164140701,0.12520268559455872,0.00249636173248291,0.04095127433538437,-0.03620527684688568,-0.11713808106407085,1.3299590731846702,-0.04762052736394126,0.9644835591316223,0.11687038093805313,-0.236881285905838, 286, 214, 171, 255
1730927638437,6i,10.337933322299293,0.8s : 0.3s,-11.966537636783428,0.03437475958304522,0.544524630342702,0.06986491967367671,1.1383968591690063,-0.07481284439563751,0.10209140181541443,0.0027779340744018555,0.05559191107749939,-0.04222474992275238,-0.11356684050345402,1.3280596118346566,-0.05740330103907009,0.9644308686256409,0.11332287639379501,-0.238811656832695, 286, 214, 171, 255
1730927638447,6i,10.337933322299293,0.8s : 0.3s,-11.966537636783428,0.03483916609464054,0.6540936241684424,0.06598985254840253,1.353005290031433,-0.04926513880491257,0.11323194205760956,-0.002289414405822754,0.05461683124303818,-0.036965131759643555,-0.10949647563894577,1.3261051605460779,-0.06943418960331393,0.9644018411636353,0.10927780717611313,-0.24080589413642883, 286, 214, 171, 255
1730927638457,6i,10.337933322299293,0.8s : 0.3s,-11.966537636783428,0.035320213612411604,0.7542112405589793,0.0793161120247586,1.46863853931427,-0.03954242542386055,0.11486056447029114,-0.003632187843322754,0.07242781668901443,-0.03212575614452362,-0.10494977883231031,1.324216047002804,-0.08305893981884808,0.964417040348053,0.10475722700357437,-0.24274608492851257, 286, 214, 171, 255
1730927638467,6i,10.337933322299293,0.8s : 0.3s,-11.966537636783428,0.03585370158536154,0.8338003406630474,0.05100517534077139,1.5134581327438354,-0.04327883943915367,0.13026827573776245,-0.014659762382507324,0.03490390628576279,-0.03418093919754028,-0.10008978284954595,1.322343967129311,-0.09741384656552646,0.9644431471824646,0.09992275387048721,-0.2446734607219696, 286, 214, 171, 255
1730927638477,6i,10.337933322299293,0.8s : 0.3s,-11.966537636783428,0.036414548792521984,0.8893849401745979,0.02642736028871451,1.5093673467636108,-0.050624240189790726,0.1601705551147461,-0.009980976581573486,-0.008117541670799255,-0.023084431886672974,-0.09496064135562708,1.320458993567416,-0.11185156720752096,0.9644641280174255,0.09481798857450485,-0.2466147094964981, 286, 214, 171, 255
1730927638487,6i,10.337933322299293,0.8s : 0.3s,-11.966537636783428,0.03696324964781224,0.9150878619942113,0.05056426231090606,1.4399023056030273,-0.037324681878089905,0.19660447537899017,-0.00443500280380249,-0.049556076526641846,-0.009015023708343506,-0.08953159505034922,1.3187201891099753,-0.1258117274032588,0.9645179510116577,0.08941203355789185,-0.24841603636741638, 286, 214, 171, 255
1730927638497,6i,10.337933322299293,0.8s : 0.3s,-11.966537636783428,0.037385541252460526,0.91522229130399,0.10618814703422663,1.3493287563323975,-0.01348423957824707,0.22342875599861145,-0.01884317398071289,-0.10419252514839172,0.008048295974731445,-0.08401237564258775,1.317305644581384,-0.1388862090942172,0.9646286964416504,0.08391357958316803,-0.24990011751651764, 286, 214, 171, 255
1730927638507,6i,10.337933322299293,0.8s : 0.3s,-11.966537636783428,0.037639960600193215,0.8868868486673536,0.11974925534123464,1.2035424709320068,0.011511923745274544,0.2360292375087738,-0.03380507230758667,-0.11108995229005814,0.029259592294692993,-0.07856271354750807,1.3163595080581003,-0.15082031546719948,0.964820146560669,0.07848192006349564,-0.25092408061027527, 286, 214, 171, 255
1730927638517,6i,10.337933322299293,0.8s : 0.3s,-11.966537636783428,0.03777472074565069,0.8469813436886608,0.1107575609996182,1.101532220840454,0.018497927114367485,0.23275141417980194,-0.03641819953918457,-0.09808237850666046,0.0363427996635437,-0.07339850826818115,1.3157154123245725,-0.16147821073130716,0.9650375843048096,0.07333262264728546,-0.2516443431377411, 286, 214, 171, 255
1730927638527,6i,10.337933322299293,0.8s : 0.3s,-11.966537636783428,0.03789344862988153,0.8317894996694959,0.08488156773431711,1.1640914678573608,0.026373427361249924,0.23519353568553925,-0.03158867359161377,-0.06477188318967819,0.04485130310058594,-0.06827338881524606,1.3151998914759053,-0.1719745094093056,0.9652587175369263,0.0682203620672226,-0.2522335350513458, 286, 214, 171, 255
1730927638537,6i,10.337933322299293,0.8s : 0.3s,-11.966537636783428,0.03799173507904535,0.8319997671114103,0.027843122335942834,1.2191014289855957,0.04526509344577789,0.2427116483449936,-0.013393402099609375,0.023845545947551727,0.005219787359237671,-0.06291164510171252,1.314854024625962,-0.18318484196933313,0.9655114412307739,0.06287015229463577,-0.25265634059906006, 286, 214, 171, 255
1730927638547,6i,10.337933322299293,0.8s : 0.3s,-11.966537636783428,0.03814364159576116,0.8331567596134708,0.06802030253528028,1.2338838577270508,0.0017035015625879169,0.2414780706167221,-0.007044613361358643,0.06206497177481651,-0.026927202939987183,-0.05748877297444831,1.3144463610702741,-0.19461572039257308,0.9657239317893982,0.05745711177587509,-0.2531326413154602, 286, 214, 171, 255
1730927638557,6i,10.337933322299293,0.8s : 0.3s,-11.966537636783428,0.03830659882435674,0.8506471404731727,0.0663991148833757,1.309701681137085,-0.0644741877913475,0.21976397931575775,0.012939929962158203,0.05906153470277786,-0.02744331955909729,-0.051984808687188244,1.3134958266275398,-0.2065998022312785,0.9657739996910095,0.051961395889520645,-0.2541270852088928, 286, 214, 171, 255
1730927638567,6i,10.337933322299293,0.8s : 0.3s,-11.966537636783428,0.03852471336333385,0.8785001613572792,0.14005945126230987,1.3897638320922852,-0.09544648975133896,0.20233970880508423,0.04978662729263306,0.11466030776500702,-0.06317400932312012,-0.04647395410007458,1.3120608188267058,-0.21946840703068315,0.9656705260276794,0.04645722731947899,-0.2555820941925049, 286, 214, 171, 255
1730927638577,6i,10.337933322299293,0.8s : 0.3s,-11.966537636783428,0.03888829821077241,0.8908167492869337,0.1946814930818921,1.359884262084961,-0.10012565553188324,0.15420567989349365,0.05473405122756958,0.1677471399307251,-0.08225548267364502,-0.04118783957503303,1.3105187961253917,-0.23260280387602933,0.9654991030693054,0.041176196187734604,-0.25713050365448, 286, 214, 171, 255
1730927638587,6i,10.337933322299293,0.8s : 0.3s,-11.966537636783428,0.03947624911708689,0.9086827833404815,0.20026690414560455,1.4119971990585327,-0.10688316076993942,0.0994580015540123,0.022926747798919678,0.18626940250396729,-0.06989210844039917,-0.03641013685694532,1.308968053411057,-0.24589648983002627,0.9652782082557678,0.03640209138393402,-0.25867539644241333, 286, 214, 171, 255
1730927638597,6i,10.337933322299293,0.8s : 0.3s,-11.966537636783428,0.04048502112751238,0.9461940475559488,0.2609604826056024,1.540656328201294,-0.11506084352731705,0.04017037898302078,-0.0011456012725830078,0.249048113822937,-0.07793650031089783,-0.031871588155339615,1.3073686017692479,-0.2603503662722915,0.9650127291679382,0.03186619281768799,-0.2602593004703522, 286, 214, 171, 255
1730927638607,6i,10.337933322299293,0.8s : 0.3s,-11.966537636783428,0.04236339870277929,0.9858207503270652,0.3588014733561949,1.6101791858673096,-0.09238509833812714,-0.026355117559432983,-0.008942902088165283,0.33874791860580444,-0.11793375015258789,-0.027695409918155403,1.3058565795566393,-0.2759019227286453,0.9647381901741028,0.02769186906516552,-0.2617506980895996, 286, 214, 171, 255
1730927638617,6i,10.337933322299293,0.8s : 0.3s,-11.966537636783428,0.0453942004499245,1.0098159631386003,0.40433866945040065,1.5908499956130981,-0.07531210035085678,-0.09208978712558746,-0.04168194532394409,0.3824780285358429,-0.12435004115104675,-0.024003158224953393,1.3046091602818222,-0.2920251304965968,0.9645029902458191,0.024000853300094604,-0.26297903060913086, 286, 214, 171, 255
1730927638627,6i,10.337933322299293,0.8s : 0.3s,-11.966537636783428,0.0495525347146457,1.0056198735929767,0.39500980253813667,1.4655530452728271,-0.10078790038824081,-0.16263426840305328,-0.07756173610687256,0.3704776167869568,-0.11297458410263062,-0.021186554751506492,1.3034160768203331,-0.3073934546094063,0.9642499685287476,0.021184969693422318,-0.2641464173793793, 286, 214, 171, 255
1730927638637,6i,10.337933322299293,0.8s : 0.3s,-11.966537636783428,0.05445302478932516,1.0030336764620413,0.3649882459068486,1.4528189897537231,-0.12273110449314117,-0.2477920949459076,-0.0927324891090393,0.3443007171154022,-0.07793664932250977,-0.019317425142873622,1.3019664828224637,-0.3222367193344655,0.9639025330543518,0.01931622438132763,-0.26555395126342773, 286, 214, 171, 255
1730927638647,6i,10.337933322299293,0.8s : 0.3s,-11.966537636783428,0.06030718253726956,1.0291682128212487,0.4403217921106708,1.6060396432876587,-0.12705767154693604,-0.3171682357788086,-0.1107020378112793,0.4180358946323395,-0.08291158080101013,-0.01795443124420664,1.3004224006129863,-0.3379885862622573,0.9635158777236938,0.01795346662402153,-0.26704877614974976, 286, 214, 171, 255
1730927638657,6i,10.337933322299293,0.8s : 0.3s,-11.966537636783428,0.06770440908197665,1.06109716856872,0.5539996719908455,1.6547595262527466,-0.12259439378976822,-0.40445566177368164,-0.15329772233963013,0.515796422958374,-0.13179337978363037,-0.01704129228928147,1.2989144304930273,-0.35477907089668564,0.9631274342536926,0.017040466889739037,-0.268505722284317, 286, 214, 171, 255
1730927638667,6i,10.337933322299293,0.8s : 0.3s,-11.966537636783428,0.0764727930509118,1.0732443147024908,0.5745045933291729,1.5797358751296997,-0.13755203783512115,-0.4840517044067383,-0.18893027305603027,0.5243613719940186,-0.13930553197860718,-0.016960236468333167,1.2973351793721484,-0.3718629486270072,0.9627034664154053,0.016959423199295998,-0.2700267434120178, 286, 214, 171, 255
1730927638677,6i,10.337933322299293,0.8s : 0.3s,-11.966537636783428,0.08599782859933981,1.0761519605520637,0.5468774519541837,1.5221296548843384,-0.15928739309310913,-0.5773156881332397,-0.21339434385299683,0.49441760778427124,-0.09533640742301941,-0.01783612666960282,1.2955463093828912,-0.3885355491033882,0.9622042775154114,0.017835181206464767,-0.27174434065818787, 286, 214, 171, 255
1730927638687,6i,10.337933322299293,0.8s : 0.3s,-11.966537636783428,0.09642613932075136,1.073848545821343,0.5835756268805046,1.437503695487976,-0.1821540892124176,-0.6868855953216553,-0.24103713035583496,0.514114499092102,-0.13471412658691406,-0.019852843780204948,1.2935314241591676,-0.4047633855865096,0.961618185043335,0.01985153928399086,-0.27367210388183594, 286, 214, 171, 255
1730927638697,6i,10.337933322299293,0.8s : 0.3s,-11.966537636783428,0.10776486071895298,1.0802783645683616,0.6219871954750058,1.4397008419036865,-0.2136061042547226,-0.8302314281463623,-0.26689285039901733,0.5414342880249023,-0.14995062351226807,-0.023219300259691735,1.2912016976275207,-0.4208480029390269,0.9609083533287048,0.0232172142714262,-0.2758916914463043, 286, 214, 171, 255
1730927638707,6i,10.337933322299293,0.8s : 0.3s,-11.966537636783428,0.12000031344568347,1.1100536037816913,0.664190682355068,1.4966347217559814,-0.22877733409404755,-0.9568428993225098,-0.2887990474700928,0.580222487449646,-0.14521101117134094,-0.027736999973398627,1.2885532969650606,-0.43778149912711856,0.9600638151168823,0.027733443304896355,-0.27840352058410645, 286, 214, 171, 255
1730927638717,6i,10.337933322299293,0.8s : 0.3s,-11.966537636783428,0.13350601487948166,1.1376899186080613,0.7539099177986894,1.4563747644424438,-0.23191875219345093,-1.0703343152999878,-0.2998366951942444,0.6680418252944946,-0.17943868041038513,-0.03333459982392802,1.2857229944229387,-0.45514840415182245,0.9591078758239746,0.033328425139188766,-0.28107157349586487, 286, 214, 171, 255
1730927638727,6i,10.337933322299293,0.8s : 0.3s,-11.966537636783428,0.14798621463489028,1.14447284042004,0.7659549653415425,1.2874538898468018,-0.27630138397216797,-1.1848108768463135,-0.3072214126586914,0.6805585622787476,-0.17071044445037842,-0.04023165687794405,1.2826393793005233,-0.47170135170091454,0.9579933881759644,0.04022080451250076,-0.2839556634426117, 286, 214, 171, 255
1730927638737,6i,10.337933322299293,0.8s : 0.3s,-11.966537636783428,0.16276375168513477,1.1860417542111974,0.7182664280937257,1.360664963722229,-0.3184497058391571,-1.350724697113037,-0.3216226100921631,0.6319935321807861,-0.11423543095588684,-0.048689769486353535,1.2789223600797515,-0.4878942851716177,0.9565712809562683,0.048670534044504166,-0.28740641474723816, 286, 214, 171, 255
1730927638747,6i,10.337933322299293,0.8s : 0.3s,-11.966537636783428,0.17814033400742227,1.2386897155536336,0.7749234063229008,1.3396341800689697,-0.3302544355392456,-1.5311347246170044,-0.33684808015823364,0.6877436637878418,-0.11852556467056274,-0.05856667590505027,1.2747570048850998,-0.5051733944310004,0.9548595547676086,0.0585331991314888,-0.29123395681381226, 286, 214, 171, 255
1730927638757,6i,10.337933322299293,0.8s : 0.3s,-11.966537636783428,0.1947755892361529,1.3267510659638189,0.8945684720858568,1.5126807689666748,-0.30782580375671387,-1.7013834714889526,-0.3592692017555237,0.8045486807823181,-0.15453094244003296,-0.06983669756967738,1.2703694864610553,-0.5238610308280491,0.9528818726539612,0.06977994740009308,-0.29520660638809204, 286, 214, 171, 255
1730927638767,6i,10.337933322299293,0.8s : 0.3s,-11.966537636783428,0.2130238276170387,1.4204464195704485,0.9986001393003291,1.5632283687591553,-0.30331575870513916,-1.8671966791152954,-0.3765285015106201,0.9049670100212097,-0.19095349311828613,-0.08226256536207144,1.265809033793999,-0.5441586284880439,0.9506251811981201,0.08216981589794159,-0.29926562309265137, 286, 214, 171, 255
1730927638777,6i,10.337933322299293,0.8s : 0.3s,-11.966537636783428,0.2321856004662368,1.5091632317258559,0.9644700309511572,1.5361900329589844,-0.33064308762550354,-2.034985303878784,-0.38295936584472656,0.86760413646698,-0.17552101612091064,-0.09618241515807895,1.2607941397551803,-0.5651735822892301,0.9479312896728516,0.09603418409824371,-0.30365076661109924, 286, 214, 171, 255
1730927638787,6i,10.337933322299293,0.8s : 0.3s,-11.966537636783428,0.2514263496111014,1.6020064803387049,0.8906482992756388,1.5678715705871582,-0.3526751399040222,-2.195560932159424,-0.3577420711517334,0.805677592754364,-0.12711656093597412,-0.11154577977367343,1.2551447523044068,-0.586684577369478,0.9446865916252136,0.11131460964679718,-0.30850663781166077, 286, 214, 171, 255
1730927638797,6i,10.337933322299293,0.8s : 0.3s,-11.966537636783428,0.27080154581415544,1.7044012619425122,0.9060572858397632,1.6589854955673218,-0.37879595160484314,-2.3502116203308105,-0.307106614112854,0.8441882133483887,-0.11820149421691895,-0.12805471508435184,1.2487874129640744,-0.6095275050326864,0.940834641456604,0.12770502269268036,-0.31388166546821594, 286, 214, 171, 255
1730927638807,6i,10.337933322299293,0.8s : 0.3s,-11.966537636783428,0.2904704462869547,1.8091261562102885,0.9265528806128291,1.7036566734313965,-0.4114969074726105,-2.514368772506714,-0.26639795303344727,0.8750804662704468,-0.14753490686416626,-0.14574437448493907,1.2415653840088063,-0.6335952168855217,0.9362587928771973,0.14522895216941833,-0.319887638092041, 286, 214, 171, 255
1730927638817,6i,10.337933322299293,0.8s : 0.3s,-11.966537636783428,0.3101893183236122,1.909965480950144,0.9088393638206693,1.7127996683120728,-0.45098981261253357,-2.667637586593628,-0.2183372974395752,0.8706963658332825,-0.14214658737182617,-0.1646535428319231,1.2334126991410541,-0.6586908377800222,0.9308617115020752,0.16391056776046753,-0.3265424072742462, 286, 214, 171, 255
1730927638827,6i,10.337933322299293,0.8s : 0.3s,-11.966537636783428,0.3298942154752735,2.0120543115722924,0.8902919546750439,1.7582241296768188,-0.509432315826416,-2.814439058303833,-0.16277015209197998,0.8611672520637512,-0.15657779574394226,-0.1846805315801561,1.2240908596613314,-0.6847429733075726,0.9245040416717529,0.1836325079202652,-0.3340228199958801, 286, 214, 171, 255
1730927638837,6i,10.337933322299293,0.8s : 0.3s,-11.966537636783428,0.3492133006925984,2.113768314813326,0.8525884050975747,1.7763324975967407,-0.5466083288192749,-2.9749743938446045,-0.11627888679504395,0.8283928632736206,-0.16477704048156738,-0.20573985358859231,1.2135526009560238,-0.7118364035787859,0.9171059131622314,0.2042914628982544,-0.3423183262348175, 286, 214, 171, 255
1730927638847,6i,10.337933322299293,0.8s : 0.3s,-11.966537636783428,0.36818482408226905,2.2146031941328603,0.841137783082957,1.7819006443023682,-0.6106451153755188,-3.132982015609741,-0.06933051347732544,0.8207232356071472,-0.1706441342830658,-0.2280311916623457,1.2017652060675803,-0.7399237099383599,0.9085333347320557,0.22606012225151062,-0.3513742983341217, 286, 214, 171, 255
1730927638857,6i,10.337933322299293,0.8s : 0.3s,-11.966537636783428,0.3868797562913822,2.325088718430358,0.8357995095762364,1.938607096672058,-0.6687039732933044,-3.2583494186401367,-0.0032438039779663086,0.8222172260284424,-0.15003043413162231,-0.25098127596658043,1.1882749680871918,-0.7698636665629064,0.8986601233482361,0.24835461378097534,-0.3615662455558777, 286, 214, 171, 255
1730927638867,6i,10.337933322299293,0.8s : 0.3s,-11.966537636783428,0.4054317118927613,2.4222360138574235,0.8427452700670616,1.9013372659683228,-0.7184851169586182,-3.386767864227295,0.0794670581817627,0.8209025859832764,-0.173272967338562,-0.27435357471197863,1.173119744506826,-0.8015653083315979,0.8874824047088623,0.27092474699020386,-0.3727933466434479, 286, 214, 171, 255
1730927638877,6i,10.337933322299293,0.8s : 0.3s,-11.966537636783428,0.4231788052372498,2.506221183573566,0.8063948925128668,1.8480024337768555,-0.7844717502593994,-3.495710849761963,0.126215398311615,0.7780230045318604,-0.17036020755767822,-0.29861500315947387,1.1565255945353765,-0.8337443102179369,0.8748984932899475,0.2941967844963074,-0.3847087621688843, 286, 214, 171, 255
1730927638887,6i,10.337933322299293,0.8s : 0.3s,-11.966537636783428,0.4400314377039242,2.5905010756690374,0.7854045504157274,1.8810149431228638,-0.8896653056144714,-3.599269390106201,0.19236499071121216,0.7493299841880798,-0.13550126552581787,-0.3233530395567682,1.1380398368622338,-0.8667132878855162,0.8607660531997681,0.3177476227283478,-0.39764079451560974, 286, 214, 171, 255
1730927638897,6i,10.337933322299293,0.8s : 0.3s,-11.966537636783428,0.45668839696352787,2.683403986027922,0.8306259137933714,2.0320377349853516,-0.9651265144348145,-3.6921916007995605,0.2790265679359436,0.7633410692214966,-0.1714467704296112,-0.34794642523867647,1.1171269330419702,-0.9019528192115527,0.8449816107749939,0.3409680128097534,-0.4120035171508789, 286, 214, 171, 255
1730927638907,6i,10.337933322299293,0.8s : 0.3s,-11.966537636783428,0.47298860021256284,2.7778551438591643,0.8777425791024197,2.1305594444274902,-1.0098598003387451,-3.7962992191314697,0.32954925298690796,0.784845232963562,-0.2141197919845581,-0.37205567451300964,1.0938808570570906,-0.9398108683496823,0.827631413936615,0.363531231880188,-0.4276343286037445, 286, 214, 171, 255
1730927638917,6i,10.337933322299293,0.8s : 0.3s,-11.966537636783428,0.4889841517670569,2.862711871495636,0.8723504259659017,2.1664299964904785,-1.0775558948516846,-3.867631435394287,0.35480743646621704,0.76478511095047,-0.22407740354537964,-0.39578130751246277,1.0684939133324063,-0.9797659925241203,0.8087210059165955,0.38552922010421753,-0.44422706961631775, 286, 214, 171, 255
1730927638927,6i,10.337933322299293,0.8s : 0.3s,-11.966537636783428,0.504876932470353,2.927544074515852,0.8241071220773747,2.050440549850464,-1.2069319486618042,-3.9280667304992676,0.391757071018219,0.6842900514602661,-0.2396373748779297,-0.4193379959675951,1.0407967920977341,-1.0207344616052438,0.7880526185035706,0.4071559011936188,-0.46173295378685, 286, 214, 171, 255
1730927638937,6i,10.337933322299293,0.8s : 0.3s,-11.966537636783428,0.5204162331233805,2.966816371053988,0.8031642233581497,1.8667768239974976,-1.343670129776001,-3.9479806423187256,0.46369194984436035,0.5991886854171753,-0.2665247917175293,-0.4429568339780659,1.010817053833469,-1.0615660531261466,0.7654950618743896,0.4286127984523773,-0.4799046516418457, 286, 214, 171, 255
1730927638947,6i,10.337933322299293,0.8s : 0.3s,-11.966537636783428,0.5355993432242205,2.978575526339812,0.8265676195106245,1.5097821950912476,-1.5332525968551636,-3.9669454097747803,0.5542488098144531,0.5432791709899902,-0.2843765616416931,-0.46737116573757176,0.9785994384180193,-1.1014489904297415,0.7407340407371521,0.4505409300327301,-0.498322993516922, 286, 214, 171, 255
1730927638957,6i,10.337933322299293,0.8s : 0.3s,-11.966537636783428,0.5493928836804098,2.995580451859347,0.8469142232440804,1.3639683723449707,-1.7597999572753906,-3.9823741912841797,0.6191936135292053,0.509863555431366,-0.27184945344924927,-0.49205283200537686,0.9442115023694015,-1.1400306865504617,0.7139362096786499,0.47243618965148926,-0.5168163180351257, 286, 214, 171, 255
1730927638967,6i,10.337933322299293,0.8s : 0.3s,-11.966537636783428,0.5627682725511356,3.023847049231933,0.9849067094802133,1.3754125833511353,-1.9406057596206665,-3.9768550395965576,0.7127761244773865,0.6036169528961182,-0.31247079372406006,-0.5156065661657299,0.9064709575366203,-1.1797524377219821,0.684974730014801,0.4930626451969147,-0.5363756418228149, 286, 214, 171, 255
1730927638977,6i,10.337933322299293,0.8s : 0.3s,-11.966537636783428,0.5769270538393347,3.06722245918968,1.176252694891023,1.521297812461853,-2.045619010925293,-3.9919068813323975,0.8325943350791931,0.7439098358154297,-0.37007462978363037,-0.5373284146106505,0.865327741264038,-1.2217673315078732,0.6540237069129944,0.5118427276611328,-0.5570189356803894, 286, 214, 171, 255
1730927638987,6i,10.337933322299293,0.8s : 0.3s,-11.966537636783428,0.5922901657347501,3.1195246899243587,1.2668916246623645,1.5854471921920776,-2.1867616176605225,-4.019612789154053,0.893805980682373,0.8107926845550537,-0.38566887378692627,-0.5568526968426801,0.8208495696764259,-1.2665359785223214,0.621178150177002,0.5285170078277588,-0.5786256194114685, 286, 214, 171, 255
1730927638997,6i,10.337933322299293,0.8s : 0.3s,-11.966537636783428,0.6082851521246089,3.1809655175233162,1.2650533902065817,1.555801272392273,-2.378753900527954,-4.074374198913574,0.9402875900268555,0.7264218926429749,-0.43420106172561646,-0.5748083109383568,0.7728908582976645,-1.3132096818719168,0.586003303527832,0.5436739325523376,-0.600848376750946, 286, 214, 171, 255
1730927639007,6i,10.337933322299293,0.8s : 0.3s,-11.966537636783428,0.6243594269413787,3.2524417338724856,1.2900802163085567,1.6209049224853516,-2.5285980701446533,-4.129711151123047,1.0385093688964844,0.6375322341918945,-0.4235066771507263,-0.5911207229028271,0.7213065774690008,-1.3619981255633271,0.5483132004737854,0.5572919249534607,-0.6235209107398987, 286, 214, 171, 255
1730927639017,6i,10.337933322299293,0.8s : 0.3s,-11.966537636783428,0.6410572647056947,3.3228101031100477,1.4089157476572265,1.7456862926483154,-2.607138156890869,-4.151332855224609,1.157541275024414,0.6849779486656189,-0.41946035623550415,-0.6047012361552173,0.6666239886280518,-1.4132847628833514,0.5086879134178162,0.5685163140296936,-0.6465491652488708, 286, 214, 171, 255
1730927639027,6i,10.337933322299293,0.8s : 0.3s,-11.966537636783428,0.6587425460224137,3.391520984293531,1.4926418302748032,1.8867321014404297,-2.6741044521331787,-4.167893886566162,1.243677020072937,0.7280051708221436,-0.38891589641571045,-0.6148673421218298,0.6092259226662051,-1.4670602512700615,0.4674283564090729,0.576850175857544,-0.6698914766311646, 286, 214, 171, 255
1730927639037,6i,10.337933322299293,0.8s : 0.3s,-11.966537636783428,0.6770911042681332,3.4440392968749816,1.5009368924262678,1.9138336181640625,-2.729928493499756,-4.145465850830078,1.2936079502105713,0.6894603967666626,-0.3225436210632324,-0.6217034223442351,0.5500393656615398,-1.522219587351947,0.424913227558136,0.5824207067489624,-0.6929898262023926, 286, 214, 171, 255
1730927639047,6i,10.337933322299293,0.8s : 0.3s,-11.966537636783428,0.6957286722193392,3.4813677598392485,1.4931076952858007,1.946380615234375,-2.7695655822753906,-4.106426239013672,1.3309590816497803,0.6402209401130676,-0.21917039155960083,-0.6254430320395388,0.4898459765969768,-1.577781506051089,0.381428062915802,0.5854564905166626,-0.7153694033622742, 286, 214, 171, 255
1730927639057,6i,10.337933322299293,0.8s : 0.3s,-11.966537636783428,0.7144493513459668,3.4979589833457245,1.466723712260538,1.8876500129699707,-2.8064963817596436,-4.045952320098877,1.3335732221603394,0.5872997045516968,-0.1671525239944458,-0.6262949268457374,0.42933944865913787,-1.6329062218031893,0.33726418018341064,0.586146891117096,-0.7366713881492615, 286, 214, 171, 255
1730927639067,6i,10.337933322299293,0.8s : 0.3s,-11.966537636783428,0.7337051425792858,3.496553307801825,1.4273722341026456,1.7420525550842285,-2.8446056842803955,-3.984654188156128,1.3240628242492676,0.5157561898231506,-0.13507288694381714,-0.6251404344403523,0.3692591839825043,-1.6868072488079386,0.2926669120788574,0.5852111577987671,-0.7562234997749329, 286, 214, 171, 255
1730927639077,6i,10.337933322299293,0.8s : 0.3s,-11.966537636783428,0.7520802671041966,3.4859049133792768,1.3694766245189527,1.6621344089508057,-2.8540666103363037,-3.967576026916504,1.3039072751998901,0.40923482179641724,-0.08842456340789795,-0.6224894504772382,0.3097195227261213,-1.7394170917474732,0.24762161076068878,0.5830594897270203,-0.7737733721733093, 286, 214, 171, 255
1730927639087,6i,10.337933322299293,0.8s : 0.3s,-11.966537636783428,0.7699342474488996,3.489308775972747,1.3289661533479658,1.8334965705871582,-2.8767945766448975,-3.9557487964630127,1.2672040462493896,0.388059139251709,-0.09876763820648193,-0.6169554908682173,0.25053643092232375,-1.79146966733834,0.20221737027168274,0.578554630279541,-0.7901788949966431, 286, 214, 171, 255
1730927639097,6i,10.337933322299293,0.8s : 0.3s,-11.966537636783428,0.7886174476403419,3.5115958163681564,1.3617233383413676,1.9923555850982666,-2.887991189956665,-3.9902029037475586,1.2362874746322632,0.5263022184371948,-0.22111016511917114,-0.606723744836586,0.1915636125006261,-1.8433097515601609,0.15641267597675323,0.5701789855957031,-0.8064929842948914, 286, 214, 171, 255
1730927639107,6i,10.337933322299293,0.8s : 0.3s,-11.966537636783428,0.807954607424017,3.521357156872368,1.3151654460403086,1.8382799625396729,-2.932048797607422,-3.990906000137329,1.1922986507415771,0.5168074369430542,-0.20247012376785278,-0.5942632231141126,0.13329382938826376,-1.8943994297099922,0.11011534929275513,0.5598984360694885,-0.8212115168571472, 286, 214, 171, 255
1730927639117,6i,10.337933322299293,0.8s : 0.3s,-11.966537636783428,0.8276080376692044,3.5218703300987686,1.3281942327213605,1.721625566482544,-3.029340982437134,-3.940263271331787,1.2501238584518433,0.4448763132095337,-0.05809754133224487,-0.5807168420641443,0.07599357555857744,-1.9432698177468841,0.06347478181123734,0.5486233830451965,-0.8336566090583801, 286, 214, 171, 255
1730927639127,6i,10.337933322299293,0.8s : 0.3s,-11.966537636783428,0.8476401017568624,3.510102724651404,1.3750797345389127,1.6356242895126343,-3.052013874053955,-3.8737688064575195,1.3012645244598389,0.43229544162750244,-0.10332262516021729,-0.565868772426923,0.019764819668302444,-1.9900406031181657,0.016682855784893036,0.5361493825912476,-0.8439582586288452, 286, 214, 171, 255
1730927639137,6i,10.337933322299293,0.8s : 0.3s,-11.966537636783428,0.8681366632245069,3.4896414976720727,1.3376851716495823,1.5343186855316162,-3.057687520980835,-3.8291475772857666,1.2582464218139648,0.4373951554298401,-0.12207800149917603,-0.5496785391851379,-0.03465919048994081,-2.0344653828718315,-0.029547715559601784,0.5224131345748901,-0.8521803617477417, 286, 214, 171, 255
1730927639147,6i,10.337933322299293,0.8s : 0.3s,-11.966537636783428,0.8884585760645433,3.4697270242414398,1.2776920456356335,1.4291081428527832,-3.096733570098877,-3.8024606704711914,1.2085915803909302,0.4060690999031067,-0.08313387632369995,-0.5325879091317948,-0.08775590736718021,-2.0770785250522232,-0.0755043551325798,0.5077645182609558,-0.858180820941925, 286, 214, 171, 255
1730927639157,6i,10.337933322299293,0.8s : 0.3s,-11.966537636783428,0.9086136911148154,3.458113142766572,1.222830113606305,1.3708865642547607,-3.1516969203948975,-3.793496608734131,1.1529709100723267,0.38161513209342957,-0.14262348413467407,-0.5143637902291848,-0.13997038497752895,-2.118005382508249,-0.12146153301000595,0.49198105931282043,-0.8620914816856384, 286, 214, 171, 255
1730927639167,6i,10.337933322299293,0.8s : 0.3s,-11.966537636783428,0.9291173198333451,3.458783789009591,1.245958370940136,1.3713020086288452,-3.214846611022949,-3.8074851036071777,1.1527267694473267,0.420177698135376,-0.21698838472366333,-0.494645601196951,-0.1912994580613468,-2.157528378510702,-0.16734468936920166,0.474719762802124,-0.8640815615653992, 286, 214, 171, 255
1730927639177,6i,10.337933322299293,0.8s : 0.3s,-11.966537636783428,0.9501562763094398,3.468629468312712,1.247325339110838,1.4560115337371826,-3.2095742225646973,-3.8297481536865234,1.135905146598816,0.48457494378089905,-0.1752915382385254,-0.47264668362761975,-0.24140251310892114,-2.195446072227063,-0.21285521984100342,0.45524439215660095,-0.8645491600036621, 286, 214, 171, 255
1730927639187,6i,10.337933322299293,0.8s : 0.3s,-11.966537636783428,0.9717745214235824,3.4746744406286245,1.276175616729522,1.543626308441162,-3.190474271774292,-3.81101131439209,1.1231950521469116,0.580764651298523,-0.1725383996963501,-0.4480708380769308,-0.28974363063285136,-2.2314029108381854,-0.2575029134750366,0.43322762846946716,-0.8637164831161499, 286, 214, 171, 255
1730927639197,6i,10.337933322299293,0.8s : 0.3s,-11.966537636783428,0.9938862369796273,3.4787322825562,1.2573015103468015,1.4391436576843262,-3.263413429260254,-3.795850992202759,1.1040438413619995,0.5807602405548096,-0.15688157081604004,-0.4220782552412771,-0.3365998515066384,-2.2653148871796467,-0.3012941777706146,0.40965721011161804,-0.8610475063323975, 286, 214, 171, 255
1730927639207,6i,10.337933322299293,0.8s : 0.3s,-11.966537636783428,1.015977496922849,3.4857464564891485,1.1941901040822132,1.256249189376831,-3.3910467624664307,-3.7733333110809326,1.0910613536834717,0.4616738259792328,-0.1501079797744751,-0.39617327257849533,-0.3831721607808055,-2.298764866376225,-0.34490659832954407,0.3858908414840698,-0.8556445837020874, 286, 214, 171, 255
1730927639217,6i,10.337933322299293,0.8s : 0.3s,-11.966537636783428,1.0377694911179305,3.4934852346933054,1.1750341250151521,1.2028123140335083,-3.4517998695373535,-3.75380277633667,1.0951945781707764,0.38754725456237793,-0.17624175548553467,-0.3701288614926485,-0.42945490579458406,-2.330096017416394,-0.38817864656448364,0.36173558235168457,-0.8476229906082153, 286, 214, 171, 255
1730927639227,6i,10.337933322299293,0.8s : 0.3s,-11.966537636783428,1.0597727793709166,3.496196533749519,1.192382804867269,1.2507721185684204,-3.466249942779541,-3.7154483795166016,1.0815956592559814,0.4315456449985504,-0.25631219148635864,-0.34276599437226923,-0.4745781637285634,-2.359493097773628,-0.43038108944892883,0.3360934555530548,-0.8377429842948914, 286, 214, 171, 255
1730927639237,6i,10.337933322299293,0.8s : 0.3s,-11.966537636783428,1.0820379957711597,3.4921041616164494,1.1783646555352951,1.2276537418365479,-3.461261034011841,-3.654489040374756,1.0503344535827637,0.4643001854419708,-0.2641327977180481,-0.31417345610181074,-0.5182463177048982,-2.3864820191006846,-0.47111082077026367,0.3090305030345917,-0.8261687755584717, 286, 214, 171, 255
1730927639247,6i,10.337933322299293,0.8s : 0.3s,-11.966537636783428,1.1040554494111485,3.471982488308514,1.1410868264854448,1.0823235511779785,-3.4817006587982178,-3.5806479454040527,1.0504101514816284,0.396523654460907,-0.20368272066116333,-0.28562792557542577,-0.5607370863843177,-2.41186267056603,-0.5102642178535461,0.28175997734069824,-0.8125525712966919, 286, 214, 171, 255
1730927639257,6i,10.337933322299293,0.8s : 0.3s,-11.966537636783428,1.1253230361726092,3.441041336776751,1.1027491695007854,0.9522790908813477,-3.4909985065460205,-3.4914913177490234,1.0502219200134277,0.2919961214065552,-0.16681700944900513,-0.25775400761659256,-0.6022843190726984,-2.4356953394217857,-0.5478110909461975,0.2549093961715698,-0.7968212962150574, 286, 214, 171, 255
1730927639267,6i,10.337933322299293,0.8s : 0.3s,-11.966537636783428,1.146375219841427,3.401500431642895,1.1322402893945438,0.8694214820861816,-3.4746763706207275,-3.400275468826294,1.0933740139007568,0.2625756859779358,-0.13249659538269043,-0.2302680835651402,-0.6427497678227216,-2.4580225185612092,-0.5835778117179871,0.2282385379076004,-0.7793229222297668, 286, 214, 171, 255
1730927639277,6i,10.337933322299293,0.8s : 0.3s,-11.966537636783428,1.167481591477916,3.3537587825462385,1.13865863018987,0.8089577555656433,-3.444707155227661,-3.299015760421753,1.0905749797821045,0.29249805212020874,-0.1470869779586792,-0.20305021448257485,-0.682043832531321,-2.4787088471720335,-0.6174304485321045,0.20165781676769257,-0.7603379487991333, 286, 214, 171, 255
1730927639287,6i,10.337933322299293,0.8s : 0.3s,-11.966537636783428,1.1886226109486548,3.2983736148765015,1.130997504945939,0.6955127120018005,-3.422084331512451,-3.190330982208252,1.0813467502593994,0.275799036026001,-0.1837918758392334,-0.17631543590718046,-0.7201990459520471,-2.4979420039822267,-0.6493093371391296,0.17540332674980164,-0.7400210499763489, 286, 214, 171, 255
1730927639297,6i,10.337933322299293,0.8s : 0.3s,-11.966537636783428,1.209767334772192,3.233289898519574,1.1486752783360203,0.6426014304161072,-3.3811025619506836,-3.0497446060180664,1.1096997261047363,0.21859268844127655,-0.20059573650360107,-0.15050511842248238,-0.7573101905211688,-2.5158874624389327,-0.6792033910751343,0.14993755519390106,-0.7184715867042542, 286, 214, 171, 255
1730927639307,6i,10.337933322299293,0.8s : 0.3s,-11.966537636783428,1.23081437923146,3.1639380369000087,1.178612480826306,0.633350133895874,-3.3298656940460205,-2.926778793334961,1.1439186334609985,0.2035948634147644,-0.19780462980270386,-0.12503879583359198,-0.793186250768693,-2.5317407147296036,-0.7070289254188538,0.1247132271528244,-0.6961010098457336, 286, 214, 171, 255
1730927639317,6i,10.337933322299293,0.8s : 0.3s,-11.966537636783428,1.2516873273948808,3.0910168084350698,1.2052079827211368,0.6551567316055298,-3.2616055011749268,-2.8111844062805176,1.1835758686065674,0.18752823770046234,-0.128481924533844,-0.09980777733817396,-0.8278311222586879,-2.5457736405529374,-0.7328007817268372,0.09964215010404587,-0.6731080412864685, 286, 214, 171, 255
1730927639327,6i,10.337933322299293,0.8s : 0.3s,-11.966537636783428,1.2720375139497444,3.00616601623445,1.2061201673382973,0.6949291825294495,-3.1663825511932373,-2.650803565979004,1.2008399963378906,0.10891730338335037,-0.02908921241760254,-0.07492963073073895,-0.8611413892088872,-2.5577193360305137,-0.7564582228660583,0.07485953718423843,-0.6497437953948975, 286, 214, 171, 255
1730927639337,6i,10.337933322299293,0.8s : 0.3s,-11.966537636783428,1.2916677298945871,2.9007234888546094,1.2260889539458966,0.7019593715667725,-3.033376455307007,-2.4465627670288086,1.224155306816101,0.03259424865245819,0.060626089572906494,-0.05083216207829121,-0.892841281253241,-2.5673950281765032,-0.7778509259223938,0.05081027373671532,-0.6263914704322815, 286, 214, 171, 255
1730927639347,6i,10.337933322299293,0.8s : 0.3s,-11.966537636783428,1.3104844805010583,2.779180567169249,1.2781128562138415,0.6657307744026184,-2.877307176589966,-2.265336513519287,1.2633213996887207,-0.043105363845825195,0.1890329122543335,-0.02807914202566217,-0.9227774903289776,-2.5751839644245504,-0.7969669103622437,0.028075452893972397,-0.6033701300621033, 286, 214, 171, 255
1730927639357,6i,10.337933322299293,0.8s : 0.3s,-11.966537636783428,1.327929235901977,2.6377624710233762,1.347488540007086,0.6227031946182251,-2.7042036056518555,-2.038090705871582,1.2814033031463623,-0.19129113852977753,0.3703223466873169,-0.006888711983020918,-0.9508219690489262,-2.581277733391929,-0.8138740062713623,0.006888657342642546,-0.5810005068778992, 286, 214, 171, 255
1730927639367,6i,10.337933322299293,0.8s : 0.3s,-11.966537636783428,1.3437702211375098,2.4826088776111472,1.4169447568725093,0.5601924657821655,-2.5270166397094727,-1.8206076622009277,1.286576271057129,-0.32593971490859985,0.49620282649993896,0.01230218402976015,-0.9769304442168757,-2.5860660470231327,-0.8287209868431091,-0.012301873415708542,-0.5595268607139587, 286, 214, 171, 255
1730927639377,6i,10.337933322299293,0.8s : 0.3s,-11.966537636783428,1.3579869905094408,2.3145149057905168,1.4980168374587601,0.5094646215438843,-2.325716495513916,-1.6014662981033325,1.2932088375091553,-0.4454997777938843,0.6108971238136292,0.029541152718550175,-1.00110712396223,-2.589619425718199,-0.8417012691497803,-0.029536856338381767,-0.5391350388526917, 286, 214, 171, 255
1730927639387,6i,10.337933322299293,0.8s : 0.3s,-11.966537636783428,1.3705900397135304,2.1282135233721227,1.595934958386058,0.44492587447166443,-2.093116283416748,-1.3493258953094482,1.2948927879333496,-0.5603095889091492,0.745864748954773,0.044578867676677285,-1.0230666190409285,-2.592024727404611,-0.8528608679771423,-0.044564105570316315,-0.5202330350875854, 286, 214, 171, 255
1730927639397,6i,10.337933322299293,0.8s : 0.3s,-11.966537636783428,1.3816709540117376,1.9262959456714408,1.7008226243246978,0.39027953147888184,-1.8405182361602783,-1.0938166379928589,1.2855395078659058,-0.6502063274383545,0.9041114449501038,0.05717653817705649,-1.0426312532326891,-2.593361927715101,-0.8623217940330505,-0.057145390659570694,-0.503125786781311, 286, 214, 171, 255
1730927639407,6i,10.337933322299293,0.8s : 0.3s,-11.966537636783428,1.3913490056781321,1.7026308611999843,1.7959867541858494,0.40680018067359924,-1.511946678161621,-0.8256255388259888,1.2631229162216187,-0.7329107522964478,1.0454332828521729,0.06744859424020956,-1.0593224376410473,-2.593243033555859,-0.8700412511825562,-0.06739746779203415,-0.48835012316703796, 286, 214, 171, 255
1730927639417,6i,10.337933322299293,0.8s : 0.3s,-11.966537636783428,1.3998509493782476,1.460822730069134,1.8507609716246973,0.468601256608963,-1.1519341468811035,-0.5528378486633301,1.216245174407959,-0.7745361924171448,1.1602402925491333,0.07554173107254705,-1.0726701384054775,-2.5912328622354566,-0.8759740591049194,-0.07546990364789963,-0.4764177203178406, 286, 214, 171, 255
1730927639427,6i,10.337933322299293,0.8s : 0.3s,-11.966537636783428,1.4071143609215033,1.1972185127266148,1.910114296536446,0.5266914367675781,-0.7366943359375,-0.25322505831718445,1.1428627967834473,-0.8441608548164368,1.2766337394714355,0.08106832768650275,-1.0818053673951764,-2.5873309498123658,-0.87990802526474,-0.08097955584526062,-0.4681926369667053, 286, 214, 171, 255
1730927639437,6i,10.337933322299293,0.8s : 0.3s,-11.966537636783428,1.4132328505304117,0.9247096243876958,1.9893675024291992,0.6223610043525696,-0.31191056966781616,0.07260338962078094,1.0843784809112549,-0.9065178036689758,1.3999756574630737,0.08450378262379843,-1.0873639357913494,-2.581077294756634,-0.8822453022003174,-0.08440324664115906,-0.4631623327732086, 286, 214, 171, 255
1730927639447,6i,10.337933322299293,0.8s : 0.3s,-11.966537636783428,1.4185877145041923,0.6412408510192195,2.091292998994819,0.5736262202262878,0.2057829052209854,0.3800823986530304,1.070633053779602,-0.9637344479560852,1.5160696506500244,0.08516610223684777,-1.0884006821326533,-2.573337976801003,-0.882675290107727,-0.08506318181753159,-0.4622213840484619, 286, 214, 171, 255
1730927639457,6i,10.337933322299293,0.8s : 0.3s,-11.966537636783428,1.4236885782129005,0.43254972968716904,2.2291019442975215,0.6708084344863892,0.7696207165718079,0.6949213147163391,1.0807700157165527,-1.0018774271011353,1.672445297241211,0.08324058770808743,-1.0841906392021512,-2.5654482325894556,-0.8808646202087402,-0.08314449340105057,-0.46600908041000366, 286, 214, 171, 255
1730927639467,6i,10.337933322299293,0.8s : 0.3s,-11.966537636783428,1.4293147758332823,0.5032094573085394,2.296843427284255,0.7900473475456238,1.373605728149414,1.05692720413208,1.1140666007995605,-1.0008670091629028,1.7414392232894897,0.0789574843157788,-1.0743645860422602,-2.551783670436252,-0.8765482306480408,-0.07887546718120575,-0.47480714321136475, 286, 214, 171, 255
1730927639477,6i,10.337933322299293,0.8s : 0.3s,-11.966537636783428,1.4363980121159041,0.8176768901361391,2.3704000120720607,0.8545107245445251,2.0031557083129883,1.4146559238433838,1.2045280933380127,-0.9958375096321106,1.7821941375732422,0.0721266034037581,-1.0584656523294353,-2.537135983648682,-0.8693382143974304,-0.07206407934427261,-0.4889354705810547, 286, 214, 171, 255
1730927639487,6i,10.337933322299293,0.8s : 0.3s,-11.966537636783428,1.4453605926980373,1.2247591482059161,2.518147272564147,0.9562376141548157,2.6262881755828857,1.809361219406128,1.2939598560333252,-1.0595940351486206,1.8825498819351196,0.06271574330570076,-1.036373177317942,-2.5197568170577656,-0.8588707447052002,-0.0626746416091919,-0.5083433389663696, 286, 214, 171, 255
1730927639497,6i,10.337933322299293,0.8s : 0.3s,-11.966537636783428,1.4572169922429496,1.6652585584848147,2.683264146456138,0.9922506213188171,3.2531278133392334,2.2083544731140137,1.4780008792877197,-1.1028316020965576,1.9491491317749023,0.05067824534962589,-1.0080653008807903,-2.4994288755536638,-0.844715416431427,-0.05065655708312988,-0.5328131318092346, 286, 214, 171, 255
1730927639507,6i,10.337933322299293,0.8s : 0.3s,-11.966537636783428,1.4732125814673225,2.138201881297441,2.913351729377492,1.0507980585098267,3.934511184692383,2.6409857273101807,1.7419326305389404,-1.1521013975143433,2.0312438011169434,0.03601674015430833,-0.9731037101508901,-2.4760575290250126,-0.8261001110076904,-0.03600895404815674,-0.5623716115951538, 286, 214, 171, 255
1730927639517,6i,10.337933322299293,0.8s : 0.3s,-11.966537636783428,1.4946823440783834,2.64962420218686,3.2069481495501795,1.1091225147247314,4.685615062713623,3.1270663738250732,2.057293176651001,-1.1913528442382812,2.1523799896240234,0.018792361433448344,-0.9307681456611396,-2.449005712424873,-0.8019372820854187,-0.018791254609823227,-0.5971125960350037, 286, 214, 171, 255
1730927639527,6i,10.337933322299293,0.8s : 0.3s,-11.966537636783428,1.5230771143158475,3.2116888118760585,3.550451347044814,1.1478570699691772,5.566540241241455,3.6454596519470215,2.4306087493896484,-1.2181501388549805,2.2834088802337646,-0.0008344555369199451,-0.8798383436814644,-2.417648917773023,-0.7706356048583984,0.000834455422591418,-0.6372755169868469, 286, 214, 171, 255
1730927639537,6i,10.337933322299293,0.8s : 0.3s,-11.966537636783428,1.5594298390549473,3.8322860370147955,3.9486008127638588,1.1319143772125244,6.568818092346191,4.204854965209961,2.801854372024536,-1.2891827821731567,2.465576648712158,-0.022659446736006714,-0.8188205833686119,-2.3815444002658537,-0.7301532030105591,0.02265750803053379,-0.6829077005386353, 286, 214, 171, 255
1730927639547,6i,10.337933322299293,0.8s : 0.3s,-11.966537636783428,1.6048305615843066,4.514460604457523,4.415988495557133,0.873867928981781,7.669124603271484,4.860573768615723,3.2241148948669434,-1.4004935026168823,2.6729488372802734,-0.04742284736950131,-0.7463098712898637,-2.3406747863822983,-0.6781708002090454,0.047405075281858444,-0.7333738207817078, 286, 214, 171, 255
1730927639557,6i,10.337933322299293,0.8s : 0.3s,-11.966537636783428,1.6611279307632103,5.2860711984784645,5.048401640703086,0.4064836800098419,8.95755386352539,5.651490211486816,3.7900171279907227,-1.5378648042678833,2.959239959716797,-0.076345317509627,-0.6606078631549573,-2.2947948224890355,-0.6118096113204956,0.0762711763381958,-0.7873193025588989, 286, 214, 171, 255
1730927639567,6i,10.337933322299293,0.8s : 0.3s,-11.966537636783428,1.7314133009713275,6.171204555905183,5.85897775017594,-0.14741413295269012,10.395173072814941,6.6173882484436035,4.5714311599731445,-1.5952951908111572,3.299192428588867,-0.11042730635718113,-0.5591218262304026,-2.242200504294108,-0.52721107006073,0.11020301282405853,-0.8425578474998474, 286, 214, 171, 255
1730927639577,6i,10.337933322299293,0.8s : 0.3s,-11.966537636783428,1.8196415785958784,7.1517781006613586,6.8880741498894995,-0.4825001358985901,11.894743919372559,7.560739517211914,5.651013374328613,-1.7056372165679932,3.549988031387329,-0.14723913089043383,-0.43971822753176465,-2.1793811967417915,-0.42107856273651123,0.1467076987028122,-0.8950808048248291, 286, 214, 171, 255
1730927639587,6i,10.337933322299293,0.8s : 0.3s,-11.966537636783428,1.9287460130589256,8.143036861432478,7.894097913961061,-0.8770239949226379,13.175555229187012,8.324518203735352,6.839821815490723,-1.8420881032943726,3.484297752380371,-0.1823611076589714,-0.30213642795260404,-2.1054763423813987,-0.2926264703273773,0.18135203421115875,-0.9388722777366638, 286, 214, 171, 255
1730927639597,6i,10.337933322299293,0.8s : 0.3s,-11.966537636783428,2.0616746117421254,9.046562489120179,8.943727163744825,-1.2043647766113281,14.012105941772461,8.900287628173828,8.145635604858398,-1.648144006729126,3.304920196533203,-0.21179664835180467,-0.1495681348043005,-2.020827578007758,-0.14568142592906952,0.21021674573421478,-0.9667397737503052, 286, 214, 171, 255
1730927639607,6i,10.337933322299293,0.8s : 0.3s,-11.966537636783428,2.2223406939111894,9.830183392447594,10.250438577702154,-2.2523880004882812,14.583479881286621,9.26913070678711,9.740108489990234,-0.9690255522727966,3.0434794425964355,-0.2344110195007151,0.013951293048192636,-1.9289993991186805,0.01356930285692215,0.23227015137672424,-0.9725566506385803, 286, 214, 171, 255
1730927639617,6i,10.337933322299293,0.8s : 0.3s,-11.966537636783428,2.4126176412438562,10.513465299848852,11.604055035937185,-4.567267417907715,14.78709602355957,9.669689178466797,11.284186363220215,-0.10381898283958435,2.703784942626953,-0.25824537489040217,0.18562902029596298,-1.8283165948846867,0.1784445345401764,0.25538450479507446,-0.9502295851707458, 286, 214, 171, 255
1730927639627,6i,10.337933322299293,0.8s : 0.3s,-11.966537636783428,2.633344541920652,11.132139298645747,13.051651533680689,-7.784886837005615,14.486663818359375,10.016083717346191,12.821566581726074,0.818820595741272,2.298384428024292,-0.2903122482884647,0.363886886626179,-1.712474080553801,0.34101611375808716,0.286251425743103,-0.8954150676727295, 286, 214, 171, 255
1730927639637,6i,10.337933322299293,0.8s : 0.3s,-11.966537636783428,2.8839240601466667,11.706112274586738,14.504221607399156,-11.619150161743164,13.167686462402344,10.422552108764648,14.287992477416992,2.0627331733703613,1.4038686752319336,-0.3318753070791617,0.5462645459325428,-1.5711944515333787,0.49115151166915894,0.3258165717124939,-0.8078451156616211, 286, 214, 171, 255
1730927639647,6i,10.337933322299293,0.8s : 0.3s,-11.966537636783428,3.163330297981232,12.291104578685093,16.08476330744356,-15.76605224609375,10.685526847839355,10.823575019836426,15.562621116638184,4.053640365600586,0.30403029918670654,-0.3784884092866025,0.7283100146183544,-1.3932576176889198,0.6185003519058228,0.3695162832736969,-0.693480372428894, 286, 214, 171, 255
1730927639657,6i,10.337933322299293,0.8s : 0.3s,-11.966537636783428,3.4674750218783714,13.044473404957085,17.47545470348034,-20.007417678833008,7.128268241882324,11.537656784057617,16.0402889251709,6.903717994689941,-0.6628168225288391,-0.4188799980833739,0.9053876658765659,-1.1687648749798043,0.7186535596847534,0.4067375361919403,-0.5640050768852234, 286, 214, 171, 255
1730927639667,6i,10.337933322299293,0.8s : 0.3s,-11.966537636783428,3.7880240349255736,14.151034291450863,18.403949904149844,-23.980316162109375,3.382336139678955,12.33940601348877,15.291507720947266,10.16446590423584,-1.2485177516937256,-0.4401215362468567,1.0728938684993727,-0.8938108472898383,0.7948569059371948,0.4260494112968445,-0.43206995725631714, 286, 214, 171, 255
1730927639677,6i,10.337933322299293,0.8s : 0.3s,-11.966537636783428,4.112241001924456,15.380634487490173,18.600777814629673,-25.664344787597656,-0.0024421527050435543,13.406877517700195,13.033053398132324,13.232634544372559,-1.0128363370895386,-0.42461775070836977,1.2220222812578465,-0.582521525221667,0.8563353419303894,0.4119724929332733,-0.31139761209487915, 286, 214, 171, 255
1730927639687,6i,10.337933322299293,0.8s : 0.3s,-11.966537636783428,4.426031395069368,15.687113609630556,18.15207462678739,-21.939971923828125,-4.215278625488281,13.412951469421387,9.64513111114502,15.376688957214355,0.16338855028152466,-0.3669978197876694,1.314368441770338,-0.2893293095648911,0.9028883576393127,0.3588148057460785,-0.23673754930496216, 286, 214, 171, 255
1730927639697,6i,10.337933322299293,0.8s : 0.3s,-11.966537636783428,4.715391332859961,15.237931043419222,17.31377195185501,-16.899642944335938,-4.313084602355957,13.54926872253418,5.726512908935547,16.303668975830078,1.0789471864700317,-0.2806269939059465,1.343541927614783,-0.06000408505918229,0.9361764192581177,0.276958167552948,-0.21648995578289032, 286, 214, 171, 255
1730927639707,6i,10.337933322299293,0.8s : 0.3s,-11.966537636783428,4.967641279177274,14.943651441979206,15.093130402629274,-17.084108352661133,-4.052588939666748,12.65956974029541,1.9845592975616455,14.869006156921387,1.666363000869751,-0.19053999428895724,1.3483161412350528,0.138364013461838,0.9577013850212097,0.18938913941383362,-0.21665607392787933, 286, 214, 171, 255
1730927639717,6i,10.337933322299293,0.8s : 0.3s,-11.966537636783428,5.173089400844878,13.956038085765416,10.128109479443964,-11.758556365966797,-4.626722812652588,12.896356582641602,-0.4246522784233093,9.722365379333496,2.806044101715088,-0.10244471142108014,1.332619758630888,0.3234792618911391,0.9666749238967896,0.1022656112909317,-0.23469410836696625, 286, 214, 171, 255
1730927639727,6i,10.337933322299293,0.8s : 0.3s,-11.966537636783428,5.329608758011651,11.482642354825417,2.3191287749559413,5.1874775886535645,-0.31477054953575134,16.6583251953125,0.2663877606391907,2.2693731784820557,0.3966625928878784,0.04717700604399039,1.3194424959825115,0.3857808568808088,0.9674989581108093,-0.04715950787067413,-0.2484387457370758, 286, 214, 171, 255
1730927639737,6i,10.337933322299293,0.8s : 0.3s,-11.966537636783428,5.463942125471237,14.238518020637198,6.487399596637969,-36.998870849609375,-4.490641117095947,4.0745530128479,5.382351875305176,-3.305974245071411,-1.4789104461669922,0.08818287924193183,1.2860232565333949,0.5958192396237814,0.9559963345527649,-0.0880686342716217,-0.27984803915023804, 286, 214, 171, 255
1730927639747,6i,10.337933322299293,0.8s : 0.3s,-11.966537636783428,5.588798409692555,17.126826280709366,16.075808622910426,-37.3414421081543,-11.361671447753906,-0.039094649255275726,7.108313083648682,-9.7225341796875,10.647809028625488,-0.013153093152514058,1.1897237549023647,0.9559332309716069,0.9281859993934631,0.013152713887393475,-0.37188416719436646, 286, 214, 171, 255
1730927639757,6i,10.337933322299293,0.8s : 0.3s,-11.966537636783428,5.751198463807636,17.2720675033042,13.900043534625606,-25.482236862182617,-10.682589530944824,-0.9513750076293945,9.350955963134766,1.7970385551452637,10.126276969909668,-0.14669386039822807,1.0990118165751468,1.2376629644071664,0.8811916708946228,0.1461683064699173,-0.4495953619480133, 286, 214, 171, 255
1730927639767,6i,10.337933322299293,0.8s : 0.3s,-11.966537636783428,5.927114888784263,15.152057440643446,14.997640830465764,-13.223836898803711,-11.225933074951172,-5.228966236114502,3.1433119773864746,11.559704780578613,9.023416519165039,-0.26765279374330764,1.0235321298479312,1.4031290333292534,0.8235457539558411,0.2644685208797455,-0.5018253922462463, 286, 214, 171, 255
1730927639777,6i,10.337933322299293,0.8s : 0.3s,-11.966537636783428,6.092617985244591,12.62705837467308,12.924314301947499,-7.136216640472412,-9.163886070251465,-5.09387731552124,0.26146596670150757,11.22624683380127,6.3985090255737305,-0.36373718069601396,0.9402786035414903,1.4586664357139427,0.7548761367797852,0.3557693660259247,-0.550990104675293, 286, 214, 171, 255
1730927639787,6i,10.337933322299293,0.8s : 0.3s,-11.966537636783428,6.246333406678485,11.405244787447513,10.706212794600132,-8.792543411254883,-9.951175689697266,-4.624706268310547,1.0126800537109375,10.650270462036133,0.41135215759277344,-0.45003314831943236,0.8574359106118377,1.4854690297740964,0.680877685546875,0.4349953830242157,-0.5892238020896912, 286, 214, 171, 255
1730927639797,6i,10.337933322299293,0.8s : 0.3s,-11.966537636783428,6.369925112235738,11.109271231059259,3.7828531492415367,-9.52286148071289,-12.432646751403809,-5.681094646453857,2.484323740005493,-1.5918569564819336,2.3672990798950195,-0.5536035488102186,0.7635422145039018,1.525852994319861,0.5882013440132141,0.5257559418678284,-0.6144915223121643, 286, 214, 171, 255
1730927639807,6i,10.337933322299293,0.8s : 0.3s,-11.966537636783428,6.486901137001395,10.632025970045648,5.82300760135915,-7.261410236358643,-11.967546463012695,-5.764926910400391,5.196381092071533,-1.503464937210083,2.1551413536071777,-0.6541772043399331,0.6471923976077719,1.538698369734675,0.47846949100494385,0.6085065007209778,-0.6330772638320923, 286, 214, 171, 255
1730927639817,6i,10.337933322299293,0.8s : 0.3s,-11.966537636783428,6.594828425166059,9.954846112777245,4.191231620633159,-5.440171241760254,-10.343829154968262,-6.307343482971191,3.101139783859253,1.0885953903198242,2.600829601287842,-0.739229111231752,0.522562862983553,1.5187446117704135,0.36883094906806946,0.6737184524536133,-0.6403650045394897, 286, 214, 171, 255
1730927639827,6i,10.337933322299293,0.8s : 0.3s,-11.966537636783428,6.6814891298096,9.32621191904079,3.1772295164754967,-4.415699005126953,-9.060611724853516,-7.3646769523620605,0.9063831567764282,0.017797350883483887,3.0451502799987793,-0.8136529171761548,0.3866095205088196,1.4628874452986622,0.2589763104915619,0.7268010377883911,-0.6361536979675293, 286, 214, 171, 255
1730927639837,6i,10.337933322299293,0.8s : 0.3s,-11.966537636783428,6.758464663063703,8.794701650046694,3.6922639500584507,-3.1925015449523926,-8.441183090209961,-7.940483570098877,1.6462832689285278,0.11590033769607544,3.3028974533081055,-0.873183872906022,0.23003432297878615,1.3704785664906176,0.14647188782691956,0.7663781046867371,-0.6254682540893555, 286, 214, 171, 255
1730927639847,6i,10.337933322299293,0.8s : 0.3s,-11.966537636783428,6.830828775961938,8.355799688162358,3.9276601844363483,-1.783511757850647,-7.872561931610107,-8.536727905273438,2.1155169010162354,-0.13091635704040527,3.306654453277588,-0.9095231949162821,0.05044680521023914,1.246098905693021,0.030967356637120247,0.7892110347747803,-0.6133407950401306, 286, 214, 171, 255
1730927639857,6i,10.337933322299293,0.8s : 0.3s,-11.966537636783428,6.894016724602209,8.086308194009447,2.4590198943427706,-0.6834284067153931,-7.859458923339844,-8.800869941711426,1.448645830154419,-0.004777848720550537,1.9870030879974365,-0.9169728426758161,-0.13990287774457913,1.1085027066397974,-0.08481522649526596,0.793764054775238,-0.6022831797599792, 286, 214, 171, 255
1730927639867,6i,10.337933322299293,0.8s : 0.3s,-11.966537636783428,6.948697571562006,7.976623803381331,1.7653541449071763,-0.3366459906101227,-8.19701862335205,-8.622900009155273,1.379774808883667,0.03146129846572876,1.1007755994796753,-0.9012784996074514,-0.3279577117474932,0.9739420607045638,-0.199904203414917,0.7841209769248962,-0.5875309109687805, 286, 214, 171, 255
1730927639877,6i,10.337933322299293,0.8s : 0.3s,-11.966537636783428,6.998404197887976,7.889210036992176,1.9500841925512375,-0.16607117652893066,-8.255541801452637,-8.228570938110352,1.7735345363616943,-0.1823282241821289,0.790037989616394,-0.8697634886294435,-0.5055741290693516,0.8511994234339043,-0.31238338351249695,0.7641764283180237,-0.5643146634101868, 286, 214, 171, 255
1730927639887,6i,10.337933322299293,0.8s : 0.3s,-11.966537636783428,7.045884577315294,7.742367481052539,2.087945742326249,0.24369370937347412,-7.772718906402588,-8.03283977508545,1.9235268831253052,-0.04365473985671997,0.8109599351882935,-0.8246096321458224,-0.6628053549581391,0.7486501551650315,-0.4177132844924927,0.7342828512191772,-0.5351114869117737, 286, 214, 171, 255
1730927639897,6i,10.337933322299293,0.8s : 0.3s,-11.966537636783428,7.092636782266913,7.509589290029753,2.1307677714813047,0.5796459913253784,-7.083894729614258,-7.733185291290283,1.9536575078964233,0.17987722158432007,0.8312868475914001,-0.7690153038702675,-0.7944324831690887,0.6687911371356282,-0.5126937627792358,0.6954279541969299,-0.5035127997398376, 286, 214, 171, 255
1730927639907,6i,10.337933322299293,0.8s : 0.3s,-11.966537636783428,7.139627306135033,7.220421309594622,2.2202042786581955,1.3474071025848389,-6.417076110839844,-7.445960998535156,2.0408437252044678,0.27091485261917114,0.8311853408813477,-0.705957669238924,-0.9013699886199338,0.6102397983920033,-0.5967519283294678,0.6487628817558289,-0.4722222685813904, 286, 214, 171, 255
1730927639917,6i,10.337933322299293,0.8s : 0.3s,-11.966537636783428,7.187842117716925,6.906749326618624,2.3531430637239863,2.511847496032715,-5.77531623840332,-7.10038423538208,2.1803925037384033,0.393673300743103,0.7925857305526733,-0.6357534516863625,-0.983739017111134,0.5756868355437892,-0.6699097156524658,0.5937839150428772,-0.4456923305988312, 286, 214, 171, 255
1730927639927,6i,10.337933322299293,0.8s : 0.3s,-11.966537636783428,7.238402420276568,6.642466421882251,2.5300110179760216,3.852156162261963,-5.474575042724609,-6.620636940002441,2.3258352279663086,0.6850728392601013,0.7225797176361084,-0.5604728275548035,-1.045525189286941,0.5648316586144029,-0.7328176498413086,0.531586766242981,-0.4247280955314636, 286, 214, 171, 255
1730927639937,6i,10.337933322299293,0.8s : 0.3s,-11.966537636783428,7.291719148759245,6.404673894068835,2.7053241599529,4.271880626678467,-5.396454811096191,-5.8943352699279785,2.5135231018066406,0.8316079378128052,0.5562451481819153,-0.4838500952367865,-1.0955165658738384,0.569259974770915,-0.7870979905128479,0.4651907682418823,-0.4050610065460205, 286, 214, 171, 255
1730927639947,6i,10.337933322299293,0.8s : 0.3s,-11.966537636783428,7.345452163872283,6.18646374521377,2.5264074918928427,4.505473613739014,-4.9207377433776855,-5.610546588897705,2.424969434738159,0.5899359583854675,0.3927258849143982,-0.40989513677876677,-1.1392993884726457,0.5823426658324509,-0.8330962061882019,0.39851316809654236,-0.3835858702659607, 286, 214, 171, 255
1730927639957,6i,10.337933322299293,0.8s : 0.3s,-11.966537636783428,7.397867659068875,6.038070477682185,2.3224402975329395,5.001556873321533,-4.429227828979492,-5.608409881591797,2.2545089721679688,0.2901768088340759,0.4761466681957245,-0.33819690704274624,-1.1776271302134294,0.6040393772514633,-0.8713760375976562,0.3317866623401642,-0.3614158034324646, 286, 214, 171, 255
1730927639967,6i,10.337933322299293,0.8s : 0.3s,-11.966537636783428,7.4498312641329605,5.923026347895312,2.3225688641498765,5.287646293640137,-4.070724964141846,-5.45742130279541,2.1811327934265137,0.5043848752975464,0.6185319423675537,-0.2680550862391853,-1.2115242994888378,0.6330826788899755,-0.9027209281921387,0.2648564875125885,-0.3390366733074188, 286, 214, 171, 255
1730927639977,6i,10.337933322299293,0.8s : 0.3s,-11.966537636783428,7.501981542056838,5.828294253504778,2.4043949655211456,5.5831098556518555,-3.6564385890960693,-5.308335781097412,2.107208490371704,0.7315597534179688,0.8975566029548645,-0.19910494411502855,-1.2424358228046424,0.6669641383649695,-0.9278718829154968,0.19779203832149506,-0.3161204159259796, 286, 214, 171, 255
