timestamp,club,max_speed,tempo,w.rotation,l.speed,t.spped,acc,rotation.x,rotation.y,rotation.z,userAcceleration.x,userAcceleration.y,userAcceleration.z,pitch,roll,yaw,gravity.x,gravity.y,gravity.z,impactIndex,minDownIndex,StartIndex,endIndex
1730928347699,9i,8.131979306047176,0.9s : 0.3s,-20.104916809298217,5.4124722466754335e-05,0.029774556819245068,0.02755920026262194,-0.08642974495887756,-0.11995361000299454,-0.0036680963821709156,-0.0034308433532714844,0.020663678646087646,-0.01790952868759632,-0.18445145176639666,1.5879446693419135,2.9602601121655776,0.9828924536705017,0.18340732157230377,0.01685662940144539, 264, 196, 146, 231
1730928347709,9i,8.131979306047176,0.9s : 0.3s,-20.104916809298217,0.0001780606008896189,0.0521186962221417,0.015164450173008964,-0.10572141408920288,-0.11449013650417328,0.0043062069453299046,-0.011464059352874756,0.006582409143447876,-0.007430193945765495,-0.18441780369843025,1.5869545301264552,2.9612507749849093,0.9829149842262268,0.18337424099445343,0.015883522108197212, 264, 196, 146, 231
1730928347719,9i,8.131979306047176,0.9s : 0.3s,-20.104916809298217,0.00028953984040247077,0.07128096374880252,0.010244501002137573,-0.12791994214057922,-0.11731664091348648,0.0043032108806073666,-0.00752413272857666,-0.0063343346118927,-0.002865908667445183,-0.18434816749264052,1.5860053454495506,2.962431773915682,0.9829422831535339,0.1833057850599289,0.014950741082429886, 264, 196, 146, 231
1730928347729,9i,8.131979306047176,0.9s : 0.3s,-20.104916809298217,0.0003874392291362058,0.08508254660724475,0.015120121380588691,-0.1272709220647812,-0.11988765746355057,0.005538917612284422,-0.007334649562835693,-0.012397006154060364,-0.004597306251525879,-0.18429109991704254,1.585065553392868,2.9637539729931834,0.9829663634300232,0.18324968218803406,0.014027121476829052, 264, 196, 146, 231
1730928347739,9i,8.131979306047176,0.9s : 0.3s,-20.104916809298217,0.000488552080330848,0.17517412465224938,0.01607733744774988,-0.0876510739326477,-0.46594974398612976,0.4549497365951538,-0.009687304496765137,-0.010684221982955933,-0.007105231285095215,-0.1838836608264507,1.5835800156468824,2.964888569013423,0.9830607175827026,0.18284912407398224,0.012567826546728611, 264, 196, 146, 231
1730928347749,9i,8.131979306047176,0.9s : 0.3s,-20.104916809298217,0.0005670528488598924,0.394504917604447,0.025822587380074792,-0.12739261984825134,-0.8091108202934265,1.1206635236740112,0.023014068603515625,-0.007887542247772217,-0.008657097816467285,-0.18420518632731792,1.5826448137721179,2.966061808789929,0.9830131530761719,0.18316522240638733,0.011647763662040234, 264, 196, 146, 231
1730928347759,9i,8.131979306047176,0.9s : 0.3s,-20.104916809298217,0.0008602245833112548,0.4194550979275238,0.06131681505189848,-0.16370123624801636,-0.4676317274570465,0.5122861862182617,-0.060027897357940674,-0.012501448392868042,-0.00034224987030029297,-0.18445939488016028,1.5822584327847704,2.9670337237782194,0.9829710125923157,0.18341512978076935,0.011267411522567272, 264, 196, 146, 231
1730928347769,9i,8.131979306047176,0.9s : 0.3s,-20.104916809298217,0.001231364104498597,0.31120746335908617,0.015736856873995713,-0.088126040995121,-0.10602186620235443,-0.00388238113373518,-0.012821018695831299,-0.0031531602144241333,-0.00856316089630127,-0.18409236259411155,1.5810589280815157,2.9680094230319014,0.983051061630249,0.18305431306362152,0.01008901558816433, 264, 196, 146, 231
1730928347779,9i,8.131979306047176,0.9s : 0.3s,-20.104916809298217,0.0015932024473169723,0.2354579929676739,0.01403781720395004,-0.0333995521068573,-0.10891072452068329,0.0033541270531713963,0.002299964427947998,0.006709933280944824,-0.01211392879486084,-0.18397769421521315,1.5800141278519766,2.9686634536517063,0.983082115650177,0.18294157087802887,0.009062111377716064, 264, 196, 146, 231
1730928347789,9i,8.131979306047176,0.9s : 0.3s,-20.104916809298217,0.0019782898890451767,0.18456467226583978,0.026184105939323472,-0.0361548587679863,-0.10392448306083679,0.01827741600573063,-0.021147072315216064,0.007606029510498047,-0.013437151908874512,-0.18388882138176313,1.579016189937424,2.968997495528617,0.9831068515777588,0.18285420536994934,0.008081185631453991, 264, 196, 146, 231
1730928347799,9i,8.131979306047176,0.9s : 0.3s,-20.104916809298217,0.00232576167492607,0.15046949027839096,0.00910671001919192,-0.04352236166596413,-0.10478579998016357,0.021318180486559868,0.0032072067260742188,-0.00630854070186615,-0.005731344223022461,-0.18368558485423808,1.578038014524923,2.9693442490617175,0.9831514358520508,0.18265439569950104,0.007119799964129925, 264, 196, 146, 231
1730928347809,9i,8.131979306047176,0.9s : 0.3s,-20.104916809298217,0.002660201091343203,0.1264946502684761,0.021460935089831736,-0.05630660057067871,-0.096674345433712,0.019631600007414818,-0.006986141204833984,-0.019962310791015625,-0.0036430363543331623,-0.1834653854432115,1.5771242904665388,2.9698885023130077,0.9831976294517517,0.18243788182735443,0.00622172188013792, 264, 196, 146, 231
1730928347819,9i,8.131979306047176,0.9s : 0.3s,-20.104916809298217,0.0029739533881575956,0.10718386490929079,0.01726873491548919,-0.04918690398335457,-0.08234254270792007,0.017384158447384834,-0.0037614107131958008,-0.016838818788528442,0.0007177582010626793,-0.1832682528275831,1.5763203201919063,2.9704274733017484,0.983238160610199,0.18224406242370605,0.005431456491351128, 264, 196, 146, 231
1730928347829,9i,8.131979306047176,0.9s : 0.3s,-20.104916809298217,0.003278705102622297,0.09052469773954384,0.012815440365509224,-0.03566949814558029,-0.06838678568601608,0.01639106497168541,-0.009197831153869629,-0.008796244859695435,0.0015038251876831055,-0.18309639189305274,1.5756448963385374,2.9708557126040125,0.9832730889320374,0.18207508325576782,0.004767505452036858, 264, 196, 146, 231
1730928347839,9i,8.131979306047176,0.9s : 0.3s,-20.104916809298217,0.0035785787427946424,0.07716937693342361,0.011885802148599611,-0.025114990770816803,-0.06210150197148323,0.017381595447659492,-0.010436832904815674,-0.005684196949005127,-0.0001863241195678711,-0.18292644345452871,1.575051389768938,2.971163862787968,0.9833066463470459,0.18190796673297882,0.004184057004749775, 264, 196, 146, 231
1730928347849,9i,8.131979306047176,0.9s : 0.3s,-20.104916809298217,0.00386055420841449,0.06422503216460045,0.005021827031801489,-0.0031007681973278522,-0.04932578280568123,0.01934993825852871,-0.0045678019523620605,-0.002067163586616516,-0.0002841949462890625,-0.1827395018133306,1.5745145071849438,2.971296391208811,0.9833428263664246,0.18172414600849152,0.0036562627647072077, 264, 196, 146, 231
1730928347859,9i,8.131979306047176,0.9s : 0.3s,-20.104916809298217,0.004116731331906294,0.052852812278612105,0.004166700675970126,0.016798239201307297,-0.03867202624678612,0.02475132793188095,-0.0008407235145568848,0.003812059760093689,-0.0014569759368896484,-0.18251757341641353,1.5740621926603988,2.971219851518093,0.9833846688270569,0.18150590360164642,0.003211613744497299, 264, 196, 146, 231
1730928347869,9i,8.131979306047176,0.9s : 0.3s,-20.104916809298217,0.00434987536148811,0.04386646893681817,0.004355397541759795,0.015213390812277794,-0.030361901968717575,0.02004312351346016,-0.0016461610794067383,0.003975614905357361,-0.0006738898809999228,-0.1822892390881057,1.5736847612933509,2.9710420998629776,0.9834272265434265,0.18128135800361633,0.002840573200955987, 264, 196, 146, 231
1730928347879,9i,8.131979306047176,0.9s : 0.3s,-20.104916809298217,0.0045601522961947576,0.03888089482784747,0.003728008110587268,0.013319084420800209,-0.0220914538949728,0.023431196808815002,-0.0009828805923461914,-0.0015721023082733154,0.003234267234802246,-0.18208093364181124,1.5733878887851784,2.97090621309433,0.9834657907485962,0.18107649683952332,0.002548718126490712, 264, 196, 146, 231
1730928347889,9i,8.131979306047176,0.9s : 0.3s,-20.104916809298217,0.004739064812157041,0.1620729485402599,0.010410634171228974,0.06280301511287689,-0.4448440372943878,0.5079758167266846,0.0023385286331176758,-0.003308504819869995,0.009589910507202148,-0.18130204711134423,1.5726658350132743,2.9706624386672544,0.9836081266403198,0.1803104281425476,0.0018388655735179782, 264, 196, 146, 231
1730928347899,9i,8.131979306047176,0.9s : 0.3s,-20.104916809298217,0.004700916343478903,0.4393774251194062,0.03908473751572212,0.06234921142458916,-1.0588027238845825,1.2244945764541626,0.03613787889480591,0.005164191126823425,0.013964295387268066,-0.18139101532736449,1.5727949202699283,2.9703804561164553,0.9835916757583618,0.18039794266223907,0.0019658023957163095, 264, 196, 146, 231
1730928347909,9i,8.131979306047176,0.9s : 0.3s,-20.104916809298217,0.004849735247224046,0.4484094560832952,0.04262840203184281,0.024411417543888092,-0.52605801820755,0.4655410349369049,-0.03747105598449707,0.01175302267074585,0.016582131385803223,-0.1809596478751017,1.5732048865070498,2.9696417654166423,0.9836685061454773,0.17997363209724426,0.002369228983297944, 264, 196, 146, 231
1730928347919,9i,8.131979306047176,0.9s : 0.3s,-20.104916809298217,0.004988837222822703,0.32254228944286245,0.015553161465957666,0.06278437376022339,-0.0027728828135877848,0.05123140290379524,-0.003252863883972168,0.013090670108795166,0.0077430009841918945,-0.18032891257147318,1.572867745425327,2.968944775263799,0.9837825298309326,0.17935316264629364,0.0020378283224999905, 264, 196, 146, 231
1730928347929,9i,8.131979306047176,0.9s : 0.3s,-20.104916809298217,0.005104691896075042,0.22773855257858575,0.01965712319653819,0.07264898717403412,0.014939002692699432,0.015622277744114399,0.004474222660064697,-0.0033709853887557983,0.018841981887817383,-0.1799385806502659,1.5727995702012663,2.968246039185487,0.983852744102478,0.178969144821167,0.0019708992913365364, 264, 196, 146, 231
1730928347939,9i,8.131979306047176,0.9s : 0.3s,-20.104916809298217,0.005230398877797347,0.16174229045055868,0.014196140006019757,0.07843710482120514,0.03180311620235443,0.022135037928819656,-0.006759583950042725,-0.007059112191200256,0.010295987129211426,-0.17974789602580632,1.5728937215619336,2.967509195046263,0.9838867783546448,0.17878153920173645,0.002063601976260543, 264, 196, 146, 231
1730928347949,9i,8.131979306047176,0.9s : 0.3s,-20.104916809298217,0.0053573475337364545,0.11981311845499391,0.017011894887291316,0.1229851245880127,0.044401731342077255,0.020640205591917038,-0.0062299370765686035,0.012986898422241211,0.009051680564880371,-0.17955035496808322,1.5730726483262714,2.9664560066848513,0.983921468257904,0.1785871684551239,0.0022397255524992943, 264, 196, 146, 231
1730928347959,9i,8.131979306047176,0.9s : 0.3s,-20.104916809298217,0.0055058568765584915,0.11538637680740518,0.033861526166519614,0.15183675289154053,0.03916151821613312,0.08083663135766983,-0.014415204524993896,0.030343562364578247,-0.004251241683959961,-0.17934124883965788,1.5731783482502462,2.9650290277965112,0.9839586615562439,0.17838142812252045,0.002343815052881837, 264, 196, 146, 231
1730928347969,9i,8.131979306047176,0.9s : 0.3s,-20.104916809298217,0.005651405446873382,0.11695106360190802,0.033125499064286267,0.1526964157819748,0.041546646505594254,0.142531156539917,-0.003733396530151367,0.031036600470542908,-0.010958552360534668,-0.17908659413432645,1.5732800697687845,2.963356736403565,0.9840037822723389,0.1781308501958847,0.002444017445668578, 264, 196, 146, 231
1730928347979,9i,8.131979306047176,0.9s : 0.3s,-20.104916809298217,0.005798065603043075,0.1306488266467506,0.025053767013678594,0.14031751453876495,0.03629213944077492,0.20869453251361847,-0.003267049789428711,0.02302861213684082,-0.009311318397521973,-0.1787890654011109,1.57346676512183,2.9617059661698564,0.9840562343597412,0.17783807218074799,0.002627867739647627, 264, 196, 146, 231
1730928347989,9i,8.131979306047176,0.9s : 0.3s,-20.104916809298217,0.005956535148441396,0.14882448532546297,0.013008158230659686,0.10382954031229019,0.020098522305488586,0.27443864941596985,-0.007181346416473389,0.008253410458564758,-0.007037162780761719,-0.17848377139296528,1.573667619076662,2.960240371121572,0.9841100573539734,0.17753763496875763,0.0028256752993911505, 264, 196, 146, 231
1730928347999,9i,8.131979306047176,0.9s : 0.3s,-20.104916809298217,0.006123908188973298,0.17300297332565254,0.011017487489628495,0.07920502871274948,-0.00238312897272408,0.342465341091156,-0.007216274738311768,-0.004327759146690369,-0.007112025748938322,-0.1781972086664157,1.5738520535703742,2.959055199235497,0.984160304069519,0.17725561559200287,0.0030073344241827726, 264, 196, 146, 231
1730928348009,9i,8.131979306047176,0.9s : 0.3s,-20.104916809298217,0.006293106729797496,0.20495854177133713,0.014033451660482902,0.07438576966524124,-0.018946925178170204,0.41620001196861267,-0.005754530429840088,-0.0072576552629470825,-0.010542750358581543,-0.17791834925833094,1.5740353429271952,2.957951117644624,0.9842089414596558,0.17698116600513458,0.0031878799200057983, 264, 196, 146, 231
1730928348019,9i,8.131979306047176,0.9s : 0.3s,-20.104916809298217,0.00646896843589901,0.24423574624057678,0.018952473393437454,0.08681154251098633,-0.036895476281642914,0.49470528960227966,-0.008171558380126953,-0.0003729015588760376,-0.017096281051635742,-0.17762065134693183,1.5742443820095933,2.9567563175018425,0.9842609763145447,0.17668816447257996,0.0033937995322048664, 264, 196, 146, 231
1730928348029,9i,8.131979306047176,0.9s : 0.3s,-20.104916809298217,0.006663555222901801,0.2882046177951115,0.028371448559939637,0.09047205746173859,-0.06958817690610886,0.5736424326896667,-0.012508809566497803,0.013227492570877075,-0.021760106086730957,-0.17733672607472362,1.57440927981177,2.955392341023761,0.984310507774353,0.17640869319438934,0.0035562829580157995, 264, 196, 146, 231
1730928348039,9i,8.131979306047176,0.9s : 0.3s,-20.104916809298217,0.006870445586775303,0.336412980097556,0.03134780092225752,0.0872349888086319,-0.1021139845252037,0.65786212682724,-0.008695900440216064,0.01697392761707306,-0.024878740310668945,-0.17706506769765812,1.5744926013195428,2.9539936238072633,0.9843582510948181,0.17614129185676575,0.0036384749691933393, 264, 196, 146, 231
1730928348049,9i,8.131979306047176,0.9s : 0.3s,-20.104916809298217,0.007080576940587673,0.38407918411834546,0.025505313991318525,0.0626542791724205,-0.14308671653270721,0.7251524925231934,-0.004765808582305908,0.010423213243484497,-0.022785186767578125,-0.17685286558774804,1.5745512278826579,2.9526651650097504,0.9843953251838684,0.1759324073791504,0.0036963243037462234, 264, 196, 146, 231
1730928348059,9i,8.131979306047176,0.9s : 0.3s,-20.104916809298217,0.007304395176768545,0.4200714445901292,0.023924634473060032,0.03446138650178909,-0.1784517616033554,0.7334288954734802,-0.00990140438079834,0.0028764456510543823,-0.021588802337646484,-0.17662940901944665,1.5745913112294838,2.951603191871831,0.9844344258308411,0.17571242153644562,0.003735931124538183, 264, 196, 146, 231
1730928348069,9i,8.131979306047176,0.9s : 0.3s,-20.104916809298217,0.007524097446515706,0.44690097992634137,0.013114374218503278,0.001928744837641716,-0.20545993745326996,0.736125111579895,-0.0042858123779296875,-0.002750217914581299,-0.012085318565368652,-0.17628449315728642,1.5745628522860335,2.9508764375934238,0.9844951033592224,0.1753728687763214,0.003708143485710025, 264, 196, 146, 231
1730928348079,9i,8.131979306047176,0.9s : 0.3s,-20.104916809298217,0.007735024965202157,0.46522620623984673,0.01923118877872982,-0.019553644582629204,-0.2239571213722229,0.7274519205093384,-0.0038196444511413574,-0.013125836849212646,-0.013526320457458496,-0.175896680359929,1.5745539404493494,2.950473023168639,0.9845631718635559,0.17499105632305145,0.003699625376611948, 264, 196, 146, 231
1730928348089,9i,8.131979306047176,0.9s : 0.3s,-20.104916809298217,0.007958981543226579,0.47692825724218907,0.02228776035437765,-0.004413573071360588,-0.2391997128725052,0.7147302627563477,-0.013181865215301514,-0.011238455772399902,-0.01402425765991211,-0.17549855975687909,1.574547914057597,2.9501199484369263,0.9846327304840088,0.1745990663766861,0.003693952923640609, 264, 196, 146, 231
1730928348099,9i,8.131979306047176,0.9s : 0.3s,-20.104916809298217,0.008212354529159183,0.4835086157326525,0.026727921994290135,0.0333002470433712,-0.2447989135980606,0.7059839963912964,-0.017678916454315186,0.0002305060625076294,-0.020044565200805664,-0.17508589615352615,1.574556149763078,2.949488965303377,0.9847047924995422,0.17419272661209106,0.003702332964166999, 264, 196, 146, 231
1730928348109,9i,8.131979306047176,0.9s : 0.3s,-20.104916809298217,0.00849902449174443,0.48492543629972873,0.030116928790767338,0.06357692927122116,-0.2612449824810028,0.6914553642272949,-0.01819998025894165,0.007129460573196411,-0.022912025451660156,-0.17463448820230654,1.5745546857516899,2.948539532348681,0.9847832322120667,0.1737481951713562,0.0037011862732470036, 264, 196, 146, 231
1730928348119,9i,8.131979306047176,0.9s : 0.3s,-20.104916809298217,0.008809860379301126,0.48489337980991115,0.028301093445925213,0.07815521210432053,-0.2760033905506134,0.6678594350814819,-0.014612317085266113,0.00800815224647522,-0.02287578582763672,-0.1742071170000466,1.5744555431235692,2.9473704602026776,0.9848576188087463,0.17332731187343597,0.0036038230173289776, 264, 196, 146, 231
1730928348129,9i,8.131979306047176,0.9s : 0.3s,-20.104916809298217,0.009140724392169924,0.4836580628129718,0.027624002504185105,0.06732679903507233,-0.28717243671417236,0.6449311971664429,-0.014205694198608398,0.0015614330768585205,-0.023639917373657227,-0.17382740198672952,1.5743016698443724,2.9462239403180397,0.9849240183830261,0.17295332252979279,0.003452510805800557, 264, 196, 146, 231
1730928348139,9i,8.131979306047176,0.9s : 0.3s,-20.104916809298217,0.009485090374640983,0.47970377774305006,0.02611048511444079,0.05496373400092125,-0.2884771525859833,0.627126932144165,-0.014106333255767822,-0.006701216101646423,-0.020925164222717285,-0.17343239689079473,1.5741942630310573,2.945210891444582,0.984992504119873,0.17256426811218262,0.003346954705193639, 264, 196, 146, 231
1730928348149,9i,8.131979306047176,0.9s : 0.3s,-20.104916809298217,0.009839657098946075,0.47163511192654856,0.023852488600993788,0.0482882559299469,-0.2994230091571808,0.6045784950256348,-0.015980005264282227,-0.01029883325099945,-0.014405369758605957,-0.1730106409463703,1.5740812764238301,2.944324389789339,0.9850656986236572,0.17214882373809814,0.0032359028700739145, 264, 196, 146, 231
1730928348159,9i,8.131979306047176,0.9s : 0.3s,-20.104916809298217,0.010198164549682118,0.46276741009975464,0.021808590824980812,0.042400673031806946,-0.30347931385040283,0.5862550735473633,-0.013494551181793213,-0.009808644652366638,-0.014046430587768555,-0.17255946010434667,1.573917997152161,2.943521120444483,0.9851436614990234,0.17170435190200806,0.003075303742662072, 264, 196, 146, 231
1730928348169,9i,8.131979306047176,0.9s : 0.3s,-20.104916809298217,0.010551276954094154,0.4522792801203916,0.017989091092552326,0.044429466128349304,-0.29943743348121643,0.5630647540092468,-0.008266031742095947,-0.007023677229881287,-0.01435089111328125,-0.17208684506021027,1.5737621141539908,2.9427880260663075,0.9852251410484314,0.1712387353181839,0.002921976847574115, 264, 196, 146, 231
1730928348179,9i,8.131979306047176,0.9s : 0.3s,-20.104916809298217,0.010896133335022,0.4401382451434428,0.013407947508339587,0.045097921043634415,-0.29593050479888916,0.5372382402420044,-0.008549273014068604,-0.0053312331438064575,-0.008846521377563477,-0.17159262820877658,1.5736266102549064,2.9420497764296307,0.9853101968765259,0.17075181007385254,0.002788714598864317, 264, 196, 146, 231
1730928348189,9i,8.131979306047176,0.9s : 0.3s,-20.104916809298217,0.011228843551673341,0.4264561967152355,0.01170464610945207,0.04868386685848236,-0.28780466318130493,0.511421799659729,-0.008345425128936768,-0.006530046463012695,-0.004971027374267578,-0.17109029773999435,1.5734872511750042,2.9413125808518568,0.985396146774292,0.1702568233013153,0.002651632996276021, 264, 196, 146, 231
1730928348199,9i,8.131979306047176,0.9s : 0.3s,-20.104916809298217,0.01154844450982963,0.41086694406148927,0.011051071497967033,0.06101856380701065,-0.2808856964111328,0.47964057326316833,-0.006325840950012207,-0.005697131156921387,-0.00704646110534668,-0.17058576172445347,1.5733478377301309,2.9405319333554614,0.9854823350906372,0.1697596311569214,0.0025144743267446756, 264, 196, 146, 231
1730928348209,9i,8.131979306047176,0.9s : 0.3s,-20.104916809298217,0.01187024840028649,0.39272482441503836,0.015877307549488386,0.07523717731237411,-0.26309657096862793,0.44611749053001404,-0.010525226593017578,-0.0021697133779525757,-0.011687636375427246,-0.17011855716125698,1.5732108455861888,2.939608418969407,0.9855616688728333,0.1692992001771927,0.0023796616587787867, 264, 196, 146, 231
1730928348219,9i,8.131979306047176,0.9s : 0.3s,-20.104916809298217,0.01220915575856127,0.3729571532578842,0.021589793711359526,0.08135299384593964,-0.2455604076385498,0.413973331451416,-0.017098605632781982,5.62518835067749e-05,-0.013181567192077637,-0.16968693390082734,1.573131798946933,2.93861597299076,0.985634982585907,0.16887378692626953,0.002301927190274, 264, 196, 146, 231
1730928348229,9i,8.131979306047176,0.9s : 0.3s,-20.104916809298217,0.012568219126208677,0.35323035651923873,0.023459377739917513,0.0833682119846344,-0.23966044187545776,0.3824596107006073,-0.019137680530548096,0.0031990855932235718,-0.013185501098632812,-0.1692694096682426,1.5730427476818352,2.93761365270323,0.9857054352760315,0.16846224665641785,0.002214313019067049, 264, 196, 146, 231
1730928348239,9i,8.131979306047176,0.9s : 0.3s,-20.104916809298217,0.012929499924496202,0.3323644200514123,0.018186435538356322,0.09645219147205353,-0.22339852154254913,0.34788355231285095,-0.010763943195343018,0.0068855881690979,-0.012941122055053711,-0.1688886774721343,1.5729185179695817,2.9365531018384017,0.9857699871063232,0.1680869460105896,0.0020919954404234886, 264, 196, 146, 231
1730928348249,9i,8.131979306047176,0.9s : 0.3s,-20.104916809298217,0.013282766996110132,0.310278096961428,0.014764738325258982,0.10133962333202362,-0.20777800679206848,0.31114524602890015,-0.007051587104797363,0.008071064949035645,-0.010155320167541504,-0.16855290854458255,1.5727858486872373,2.9354113884850164,0.9858264923095703,0.16775594651699066,0.0019613259937614202, 264, 196, 146, 231
1730928348259,9i,8.131979306047176,0.9s : 0.3s,-20.104916809298217,0.013632517396095157,0.2866336428638315,0.015795559834060655,0.11061207950115204,-0.1868843138217926,0.2716878056526184,-0.009369492530822754,0.008498042821884155,-0.009460210800170898,-0.16829008834082698,1.5726532615458833,2.9342351313823434,0.9858708381652832,0.16749684512615204,0.0018306998535990715, 264, 196, 146, 231
1730928348269,9i,8.131979306047176,0.9s : 0.3s,-20.104916809298217,0.013971207811402167,0.2640887642532404,0.01563742386460047,0.12134142220020294,-0.17069363594055176,0.240671306848526,-0.005485713481903076,0.012091413140296936,-0.008260369300842285,-0.16806572271194972,1.5725196170882798,2.9329579566352044,0.9859088063240051,0.16727563738822937,0.00169900874607265, 264, 196, 146, 231
1730928348279,9i,8.131979306047176,0.9s : 0.3s,-20.104916809298217,0.014296201995307631,0.2409511599998934,0.014353337248489056,0.11702030897140503,-0.14604513347148895,0.2106054425239563,-0.003569185733795166,0.011008888483047485,-0.008490204811096191,-0.16784823316856406,1.5723966901087292,2.931661406223715,0.9859452843666077,0.1670612096786499,0.0015778719680383801, 264, 196, 146, 231
1730928348289,9i,8.131979306047176,0.9s : 0.3s,-20.104916809298217,0.014609272307375108,0.21763892404187013,0.010177454013536926,0.0994381234049797,-0.1333831399679184,0.17965924739837646,-0.0050247907638549805,0.003609195351600647,-0.008081197738647461,-0.16763069259282753,1.572275878466602,2.9305136188809704,0.985981822013855,0.16684672236442566,0.0014588121557608247, 264, 196, 146, 231
1730928348299,9i,8.131979306047176,0.9s : 0.3s,-20.104916809298217,0.014904924852450123,0.19445442443173083,0.008859860717934053,0.08796575665473938,-0.11606469005346298,0.1517254263162613,-0.0023752450942993164,-0.0025417208671569824,-0.00814831256866455,-0.16741568206588608,1.572127249196434,2.929511612265529,0.9860179424285889,0.1666347235441208,0.0013123140670359135, 264, 196, 146, 231
1730928348309,9i,8.131979306047176,0.9s : 0.3s,-20.104916809298217,0.015171483744061907,0.17127600197879772,0.0064039022667823345,0.08578889071941376,-0.09475061297416687,0.12179175764322281,0.0020574331283569336,-0.004361853003501892,-0.004213213920593262,-0.16718796270621608,1.57195867712968,2.9286033281258796,0.9860559701919556,0.1664101779460907,0.0011461429530754685, 264, 196, 146, 231
1730928348319,9i,8.131979306047176,0.9s : 0.3s,-20.104916809298217,0.01540488780243507,0.14861350244274818,0.00668814168125189,0.09397957473993301,-0.06733553856611252,0.09264908730983734,0.0050280094146728516,-0.0033897608518600464,-0.00282132625579834,-0.16697590376634094,1.571800493310268,2.9276767406878035,0.9860914349555969,0.16620106995105743,0.0009902003221213818, 264, 196, 146, 231
1730928348329,9i,8.131979306047176,0.9s : 0.3s,-20.104916809298217,0.015622411140933436,0.1299910282478978,0.009308591189416175,0.1263822615146637,-0.03629346936941147,0.06873762607574463,0.002201259136199951,0.0034818649291992188,-0.008347511291503906,-0.16676947370226078,1.571694636371466,2.926552899622741,0.9861257672309875,0.16599752008914948,0.0008858464425429702, 264, 196, 146, 231
1730928348339,9i,8.131979306047176,0.9s : 0.3s,-20.104916809298217,0.01584337001752323,0.12450860244364996,0.020266822213470453,0.16282881796360016,-0.008989011868834496,0.050078753381967545,-0.0025400519371032715,0.015691041946411133,-0.01257312297821045,-0.16651968029603498,1.5715852583838008,2.9250604240919937,0.986167311668396,0.16575117409229279,0.0007780187297612429, 264, 196, 146, 231
1730928348349,9i,8.131979306047176,0.9s : 0.3s,-20.104916809298217,0.0160699743437289,0.12033975290053087,0.029048830636631957,0.17154641449451447,0.008380124345421791,0.0285676047205925,0.0004798769950866699,0.023676425218582153,-0.016823530197143555,-0.16623607527463144,1.5714080951420297,2.923334101907655,0.9862143993377686,0.16547149419784546,0.0006033348618075252, 264, 196, 146, 231
1730928348359,9i,8.131979306047176,0.9s : 0.3s,-20.104916809298217,0.01628852668593802,0.11664367555965434,0.02388670161933713,0.16365918517112732,0.01269808504730463,0.02816380187869072,0.006613314151763916,0.01614038646221161,-0.01631951332092285,-0.16595574964844975,1.571221946310836,2.9216232741019197,0.9862608313560486,0.1651950180530548,0.0004197718808427453, 264, 196, 146, 231
1730928348369,9i,8.131979306047176,0.9s : 0.3s,-20.104916809298217,0.016494196154614532,0.10680239092662928,0.011560024042486752,0.13610079884529114,0.010212291032075882,0.026941677555441856,0.003914773464202881,0.0032467544078826904,-0.010381102561950684,-0.16569276727660942,1.5710954497490432,2.920092175659526,0.9863044023513794,0.1649356484413147,0.0002950263151433319, 264, 196, 146, 231
1730928348379,9i,8.131979306047176,0.9s : 0.3s,-20.104916809298217,0.016693966345254378,0.09302672757832658,0.00983845644744011,0.09481367468833923,0.0036819984670728445,0.027266351506114006,-0.0016533136367797852,-0.004162535071372986,-0.008759856224060059,-0.16542317916478066,1.5709677616303768,2.9189205736741046,0.9863487482070923,0.16466975212097168,0.00016909453552216291, 264, 196, 146, 231
1730928348389,9i,8.131979306047176,0.9s : 0.3s,-20.104916809298217,0.016881329941467654,0.07727198298165991,0.013330290851248622,0.054680902510881424,-0.0041663371957838535,0.02698538638651371,0.0012737512588500977,-0.0097474604845047,-0.009003400802612305,-0.16512948600744423,1.570796917440212,2.9181635066700022,0.9863970875740051,0.1643800586462021,5.826108235851279e-07, 264, 196, 146, 231
1730928348399,9i,8.131979306047176,0.9s : 0.3s,-20.104916809298217,0.01706180019188184,0.06307685666353367,0.02063728045812007,0.03859155252575874,-0.0015878207050263882,0.02341698482632637,-0.0007086992263793945,-0.017032548785209656,-0.011631309986114502,-0.16485773370001536,1.570661175632037,2.91770637989892,0.9864416718482971,0.16411200165748596,-0.00013331873924471438, 264, 196, 146, 231
1730928348409,9i,8.131979306047176,0.9s : 0.3s,-20.104916809298217,0.017246554013842542,0.05494932411678167,0.021065467049623754,0.05020719766616821,-0.0003028453793376684,0.02059083804488182,-0.006294131278991699,-0.016310453414916992,-0.011751890182495117,-0.16466709605703408,1.570505047866663,2.91723919618875,0.9864729642868042,0.1639239341020584,-0.0002873388002626598, 264, 196, 146, 231
1730928348419,9i,8.131979306047176,0.9s : 0.3s,-20.104916809298217,0.017451890347300148,0.05413067262789695,0.020043788147388792,0.06970686465501785,-0.0026123388670384884,0.017859233543276787,-0.009707868099212646,-0.005226686596870422,-0.016738951206207275,-0.164599285628331,1.5702549365575131,2.91660038432351,0.9864839911460876,0.16385704278945923,-0.0005340728675946593, 264, 196, 146, 231
1730928348429,9i,8.131979306047176,0.9s : 0.3s,-20.104916809298217,0.017685044217402957,0.05484241045307524,0.024980621982474808,0.09344282001256943,-0.007364483084529638,0.01637185737490654,-0.007936656475067139,0.006806567311286926,-0.022687256336212158,-0.16460531163335054,1.569881047336279,2.915745134763243,0.9864827990531921,0.16386298835277557,-0.0009029076900333166, 264, 196, 146, 231
1730928348439,9i,8.131979306047176,0.9s : 0.3s,-20.104916809298217,0.017937841311171095,0.05845326401688409,0.025282571997675408,0.1114850640296936,-0.006146042607724667,0.0126523207873106,-0.003546297550201416,0.003417283296585083,-0.024798274040222168,-0.16457618418318587,1.569468782759951,2.9146712863865205,0.9864869117736816,0.16383425891399384,-0.001309605548158288, 264, 196, 146, 231
1730928348449,9i,8.131979306047176,0.9s : 0.3s,-20.104916809298217,0.018206794411777454,0.0675106243598745,0.021869192654695543,0.13534937798976898,-0.0015566169749945402,0.0096964780241251,-0.00575941801071167,0.008413448929786682,-0.019346952438354492,-0.16447677911563804,1.5691400292420394,2.913398551926906,0.9865027666091919,0.16373619437217712,-0.001633943640626967, 264, 196, 146, 231
1730928348459,9i,8.131979306047176,0.9s : 0.3s,-20.104916809298217,0.018499813503287617,0.07681401971934655,0.030816530345754403,0.14868250489234924,-0.008474000729620457,0.0034413784742355347,-0.008643507957458496,0.022609993815422058,-0.019071877002716064,-0.16437807189942305,1.5687684291548807,2.91193864884611,0.9865183234214783,0.16363881528377533,-0.0020005609840154648, 264, 196, 146, 231
1730928348469,9i,8.131979306047176,0.9s : 0.3s,-20.104916809298217,0.018807418325575177,0.08479416714745644,0.03387055835976164,0.15467515587806702,-0.008018333464860916,0.004060829523950815,-0.0012758970260620117,0.02594149112701416,-0.021739959716796875,-0.1642646374323154,1.568333128732262,2.9103944582141716,0.986535906791687,0.16352690756320953,-0.0024300382938236, 264, 196, 146, 231
1730928348479,9i,8.131979306047176,0.9s : 0.3s,-20.104916809298217,0.019110454010374103,0.08845869471103722,0.022845999655846105,0.15488940477371216,-0.0031731112394481897,0.011146003380417824,0.0024446845054626465,0.016855567693710327,-0.01522672176361084,-0.16405513717885867,1.5679024294165884,2.9088002634271617,0.9865689873695374,0.16332022845745087,-0.0028550373390316963, 264, 196, 146, 231
1730928348489,9i,8.131979306047176,0.9s : 0.3s,-20.104916809298217,0.01940625115948319,0.08932979236133513,0.010364110525513542,0.14406205713748932,-0.00711006298661232,0.01280541904270649,-0.003834366798400879,0.003941178321838379,-0.0087851881980896,-0.1638131968596111,1.567482616137339,2.9072622616237016,0.9866070747375488,0.16308152675628662,-0.0032693424727767706, 264, 196, 146, 231
1730928348499,9i,8.131979306047176,0.9s : 0.3s,-20.104916809298217,0.019684567715156465,0.0899177297636257,0.008423784949553943,0.14130021631717682,-0.005902630276978016,0.011605165898799896,-0.0019831061363220215,-0.005583316087722778,-0.005987823009490967,-0.16364610357938167,1.5670136666554577,2.905790765103058,0.9866327047348022,0.16291667520999908,-0.0037321140989661217, 264, 196, 146, 231
1730928348509,9i,8.131979306047176,0.9s : 0.3s,-20.104916809298217,0.019940260340882653,0.0903875564036867,0.013752986663219358,0.14008234441280365,-0.007673898711800575,0.014024646952748299,0.0030577778816223145,-0.010485723614692688,-0.00835728645324707,-0.1635731572583393,1.5664768572246206,2.9043327095942013,0.9866425395011902,0.1628447026014328,-0.004261798691004515, 264, 196, 146, 231
1730928348519,9i,8.131979306047176,0.9s : 0.3s,-20.104916809298217,0.020181727574486438,0.09099942193253564,0.018718479566272313,0.14283126592636108,-0.005524461157619953,0.015987396240234375,0.002077817916870117,-0.013988882303237915,-0.01226276159286499,-0.16344299247233388,1.565919387235049,2.9028515883708295,0.9866611361503601,0.16271626949310303,-0.004811924882233143, 264, 196, 146, 231
1730928348529,9i,8.131979306047176,0.9s : 0.3s,-20.104916809298217,0.02041558865874869,0.0907454164809418,0.023086615714285764,0.1303682029247284,-0.005943909287452698,0.019599441438913345,0.0002593994140625,-0.017879009246826172,-0.014603614807128906,-0.16331838039863547,1.56544645222682,2.901429467394071,0.9866788983345032,0.1625933200120926,-0.005278658587485552, 264, 196, 146, 231
1730928348539,9i,8.131979306047176,0.9s : 0.3s,-20.104916809298217,0.020635921922177534,0.08578968655465463,0.02802658402200999,0.10090113431215286,-0.011682221665978432,0.01514929998666048,0.001007378101348877,-0.025114163756370544,-0.012399733066558838,-0.16330549552092596,1.5650067702255377,2.90023050639169,0.9866787791252136,0.16258060932159424,-0.00571249658241868, 264, 196, 146, 231
1730928348549,9i,8.131979306047176,0.9s : 0.3s,-20.104916809298217,0.020837550767958117,0.0803734187308234,0.03315641011759444,0.09014382213354111,-0.01888793706893921,0.02125220000743866,-0.00045555830001831055,-0.032233670353889465,-0.007754385471343994,-0.16329906642340244,1.5645050933226696,2.8992502653023537,0.9866768717765808,0.16257426142692566,-0.006207496393471956, 264, 196, 146, 231
1730928348559,9i,8.131979306047176,0.9s : 0.3s,-20.104916809298217,0.02102184915112621,0.07814823882580187,0.03288582706311716,0.08985140919685364,-0.026626549661159515,0.023743320256471634,0.002780735492706299,-0.03133641183376312,-0.009579896926879883,-0.16319382522633105,1.564004728848851,2.8983288071210906,0.9866907000541687,0.16247041523456573,-0.006701309233903885, 264, 196, 146, 231
1730928348569,9i,8.131979306047176,0.9s : 0.3s,-20.104916809298217,0.021198968793656073,0.07505824005150678,0.026679418999891853,0.08280401676893234,-0.02570025809109211,0.024871468544006348,0.001300036907196045,-0.024277061223983765,-0.010987520217895508,-0.16298291327996273,1.5635449288782397,2.8974483103558257,0.9867218136787415,0.16226230561733246,-0.007155237719416618, 264, 196, 146, 231
1730928348579,9i,8.131979306047176,0.9s : 0.3s,-20.104916809298217,0.02137796918930821,0.07324239173069291,0.02114335815744176,0.07973725348711014,-0.03201563283801079,0.029417386278510094,-0.001996278762817383,-0.017917364835739136,-0.011046470142900944,-0.16267690804075405,1.5630947257772152,2.8966248644195454,0.9867681264877319,0.16196034848690033,-0.0075998445972800255, 264, 196, 146, 231
1730928348589,9i,8.131979306047176,0.9s : 0.3s,-20.104916809298217,0.021556278458641488,0.07067021905354894,0.019881450024140622,0.06660094857215881,-0.04057103767991066,0.03772112354636192,-0.0010967850685119629,-0.017270103096961975,-0.0097883939743042,-0.1622683740811282,1.5625471013779937,2.8958598631014136,0.9868297576904297,0.16155719757080078,-0.008140766061842442, 264, 196, 146, 231
1730928348599,9i,8.131979306047176,0.9s : 0.3s,-20.104916809298217,0.02172868395220036,0.06624081233653542,0.02351037321882672,0.053919509053230286,-0.038656581193208694,0.03978860005736351,0.0006595849990844727,-0.02198423445224762,-0.008306385017931461,-0.16177280018969176,1.5619273667616222,2.895231369820341,0.9869045615196228,0.1610681116580963,-0.00875304639339447, 264, 196, 146, 231
1730928348609,9i,8.131979306047176,0.9s : 0.3s,-20.104916809298217,0.02190007858385782,0.05934782772409405,0.028842410513846003,0.04032673314213753,-0.0326136015355587,0.03802531957626343,-0.004346132278442383,-0.027812063694000244,-0.006283700466156006,-0.16126155376273568,1.5613629396253672,2.894747139173044,0.9869816303253174,0.16056351363658905,-0.009310855530202389, 264, 196, 146, 231
1730928348619,9i,8.131979306047176,0.9s : 0.3s,-20.104916809298217,0.022081826088278175,0.05843589291201089,0.02481365894100543,0.057673364877700806,-0.03497675806283951,0.03899747505784035,-0.00984889268875122,-0.021789968013763428,-0.006626784801483154,-0.16069479335002207,1.5608457262837534,2.8942458163956433,0.9870675206184387,0.16000409424304962,-0.0098222391679883, 264, 196, 146, 231
1730928348629,9i,8.131979306047176,0.9s : 0.3s,-20.104916809298217,0.022270182276195795,0.05914274822596654,0.014533842280868972,0.08097389340400696,-0.03332187235355377,0.04521622508764267,0.00014215707778930664,-0.007513269782066345,-0.012440383434295654,-0.16006660893654526,1.5603211610592786,2.8935430843121175,0.9871624708175659,0.15938396751880646,-0.010341068729758263, 264, 196, 146, 231
1730928348639,9i,8.131979306047176,0.9s : 0.3s,-20.104916809298217,0.022464579495644905,0.060273817237487544,0.016576595364458806,0.08684896677732468,-0.037098631262779236,0.04753979668021202,0.004328727722167969,-0.0013704299926757812,-0.015942633152008057,-0.15939309806959218,1.559758509597454,2.892668581422297,0.9872636795043945,0.1587190330028534,-0.010897678323090076, 264, 196, 146, 231
1730928348649,9i,8.131979306047176,0.9s : 0.3s,-20.104916809298217,0.022657124040351084,0.06097817630892027,0.011371306823262933,0.08367261290550232,-0.03731035068631172,0.041783109307289124,0.002652108669281006,-0.0036382973194122314,-0.010442017577588558,-0.15878466094807894,1.5591648146410308,2.8918074970900243,0.9873533248901367,0.15811827778816223,-0.011484930291771889, 264, 196, 146, 231
1730928348659,9i,8.131979306047176,0.9s : 0.3s,-20.104916809298217,0.02283616716151418,0.06192843800798688,0.00686930580210052,0.08514893054962158,-0.0410519614815712,0.04747145622968674,0.003060638904571533,-0.004680737853050232,-0.003988802433013916,-0.15823324973861816,1.5585489990462444,2.8909489134538813,0.987433135509491,0.15757377445697784,-0.012094021774828434, 264, 196, 146, 231
1730928348669,9i,8.131979306047176,0.9s : 0.3s,-20.104916809298217,0.02299464135815746,0.06319438643730464,0.004885470514793192,0.08993437141180038,-0.04352470487356186,0.05010851472616196,0.0033287405967712402,-0.003531351685523987,0.0005629062652587891,-0.15765656551473678,1.557911960625041,2.890055886240081,0.9875159859657288,0.15700426697731018,-0.012724221684038639, 264, 196, 146, 231
1730928348679,9i,8.131979306047176,0.9s : 0.3s,-20.104916809298217,0.02313257355295791,0.06630614230832779,0.005450700278307189,0.10036210715770721,-0.04456862062215805,0.051624953746795654,0.002275228500366211,-0.004316940903663635,0.002428474836051464,-0.15701508962446142,1.5572757268662214,2.8890979794189633,0.987608015537262,0.15637071430683136,-0.013353866524994373, 264, 196, 146, 231
1730928348689,9i,8.131979306047176,0.9s : 0.3s,-20.104916809298217,0.023260608121695822,0.07430231162397198,0.0036132303398691587,0.12270869314670563,-0.04438086971640587,0.0472099632024765,-0.0005341768264770508,-0.0035462677478790283,-0.0004405379295349121,-0.15635847676287112,1.5566132260464045,2.887975795751699,0.9877014756202698,0.15572214126586914,-0.014009608887135983, 264, 196, 146, 231
1730928348699,9i,8.131979306047176,0.9s : 0.3s,-20.104916809298217,0.02338989833751963,0.08384602392058221,0.008555864598300619,0.14687368273735046,-0.0379519984126091,0.047666095197200775,-0.0022516250610351562,0.006284728646278381,-0.0053511857986450195,-0.15575165447516398,1.5559476137963903,2.886619164571384,0.9877862930297852,0.15512269735336304,-0.014668432995676994, 264, 196, 146, 231
1730928348709,9i,8.131979306047176,0.9s : 0.3s,-20.104916809298217,0.023521288412775905,0.09646912835883584,0.0135855168694039,0.17901989817619324,-0.02987436205148697,0.05341799557209015,-0.005348563194274902,0.011852890253067017,-0.003932954743504524,-0.15519697960390033,1.555270146562367,2.8849468469753017,0.9878621101379395,0.1545747071504593,-0.0153389573097229, 264, 196, 146, 231
1730928348719,9i,8.131979306047176,0.9s : 0.3s,-20.104916809298217,0.023658221282837802,0.10597151312666689,0.012492442616130552,0.1810419112443924,-0.024052293971180916,0.058822911232709885,-0.009060442447662354,0.007961511611938477,-0.0032532811164855957,-0.15461049692669476,1.5546144835782068,2.8831100174809032,0.9879422783851624,0.15399526059627533,-0.015988122671842575, 264, 196, 146, 231
1730928348729,9i,8.131979306047176,0.9s : 0.3s,-20.104916809298217,0.023787110845374184,0.10996726094784641,0.004777640279066396,0.17702746391296387,-0.02703503519296646,0.05698080360889435,-0.0045969486236572266,0.0011147856712341309,0.0006716866046190262,-0.15400374363475555,1.5540256658325555,2.8812951068781407,0.9880257844924927,0.15339571237564087,-0.016571398824453354, 264, 196, 146, 231
1730928348739,9i,8.131979306047176,0.9s : 0.3s,-20.104916809298217,0.02390261493441225,0.11062888118026198,0.008614036424207315,0.16096007823944092,-0.028718329966068268,0.05898363143205643,-0.005475282669067383,-0.004290685057640076,0.005080642178654671,-0.15338999575221823,1.5534875877419858,2.8795859153717496,0.9881106615066528,0.1527891904115677,-0.017104657366871834, 264, 196, 146, 231
1730928348749,9i,8.131979306047176,0.9s : 0.3s,-20.104916809298217,0.024019417905416996,0.11056246538279979,0.015440224078559201,0.14874441921710968,-0.03149387612938881,0.06195199117064476,-0.00948399305343628,-0.012139588594436646,0.0010415297001600266,-0.15276298183967493,1.5530061181177417,2.8780410273791053,0.9881981015205383,0.15216951072216034,-0.017582105472683907, 264, 196, 146, 231
1730928348759,9i,8.131979306047176,0.9s : 0.3s,-20.104916809298217,0.024146772052036143,0.10924941157028727,0.021705561452907387,0.12527412176132202,-0.03884655237197876,0.06663752347230911,-0.0072577595710754395,-0.019685402512550354,-0.0055624861270189285,-0.15209178308483703,1.5525107589332647,2.876670419525328,0.9882912039756775,0.15150609612464905,-0.01807348057627678, 264, 196, 146, 231
1730928348769,9i,8.131979306047176,0.9s : 0.3s,-20.104916809298217,0.02428290916834178,0.10604301053464454,0.028958608794586473,0.11047732830047607,-0.04352466017007828,0.06742102652788162,-0.0008215904235839844,-0.027467578649520874,-0.009135542437434196,-0.15139730256765727,1.5519440506792124,2.875501358492015,0.9883856177330017,0.1508195996284485,-0.018635526299476624, 264, 196, 146, 231
1730928348779,9i,8.131979306047176,0.9s : 0.3s,-20.104916809298217,0.024438995999165516,0.10492134658425908,0.036489777518601135,0.12008201330900192,-0.04825017601251602,0.06066744774580002,0.00015246868133544922,-0.034531548619270325,-0.01179206371307373,-0.1507945006986929,1.5513143901613726,2.874393768786217,0.9884644746780396,0.15022365748882294,-0.019259639084339142, 264, 196, 146, 231
1730928348789,9i,8.131979306047176,0.9s : 0.3s,-20.104916809298217,0.02465538619613949,0.10678724603309049,0.03993802777197555,0.1599745750427246,-0.054042018949985504,0.059279412031173706,-0.005358755588531494,-0.03249102830886841,-0.02259785123169422,-0.1502740018047915,1.5505930407261548,2.873010711123545,0.9885284304618835,0.1497090458869934,-0.0199742391705513, 264, 196, 146, 231
1730928348799,9i,8.131979306047176,0.9s : 0.3s,-20.104916809298217,0.024920315595196273,0.12006482451446417,0.03893764874581244,0.21268558502197266,-0.05741673335433006,0.05213930830359459,-0.000947415828704834,-0.02075520157814026,-0.03293120861053467,-0.1497628897474453,1.5497643364228701,2.871142414218207,0.9885877370834351,0.14920368790626526,-0.020795034244656563, 264, 196, 146, 231
1730928348809,9i,8.131979306047176,0.9s : 0.3s,-20.104916809298217,0.025234117910332275,0.1339686214111795,0.03796124892056678,0.23825591802597046,-0.06042743846774101,0.04323716089129448,-0.002983987331390381,-0.006682306528091431,-0.03724914789199829,-0.14928019494644865,1.5488703428935022,2.8688494404288245,0.9886406064033508,0.14872637391090393,-0.02168039232492447, 264, 196, 146, 231
1730928348819,9i,8.131979306047176,0.9s : 0.3s,-20.104916809298217,0.025593606704053588,0.1438399432209517,0.03809204272701985,0.23463135957717896,-0.07059343159198761,0.04585384950041771,-0.0060558319091796875,0.003601953387260437,-0.03743469715118408,-0.14880203005537032,1.5479484471853848,2.8664558739009665,0.9886912703514099,0.14825350046157837,-0.022593431174755096, 264, 196, 146, 231
1730928348829,9i,8.131979306047176,0.9s : 0.3s,-20.104916809298217,0.02598354692447751,0.14823339110724687,0.033610491353171096,0.2249654233455658,-0.08199601620435715,0.054907530546188354,-0.002610146999359131,-0.0022131651639938354,-0.033435821533203125,-0.1482018540749554,1.5468691296066466,2.8641564228289362,0.9887551665306091,0.14765994250774384,-0.02366265468299389, 264, 196, 146, 231
1730928348839,9i,8.131979306047176,0.9s : 0.3s,-20.104916809298217,0.026397445035715093,0.1483830452465777,0.034480799937614846,0.19630661606788635,-0.09047490358352661,0.06383824348449707,-0.005589842796325684,-0.02200092375278473,-0.02595454826951027,-0.14745844290562224,1.5456790715998607,2.862037361590011,0.9888358116149902,0.14692462980747223,-0.024842066690325737, 264, 196, 146, 231
1730928348849,9i,8.131979306047176,0.9s : 0.3s,-20.104916809298217,0.026832568149586067,0.14762876763125365,0.04080588330605527,0.17674942314624786,-0.09625503420829773,0.07436678558588028,-0.014720916748046875,-0.034383490681648254,-0.016315339133143425,-0.14657154339464165,1.5444215788754232,2.860171744308347,0.9889335036277771,0.14604730904102325,-0.02608892135322094, 264, 196, 146, 231
1730928348859,9i,8.131979306047176,0.9s : 0.3s,-20.104916809298217,0.02727499413529951,0.14749458693476863,0.03676171197477046,0.18094231188297272,-0.094123974442482,0.0900852233171463,-0.014520347118377686,-0.03236186504364014,-0.0096588134765625,-0.14551524745603586,1.5431568802202829,2.8584013016169987,0.9890533685684204,0.14500224590301514,-0.02734385058283806, 264, 196, 146, 231
1730928348869,9i,8.131979306047176,0.9s : 0.3s,-20.104916809298217,0.027711682544523296,0.14768242343000196,0.024549755196921545,0.17906877398490906,-0.09096173197031021,0.11250904202461243,-0.009245157241821289,-0.021154850721359253,-0.008348044008016586,-0.14427444689610508,1.5418214413741156,2.856570307971005,0.9891949892044067,0.14377444982528687,-0.02866983413696289, 264, 196, 146, 231
1730928348879,9i,8.131979306047176,0.9s : 0.3s,-20.104916809298217,0.02813494234292288,0.14671056294196935,0.018713761355745036,0.15384584665298462,-0.08708882331848145,0.12896807491779327,-0.003969550132751465,-0.016239330172538757,-0.008410213515162468,-0.14290010672731146,1.5404557256668412,2.85486576113011,0.9893515706062317,0.14241425693035126,-0.030026735737919807, 264, 196, 146, 231
1730928348889,9i,8.131979306047176,0.9s : 0.3s,-20.104916809298217,0.028532646990368185,0.14348945543611458,0.02644932335078882,0.11367418617010117,-0.07882210612297058,0.14118480682373047,-0.004862010478973389,-0.025906994938850403,0.002180635929107666,-0.14149089888518426,1.5391652539512835,2.853515694707125,0.9895116686820984,0.14101926982402802,-0.03130975738167763, 264, 196, 146, 231
1730928348899,9i,8.131979306047176,0.9s : 0.3s,-20.104916809298217,0.02888369776671267,0.1407483213504991,0.045294261040408575,0.10945627093315125,-0.06789782643318176,0.1449945867061615,-0.005115985870361328,-0.041979774832725525,0.01622021198272705,-0.14007841545261202,1.5380446027545167,2.8524531989936404,0.9896740913391113,0.13962076604366302,-0.03242512792348862, 264, 196, 146, 231
1730928348909,9i,8.131979306047176,0.9s : 0.3s,-20.104916809298217,0.029201053978119344,0.14120877759092484,0.03912756911746289,0.1528916209936142,-0.061087850481271744,0.15971466898918152,-0.008009374141693115,-0.03427387773990631,0.017091456800699234,-0.13855279993628963,1.5370018842493811,2.851138610911941,0.9898512959480286,0.13810992240905762,-0.0334642119705677, 264, 196, 146, 231
1730928348919,9i,8.131979306047176,0.9s : 0.3s,-20.104916809298217,0.029496372984916558,0.15096611821646877,0.018665369883029494,0.19058841466903687,-0.04707891494035721,0.18190619349479675,-0.00836271047592163,-0.014642655849456787,0.0080033577978611,-0.13666494052211023,1.5361877496207499,2.8495440159105767,0.9900825619697571,0.1362399160861969,-0.03427903726696968, 264, 196, 146, 231
1730928348929,9i,8.131979306047176,0.9s : 0.3s,-20.104916809298217,0.029769783939326423,0.16251018964510666,0.011167875638199631,0.2230725884437561,-0.07156828045845032,0.15785625576972961,-0.007940351963043213,-0.0051232874393463135,0.005951821804046631,-0.13488061935387496,1.535093680817089,2.847329341633355,0.9902858734130859,0.13447201251983643,-0.035370856523513794, 264, 196, 146, 231
1730928348939,9i,8.131979306047176,0.9s : 0.3s,-20.104916809298217,0.03005735503867699,0.18300137143098166,0.018322255520341835,0.2913247346878052,-0.05315949022769928,0.1786128282546997,-0.0029150843620300293,-0.005340307950973511,-0.017282605171203613,-0.13294407927316323,1.5341277891168246,2.8448108787465722,0.9905096888542175,0.13255281746387482,-0.03633682802319527, 264, 196, 146, 231
1730928348949,9i,8.131979306047176,0.9s : 0.3s,-20.104916809298217,0.03033766323763191,0.20430663585550066,0.012643681058344007,0.3303301930427551,-0.057042378932237625,0.17910391092300415,-0.00377577543258667,-0.011514097452163696,-0.0036099515855312347,-0.1309985588108018,1.5331507490185563,2.841750953865896,0.9907294511795044,0.1306242048740387,-0.03731421008706093, 264, 196, 146, 231
1730928348959,9i,8.131979306047176,0.9s : 0.3s,-20.104916809298217,0.03062764259118595,0.22297602002235659,0.01858454645703486,0.34581542015075684,-0.05925812944769859,0.18755319714546204,-0.007564544677734375,-0.014215081930160522,-0.009278710931539536,-0.12901357714451636,1.5321213198761447,2.838392585363156,0.9909476041793823,0.12865598499774933,-0.03834402561187744, 264, 196, 146, 231
1730928348969,9i,8.131979306047176,0.9s : 0.3s,-20.104916809298217,0.030907687587373053,0.24032737975134888,0.011086912305550813,0.36751219630241394,-0.05894813686609268,0.19236579537391663,0.0007035136222839355,-0.008981853723526001,-0.006461501121520996,-0.1269064391575179,1.5311522513465368,2.834903882502629,0.9911788105964661,0.1265660673379898,-0.03931496664881706, 264, 196, 146, 231
1730928348979,9i,8.131979306047176,0.9s : 0.3s,-20.104916809298217,0.031181277874995285,0.2708014353213445,0.01751264290801958,0.4721252918243408,-0.051472779363393784,0.19299252331256866,0.002315342426300049,-0.01610938459634781,-0.006466805934906006,-0.12481639704149176,1.5300753702969143,2.8308067373894144,0.9913979768753052,0.12449256330728531,-0.040393002331256866, 264, 196, 146, 231
1730928348989,9i,8.131979306047176,0.9s : 0.3s,-20.104916809298217,0.031455628307110135,0.32328865728049083,0.015190086538966056,0.6392713785171509,-0.03464852273464203,0.20056310296058655,0.0019072294235229492,-0.005022622644901276,-0.014208253473043442,-0.12262400702062094,1.5289684843002638,2.825332766643058,0.9916229248046875,0.12231692671775818,-0.04150165617465973, 264, 196, 146, 231
1730928348999,9i,8.131979306047176,0.9s : 0.3s,-20.104916809298217,0.031735182272169545,0.3979684714471112,0.03322113495560285,0.8340250253677368,-0.008971966803073883,0.21092981100082397,0.0008407235145568848,0.02006412297487259,-0.026464466005563736,-0.12024004702101133,1.5278764814513763,2.8180118825926077,0.9918656349182129,0.11995052546262741,-0.042596880346536636, 264, 196, 146, 231
1730928349009,9i,8.131979306047176,0.9s : 0.3s,-20.104916809298217,0.03201956599555138,0.49540743509259033,0.05390424500399032,1.0638272762298584,-0.008159969002008438,0.20758169889450073,-0.0042098164558410645,0.0435546413064003,-0.03147917240858078,-0.11774316620012329,1.526668786380831,2.8085743112392327,0.9921094179153442,0.11747130006551743,-0.04380778595805168, 264, 196, 146, 231
1730928349019,9i,8.131979306047176,0.9s : 0.3s,-20.104916809298217,0.03232485238117336,0.6047647533225808,0.08000478307289713,1.2660374641418457,-0.005501247011125088,0.22197122871875763,-0.0038909912109375,0.06748918443918228,-0.04278826341032982,-0.11507661741251211,1.5252395726858285,2.796944806421297,0.9923552870750427,0.11482279747724533,-0.04523978754878044, 264, 196, 146, 231
1730928349029,9i,8.131979306047176,0.9s : 0.3s,-20.104916809298217,0.03265500673750957,0.7162756217996777,0.08895114431780346,1.4366915225982666,0.0022650635801255703,0.24251244962215424,0.007750809192657471,0.07311473786830902,-0.05006461963057518,-0.1121482711864112,1.5236847857722142,2.783384252450012,0.9926153421401978,0.11191333085298538,-0.04679826647043228, 264, 196, 146, 231
1730928349039,9i,8.131979306047176,0.9s : 0.3s,-20.104916809298217,0.033011655672461136,0.8105551160055068,0.057743113062418194,1.5099601745605469,0.016017582267522812,0.28172045946121216,0.012170791625976562,0.04259767383337021,-0.037034809589385986,-0.10880093048390982,1.5221360450873025,2.76870518782089,0.9929103255271912,0.1085864007472992,-0.048353467136621475, 264, 196, 146, 231
1730928349049,9i,8.131979306047176,0.9s : 0.3s,-20.104916809298217,0.033326754941625694,0.8858032346033199,0.024362429399967384,1.550655484199524,0.037468813359737396,0.31112733483314514,0.01911628246307373,-0.014332570135593414,-0.004761632531881332,-0.10507146023362957,1.5208182098210212,2.7534646382481576,0.9932432770729065,0.10487823188304901,-0.04968180134892464, 264, 196, 146, 231
1730928349059,9i,8.131979306047176,0.9s : 0.3s,-20.104916809298217,0.03360169467060869,0.9556750834196448,0.057112678556228896,1.633905291557312,0.0368235744535923,0.32933518290519714,0.0239260196685791,-0.05058341473340988,0.01143336296081543,-0.1010635931909974,1.5195435139801228,2.7376595425534065,0.9935910105705261,0.10089164227247238,-0.050968971103429794, 264, 196, 146, 231
1730928349069,9i,8.131979306047176,0.9s : 0.3s,-20.104916809298217,0.03385370358729346,1.0076981939382512,0.057286650590326865,1.6525238752365112,0.06006231531500816,0.3124805688858032,0.03607678413391113,-0.04191603511571884,-0.014942288398742676,-0.09695371718042815,1.518390908073005,2.7212973060538195,0.9939372539520264,0.09680189192295074,-0.05213543400168419, 264, 196, 146, 231
1730928349079,9i,8.131979306047176,0.9s : 0.3s,-20.104916809298217,0.03408380850317152,1.0514147916837784,0.038010269733041446,1.6917511224746704,0.08392371237277985,0.2959526479244232,0.029784560203552246,-0.021090500056743622,-0.010623153299093246,-0.09306313964895016,1.517580723971058,2.704701989698908,0.994263231754303,0.09292886406183243,-0.052960317581892014, 264, 196, 146, 231
1730928349089,9i,8.131979306047176,0.9s : 0.3s,-20.104916809298217,0.034240046338747,1.0964275695446586,0.03285626911595376,1.7690190076828003,0.0793721005320549,0.26981958746910095,0.016862213611602783,0.02299141138792038,0.016327742487192154,-0.08929455782717179,1.5168434375499393,2.687543897134395,0.9945665001869202,0.08917593955993652,-0.05371186509728432, 264, 196, 146, 231
1730928349099,9i,8.131979306047176,0.9s : 0.3s,-20.104916809298217,0.03414588705925474,1.1376390009442532,0.11156550092529946,1.8250831365585327,0.07558410614728928,0.22387678921222687,0.053346335887908936,0.09741882979869843,-0.010516703128814697,-0.08583773864866165,1.5160512304463472,2.669652022954966,0.9948256015777588,0.0857323706150055,-0.054516296833753586, 264, 196, 146, 231
1730928349109,9i,8.131979306047176,0.9s : 0.3s,-20.104916809298217,0.03399749529274944,1.1712722647110472,0.1928195510207135,1.8525863885879517,0.07464241236448288,0.19337666034698486,0.05363607406616211,0.1822817027568817,-0.032801397144794464,-0.08276636837953648,1.5152442535666781,2.651260409491233,0.9950395822525024,0.08267190307378769,-0.055333442986011505, 264, 196, 146, 231
1730928349119,9i,8.131979306047176,0.9s : 0.3s,-20.104916809298217,0.03408840030107923,1.1739768443483423,0.2189214031046646,1.7622150182724,0.05536680668592453,0.17321006953716278,0.030407369136810303,0.21254688501358032,-0.04272931441664696,-0.07989646444716508,1.5144390886094665,2.633175147276068,0.9952273368835449,0.07981149107217789,-0.05614772066473961, 264, 196, 146, 231
1730928349129,9i,8.131979306047176,0.9s : 0.3s,-20.104916809298217,0.0346470434372302,1.136354188792113,0.20292250209677973,1.5575710535049438,0.026809731498360634,0.13780228793621063,0.01839125156402588,0.19510728120803833,-0.05265408381819725,-0.07740037424664686,1.513537031601389,2.61665053542842,0.9953720569610596,0.07732311636209488,-0.057056672871112823, 264, 196, 146, 231
1730928349139,9i,8.131979306047176,0.9s : 0.3s,-20.104916809298217,0.03573133912835794,1.092415334533651,0.20484670869941327,1.4732884168624878,0.017112141475081444,0.10023889690637589,0.0003891587257385254,0.19910481572151184,-0.04815905913710594,-0.07533465433169771,1.5126021310270907,2.6016417306808632,0.9954756498336792,0.07526341825723648,-0.05799638852477074, 264, 196, 146, 231
1730928349149,9i,8.131979306047176,0.9s : 0.3s,-20.104916809298217,0.037561363908307464,1.0692869245291083,0.246731611862295,1.513465166091919,0.009073656983673573,0.07045649737119675,-0.02275407314300537,0.23659050464630127,-0.06620931625366211,-0.07361078005826392,1.5116431045077154,2.586798468885997,0.9955475926399231,0.07354432344436646,-0.05895863100886345, 264, 196, 146, 231
1730928349159,9i,8.131979306047176,0.9s : 0.3s,-20.104916809298217,0.04056748569093797,1.0558098810319947,0.33031800068029865,1.5304051637649536,0.015986112877726555,0.0053017633035779,-0.04888373613357544,0.30717065930366516,-0.11120498180389404,-0.07230206484612811,1.5106654251158673,2.5715210304602967,0.9955847263336182,0.07223908603191376,-0.05993766337633133, 264, 196, 146, 231
1730928349169,9i,8.131979306047176,0.9s : 0.3s,-20.104916809298217,0.04479490168029124,1.0425715868947802,0.37605261172693394,1.5133934020996094,-0.011346440762281418,-0.09069614112377167,-0.08596181869506836,0.3482677936553955,-0.11285245418548584,-0.07182261759512377,1.509578855193352,2.556272895917829,0.9955534338951111,0.0717608854174614,-0.061021510511636734, 264, 196, 146, 231
1730928349179,9i,8.131979306047176,0.9s : 0.3s,-20.104916809298217,0.05009786891082391,1.0336977755980952,0.40736022196612914,1.506861925125122,-0.044159915298223495,-0.1623353362083435,-0.119742751121521,0.3784581124782562,-0.091506727039814,-0.07216601672990355,1.5082144990668656,2.541096148479703,0.9954447746276855,0.07210339605808258,-0.062378209084272385, 264, 196, 146, 231
1730928349189,9i,8.131979306047176,0.9s : 0.3s,-20.104916809298217,0.05633790776471214,1.028581738328708,0.4154275851424064,1.4944467544555664,-0.040600866079330444,-0.2251979261636734,-0.1149524450302124,0.3870464563369751,-0.09778064489364624,-0.07313222144438344,1.50667957054789,2.525917956354273,0.9952777624130249,0.07306704670190811,-0.06390157341957092, 264, 196, 146, 231
1730928349199,9i,8.131979306047176,0.9s : 0.3s,-20.104916809298217,0.06332946718973942,1.0246263826506963,0.40746188248757853,1.4762547016143799,-0.035826440900564194,-0.3114759624004364,-0.1323387622833252,0.3685658574104309,-0.11256485432386398,-0.07484805628285358,1.5051977861412085,2.510885110730096,0.9950553178787231,0.07477819174528122,-0.06536796689033508, 264, 196, 146, 231
1730928349209,9i,8.131979306047176,0.9s : 0.3s,-20.104916809298217,0.07100501156178117,1.0238539535722413,0.4309868253988176,1.4910658597946167,-0.0529596209526062,-0.4123474359512329,-0.17788732051849365,0.37499693036079407,-0.11611652374267578,-0.07748840694352871,1.503631732096807,2.495853860957985,0.9947513341903687,0.07741088420152664,-0.06691271811723709, 264, 196, 146, 231
1730928349219,9i,8.131979306047176,0.9s : 0.3s,-20.104916809298217,0.07943168211894923,1.041522313231544,0.4722588182012738,1.5645891427993774,-0.05210243538022041,-0.497365266084671,-0.20352280139923096,0.406688392162323,-0.12732404470443726,-0.08097939612306428,1.501856103915749,2.48024565879033,0.9943552613258362,0.08089091628789902,-0.06865988671779633, 264, 196, 146, 231
1730928349229,9i,8.131979306047176,0.9s : 0.3s,-20.104916809298217,0.08863825594323153,1.0754691212389509,0.5041205878260917,1.6377246379852295,-0.045793939381837845,-0.5959690809249878,-0.21527403593063354,0.4302597641944885,-0.15056955814361572,-0.08530074917976839,1.5000107708081631,2.463866996116637,0.9938689470291138,0.0851973444223404,-0.07046930491924286, 264, 196, 146, 231
1730928349239,9i,8.131979306047176,0.9s : 0.3s,-20.104916809298217,0.09859165481229364,1.1266372865702399,0.5331687387624681,1.7365814447402954,-0.06172359362244606,-0.7031919360160828,-0.23843973875045776,0.4485873281955719,-0.16181719303131104,-0.09056842458201916,1.4979674365471989,2.446504846933725,0.9932615160942078,0.0904446616768837,-0.07246629893779755, 264, 196, 146, 231
1730928349249,9i,8.131979306047176,0.9s : 0.3s,-20.104916809298217,0.1093210341180764,1.1868505103737128,0.5713875602245719,1.821867823600769,-0.08119956403970718,-0.7994878888130188,-0.26977241039276123,0.47266754508018494,-0.17404592037200928,-0.09675822947858487,1.4955333207762125,2.428090021491838,0.9925049543380737,0.09660732001066208,-0.07484026998281479, 264, 196, 146, 231
1730928349259,9i,8.131979306047176,0.9s : 0.3s,-20.104916809298217,0.12069695145842084,1.2422040592333092,0.5829824743538743,1.8470426797866821,-0.09059204161167145,-0.8977867960929871,-0.2738769054412842,0.47944700717926025,-0.18705767393112183,-0.10380815497834503,1.4927523532386524,2.409023500421792,0.9915892481803894,0.10362181067466736,-0.07754506915807724, 264, 196, 146, 231
1730928349269,9i,8.131979306047176,0.9s : 0.3s,-20.104916809298217,0.13239439855053062,1.297628165808632,0.5658717453421159,1.8836398124694824,-0.09301018714904785,-1.0069228410720825,-0.27828872203826904,0.46261075139045715,-0.1695803999900818,-0.11181024212649766,1.489736522001264,2.389584200192529,0.9904926419258118,0.11157742142677307,-0.08046545833349228, 264, 196, 146, 231
1730928349279,9i,8.131979306047176,0.9s : 0.3s,-20.104916809298217,0.1442692322683788,1.3616144079136667,0.5672776100519009,1.9608803987503052,-0.10475974529981613,-1.1211434602737427,-0.29191434383392334,0.45865675806999207,-0.1619378924369812,-0.12081475901520201,1.4864296878714818,2.3694436644291685,0.9891799092292786,0.12052106857299805,-0.08365234732627869, 264, 196, 146, 231
1730928349289,9i,8.131979306047176,0.9s : 0.3s,-20.104916809298217,0.15658440111234123,1.4306632665570045,0.6051840236034124,2.0283987522125244,-0.1346774399280548,-1.239233374595642,-0.3001106381416321,0.49557551741600037,-0.17488914728164673,-0.13086577054861476,1.4825955863214544,2.3483271090521334,0.9875953197479248,0.13049255311489105,-0.08733322471380234, 264, 196, 146, 231
1730928349299,9i,8.131979306047176,0.9s : 0.3s,-20.104916809298217,0.1693614694517933,1.4961577442829175,0.6272036772815892,2.0489652156829834,-0.15979841351509094,-1.3650829792022705,-0.300359845161438,0.5222857594490051,-0.17431581020355225,-0.14199399295467,1.4781798314397028,2.3266603497648912,0.985693097114563,0.14151732623577118,-0.09155336767435074, 264, 196, 146, 231
1730928349309,9i,8.131979306047176,0.9s : 0.3s,-20.104916809298217,0.18226198242616723,1.5696316485408577,0.6073438131724183,2.1229348182678223,-0.1778613030910492,-1.4958971738815308,-0.2853604555130005,0.5089262127876282,-0.1686120629310608,-0.15426733153698943,1.473172753857336,2.304301086256854,0.9834195375442505,0.15365616977214813,-0.09631108492612839, 264, 196, 146, 231
1730928349319,9i,8.131979306047176,0.9s : 0.3s,-20.104916809298217,0.19551825718494864,1.650943265699532,0.6326308045545977,2.209005832672119,-0.21433058381080627,-1.6237581968307495,-0.2804306149482727,0.5333273410797119,-0.19272351264953613,-0.16759032252068215,1.4674882473693198,2.280872022529148,0.9807327389717102,0.1668069213628769,-0.10167960077524185, 264, 196, 146, 231
1730928349329,9i,8.131979306047176,0.9s : 0.3s,-20.104916809298217,0.20929788919930686,1.7326231902227356,0.6717140654918689,2.2617640495300293,-0.2549118101596832,-1.7530109882354736,-0.27443772554397583,0.5715417861938477,-0.22186416387557983,-0.18200962124620165,1.46088494701159,2.2564693394243323,0.9775474071502686,0.18100635707378387,-0.10787834227085114, 264, 196, 146, 231
1730928349339,9i,8.131979306047176,0.9s : 0.3s,-20.104916809298217,0.2234305859663799,1.8107695834503346,0.6698896500869722,2.2927048206329346,-0.31047797203063965,-1.8742010593414307,-0.2511866092681885,0.5776485204696655,-0.22799038887023926,-0.19745091069087095,1.4533287757509301,2.231334459515723,0.9738122820854187,0.1961704045534134,-0.11492040753364563, 264, 196, 146, 231
1730928349349,9i,8.131979306047176,0.9s : 0.3s,-20.104916809298217,0.23758891748333155,1.8800969107433898,0.6453254805516065,2.2876193523406982,-0.3598122298717499,-1.9865736961364746,-0.2118883728981018,0.5695933699607849,-0.21705226600170135,-0.2138316971550878,1.444747058914101,2.2056750853448728,0.9694718718528748,0.21220587193965912,-0.12285255640745163, 264, 196, 146, 231
1730928349359,9i,8.131979306047176,0.9s : 0.3s,-20.104916809298217,0.2517156229043507,1.9423425053977568,0.6253404349381713,2.262259006500244,-0.4202193021774292,-2.109067440032959,-0.16898614168167114,0.5638230443000793,-0.21118219196796417,-0.2311685790608303,1.435146313985083,2.179802014695903,0.9644574522972107,0.22911517322063446,-0.1316370666027069, 264, 196, 146, 231
1730928349369,9i,8.131979306047176,0.9s : 0.3s,-20.104916809298217,0.2657982558357184,2.003722303030322,0.6246422533801758,2.256679058074951,-0.4874257445335388,-2.230747699737549,-0.13892269134521484,0.573985755443573,-0.20351605117321014,-0.2494866620183906,1.4243782912928358,2.153666599566804,0.9586705565452576,0.24690654873847961,-0.14137840270996094, 264, 196, 146, 231
1730928349379,9i,8.131979306047176,0.9s : 0.3s,-20.104916809298217,0.2798633092407643,2.0683140241473823,0.6449240859571671,2.2915799617767334,-0.5450996160507202,-2.3328447341918945,-0.10231798887252808,0.6054168939590454,-0.19730304181575775,-0.26858929343778076,1.4123218987395818,2.126832911237458,0.9520646333694458,0.26537156105041504,-0.15215377509593964, 264, 196, 146, 231
1730928349389,9i,8.131979306047176,0.9s : 0.3s,-20.104916809298217,0.29389731177079853,2.1397411590918796,0.6555522731993569,2.338883638381958,-0.599368155002594,-2.4556190967559814,-0.0639503002166748,0.6227300763130188,-0.1945928931236267,-0.2884015267348974,1.3989623818067576,2.098948347566206,0.9445807933807373,0.2844201326370239,-0.16392765939235687, 264, 196, 146, 231
1730928349399,9i,8.131979306047176,0.9s : 0.3s,-20.104916809298217,0.3078676713362157,2.2077669534552675,0.6398531193961203,2.3276162147521973,-0.6677422523498535,-2.574586868286133,-0.03514653444290161,0.6095724105834961,-0.19130659103393555,-0.3089865347007163,1.3841776549377296,2.070206095584056,0.9361017346382141,0.3040933310985565,-0.17675071954727173, 264, 196, 146, 231
1730928349409,9i,8.131979306047176,0.9s : 0.3s,-20.104916809298217,0.3217520776289689,2.2686725850167755,0.6380551487007057,2.2844350337982178,-0.7347527146339417,-2.6863739490509033,0.0003071427345275879,0.6102399826049805,-0.18633690476417542,-0.3303520425346639,1.3679933646692437,2.0410195850627497,0.926542341709137,0.32437604665756226,-0.19052475690841675, 264, 196, 146, 231
1730928349419,9i,8.131979306047176,0.9s : 0.3s,-20.104916809298217,0.33552551293585753,2.327457158266872,0.638305781416386,2.2790589332580566,-0.7988985776901245,-2.7781460285186768,0.03987455368041992,0.6146109104156494,-0.16762374341487885,-0.35228651064321903,1.3503623728267231,2.0112671409913836,0.9158748984336853,0.3450447916984558,-0.20522478222846985, 264, 196, 146, 231
1730928349429,9i,8.131979306047176,0.9s : 0.3s,-20.104916809298217,0.3491606705800113,2.3835158916914247,0.6425083592202732,2.2684683799743652,-0.8661755919456482,-2.8634285926818848,0.08811378479003906,0.6161051392555237,-0.1595851182937622,-0.37457190833281767,1.331176579084159,1.9807327367259704,0.9040736556053162,0.36587414145469666,-0.22087760269641876, 264, 196, 146, 231
1730928349439,9i,8.131979306047176,0.9s : 0.3s,-20.104916809298217,0.3626038737634931,2.439357904155471,0.6381389864602318,2.253889322280884,-0.9233686327934265,-2.964087724685669,0.14455902576446533,0.6035428643226624,-0.14852631092071533,-0.3972067500595632,1.3103879104097755,1.9493012872010866,0.8910549879074097,0.38684406876564026,-0.23742954432964325, 264, 196, 146, 231
1730928349449,9i,8.131979306047176,0.9s : 0.3s,-20.104916809298217,0.3756207393807236,2.496056185300149,0.6498871451354791,2.2597265243530273,-0.9761176109313965,-3.053983449935913,0.18423211574554443,0.6097781658172607,-0.12877273559570312,-0.42016022156796906,1.287999691697349,1.9168983761485967,0.8767572641372681,0.40790674090385437,-0.25477221608161926, 264, 196, 146, 231
1730928349459,9i,8.131979306047176,0.9s : 0.3s,-20.104916809298217,0.38810389528335304,2.5348497009135693,0.6784877363421344,2.1412081718444824,-1.0501105785369873,-3.1132194995880127,0.2313746213912964,0.6303646564483643,-0.09722033143043518,-0.44337660554159186,1.2639814524508322,1.8839292261034184,0.8611242771148682,0.42899203300476074,-0.2728206217288971, 264, 196, 146, 231
1730928349469,9i,8.131979306047176,0.9s : 0.3s,-20.104916809298217,0.3999296497745274,2.567906660475253,0.6862044742259941,2.053816080093384,-1.1384116411209106,-3.1801767349243164,0.30386340618133545,0.6126378774642944,-0.05673131346702576,-0.46666220224504035,1.2384062346679325,1.8506338161140914,0.8441927433013916,0.44990789890289307,-0.291413277387619, 264, 196, 146, 231
1730928349479,9i,8.131979306047176,0.9s : 0.3s,-20.104916809298217,0.4110647456281417,2.591964530849918,0.6908887067545099,1.911928415298462,-1.217950701713562,-3.249610424041748,0.36673396825790405,0.5839099884033203,-0.04338809847831726,-0.49018903761726096,1.211305002409795,1.8173478941380723,0.8258471488952637,0.470792680978775,-0.3103716969490051, 264, 196, 146, 231
1730928349489,9i,8.131979306047176,0.9s : 0.3s,-20.104916809298217,0.4215300904075942,2.617485261825397,0.6973741821353294,1.8044685125350952,-1.310302972793579,-3.329451322555542,0.41941124200820923,0.5564079284667969,-0.028899431228637695,-0.5140619304469991,1.1825897165402903,1.783965357828764,0.8059610724449158,0.49171823263168335,-0.3296058773994446, 264, 196, 146, 231
1730928349499,9i,8.131979306047176,0.9s : 0.3s,-20.104916809298217,0.43161636670156095,2.654492693973998,0.7414109539202113,1.786535620689392,-1.3935667276382446,-3.4144561290740967,0.4761437773704529,0.5676161646842957,-0.028092622756958008,-0.5381026209547788,1.1517428292584098,1.7495780971401693,0.7843847870826721,0.5125076770782471,-0.3493945896625519, 264, 196, 146, 231
1730928349509,9i,8.131979306047176,0.9s : 0.3s,-20.104916809298217,0.4417583236056604,2.69528271961828,0.8137645876064388,1.7754912376403809,-1.470571517944336,-3.4723308086395264,0.5358833074569702,0.6115283966064453,-0.03278574347496033,-0.5618750368963507,1.1185319073290565,1.7135339707030488,0.761174738407135,0.5327739119529724,-0.36981743574142456, 264, 196, 146, 231
1730928349519,9i,8.131979306047176,0.9s : 0.3s,-20.104916809298217,0.4521980579121766,2.7312373926702684,0.8565219848867149,1.7006279230117798,-1.5607320070266724,-3.515399932861328,0.5734726786613464,0.6353367567062378,-0.03325963020324707,-0.5851761540344355,1.0831148922368252,1.6761748593054147,0.7364333868026733,0.5523462295532227,-0.3906143009662628, 264, 196, 146, 231
1730928349529,9i,8.131979306047176,0.9s : 0.3s,-20.104916809298217,0.46274601593440956,2.759602532638219,0.8610329997897336,1.5950051546096802,-1.6363987922668457,-3.551051616668701,0.6070460677146912,0.6106318235397339,0.0012940168380737305,-0.6081058342070625,1.0456496888734834,1.6380231257656945,0.7101383805274963,0.5713138580322266,-0.41146549582481384, 264, 196, 146, 231
1730928349539,9i,8.131979306047176,0.9s : 0.3s,-20.104916809298217,0.4730700021600136,2.784676156906598,0.8500639239551352,1.5812015533447266,-1.6621588468551636,-3.5702359676361084,0.6408892869949341,0.556506335735321,0.046586424112319946,-0.6303702665018437,1.0063137255316303,1.5987322572960094,0.6824901700019836,0.5894439220428467,-0.43216079473495483, 264, 196, 146, 231
1730928349549,9i,8.131979306047176,0.9s : 0.3s,-20.104916809298217,0.48335713229383875,2.80979890707745,0.8496457961942567,1.5508627891540527,-1.7341164350509644,-3.5929982662200928,0.6434606909751892,0.551842451095581,0.05767345428466797,-0.6515717553617167,0.964777695137601,1.557743672481779,0.6535363793373108,0.6064369082450867,-0.45290663838386536, 264, 196, 146, 231
1730928349559,9i,8.131979306047176,0.9s : 0.3s,-20.104916809298217,0.4938777586024044,2.8230279514979655,0.8635255220516209,1.4080942869186401,-1.7895925045013428,-3.6027181148529053,0.6498027443885803,0.5662899017333984,0.05242583155632019,-0.6719809636258847,0.9212838131330932,1.5156674728046322,0.6232379674911499,0.6225374937057495,-0.4733090400695801, 264, 196, 146, 231
1730928349569,9i,8.131979306047176,0.9s : 0.3s,-20.104916809298217,0.5045798401426691,2.822274712369134,0.8337080366425559,1.2454835176467896,-1.809975266456604,-3.5926144123077393,0.6776566505432129,0.475247323513031,0.09995266795158386,-0.6918826475106655,0.8766224628094543,1.4734432582234844,0.5918440222740173,0.6379880309104919,-0.49263760447502136, 264, 196, 146, 231
1730928349579,9i,8.131979306047176,0.9s : 0.3s,-20.104916809298217,0.5152952861747757,2.8208932077371762,0.8190800668312608,1.1500211954116821,-1.8260366916656494,-3.6098670959472656,0.7091867923736572,0.3943844437599182,0.11138743162155151,-0.7112086644554372,0.8309158755079947,1.4307558182426365,0.5595052242279053,0.6527498960494995,-0.510755717754364, 264, 196, 146, 231
1730928349589,9i,8.131979306047176,0.9s : 0.3s,-20.104916809298217,0.5258715000669336,2.827021374583292,0.8512009263491943,1.1813071966171265,-1.860878825187683,-3.6293535232543945,0.739074170589447,0.4155350923538208,0.0751197338104248,-0.7293351335428062,0.7831549980971395,1.386292062431078,0.5260472893714905,0.6663740277290344,-0.5284126400947571, 264, 196, 146, 231
1730928349599,9i,8.131979306047176,0.9s : 0.3s,-20.104916809298217,0.5365635396945992,2.8417159999054316,0.9041564240900806,1.2072168588638306,-1.8996118307113647,-3.6538949012756348,0.7768164873123169,0.46257996559143066,0.008646368980407715,-0.7457225213661459,0.7329226842152298,1.3394317135590716,0.4914788007736206,0.6785027384757996,-0.5459694266319275, 264, 196, 146, 231
1730928349609,9i,8.131979306047176,0.9s : 0.3s,-20.104916809298217,0.5478293273699073,2.864905873097546,0.967527742295258,1.247389316558838,-1.9281731843948364,-3.696820020675659,0.8285840153694153,0.49836450815200806,-0.0345149040222168,-0.7601057949683732,0.6800394843687221,1.2900685002934724,0.4557482898235321,0.6889981031417847,-0.5635380744934082, 264, 196, 146, 231
1730928349619,9i,8.131979306047176,0.9s : 0.3s,-20.104916809298217,0.559785828103297,2.8923495155000962,1.0086375076715786,1.2944655418395996,-1.9806489944458008,-3.717390298843384,0.8716802597045898,0.5024017095565796,-0.07152390480041504,-0.7725895024833679,0.6247251453638366,1.2385134423781965,0.41883182525634766,0.6979919075965881,-0.5808504223823547, 264, 196, 146, 231
1730928349629,9i,8.131979306047176,0.9s : 0.3s,-20.104916809298217,0.5723423083679047,2.9255682423791627,1.0304451497531621,1.368638515472412,-2.0128700733184814,-3.755655288696289,0.9058553576469421,0.4809266924858093,-0.09976369142532349,-0.7825759962729403,0.5669442348958408,1.1846875381435493,0.38082677125930786,0.7051084041595459,-0.598158061504364, 264, 196, 146, 231
1730928349639,9i,8.131979306047176,0.9s : 0.3s,-20.104916809298217,0.585712935718068,2.962161278413252,1.0546125591178432,1.5321227312088013,-1.986741065979004,-3.787503957748413,0.9167121648788452,0.505262553691864,-0.12867093086242676,-0.7894450837469293,0.5070355470686948,1.1283340519521534,0.34197014570236206,0.7099626064300537,-0.6156375408172607, 264, 196, 146, 231
1730928349649,9i,8.131979306047176,0.9s : 0.3s,-20.104916809298217,0.6004645429683239,3.0111669568787116,1.106672218615651,1.7337050437927246,-2.1199541091918945,-3.776127576828003,0.9176702499389648,0.5956003665924072,-0.16692787408828735,-0.7923661652571206,0.44495707655891376,1.0700950197773023,0.30222418904304504,0.7120167016983032,-0.6337923407554626, 264, 196, 146, 231
1730928349659,9i,8.131979306047176,0.9s : 0.3s,-20.104916809298217,0.6165814467614874,3.047413910917596,1.136834802877554,1.6196315288543701,-2.1382391452789307,-3.820371627807617,0.9288033246994019,0.6288073062896729,-0.18525421619415283,-0.792034917607123,0.38148814087006866,1.0108247737479978,0.26150432229042053,0.7117840647697449,-0.6519039869308472, 264, 196, 146, 231
1730928349669,9i,8.131979306047176,0.9s : 0.3s,-20.104916809298217,0.6324576171281043,3.0700891709366354,0.9918003080653583,1.524731159210205,-2.1846179962158203,-3.816854953765869,0.8736903667449951,0.46557682752609253,-0.05975961685180664,-0.7904172133685654,0.31810112137453833,0.9520933438227409,0.22004440426826477,0.7106468677520752,-0.6682525277137756, 264, 196, 146, 231
1730928349679,9i,8.131979306047176,0.9s : 0.3s,-20.104916809298217,0.647686630480704,3.078654591434563,0.9532687059389627,1.3962262868881226,-2.2613883018493652,-3.780341863632202,0.868198037147522,0.3933640718460083,0.014768242835998535,-0.7871592405762435,0.25504667368292544,0.8945667239702045,0.1780819147825241,0.7083509564399719,-0.6830268502235413, 264, 196, 146, 231
1730928349689,9i,8.131979306047176,0.9s : 0.3s,-20.104916809298217,0.6626727121848314,3.078140140267634,0.9578212053295286,1.2424335479736328,-2.2865657806396484,-3.7788033485412598,0.8715139627456665,0.39639168977737427,-0.027540922164916992,-0.7826424251889604,0.1925093264970615,0.8383524144702181,0.13565771281719208,0.7051554918289185,-0.6959545612335205, 264, 196, 146, 231
1730928349699,9i,8.131979306047176,0.9s : 0.3s,-20.104916809298217,0.6773049947167784,3.0776804151947332,0.9054300511613412,1.214359164237976,-2.2856905460357666,-3.7881696224212646,0.8297432661056519,0.3605588674545288,-0.03642791509628296,-0.7767490472146433,0.13081660238196646,0.7830952794124275,0.09303202480077744,0.7009645700454712,-0.707102358341217, 264, 196, 146, 231
1730928349709,9i,8.131979306047176,0.9s : 0.3s,-20.104916809298217,0.6918740205995669,3.088956745493338,0.8941799835125969,1.324292540550232,-2.3130311965942383,-3.8038127422332764,0.8084446787834167,0.37742549180984497,-0.05937206745147705,-0.7679217222891398,0.06977473474196233,0.7285974799946889,0.05015214905142784,0.6946417093276978,-0.7176055312156677, 264, 196, 146, 231
1730928349719,9i,8.131979306047176,0.9s : 0.3s,-20.104916809298217,0.7068988423416587,3.1072206975978856,0.9641107863353467,1.4719158411026,-2.317758321762085,-3.807633638381958,0.8392801284790039,0.4595118761062622,-0.11818337440490723,-0.7554893792704006,0.009788010175587102,0.6752623434508432,0.007124932017177343,0.6856449842453003,-0.7279012203216553, 264, 196, 146, 231
1730928349729,9i,8.131979306047176,0.9s : 0.3s,-20.104916809298217,0.7228606892118965,3.1281620148209552,0.9920830898414245,1.5708461999893188,-2.366027355194092,-3.7901294231414795,0.8432164788246155,0.5098382234573364,-0.11523807048797607,-0.7394444390415201,-0.04855255907408883,0.6238833633560006,-0.035858627408742905,0.6738775372505188,-0.7379723191261292, 264, 196, 146, 231
1730928349739,9i,8.131979306047176,0.9s : 0.3s,-20.104916809298217,0.7391468972267858,3.14718069465533,0.9694695574161001,1.584075927734375,-2.405179977416992,-3.786569595336914,0.8450936675071716,0.46644890308380127,-0.09007406234741211,-0.7207992560769156,-0.1051387197418677,0.5748196091350316,-0.07884301245212555,0.659985363483429,-0.7471299767494202, 264, 196, 146, 231
1730928349749,9i,8.131979306047176,0.9s : 0.3s,-20.104916809298217,0.7556306166198729,3.1658997086978418,0.9663213651910838,1.5812638998031616,-2.4626805782318115,-3.7844552993774414,0.8734978437423706,0.4081270694732666,-0.06489062309265137,-0.7000704937151992,-0.16002525296884135,0.5280818126810837,-0.12186511605978012,0.6442716121673584,-0.7550252079963684, 264, 196, 146, 231
1730928349759,9i,8.131979306047176,0.9s : 0.3s,-20.104916809298217,0.772262558862242,3.1752927621814324,0.9674141183025949,1.5040022134780884,-2.488858699798584,-3.775216579437256,0.8857079744338989,0.38597822189331055,-0.04931807518005371,-0.6779598553295783,-0.213052585465502,0.48364474292381654,-0.16468435525894165,0.6272053718566895,-0.7612441182136536, 264, 196, 146, 231
1730928349769,9i,8.131979306047176,0.9s : 0.3s,-20.104916809298217,0.7890031680372884,3.17819112778151,0.9482610587542183,1.5159046649932861,-2.5249221324920654,-3.737755060195923,0.868887186050415,0.3790074586868286,-0.02423715591430664,-0.6543941476109124,-0.26401964789066307,0.4417444340451156,-0.20705243945121765,0.6086786389350891,-0.7659239768981934, 264, 196, 146, 231
1730928349779,9i,8.131979306047176,0.9s : 0.3s,-20.104916809298217,0.8057275961396538,3.1807547855331273,0.9308350543966897,1.531767725944519,-2.5621016025543213,-3.710151433944702,0.8512896299362183,0.3749202489852905,-0.03456401824951172,-0.6291888125805645,-0.31293866384794705,0.40254375360450745,-0.2489030808210373,0.5884891152381897,-0.7692384719848633, 264, 196, 146, 231
1730928349789,9i,8.131979306047176,0.9s : 0.3s,-20.104916809298217,0.8225415617251396,3.1799098744901,0.9343295367058505,1.503703236579895,-2.606288433074951,-3.6507763862609863,0.8612254858016968,0.36082279682159424,-0.03269946575164795,-0.6026962922529465,-0.3598071742623954,0.36612548655673555,-0.2900584042072296,0.5668657422065735,-0.7710572481155396, 264, 196, 146, 231
1730928349799,9i,8.131979306047176,0.9s : 0.3s,-20.104916809298217,0.8388843237711306,3.16921262938679,0.9132224500226653,1.3683720827102661,-2.659066915512085,-3.6145596504211426,0.8613142967224121,0.3034972548484802,0.001530289649963379,-0.575768325068262,-0.4050775604146165,0.33208697623970135,-0.3305525481700897,0.5444794297218323,-0.7708937525749207, 264, 196, 146, 231
1730928349809,9i,8.131979306047176,0.9s : 0.3s,-20.104916809298217,0.8545693068674856,3.1511017639918464,0.9007983149446425,1.1914098262786865,-2.7126502990722656,-3.5739083290100098,0.8700089454650879,0.23249739408493042,0.02161020040512085,-0.5492165557104978,-0.4492106103459078,0.2996915584895151,-0.3703904151916504,0.5220191478729248,-0.7683143615722656, 264, 196, 146, 231
1730928349819,9i,8.131979306047176,0.9s : 0.3s,-20.104916809298217,0.8699223141617601,3.1246263786793875,0.895925300994359,1.109246015548706,-2.709818124771118,-3.51139760017395,0.8709380626678467,0.20520749688148499,0.0451543927192688,-0.5229384756452116,-0.49199409449554365,0.2690254062001631,-0.409252792596817,0.49942806363105774,-0.7635992765426636, 264, 196, 146, 231
1730928349829,9i,8.131979306047176,0.9s : 0.3s,-20.104916809298217,0.8852740966322468,3.0966328949400004,0.9039457264892823,1.0161696672439575,-2.7116494178771973,-3.4762744903564453,0.8802685737609863,0.20218655467033386,0.03695553541183472,-0.49673178842091226,-0.5332953350284804,0.24000355703751108,-0.44693416357040405,0.47655487060546875,-0.757063627243042, 264, 196, 146, 231
1730928349839,9i,8.131979306047176,0.9s : 0.3s,-20.104916809298217,0.9006655580375527,3.070284128501468,0.9236292639052315,1.0369313955307007,-2.727937936782837,-3.40897536277771,0.9021291732788086,0.19757473468780518,0.014771461486816406,-0.46978410101224005,-0.5729882409790792,0.21306423372166242,-0.4834126830101013,0.45269379019737244,-0.7492533326148987, 264, 196, 146, 231
1730928349849,9i,8.131979306047176,0.9s : 0.3s,-20.104916809298217,0.9158374105523097,3.0371396398030135,0.9573998545564728,1.0306248664855957,-2.698734760284424,-3.335721731185913,0.9406614303588867,0.17684459686279297,0.02228325605392456,-0.44239523774099965,-0.6110528296668084,0.188313687412965,-0.5184964537620544,0.42810532450675964,-0.7401940822601318, 264, 196, 146, 231
1730928349859,9i,8.131979306047176,0.9s : 0.3s,-20.104916809298217,0.9309243618192867,3.001183976823829,0.9590132605430144,1.052120327949524,-2.671527862548828,-3.2656195163726807,0.9448162913322449,0.15885582566261292,0.04234898090362549,-0.41447927231377873,-0.6472444266145968,0.16570256258109378,-0.5519329309463501,0.4027133584022522,-0.7301999926567078, 264, 196, 146, 231
1730928349869,9i,8.131979306047176,0.9s : 0.3s,-20.104916809298217,0.9460272534859284,2.9631311328714496,0.9560228213740136,1.0152044296264648,-2.6851401329040527,-3.181401491165161,0.9427386522293091,0.13928911089897156,0.07630211114883423,-0.3865301063293751,-0.682141627313958,0.14503918506213817,-0.5839434862136841,0.37697678804397583,-0.7189565896987915, 264, 196, 146, 231
1730928349879,9i,8.131979306047176,0.9s : 0.3s,-20.104916809298217,0.9609877977129403,2.9138268607779896,1.0046213080474602,0.9320738315582275,-2.64715838432312,-3.0879299640655518,0.9955580234527588,0.10744163393974304,0.08114486932754517,-0.358876230057055,-0.7157265426132725,0.12601910410168626,-0.614362895488739,0.35122227668762207,-0.7065416574478149, 264, 196, 146, 231
1730928349889,9i,8.131979306047176,0.9s : 0.3s,-20.104916809298217,0.975752599380553,2.8558845454294124,1.0328888741205333,0.9056779146194458,-2.601046323776245,-2.97743821144104,1.0208191871643066,0.06668013334274292,0.1426231861114502,-0.3318322952639988,-0.7479397806241129,0.10851236262786008,-0.6430267691612244,0.3257759213447571,-0.693099319934845, 264, 196, 146, 231
1730928349899,9i,8.131979306047176,0.9s : 0.3s,-20.104916809298217,0.9903196412497725,2.7856387818231734,1.050516088679076,0.9057797789573669,-2.5225603580474854,-2.8440496921539307,1.032578945159912,0.03646606206893921,0.18982887268066406,-0.30516229999485533,-0.7784801735615062,0.09293738554099804,-0.6697553396224976,0.3004479706287384,-0.6790867447853088, 264, 196, 146, 231
1730928349909,9i,8.131979306047176,0.9s : 0.3s,-20.104916809298217,1.0044962111764062,2.6949419886301667,1.055458706134528,0.9296038746833801,-2.403862476348877,-2.6577322483062744,1.026461124420166,-0.016961097717285156,0.24511826038360596,-0.2791160395773958,-0.807018115726882,0.07956413023458626,-0.6942772269248962,0.27550601959228516,-0.6648876070976257, 264, 196, 146, 231
1730928349919,9i,8.131979306047176,0.9s : 0.3s,-20.104916809298217,1.017908068443146,2.578735595163696,1.0610398951718318,0.9053930640220642,-2.264158010482788,-2.4280588626861572,1.0053651332855225,-0.10149872303009033,0.3236427307128906,-0.25423790648149897,-0.8332785360833568,0.06855533364566649,-0.7163483500480652,0.25150787830352783,-0.6508369445800781, 264, 196, 146, 231
1730928349929,9i,8.131979306047176,0.9s : 0.3s,-20.104916809298217,1.030126468909593,2.4392661480963937,1.0845670180050644,0.8761486411094666,-2.107666015625,-2.1761386394500732,0.979783833026886,-0.2180933952331543,0.4107852578163147,-0.23108508906402175,-0.8572734772668956,0.05966550866774426,-0.7359635233879089,0.22903390228748322,-0.6371036171913147, 264, 196, 146, 231
1730928349939,9i,8.131979306047176,0.9s : 0.3s,-20.104916809298217,1.0408086918511348,2.2860232384791503,1.1359995611408633,0.901787281036377,-1.8756787776947021,-1.9882513284683228,0.9585950970649719,-0.35362619161605835,0.49652689695358276,-0.20969760398601645,-0.8788706532331682,0.05314748170339102,-0.7531507015228271,0.20816414058208466,-0.6240445971488953, 264, 196, 146, 231
1730928349949,9i,8.131979306047176,0.9s : 0.3s,-20.104916809298217,1.0497790017165578,2.1036523258459443,1.2260463294749375,0.7848758697509766,-1.721839427947998,-1.6440889835357666,0.9485655426979065,-0.49148690700531006,0.6015427112579346,-0.19105715423322672,-0.897932177479367,0.04772560981346432,-0.7678099274635315,0.18989692628383636,-0.6118881702423096, 264, 196, 146, 231
1730928349959,9i,8.131979306047176,0.9s : 0.3s,-20.104916809298217,1.0571222238301166,1.9073454825616283,1.2962090510500404,0.7244701981544495,-1.5196717977523804,-1.3653028011322021,0.928534746170044,-0.5935034155845642,0.6824476718902588,-0.17454272360247863,-0.9149050232701545,0.04407011696348729,-0.7804633975028992,0.1736578345298767,-0.6005995869636536, 264, 196, 146, 231
1730928349969,9i,8.131979306047176,0.9s : 0.3s,-20.104916809298217,1.06325541711038,1.6961978165830862,1.3311389110811949,0.677580714225769,-1.280892252922058,-1.0759843587875366,0.928312361240387,-0.6601876616477966,0.6887083649635315,-0.16047885195494874,-0.9290939712831525,0.042421319546971564,-0.7907847762107849,0.15979091823101044,-0.5908690690994263, 264, 196, 146, 231
1730928349979,9i,8.131979306047176,0.9s : 0.3s,-20.104916809298217,1.0681248759451372,1.473371669470135,1.4430380561964895,0.6751811504364014,-1.0238151550292969,-0.7663891315460205,0.922500729560852,-0.7875936031341553,0.7816953063011169,-0.14906107928720963,-0.9406216643518096,0.04232705425737912,-0.7989654541015625,0.1485096961259842,-0.5827512145042419, 264, 196, 146, 231
1730928349989,9i,8.131979306047176,0.9s : 0.3s,-20.104916809298217,1.0720124638874668,1.2412298964042445,1.5189189970572416,0.611018717288971,-0.7671348452568054,-0.46400558948516846,0.9056417346000671,-0.8482978343963623,0.8759673237800598,-0.14035364215697418,-0.9493731971468866,0.043974622432138344,-0.8050556778907776,0.1398932933807373,-0.5764678716659546, 264, 196, 146, 231
1730928349999,9i,8.131979306047176,0.9s : 0.3s,-20.104916809298217,1.0752997249434189,0.9940203919599905,1.596083799180307,0.5745240449905396,-0.46659183502197266,-0.09407225996255875,0.9113231301307678,-0.9062946438789368,0.9463633894920349,-0.13479076454839878,-0.9550742810845816,0.04716792970637338,-0.8089517951011658,0.13438297808170319,-0.5723094344139099, 264, 196, 146, 231
1730928350009,9i,8.131979306047176,0.9s : 0.3s,-20.104916809298217,1.0783304531744333,0.7448415110619205,1.6614792040300803,0.5502001047134399,-0.14794890582561493,0.28961095213890076,0.9106824398040771,-0.9507716298103333,1.0135107040405273,-0.13229421613031822,-0.9574296739573803,0.052449059216202,-0.8105694055557251,0.13190865516662598,-0.5705937743186951, 264, 196, 146, 231
1730928350019,9i,8.131979306047176,0.9s : 0.3s,-20.104916809298217,1.0813530868252421,0.511664675700659,1.7213662549101845,0.45618531107902527,0.21047472953796387,0.6995298266410828,0.9000405669212341,-0.9912480711936951,1.0818761587142944,-0.13338210553277785,-0.956208371111064,0.05952579130142754,-0.8097542524337769,0.13298696279525757,-0.5715002417564392, 264, 196, 146, 231
1730928350029,9i,8.131979306047176,0.9s : 0.3s,-20.104916809298217,1.084647677338146,0.40149296461099065,1.825639281665001,0.3971904516220093,0.5861191749572754,1.0953840017318726,0.9187769293785095,-1.0539000034332275,1.1739261150360107,-0.13826338696605722,-0.951078383649373,0.06820027522054171,-0.8062737584114075,0.13782328367233276,-0.5752628445625305, 264, 196, 146, 231
1730928350039,9i,8.131979306047176,0.9s : 0.3s,-20.104916809298217,1.0886393215199186,0.5260278413371435,1.9054005106495437,0.28003305196762085,0.9774765968322754,1.4905809164047241,0.9474014043807983,-1.0914283990859985,1.2416785955429077,-0.14677964922866055,-0.9417765580612264,0.07860932217022867,-0.7999098300933838,0.14625316858291626,-0.5820260047912598, 264, 196, 146, 231
1730928350049,9i,8.131979306047176,0.9s : 0.3s,-20.104916809298217,1.0937744030527288,0.8082178157536927,1.954520949020765,0.2629108130931854,1.37591552734375,1.9043242931365967,0.9804059863090515,-1.1083399057388306,1.2769255638122559,-0.1588885612455824,-0.9281582613026065,0.09098424849950487,-0.7904340028762817,0.15822087228298187,-0.5917602777481079, 264, 196, 146, 231
1730928350059,9i,8.131979306047176,0.9s : 0.3s,-20.104916809298217,1.1006200437500187,1.1360849078505841,1.9680838959059515,0.23554615676403046,1.7472256422042847,2.295941114425659,1.0339255332946777,-1.0890944004058838,1.272094964981079,-0.17404769033922748,-0.9100536749177701,0.10594060836397416,-0.7776082754135132,0.1731702983379364,-0.6044314503669739, 264, 196, 146, 231
1730928350069,9i,8.131979306047176,0.9s : 0.3s,-20.104916809298217,1.1095412767658182,1.4854420547438076,2.0172527957312325,0.15377140045166016,2.144831657409668,2.7110564708709717,1.1118810176849365,-1.1141220331192017,1.2616503238677979,-0.19239412152887295,-0.8874276287598294,0.1233366013310746,-0.7611424922943115,0.19120939075946808,-0.6197589039802551, 264, 196, 146, 231
1730928350079,9i,8.131979306047176,0.9s : 0.3s,-20.104916809298217,1.1209660298675268,1.8493830833987406,2.102941835753898,0.14696209132671356,2.555250883102417,3.120988130569458,1.2165491580963135,-1.1431670188903809,1.2788829803466797,-0.21380785067730343,-0.8598487575016384,0.14354722538916045,-0.7404900789260864,0.21218258142471313,-0.6376935243606567, 264, 196, 146, 231
1730928350089,9i,8.131979306047176,0.9s : 0.3s,-20.104916809298217,1.1354931733910847,2.235775884434151,2.178739398146585,0.17713864147663116,2.989262104034424,3.598289966583252,1.342111587524414,-1.1236478090286255,1.2973270416259766,-0.23782179207925716,-0.8267429935342113,0.16766749378359785,-0.7150211334228516,0.2355862855911255,-0.6582126617431641, 264, 196, 146, 231
1730928350099,9i,8.131979306047176,0.9s : 0.3s,-20.104916809298217,1.1536718837196493,2.642093634099723,2.283725874714944,0.22004243731498718,3.4577438831329346,4.08035135269165,1.4990818500518799,-1.1204816102981567,1.3086934089660645,-0.2641367612644609,-0.7873463056380982,0.1966161459623973,-0.6839115619659424,0.26107606291770935,-0.6812520027160645, 264, 196, 146, 231
1730928350109,9i,8.131979306047176,0.9s : 0.3s,-20.104916809298217,1.1759767193278503,3.0660479569811363,2.4639997376095915,0.18511241674423218,3.950580596923828,4.572826385498047,1.6871380805969238,-1.1715567111968994,1.3609976768493652,-0.2925802117218217,-0.7409737441950115,0.23056339707178233,-0.6463208198547363,0.2884237468242645,-0.70645672082901, 264, 196, 146, 231
1730928350119,9i,8.131979306047176,0.9s : 0.3s,-20.104916809298217,1.2030380684986288,3.511077927037736,2.6935934562090997,0.06964147835969925,4.4597086906433105,5.110527992248535,1.9167276620864868,-1.2379646301269531,1.4314483404159546,-0.3232780796397469,-0.6870300890380951,0.26989199299778904,-0.601389467716217,0.3176765441894531,-0.7330841422080994, 264, 196, 146, 231
1730928350129,9i,8.131979306047176,0.9s : 0.3s,-20.104916809298217,1.2357187866797676,3.985116326949792,2.937596904625051,-0.05209507793188095,5.042450428009033,5.674578666687012,2.190457582473755,-1.2612621784210205,1.4968596696853638,-0.3560969777756377,-0.6244674772393081,0.31522873921336436,-0.5479861497879028,0.348618745803833,-0.7603789567947388, 264, 196, 146, 231
1730928350139,9i,8.131979306047176,0.9s : 0.3s,-20.104916809298217,1.2749961013115223,4.506822026057631,3.2244975716764976,-0.19308815896511078,5.713740348815918,6.337564468383789,2.49822998046875,-1.252538800239563,1.6085329055786133,-0.3903358292842696,-0.5514088870864595,0.36815509558511544,-0.48448169231414795,0.380499005317688,-0.7877169847488403, 264, 196, 146, 231
1730928350149,9i,8.131979306047176,0.9s : 0.3s,-20.104916809298217,1.3221591454100334,5.094833166958739,3.5872986972005867,-0.47487348318099976,6.510787487030029,7.101025581359863,2.886030673980713,-1.213280200958252,1.7514251470565796,-0.42584890453875757,-0.4656512825956531,0.4303584439277833,-0.4089035093784332,0.41309401392936707,-0.8137267827987671, 264, 196, 146, 231
1730928350159,9i,8.131979306047176,0.9s : 0.3s,-20.104916809298217,1.3789602264450216,5.760636094863609,4.085003315343104,-0.8612057566642761,7.410979270935059,7.964686870574951,3.388305902481079,-1.1595892906188965,1.9651941061019897,-0.46230466914030205,-0.36459166558522327,0.5036295114531666,-0.319137841463089,0.446012020111084,-0.8361963629722595, 264, 196, 146, 231
1730928350169,9i,8.131979306047176,0.9s : 0.3s,-20.104916809298217,1.4473451080355126,6.4979383117732645,4.725949289597843,-1.3748551607131958,8.343155860900879,8.886948585510254,3.992490291595459,-1.1350963115692139,2.2596845626831055,-0.4982106066676887,-0.24560917211044783,0.5904498732377181,-0.21359005570411682,0.4778544306755066,-0.8520765900611877, 264, 196, 146, 231
1730928350179,9i,8.131979306047176,0.9s : 0.3s,-20.104916809298217,1.5289059136356697,7.2827990212934255,5.397108221719824,-1.9976130723953247,9.20058536529541,9.825756072998047,4.673167705535889,-1.1531109809875488,2.441437244415283,-0.5312498114533701,-0.10738056507021879,0.6928994074779334,-0.09240297973155975,0.5066112875938416,-0.8572086691856384, 264, 196, 146, 231
1730928350189,9i,8.131979306047176,0.9s : 0.3s,-20.104916809298217,1.6248817727992213,8.061136674889704,6.064362983161507,-2.5238211154937744,9.926486015319824,10.605961799621582,5.419836521148682,-1.1242188215255737,2.47749924659729,-0.5569948912460304,0.050058726457983586,0.8117332915295766,0.04247448220849037,0.528637707233429,-0.8477842211723328, 264, 196, 146, 231
1730928350199,9i,8.131979306047176,0.9s : 0.3s,-20.104916809298217,1.7371185591345877,8.740153512400772,6.880404308611754,-2.9367990493774414,10.386612892150879,10.994481086730957,6.345001697540283,-1.0201804637908936,2.4576714038848877,-0.5692246749401627,0.22204616337604058,0.9429180108481433,0.18550057709217072,0.5389791131019592,-0.8216392397880554, 264, 196, 146, 231
1730928350209,9i,8.131979306047176,0.9s : 0.3s,-20.104916809298217,1.8680937909723156,9.296003997994816,7.888924924162198,-4.060340881347656,10.552913665771484,11.105354309082031,7.436585903167725,-0.7590733766555786,2.5211374759674072,-0.5680854935469787,0.4009925423473919,1.0804882579434452,0.3290238380432129,0.5380192399024963,-0.7760661244392395, 264, 196, 146, 231
1730928350219,9i,8.131979306047176,0.9s : 0.3s,-20.104916809298217,2.0199737188532336,9.767181286819783,8.959033918334859,-5.994472503662109,10.481735229492188,11.075017929077148,8.554259300231934,-0.1438695788383484,2.658615827560425,-0.5594204000221279,0.5832444431870674,1.2240449181412736,0.46678242087364197,0.5306950211524963,-0.7074439525604248, 264, 196, 146, 231
1730928350229,9i,8.131979306047176,0.9s : 0.3s,-20.104916809298217,2.1941442880101207,10.185609414895065,10.086794514164662,-8.622613906860352,9.757353782653809,11.053956031799316,9.67534065246582,0.896341860294342,2.706986904144287,-0.5469691166436209,0.7665210168699178,1.3792494537464073,0.5924356579780579,0.5201009511947632,-0.6152357459068298, 264, 196, 146, 231
1730928350239,9i,8.131979306047176,0.9s : 0.3s,-20.104916809298217,2.391031457391557,10.58074897567929,11.312686010462958,-11.599696159362793,8.35936164855957,10.841267585754395,10.773530006408691,2.386392116546631,2.49259877204895,-0.5299781280120769,0.9462052049564368,1.551884958770236,0.6999199986457825,0.5055144429206848,-0.5045464038848877, 264, 196, 146, 231
1730928350249,9i,8.131979306047176,0.9s : 0.3s,-20.104916809298217,2.608531009290617,11.038370245446387,12.481880643401334,-14.895309448242188,6.254056930541992,10.50536823272705,11.488640785217285,4.428559303283691,2.048496961593628,-0.5061356867284552,1.1158627036341258,1.7458572134029733,0.7856665253639221,0.4848010540008545,-0.38431230187416077, 264, 196, 146, 231
1730928350259,9i,8.131979306047176,0.9s : 0.3s,-20.104916809298217,2.841738571466202,11.667573591469221,13.47158369877364,-17.719337463378906,3.829838752746582,10.514411926269531,11.4658842086792,6.8762922286987305,1.6533819437026978,-0.4682539744308077,1.2680466168836702,1.9613262765793176,0.8517733812332153,0.45132890343666077,-0.26605281233787537, 264, 196, 146, 231
1730928350269,9i,8.131979306047176,0.9s : 0.3s,-20.104916809298217,3.084209704939747,12.290135245908807,14.207821594435249,-18.81744384765625,0.9839386940002441,10.799490928649902,10.642751693725586,9.278202056884766,1.5839815139770508,-0.40924317564102763,1.3883815955505434,2.187777954563767,0.9022009968757629,0.3979151248931885,-0.16642479598522186, 264, 196, 146, 231
1730928350279,9i,8.131979306047176,0.9s : 0.3s,-20.104916809298217,3.3287294821778497,12.491347499645743,14.750060810749565,-16.563831329345703,-0.45253896713256836,11.183405876159668,9.006689071655273,11.520329475402832,1.9302473068237305,-0.32458858904211346,1.4617043352568,2.3934128024523744,0.9421477913856506,0.3189188838005066,-0.10319045931100845, 264, 196, 146, 231
1730928350289,9i,8.131979306047176,0.9s : 0.3s,-20.104916809298217,3.564462358162515,12.365257753727153,14.57926868214643,-15.0199556350708,-1.5625897645950317,10.644481658935547,6.500522613525391,12.932087898254395,1.7491093873977661,-0.22791525994212394,1.4933293937740053,2.5645346299528717,0.9712179899215698,0.22594718635082245,-0.07538814842700958, 264, 196, 146, 231
1730928350299,9i,8.131979306047176,0.9s : 0.3s,-20.104916809298217,3.78122449096999,12.1614264969357,13.414695654994716,-14.370461463928223,-3.2506890296936035,10.245369911193848,3.7168657779693604,12.778636932373047,1.6868332624435425,-0.132486231184171,1.4942563731054463,2.721523825237821,0.9883344173431396,0.132098987698555,-0.07579513639211655, 264, 196, 146, 231
1730928350309,9i,8.131979306047176,0.9s : 0.3s,-20.104916809298217,3.9740294582745017,11.938061542673783,10.628634173305569,-13.292764663696289,-5.1830220222473145,10.409196853637695,2.1751086711883545,10.330278396606445,1.233740210533142,-0.04235378028634015,1.4635550832426727,2.8717285190285997,0.993363618850708,0.042341120541095734,-0.10693982243537903, 264, 196, 146, 231
1730928350319,9i,8.131979306047176,0.9s : 0.3s,-20.104916809298217,4.138906986116343,11.066468121373969,6.042018969228471,-8.643244743347168,1.2481424808502197,10.884628295898438,2.0156302452087402,5.69498872756958,0.1016431599855423,0.04609455424455084,1.432756593873818,2.9844858396726797,0.9894354939460754,-0.046078234910964966,-0.13745559751987457, 264, 196, 146, 231
1730928350329,9i,8.131979306047176,0.9s : 0.3s,-20.104916809298217,4.293855382684969,10.602036404428496,5.638666974034871,-1.9178009033203125,-9.449629783630371,16.168415069580078,5.311855792999268,1.8909775018692017,-0.05438166856765747,0.19099526687978693,1.3495026962979093,3.0235022716911537,0.9578735828399658,-0.18983615934848785,-0.215500608086586, 264, 196, 146, 231
1730928350339,9i,8.131979306047176,0.9s : 0.3s,-20.104916809298217,4.476261828357158,12.609102787554832,13.55115777415774,-30.499588012695312,-2.710684299468994,4.067936897277832,13.335920333862305,-1.750795841217041,-1.6497938632965088,0.24663091818478586,1.2370476751801067,-3.06182849331722,0.9162312150001526,-0.2441382110118866,-0.31767451763153076, 264, 196, 146, 231
1730928350349,9i,8.131979306047176,0.9s : 0.3s,-20.104916809298217,4.635406567580456,14.01648289685818,10.066104912740176,-27.71954917907715,-7.916272163391113,-1.1615970134735107,4.533078193664551,-3.9094393253326416,8.092833518981934,0.14414455360442907,1.1372952770717717,-2.779070831450353,0.8980891108512878,-0.14364591240882874,-0.4156942665576935, 264, 196, 146, 231
1730928350359,9i,8.131979306047176,0.9s : 0.3s,-20.104916809298217,4.785767313727478,13.534099611184278,11.226766065055433,-15.115559577941895,-14.813613891601562,0.6993261575698853,1.7846543788909912,4.0391387939453125,10.321852684020996,0.03400308677134153,1.0101433561372843,-2.5865307058598073,0.8464184999465942,-0.03399653360247612,-0.5314319133758545, 264, 196, 146, 231
1730928350369,9i,8.131979306047176,0.9s : 0.3s,-20.104916809298217,4.976602002119646,11.929176780562752,14.247310550182467,-5.439074516296387,-14.82590103149414,2.5340113639831543,8.257527351379395,10.056459426879883,5.802303314208984,-0.013853689770334549,0.8592403478313934,-2.5028359949201806,0.7572740316390991,0.013853246346116066,-0.6529502868652344, 264, 196, 146, 231
1730928350379,9i,8.131979306047176,0.9s : 0.3s,-20.104916809298217,5.169993703122564,10.699770962575448,12.088439394637415,-2.8958425521850586,-14.046804428100586,2.9535634517669678,3.9744246006011963,10.519514083862305,4.435554027557373,-0.023960522078729445,0.7285401067279467,-2.4616919728570066,0.6655899286270142,0.023958230391144753,-0.7459329962730408, 264, 196, 146, 231
1730928350389,9i,8.131979306047176,0.9s : 0.3s,-20.104916809298217,5.329811938476423,10.325708676346423,7.734286108813484,-4.414717674255371,-14.343483924865723,2.8349764347076416,-0.4577200412750244,6.339367389678955,4.407050609588623,-0.035808203979078794,0.5866197821199061,-2.4191006867411664,0.5531942248344421,0.03580055385828018,-0.8322826623916626, 264, 196, 146, 231
1730928350399,9i,8.131979306047176,0.9s : 0.3s,-20.104916809298217,5.472099301244282,10.149927117263923,6.649750398074749,-6.840546131134033,-12.81438159942627,2.0187718868255615,1.418731927871704,3.19974946975708,5.65402364730835,-0.07272972697804557,0.45429365689356643,-2.3685079600767436,0.4376676380634308,0.07266562432050705,-0.8961957097053528, 264, 196, 146, 231
1730928350409,9i,8.131979306047176,0.9s : 0.3s,-20.104916809298217,5.595666109829287,9.679067078449112,6.912010901778636,-4.640903949737549,-12.20860767364502,1.0747182369232178,0.23574721813201904,2.5353171825408936,6.425922870635986,-0.12333579432439323,0.33248610122222455,-2.3319924401282845,0.32391461730003357,0.12302333861589432,-0.9380536079406738, 264, 196, 146, 231
1730928350419,9i,8.131979306047176,0.9s : 0.3s,-20.104916809298217,5.693496223281134,8.92955362811763,5.065824850861125,-2.1478824615478516,-10.985878944396973,0.7410880923271179,-1.3573338985443115,3.060851573944092,3.801501512527466,-0.15122632740789937,0.21860148156551465,-2.3132023167078524,0.21438954770565033,0.15065057575702667,-0.9650603532791138, 264, 196, 146, 231
1730928350429,9i,8.131979306047176,0.9s : 0.3s,-20.104916809298217,5.768832728032418,8.107129456254185,4.318106854412994,-0.7225819826126099,-9.821905136108398,-0.31290531158447266,-1.6556754112243652,2.4737672805786133,3.1281402111053467,-0.1650888802366977,0.1140743009984882,-2.3065374159800043,0.11227943748235703,0.16434000432491302,-0.979992687702179, 264, 196, 146, 231
1730928350439,9i,8.131979306047176,0.9s : 0.3s,-20.104916809298217,5.8226096307244495,7.445674844372847,4.335059390839926,-0.18195612728595734,-9.251394271850586,-0.3628162443637848,-2.380918502807617,1.662431001663208,3.218740463256836,-0.16930943187707725,0.017197259173940573,-2.3090922150330506,0.01695052720606327,0.16850169003009796,-0.9855555891990662, 264, 196, 146, 231
1730928350449,9i,8.131979306047176,0.9s : 0.3s,-20.104916809298217,5.858967762234013,6.931515060032081,3.6823758595893215,-1.3780893087387085,-8.526715278625488,-1.0285345315933228,-2.218048572540283,0.8068920969963074,2.82649564743042,-0.17593247961576386,-0.07638597911416965,-2.313778361627048,-0.07513374835252762,0.1750262975692749,-0.9816927909851074, 264, 196, 146, 231
1730928350459,9i,8.131979306047176,0.9s : 0.3s,-20.104916809298217,5.886822098753297,6.579845350249698,2.799189757973492,-1.9788620471954346,-8.342814445495605,-1.5209181308746338,-1.122185230255127,0.26153436303138733,2.5510318279266357,-0.1924561204415086,-0.17113010206267504,-2.3227793910206436,-0.16715194284915924,0.19127024710178375,-0.9672000408172607, 264, 196, 146, 231
1730928350469,9i,8.131979306047176,0.9s : 0.3s,-20.104916809298217,5.9109299859545805,6.428421751213374,2.0755946901694573,-2.2907044887542725,-8.69764232635498,-1.4222732782363892,-0.3578471839427948,0.09858730435371399,2.0421359539031982,-0.21131629263499174,-0.26470012272412463,-2.3384510137273304,-0.2558002769947052,0.2097470909357071,-0.943701446056366, 264, 196, 146, 231
1730928350479,9i,8.131979306047176,0.9s : 0.3s,-20.104916809298217,5.932094942492575,6.268809090723507,1.3876348190331453,-1.7073644399642944,-8.525477409362793,-1.5558608770370483,-0.07180944085121155,0.11988936364650726,1.3805797100067139,-0.22676033454656064,-0.35589163756379805,-2.359175866081268,-0.33950650691986084,0.22482198476791382,-0.9133402705192566, 264, 196, 146, 231
1730928350489,9i,8.131979306047176,0.9s : 0.3s,-20.104916809298217,5.949716130219727,6.041739571079982,0.7646491658732365,-1.0444378852844238,-8.015531539916992,-1.8582963943481445,-0.05253133177757263,0.23174451291561127,0.7267897129058838,-0.2326753207627095,-0.44348920297055694,-2.3806423425684695,-0.41753092408180237,0.23058158159255981,-0.8789198398590088, 264, 196, 146, 231
1730928350499,9i,8.131979306047176,0.9s : 0.3s,-20.104916809298217,5.96397009209141,5.80290596551337,0.27972469582068954,-0.5166547298431396,-7.601109027862549,-2.2076666355133057,0.1373368799686432,0.146330326795578,0.19486385583877563,-0.229943003626002,-0.5267681370471168,-2.4028170331829735,-0.4895097613334656,0.22792202234268188,-0.8416839241981506, 264, 196, 146, 231
1730928350509,9i,8.131979306047176,0.9s : 0.3s,-20.104916809298217,5.975573212119259,5.5624277307945915,0.4087516381317699,0.02572435513138771,-7.191357135772705,-2.435521364212036,0.27195578813552856,0.22370874881744385,-0.20753878355026245,-0.2195798761258953,-0.6053706504585676,-2.424274065323851,-0.5554030537605286,0.21781960129737854,-0.8025472164154053, 264, 196, 146, 231
1730928350519,9i,8.131979306047176,0.9s : 0.3s,-20.104916809298217,5.986480847609074,5.3388687248114275,0.7160310001527971,0.54896479845047,-6.851369380950928,-2.5434813499450684,0.599222719669342,0.19259710609912872,-0.3413779139518738,-0.2022886575512395,-0.6794662993026857,-2.4429230619328104,-0.6155648827552795,0.20091184973716736,-0.7620460987091064, 264, 196, 146, 231
1730928350529,9i,8.131979306047176,0.9s : 0.3s,-20.104916809298217,6.0006572918087855,5.164239751111609,1.322959591304876,0.714446485042572,-6.681154251098633,-2.5614402294158936,1.3203314542770386,-0.07638747990131378,-0.033344924449920654,-0.18062430035849697,-0.7499809180096024,-2.4581403354614304,-0.6705359220504761,0.17964375019073486,-0.7197983860969543, 264, 196, 146, 231
1730928350539,9i,8.131979306047176,0.9s : 0.3s,-20.104916809298217,6.0173209289526595,5.032445473247676,1.3740695154411435,0.7047938108444214,-6.560550689697266,-2.6194839477539062,1.3707998991012573,-0.05350598692893982,-0.07817786931991577,-0.15741151454178656,-0.8183661475345969,-2.471815242549433,-0.7210043668746948,0.1567622572183609,-0.6749653816223145, 264, 196, 146, 231
1730928350549,9i,8.131979306047176,0.9s : 0.3s,-20.104916809298217,6.036310009207553,4.970561024390437,1.4553731878396097,0.8352929353713989,-6.685901165008545,-2.6146883964538574,1.4540077447891235,-0.05727531015872955,-0.026308417320251465,-0.1325533254136561,-0.8861795170616426,-2.48325865383032,-0.7678658962249756,0.13216549158096313,-0.6268288493156433, 264, 196, 146, 231
1730928350559,9i,8.131979306047176,0.9s : 0.3s,-20.104916809298217,6.056948869675465,4.9459755702942765,1.564852132748787,0.925125777721405,-6.730792999267578,-2.6948704719543457,1.5436254739761353,0.0028615817427635193,-0.2568548321723938,-0.1062708715860031,-0.9545460593491404,-2.4925450683363453,-0.8114477396011353,0.10607095807790756,-0.5747185945510864, 264, 196, 146, 231
1730928350569,9i,8.131979306047176,0.9s : 0.3s,-20.104916809298217,6.079352459141532,4.903191615886725,1.6688847546247132,1.0824395418167114,-6.476639747619629,-2.930973768234253,1.6233785152435303,0.14636245369911194,-0.35832464694976807,-0.07742403194475798,-1.0214133900738946,-2.499688199694697,-0.8502919673919678,0.07734670490026474,-0.5205968022346497, 264, 196, 146, 231
1730928350579,9i,8.131979306047176,0.9s : 0.3s,-20.104916809298217,6.103644539330147,4.840309207010439,1.6680573252289004,1.6479952335357666,-6.107532024383545,-3.1655380725860596,1.6054960489273071,0.3314487934112549,-0.30812233686447144,-0.04422177211510182,-1.0845989818112094,-2.503098745259996,-0.8832517862319946,0.044207360595464706,-0.4668104946613312, 264, 196, 146, 231
1730928350589,9i,8.131979306047176,0.9s : 0.3s,-20.104916809298217,6.130858628719259,4.770820529760815,1.7886095795686914,2.3833961486816406,-5.726174831390381,-3.269559621810913,1.6877740621566772,0.568867027759552,-0.16411352157592773,-0.006465693738160694,-1.143594975359168,-2.499239424805825,-0.9101098775863647,0.006465648766607046,-0.41431665420532227, 264, 196, 146, 231
1730928350599,9i,8.131979306047176,0.9s : 0.3s,-20.104916809298217,6.162337245670687,4.7183007209045655,2.0079989347251685,3.074453115463257,-5.4342041015625,-3.2356932163238525,1.8454854488372803,0.7867029905319214,0.08568304777145386,0.03414608376027357,-1.1995463981247925,-2.4868142891084006,-0.9313313961029053,-0.034139446914196014,-0.36256903409957886, 264, 196, 146, 231
1730928350609,9i,8.131979306047176,0.9s : 0.3s,-20.104916809298217,6.197839626246905,4.7153362609651674,2.125749889966132,3.830289363861084,-5.287169933319092,-3.104443311691284,1.9414453506469727,0.8388860821723938,0.21417909860610962,0.07560661729763946,-1.254278000258252,-2.4648403497912166,-0.9476099610328674,-0.07553460448980331,-0.3103705048561096, 264, 196, 146, 231
1730928350619,9i,8.131979306047176,0.9s : 0.3s,-20.104916809298217,6.235871336489722,4.7234704501206375,2.1175896136628847,4.2262654304504395,-5.028108596801758,-3.0634419918060303,1.979662299156189,0.7368699312210083,0.14881417155265808,0.11662014448617519,-1.3089503203661406,-2.434651078862158,-0.9593527913093567,-0.11635597795248032,-0.2571057379245758, 264, 196, 146, 231
1730928350629,9i,8.131979306047176,0.9s : 0.3s,-20.104916809298217,6.274974026426864,4.726733542714669,1.9708801708416397,4.597826957702637,-4.6967387199401855,-2.985245704650879,1.8310134410858154,0.69438636302948,0.22267915308475494,0.15637224588472776,-1.3623666380065036,-2.3981778455185,-0.9664198160171509,-0.15573574602603912,-0.20439909398555756, 264, 196, 146, 231
1730928350639,9i,8.131979306047176,0.9s : 0.3s,-20.104916809298217,6.3142793000342285,4.725992660917916,1.8238672682979364,4.837635040283203,-4.451513767242432,-2.8596251010894775,1.6485772132873535,0.6672821044921875,0.4042518734931946,0.19358972306831926,-1.4153306301912525,-2.3565046573325636,-0.969484806060791,-0.1923827975988388,-0.1519477814435959, 264, 196, 146, 231
1730928350649,9i,8.131979306047176,0.9s : 0.3s,-20.104916809298217,6.353194123265335,4.695822218368364,1.7199761778401248,4.958445072174072,-4.211268901824951,-2.5680131912231445,1.5190060138702393,0.6232896447181702,0.5122975707054138,0.2268852151220287,-1.4683419429325881,-2.3102729841822685,-0.9692623019218445,-0.22494366765022278,-0.09965410828590393, 264, 196, 146, 231
1730928350659,9i,8.131979306047176,0.9s : 0.3s,-20.104916809298217,6.390411719056144,4.619583529888936,1.4887025986558473,5.037149429321289,-3.832803726196289,-2.246328592300415,1.2377333641052246,0.5998501777648926,0.5695887207984924,0.2545052915591949,-1.5202968468227571,-2.2608393408917657,-0.9665542840957642,-0.2517666518688202,-0.04885202273726463, 264, 196, 146, 231
1730928350669,9i,8.131979306047176,0.9s : 0.3s,-20.104916809298217,6.42501533280082,4.479119967431375,1.2801184132997403,4.787796974182129,-3.459670066833496,-2.041506290435791,1.0021343231201172,0.5008199214935303,0.6193620562553406,0.2760407357394,-1.569313325546313,-2.210687118506188,-0.9621410965919495,-0.2725484073162079,-0.001426857546903193, 264, 196, 146, 231
1730928350679,9i,8.131979306047176,0.9s : 0.3s,-20.104916809298217,6.456940717776358,4.314930750809412,1.1776618479616194,4.710220813751221,-3.1110305786132812,-1.7838808298110962,0.8356362581253052,0.44127070903778076,0.702765703201294,0.29403035624691876,-1.6160348450111026,-2.1608519040974503,-0.9561044573783875,-0.28981196880340576,0.04328228160738945, 264, 196, 146, 231
1730928350689,9i,8.131979306047176,0.9s : 0.3s,-20.104916809298217,6.4866444957562175,4.14657770168212,1.1350234736123568,4.6513800621032715,-2.81502628326416,-1.5466128587722778,0.7536503076553345,0.4629405736923218,0.7113195657730103,0.30735655059816774,-1.6603900140309333,-2.1109042098594237,-0.949313759803772,-0.302540123462677,0.08528082817792892, 264, 196, 146, 231
1730928350699,9i,8.131979306047176,0.9s : 0.3s,-20.104916809298217,6.514789171661286,4.003410469339024,1.123576155350879,4.721248149871826,-2.5734570026397705,-1.3057844638824463,0.7606635093688965,0.49268418550491333,0.6641360521316528,0.3163550498514096,-1.7026921337129137,-2.0604311651816265,-0.942121148109436,-0.31110456585884094,0.12498745322227478, 264, 196, 146, 231
1730928350709,9i,8.131979306047176,0.9s : 0.3s,-20.104916809298217,6.5418891520996505,3.877259009946962,1.131796097861749,4.736879825592041,-2.3856194019317627,-1.0393016338348389,0.7534738183021545,0.5148625373840332,0.6694446802139282,0.3206525818065347,-1.7435682403191008,-2.009073493212012,-0.9349007606506348,-0.31518593430519104,0.16315118968486786, 264, 196, 146, 231
1730928350719,9i,8.131979306047176,0.9s : 0.3s,-20.104916809298217,6.567574456090356,3.707232096563432,1.0355987175528338,4.438985347747803,-2.112468957901001,-0.8210137486457825,0.6732136607170105,0.4546937346458435,0.6422629356384277,0.32100273012536007,-1.7815998841373568,-1.9597250302751417,-0.9279133081436157,-0.31551823019981384,0.19855734705924988, 264, 196, 146, 231
1730928350729,9i,8.131979306047176,0.9s : 0.3s,-20.104916809298217,6.5914380934829255,3.507104014959718,0.9862736471761546,4.174371719360352,-1.790910243988037,-0.5973010063171387,0.4875601530075073,0.40306007862091064,0.7566791772842407,0.31817620480578795,-1.8153983456341867,-1.9138802341323495,-0.9215354919433594,-0.31283482909202576,0.2300151139497757, 264, 196, 146, 231
1730928350739,9i,8.131979306047176,0.9s : 0.3s,-20.104916809298217,6.6135650143334805,3.304112000977448,0.9817014755139766,3.9205288887023926,-1.6082152128219604,-0.4259512424468994,0.38128483295440674,0.37906983494758606,0.8213803768157959,0.31268320079251616,-1.8455767093181894,-1.8713873342606864,-0.9158154129981995,-0.3076128363609314,0.2581789195537567, 264, 196, 146, 231
1730928350749,9i,8.131979306047176,0.9s : 0.3s,-20.104916809298217,6.634326335042237,3.0940605194193442,0.9580434859416783,3.666811227798462,-1.3573853969573975,-0.27802249789237976,0.3574150800704956,0.38786569237709045,0.7997887134552002,0.3052743214593178,-1.8723421463640353,-1.832180828586395,-0.9107292294502258,-0.3005548119544983,0.2832648456096649, 264, 196, 146, 231
1730928350759,9i,8.131979306047176,0.9s : 0.3s,-20.104916809298217,6.653793445097525,2.890454071475829,0.9627804372998064,3.4811782836914062,-1.086720585823059,-0.10281311720609665,0.26509958505630493,0.4069480001926422,0.831301212310791,0.2960657324400787,-1.8952254266317807,-1.7960260842269584,-0.906594455242157,-0.2917593717575073,0.304898738861084, 264, 196, 146, 231
1730928350769,9i,8.131979306047176,0.9s : 0.3s,-20.104916809298217,6.6715794333567775,2.7010494087891677,0.9135663739046376,3.2964141368865967,-0.8891757726669312,0.021642254665493965,0.1413729190826416,0.37248966097831726,0.8221123218536377,0.2852471249598052,-1.914674456233133,-1.762472100214581,-0.9034120440483093,-0.2813946008682251,0.3235175311565399, 264, 196, 146, 231
1730928350779,9i,8.131979306047176,0.9s : 0.3s,-20.104916809298217,6.687494606408443,2.523553930252367,0.8256828715408701,3.105811834335327,-0.6993270516395569,0.06170854717493057,0.07501143217086792,0.3141390085220337,0.7598961591720581,0.2737843050227214,-1.931180376477769,-1.731422731318094,-0.9009085297584534,-0.27037671208381653,0.3394995927810669, 264, 196, 146, 231
1730928350789,9i,8.131979306047176,0.9s : 0.3s,-20.104916809298217,6.701600804512084,2.3708936579377315,0.7754245543789311,2.9994373321533203,-0.5045479536056519,0.08902937918901443,0.012914955615997314,0.2924496531486511,0.718045711517334,0.26213128983530926,-1.944898373962606,-1.7022409830015657,-0.899038553237915,-0.25913962721824646,0.35295340418815613, 264, 196, 146, 231
1730928350799,9i,8.131979306047176,0.9s : 0.3s,-20.104916809298217,6.713805227374565,2.2446938296607977,0.7123431783975137,2.9313056468963623,-0.30864202976226807,0.10891570895910263,-0.06734269857406616,0.28128308057785034,0.6509820222854614,0.2501621752556113,-1.956063722926573,-1.6740787137235924,-0.8978518843650818,-0.24756108224391937,0.3641088902950287, 264, 196, 146, 231
