timestamp,club,max_speed,tempo,w.rotation,l.speed,t.spped,acc,rotation.x,rotation.y,rotation.z,userAcceleration.x,userAcceleration.y,userAcceleration.z,pitch,roll,yaw,gravity.x,gravity.y,gravity.z,impactIndex,minDownIndex,StartIndex,endIndex
1730928434499,9i,9.126603312321299,1.0s : 0.3s,-25.085119343753718,0.000194624015226077,0.08428387430883207,0.08258315260580312,0.4738974869251251,0.02374931611120701,0.0077812327072024345,-0.008975625038146973,0.06023918092250824,-0.055773258209228516,-0.23044552729704168,1.5676639809117472,0.22973118062191714,0.9735598564147949,0.22841130197048187,-0.0030495361424982548, 314, 253, 180, 281
1730928434509,9i,9.126603312321299,1.0s : 0.3s,-25.085119343753718,0.0007603845760635541,0.1352474532251374,0.06076835224877132,0.4021383225917816,-0.0004425724036991596,0.009232322685420513,-0.007673323154449463,0.0451473742723465,-0.03994530439376831,-0.2303210839340227,1.5667503470792565,0.22523634332486608,0.9735851287841797,0.2282901406288147,-0.003939127083867788, 314, 253, 180, 281
1730928434519,9i,9.126603312321299,1.0s : 0.3s,-25.085119343753718,0.0013336521032986453,0.16343357290323032,0.03210984293391119,0.34819573163986206,-0.0017342055216431618,-0.005457141436636448,0.003756105899810791,0.01336224377155304,-0.02895486354827881,-0.2303064787894765,1.5658528327472887,0.22142369019297042,0.9735845327377319,0.22827592492103577,-0.004812948405742645, 314, 253, 180, 281
1730928434529,9i,9.126603312321299,1.0s : 0.3s,-25.085119343753718,0.0018755926701400686,0.18569319844745474,0.018673731471814673,0.3561110496520996,0.017399318516254425,-0.010659592226147652,-0.005430281162261963,0.0011850744485855103,-0.017827391624450684,-0.2303541846150968,1.5651278825981323,0.21785974491954357,0.973569929599762,0.228322371840477,-0.005518686026334763, 314, 253, 180, 281
1730928434539,9i,9.126603312321299,1.0s : 0.3s,-25.085119343753718,0.0025057541166397953,0.2136215983876909,0.04986435983413907,0.41642525792121887,0.014906334690749645,-0.026757068932056427,-0.021241843700408936,0.03781166672706604,-0.02460724115371704,-0.2305209503498702,1.5643960622807707,0.2138719255604605,0.9735275506973267,0.22848471999168396,-0.006230918690562248, 314, 253, 180, 281
1730928434549,9i,9.126603312321299,1.0s : 0.3s,-25.085119343753718,0.003410445186445475,0.23887517355750834,0.06989937688153464,0.4435977339744568,0.010733161121606827,-0.029755257070064545,-0.018143832683563232,0.0552600622177124,-0.0387691855430603,-0.23076391305965255,1.5635040437069954,0.20941250111389864,0.9734659790992737,0.2287212461233139,-0.007098915055394173, 314, 253, 180, 281
1730928434559,9i,9.126603312321299,1.0s : 0.3s,-25.085119343753718,0.004327614239892251,0.2521012871511449,0.049990538450252676,0.42040374875068665,0.006396469660103321,-0.04502182826399803,-0.0005297064781188965,0.033610329031944275,-0.037001609802246094,-0.23109052290906842,1.56256549626728,0.20494235494155402,0.9733842611312866,0.22903919219970703,-0.00801194179803133, 314, 253, 180, 281
1730928434569,9i,9.126603312321299,1.0s : 0.3s,-25.085119343753718,0.005218665653687795,0.25500270242477124,0.028391112130630353,0.3992635905742645,0.0022058081813156605,-0.05086420476436615,-0.009524703025817871,0.02159157395362854,-0.015784144401550293,-0.2315554764523098,1.561631664495413,0.20071816515002525,0.9732697606086731,0.22949175536632538,-0.00891993846744299, 314, 253, 180, 281
1730928434579,9i,9.126603312321299,1.0s : 0.3s,-25.085119343753718,0.00605184363800907,0.2457546645569464,0.021273201126487448,0.3307391107082367,-0.007991168648004532,-0.05800413712859154,-0.01843726634979248,0.010434508323669434,0.0019332179799675941,-0.23204445726903328,1.5607505161938313,0.19424237687038934,0.9731490612030029,0.22996766865253448,-0.009776400402188301, 314, 253, 180, 281
1730928434589,9i,9.126603312321299,1.0s : 0.3s,-25.085119343753718,0.006764348608871594,0.24358169885715222,0.009027734467119877,0.3359459936618805,-0.029345504939556122,-0.06568073481321335,-0.0058280229568481445,0.006878867745399475,-0.000464022159576416,-0.2326877294832405,1.5597783963964569,0.19088703748468105,0.9729910492897034,0.23059365153312683,-0.010720781050622463, 314, 253, 180, 281
1730928434599,9i,9.126603312321299,1.0s : 0.3s,-25.085119343753718,0.007471625969466911,0.24218535334412394,0.02951328421068235,0.33983340859413147,-0.030698124319314957,-0.0388062410056591,-0.009307861328125,0.025021657347679138,-0.01258230209350586,-0.23315813558894039,1.558650770235656,0.1873851829357313,0.9728698134422302,0.23105135560035706,-0.011816626414656639, 314, 253, 180, 281
1730928434609,9i,9.126603312321299,1.0s : 0.3s,-25.085119343753718,0.00818958303959157,0.23071730982783428,0.04108539378965044,0.3024567663669586,-0.02689424157142639,-0.02515268325805664,-0.001635730266571045,0.024249166250228882,-0.03312569856643677,-0.23341890185017555,1.5576042314169387,0.18406666282509154,0.9727966785430908,0.2313050478696823,-0.012833970598876476, 314, 253, 180, 281
1730928434619,9i,9.126603312321299,1.0s : 0.3s,-25.085119343753718,0.00886545977853009,0.21156215718080743,0.023102500297523768,0.2470715194940567,-0.02646467462182045,-0.019510775804519653,-0.006229698657989502,0.00019918382167816162,-0.022245824337005615,-0.23362499491090563,1.5566777465150543,0.18121425826422838,0.9727365970611572,0.23150555789470673,-0.013734572567045689, 314, 253, 180, 281
1730928434629,9i,9.126603312321299,1.0s : 0.3s,-25.085119343753718,0.009454399625418428,0.19146569094544708,0.03704028188164404,0.21427083015441895,-0.030412234365940094,-0.006243739277124405,-0.006978332996368408,-0.02834758162498474,-0.022796928882598877,-0.23370092045452975,1.5558323256252435,0.17886930036734597,0.9727070927619934,0.23157942295074463,-0.014556676149368286, 314, 253, 180, 281
1730928434639,9i,9.126603312321299,1.0s : 0.3s,-25.085119343753718,0.009919451828321763,0.1735987688462738,0.04767744273757631,0.19559834897518158,-0.018509235233068466,-0.009237132035195827,0.0027628540992736816,-0.04430609941482544,-0.01739180088043213,-0.23374572460653237,1.5550912428590578,0.1767408213804094,0.972685694694519,0.23162300884723663,-0.01527736708521843, 314, 253, 180, 281
1730928434649,9i,9.126603312321299,1.0s : 0.3s,-25.085119343753718,0.010309206289499594,0.18747771487231446,0.03777021624942753,0.18344061076641083,-0.3719084560871124,0.3243790864944458,-0.008641421794891357,-0.0333317369222641,-0.01552128791809082,-0.2333188586530957,1.5540483083931087,0.17492313069453122,0.9727679491043091,0.2312077283859253,-0.01629345864057541, 314, 253, 180, 281
1730928434659,9i,9.126603312321299,1.0s : 0.3s,-25.085119343753718,0.010628793914715112,0.35556482429735914,0.04071232059152829,0.14026783406734467,-0.8228519558906555,0.987334132194519,0.03901267051696777,-0.009607776999473572,-0.006572306156158447,-0.2336831418805394,1.5535530702526166,0.17334712551718903,0.9726755023002625,0.23156212270259857,-0.016773756593465805, 314, 253, 180, 281
1730928434669,9i,9.126603312321299,1.0s : 0.3s,-25.085119343753718,0.010892434294553055,0.3724182997361305,0.03232181414678148,0.11973194777965546,-0.3859366476535797,0.47477737069129944,-0.023281335830688477,-0.02090151607990265,0.008112071081995964,-0.23368546779996646,1.553139605585643,0.17156708709248272,0.9726679921150208,0.23156438767910004,-0.017175912857055664, 314, 253, 180, 281
1730928434679,9i,9.126603312321299,1.0s : 0.3s,-25.085119343753718,0.011084247733523908,0.2815058942795096,0.02500499228997435,0.21917304396629333,0.0001846908126026392,0.024853093549609184,-0.002111196517944336,-0.022663667798042297,0.010351359844207764,-0.23325389554828244,1.5523138942307808,0.16953298239712983,0.9727532267570496,0.231144517660141,-0.017980894073843956, 314, 253, 180, 281
1730928434689,9i,9.126603312321299,1.0s : 0.3s,-25.085119343753718,0.011250826291646594,0.23298916588999857,0.012676338412917699,0.2948848605155945,0.005086150020360947,0.026631087064743042,0.007065236568450928,0.005085185170173645,0.009214818477630615,-0.23290024805125364,1.5516956175639725,0.166862064682848,0.9728236198425293,0.23080043494701385,-0.018583880737423897, 314, 253, 180, 281
1730928434699,9i,9.126603312321299,1.0s : 0.3s,-25.085119343753718,0.011418717660909657,0.20942842839487022,0.01453901727820136,0.2966689169406891,0.005448606330901384,0.03378646820783615,-0.002790212631225586,0.013245910406112671,0.005305053666234016,-0.23258938454191175,1.5510419721980533,0.16384105948146688,0.972882866859436,0.23049795627593994,-0.019221173599362373, 314, 253, 180, 281
1730928434709,9i,9.126603312321299,1.0s : 0.3s,-25.085119343753718,0.011453353488651459,0.20569379213080471,0.03432524161575963,0.3085295557975769,0.022596700116991997,0.034696802496910095,0.02183365821838379,-0.019890636205673218,0.017489315941929817,-0.23219171022820675,1.5504555727021276,0.16073371190596994,0.9729630351066589,0.23011097311973572,-0.01979353092610836, 314, 253, 180, 281
1730928434719,9i,9.126603312321299,1.0s : 0.3s,-25.085119343753718,0.011244611297773854,0.20484694231730233,0.04167039601247239,0.34217992424964905,0.0351785384118557,0.03178250417113304,0.0002086162567138672,-0.03481663763523102,0.022894980385899544,-0.23180273970630008,1.549967162965387,0.15740120905961416,0.9730426669120789,0.2297324240207672,-0.02027059532701969, 314, 253, 180, 281
1730928434729,9i,9.126603312321299,1.0s : 0.3s,-25.085119343753718,0.011040387339465224,0.21130116523268586,0.009817628341822154,0.3562186360359192,0.03681553900241852,0.028216365724802017,-0.0025542378425598145,-0.00568583607673645,0.007585048675537109,-0.23142465812274468,1.5495040671912939,0.15382557655464849,0.9731199741363525,0.22936443984508514,-0.02072305418550968, 314, 253, 180, 281
1730928434739,9i,9.126603312321299,1.0s : 0.3s,-25.085119343753718,0.010887647063587655,0.2245652429721595,0.018187207427205886,0.38739708065986633,0.034392327070236206,0.03225984424352646,0.0036902427673339844,0.017252609133720398,-0.004416344687342644,-0.23105944455766408,1.5489810795092314,0.15002717176011465,0.9731926321983337,0.22900894284248352,-0.021233806386590004, 314, 253, 180, 281
1730928434749,9i,9.126603312321299,1.0s : 0.3s,-25.085119343753718,0.010749515315017465,0.24221753875970112,0.00973380248890181,0.42058151960372925,0.05021776258945465,0.05179290100932121,0.009182751178741455,0.003111124038696289,-0.0008630752563476562,-0.23053872761646765,1.5484371060491333,0.14589370505309512,0.9733001589775085,0.2285020351409912,-0.02176585979759693, 314, 253, 180, 281
1730928434759,9i,9.126603312321299,1.0s : 0.3s,-25.085119343753718,0.010610694549026503,0.2635531809363563,0.008520069627826024,0.4592791199684143,0.06661378592252731,0.07042916119098663,0.0032619833946228027,-0.007868379354476929,0.0001991409808397293,-0.22982645120697348,1.5480080477052867,0.1413694122268715,0.9734530448913574,0.22780853509902954,-0.022187160328030586, 314, 253, 180, 281
1730928434769,9i,9.126603312321299,1.0s : 0.3s,-25.085119343753718,0.01046923263063718,0.28137539255791516,0.00888140967815464,0.46831202507019043,0.08348198235034943,0.08514073491096497,-0.001659989356994629,-0.006679251790046692,0.005613507702946663,-0.2289500630101973,1.5476704654359004,0.13662407008703278,0.9736447334289551,0.2269551157951355,-0.022520387545228004, 314, 253, 180, 281
1730928434779,9i,9.126603312321299,1.0s : 0.3s,-25.085119343753718,0.010140714120012323,0.2966866179034801,0.04172666601539743,0.4763188362121582,0.10342320054769516,0.0995420441031456,0.003953397274017334,-0.030726701021194458,0.027952730655670166,-0.22791573580344762,1.5475189875240722,0.1318136004275529,0.9738755226135254,0.22594764828681946,-0.02267332561314106, 314, 253, 180, 281
1730928434789,9i,9.126603312321299,1.0s : 0.3s,-25.085119343753718,0.009520024842407503,0.3106940608592361,0.06177140715855419,0.492031067609787,0.11712165176868439,0.08684073388576508,0.0032576322555541992,-0.046650901436805725,0.04035824537277222,-0.22686023677549197,1.5475245210532653,0.12687459654119776,0.974113404750824,0.22491931915283203,-0.0226734708994627, 314, 253, 180, 281
1730928434799,9i,9.126603312321299,1.0s : 0.3s,-25.085119343753718,0.008852215714971523,0.3344319551407346,0.053610268687424745,0.5132434368133545,-0.27646133303642273,0.3685464560985565,-0.005990147590637207,-0.023022770881652832,0.048043012619018555,-0.22558424013248554,1.5470673959570314,0.12189883275201638,0.9743892550468445,0.22367583215236664,-0.023125555366277695, 314, 253, 180, 281
1730928434809,9i,9.126603312321299,1.0s : 0.3s,-25.085119343753718,0.008032584922313636,0.41443078002658096,0.07291270877035338,0.5152331590652466,-0.7102409601211548,0.6316208243370056,0.04677242040634155,0.0019173771142959595,0.05590105056762695,-0.22565503757919078,1.5471925745261752,0.11703081816379035,0.9743762016296387,0.22374483942985535,-0.02300320565700531, 314, 253, 180, 281
1730928434819,9i,9.126603312321299,1.0s : 0.3s,-25.085119343753718,0.007254096106458101,0.41416343298420133,0.05593676984145515,0.527075469493866,-0.21124926209449768,0.24450509250164032,-0.010410904884338379,0.006652921438217163,0.05455523729324341,-0.22481991100502008,1.5467617686622794,0.11164559654778505,0.9745526313781738,0.22293080389499664,-0.023427452892065048, 314, 253, 180, 281
1730928434829,9i,9.126603312321299,1.0s : 0.3s,-25.085119343753718,0.00656443934297368,0.3731241587395791,0.03682580533260318,0.4818682074546814,0.07328486442565918,0.07303004711866379,0.002091050148010254,0.017871007323265076,0.0321308970451355,-0.22408134303135466,1.5460551129003781,0.10623245435347735,0.9747003316879272,0.22221076488494873,-0.024120191112160683, 314, 253, 180, 281
1730928434839,9i,9.126603312321299,1.0s : 0.3s,-25.085119343753718,0.005911850284780544,0.3321674778697826,0.04653654921948389,0.39120885729789734,0.08655645698308945,0.04336802288889885,0.012477278709411621,-0.005155786871910095,0.04453521966934204,-0.22334715889398032,1.5458412732110385,0.10176111014227038,0.9748578667640686,0.2214948832988739,-0.02433268167078495, 314, 253, 180, 281
1730928434849,9i,9.126603312321299,1.0s : 0.3s,-25.085119343753718,0.005225500460539645,0.28585782782490815,0.06703212924835694,0.27668800950050354,0.08924292773008347,0.043277639895677567,-0.00656503438949585,-0.03773583471775055,0.05501103028655052,-0.222880364955327,1.5459605658741735,0.09837501800198475,0.9749640822410583,0.22103965282440186,-0.024218956008553505, 314, 253, 180, 281
1730928434859,9i,9.126603312321299,1.0s : 0.3s,-25.085119343753718,0.004605613070791843,0.23584331977542414,0.06749767783932538,0.157967209815979,0.08261006325483322,0.08929440379142761,-0.018731653690338135,-0.03628601133823395,0.053743716329336166,-0.22220745507387296,1.5463564132962158,0.09614647195186518,0.9751220941543579,0.22038334608078003,-0.023836646229028702, 314, 253, 180, 281
1730928434869,9i,9.126603312321299,1.0s : 0.3s,-25.085119343753718,0.004114822694703187,0.19009016723580738,0.06832808342554461,0.04858493059873581,0.04213857650756836,0.1839829385280609,-0.0031377077102661133,-0.0343320369720459,0.05899316072463989,-0.22144005250197601,1.546985998324549,0.09511224063706691,0.9753056168556213,0.2196347415447235,-0.02322673797607422, 314, 253, 180, 281
1730928434879,9i,9.126603312321299,1.0s : 0.3s,-25.085119343753718,0.0038080758013061245,0.18203262225100422,0.07844781674636563,0.016768144443631172,0.024857856333255768,0.27627745270729065,0.0034762024879455566,-0.04523329436779022,0.06399941444396973,-0.220586560381686,1.5478494991874854,0.09476545420534285,0.9755124449729919,0.21880200505256653,-0.022388845682144165, 314, 253, 180, 281
1730928434889,9i,9.126603312321299,1.0s : 0.3s,-25.085119343753718,0.003889680232636848,0.1866233007577498,0.07141061436531941,0.05200722813606262,0.0048913839273154736,0.36895233392715454,-0.005404829978942871,-0.034630611538887024,0.06221723556518555,-0.21965061152747078,1.5489927450959906,0.09435859787764184,0.9757416844367981,0.21788863837718964,-0.021278034895658493, 314, 253, 180, 281
1730928434899,9i,9.126603312321299,1.0s : 0.3s,-25.085119343753718,0.0043720497876083226,0.2199088992869227,0.04932215796147038,0.12155994027853012,-0.03511381894350052,0.4498961865901947,-0.009263098239898682,-0.00637856125831604,0.04802274703979492,-0.2187200297905317,1.5501737175663617,0.09333247711887528,0.9759683012962341,0.21698032319545746,-0.020129866898059845, 314, 253, 180, 281
1730928434909,9i,9.126603312321299,1.0s : 0.3s,-25.085119343753718,0.0050722414690398095,0.26606180507721056,0.028458783457860473,0.2284148782491684,-0.1029401421546936,0.5044286847114563,-0.0010056495666503906,0.00773504376411438,0.02736896276473999,-0.21797061186186886,1.551108309749839,0.09141350772729862,0.9761490821838379,0.21624870598316193,-0.019220922142267227, 314, 253, 180, 281
1730928434919,9i,9.126603312321299,1.0s : 0.3s,-25.085119343753718,0.005766278166321338,0.32583171405934547,0.024449885553814506,0.3687805235385895,-0.17769746482372284,0.5701216459274292,0.0008237361907958984,0.023875892162322998,-0.005201935768127441,-0.2175829382301027,1.551603418627547,0.08814914610461962,0.976242184638977,0.2158701866865158,-0.018739229068160057, 314, 253, 180, 281
1730928434929,9i,9.126603312321299,1.0s : 0.3s,-25.085119343753718,0.006021416977830088,0.39621568995082446,0.08382518773676673,0.46526750922203064,-0.24574722349643707,0.6578126549720764,-0.009107053279876709,0.060859501361846924,-0.056919634342193604,-0.2173210796951885,1.55170413362848,0.08357396363934587,0.9763005971908569,0.21561449766159058,-0.018641984090209007, 314, 253, 180, 281
1730928434939,9i,9.126603312321299,1.0s : 0.3s,-25.085119343753718,0.0058304464296489635,0.46066918377028176,0.12495030062702409,0.4084028899669647,-0.3378768861293793,0.7501718997955322,-0.013602972030639648,0.08120223879814148,-0.09398794174194336,-0.21705259074889754,1.5515850677410754,0.07872764662675129,0.9763562679290771,0.21535231173038483,-0.018759340047836304, 314, 253, 180, 281
1730928434949,9i,9.126603312321299,1.0s : 0.3s,-25.085119343753718,0.0054314284947454645,0.5108368692955663,0.09718022646868524,0.2265559881925583,-0.4226085841655731,0.8357481360435486,-0.015892207622528076,0.03120407462120056,-0.0906517505645752,-0.21682885208945474,1.551482204516701,0.07514121415639434,0.9764024019241333,0.21513381600379944,-0.018860701471567154, 314, 253, 180, 281
1730928434959,9i,9.126603312321299,1.0s : 0.3s,-25.085119343753718,0.00513327187062143,0.54834504490034,0.07729806971649468,0.012043430469930172,-0.47628435492515564,0.8811949491500854,-0.030140221118927002,-0.044924065470695496,-0.055212199687957764,-0.2168778055160052,1.5518481795830512,0.07364636987423441,0.9763986468315125,0.2151816189289093,-0.018503159284591675, 314, 253, 180, 281
1730928434969,9i,9.126603312321299,1.0s : 0.3s,-25.085119343753718,0.004942195518136384,0.5760972520854183,0.08354919492324661,-0.09926950931549072,-0.4861311912536621,0.8695681095123291,-0.05144983530044556,-0.05861920118331909,-0.029952824115753174,-0.2169016164555692,1.5525919718050467,0.07383926246795741,0.9764071106910706,0.2152048796415329,-0.01777682639658451, 314, 253, 180, 281
1730928434979,9i,9.126603312321299,1.0s : 0.3s,-25.085119343753718,0.004986262581975562,0.5963746614252899,0.04857006947185488,-0.18444937467575073,-0.49840039014816284,0.8433953523635864,-0.03981924057006836,-0.007153868675231934,-0.026875674724578857,-0.21684175796787727,1.5534101012954475,0.07505307632599233,0.9764341711997986,0.21514642238616943,-0.01697821542620659, 314, 253, 180, 281
1730928434989,9i,9.126603312321299,1.0s : 0.3s,-25.085119343753718,0.005259873044415767,0.6070666719356336,0.036775956963068575,-0.20824405550956726,-0.4925265610218048,0.802138090133667,-0.01746654510498047,0.02470114827156067,-0.02091038227081299,-0.21683158520463636,1.5542861819092448,0.07686568293178979,0.9764508605003357,0.21513648331165314,-0.016122810542583466, 314, 253, 180, 281
1730928434999,9i,9.126603312321299,1.0s : 0.3s,-25.085119343753718,0.005714774974874452,0.606577777950495,0.04036816062424788,-0.18035542964935303,-0.48248857259750366,0.7488415837287903,-0.012430071830749512,0.036845773458480835,-0.01083838939666748,-0.21697358680322623,1.5551907816451316,0.07866792836555714,0.9764345288276672,0.21527515351772308,-0.015239030122756958, 314, 253, 180, 281
1730928435009,9i,9.126603312321299,1.0s : 0.3s,-25.085119343753718,0.006335486162233153,0.6039488703251313,0.0639480376622214,-0.14275480806827545,-0.48606741428375244,0.7204320430755615,-0.013717472553253174,0.05896526575088501,-0.02059805579483509,-0.2172139098580735,1.555980840671728,0.08013058007049627,0.976394534111023,0.21550984680652618,-0.014466818422079086, 314, 253, 180, 281
1730928435019,9i,9.126603312321299,1.0s : 0.3s,-25.085119343753718,0.0071063583552124065,0.5930959723762663,0.07423374196447989,-0.15948691964149475,-0.48327189683914185,0.6841046810150146,-0.0007088780403137207,0.06811133027076721,-0.02951258420944214,-0.2173639502173244,1.556608982389309,0.0814700757498104,0.9763711094856262,0.2156563550233841,-0.013853042386472225, 314, 253, 180, 281
1730928435029,9i,9.126603312321299,1.0s : 0.3s,-25.085119343753718,0.007895793003546274,0.5775424971132602,0.04090662322972121,-0.22502756118774414,-0.47048652172088623,0.6296866536140442,0.0053386688232421875,0.032881662249565125,-0.02374124526977539,-0.2176422849804437,1.5572921609742563,0.08330097652165794,0.976320207118988,0.21592813730239868,-0.01318519189953804, 314, 253, 180, 281
1730928435039,9i,9.126603312321299,1.0s : 0.3s,-25.085119343753718,0.008679346258518628,0.562353893536738,0.023523252630592396,-0.2800104022026062,-0.4598914086818695,0.590175449848175,-0.01776301860809326,0.0012698471546173096,-0.015368997119367123,-0.2180440926936865,1.5581086887844908,0.08579644624962107,0.9762437343597412,0.2163204401731491,-0.01238689199090004, 314, 253, 180, 281
1730928435049,9i,9.126603312321299,1.0s : 0.3s,-25.085119343753718,0.009460893831043015,0.5498133586494484,0.03792243956724161,-0.313273161649704,-0.4609379470348358,0.5578270554542542,-0.020210981369018555,-0.0017887800931930542,-0.03203791379928589,-0.2184106536285005,1.5589113361780718,0.08873866173053145,0.9761740565299988,0.21667830646038055,-0.011602365411818027, 314, 253, 180, 281
1730928435059,9i,9.126603312321299,1.0s : 0.3s,-25.085119343753718,0.010227536718025542,0.5374863650278185,0.048016226687327974,-0.358734130859375,-0.4502275288105011,0.5153602957725525,-0.0047109127044677734,-0.003865271806716919,-0.04762798547744751,-0.21878704784241892,1.5596405880573685,0.09211707941157585,0.976100504398346,0.21704573929309845,-0.010889573954045773, 314, 253, 180, 281
1730928435069,9i,9.126603312321299,1.0s : 0.3s,-25.085119343753718,0.0109827533878721,0.5268364532169579,0.051957046884626594,-0.40267691016197205,-0.4387499690055847,0.47542479634284973,-0.007644832134246826,-0.010290563106536865,-0.050350725650787354,-0.21922617258594132,1.5604123202001474,0.09596166820769644,0.9760134816169739,0.21747438609600067,-0.010135294869542122, 314, 253, 180, 281
1730928435079,9i,9.126603312321299,1.0s : 0.3s,-25.085119343753718,0.011732678338598132,0.5243966108013928,0.05619477039302899,-0.4542485177516937,-0.4389808773994446,0.44201943278312683,-0.012918710708618164,-0.016945764422416687,-0.0519980788230896,-0.21963510445601633,1.5611300261299992,0.1002971153414396,0.9759314656257629,0.21787351369857788,-0.00943394098430872, 314, 253, 180, 281
1730928435089,9i,9.126603312321299,1.0s : 0.3s,-25.085119343753718,0.012453368678766428,0.5216615607232058,0.05933266602190623,-0.5221468806266785,-0.4228796660900116,0.3959197700023651,0.0004761815071105957,-0.02684924006462097,-0.05290800333023071,-0.22007340854242483,1.561826978602413,0.10526831748128071,0.9758422374725342,0.21830126643180847,-0.008752903901040554, 314, 253, 180, 281
1730928435099,9i,9.126603312321299,1.0s : 0.3s,-25.085119343753718,0.013131172044058245,0.51510117043593,0.04563238744990269,-0.5426383018493652,-0.38506677746772766,0.3527669906616211,-0.01012498140335083,-0.033189788460731506,-0.029635071754455566,-0.22061334652581802,1.5627295431515822,0.11071343712197204,0.9757314920425415,0.21882814168930054,-0.007871185429394245, 314, 253, 180, 281
1730928435109,9i,9.126603312321299,1.0s : 0.3s,-25.085119343753718,0.013788896058245726,0.49998613921296725,0.0349431194794831,-0.527151346206665,-0.3786013722419739,0.31816157698631287,-0.026477575302124023,-0.018672510981559753,-0.0130880456417799,-0.2211544285191538,1.5636602810956957,0.11622408993933174,0.9756197929382324,0.21935607492923737,-0.006962185725569725, 314, 253, 180, 281
1730928435119,9i,9.126603312321299,1.0s : 0.3s,-25.085119343753718,0.014430525396741991,0.4779067806386654,0.016597774798444945,-0.4727597236633301,-0.3599059581756592,0.26740971207618713,-0.007941365242004395,0.012204185128211975,-0.007967352867126465,-0.22178735881464165,1.5644009079189656,0.12133618897819588,0.9754859209060669,0.21997354924678802,-0.00623872596770525, 314, 253, 180, 281
1730928435129,9i,9.126603312321299,1.0s : 0.3s,-25.085119343753718,0.015058045586997897,0.44616420748212965,0.041625396435947065,-0.38486915826797485,-0.32722407579421997,0.24031993746757507,-0.005340576171875,0.04049576818943024,0.008015275001525879,-0.22245817747067392,1.5650188615769152,0.12574040212734866,0.9753417372703552,0.22062788903713226,-0.005635065492242575, 314, 253, 180, 281
1730928435139,9i,9.126603312321299,1.0s : 0.3s,-25.085119343753718,0.015673086918709434,0.4043721183830857,0.05180904217126786,-0.2703939974308014,-0.303798109292984,0.21414051949977875,-0.010858535766601562,0.04877099394798279,0.013698875904083252,-0.22304762299978953,1.5654643646406339,0.1290890445104557,0.9752139449119568,0.2212027758359909,-0.005199853330850601, 314, 253, 180, 281
1730928435149,9i,9.126603312321299,1.0s : 0.3s,-25.085119343753718,0.016279212912277005,0.3579054304639796,0.05462795035911809,-0.15569336712360382,-0.28760939836502075,0.1982414871454239,-0.006344497203826904,0.053588807582855225,0.008497059345245361,-0.22352109634943998,1.565587461855438,0.131257454087685,0.9751098155975342,0.22166448831558228,-0.005079261492937803, 314, 253, 180, 281
1730928435159,9i,9.126603312321299,1.0s : 0.3s,-25.085119343753718,0.016889957614432235,0.3100298141155354,0.05531893834598485,-0.06681995838880539,-0.25585946440696716,0.17441658675670624,0.0037732720375061035,0.05512814223766327,-0.0026144389994442463,-0.2238672590670381,1.5654494189419126,0.13236791666604236,0.9750323295593262,0.2220020294189453,-0.005213457625359297, 314, 253, 180, 281
1730928435169,9i,9.126603312321299,1.0s : 0.3s,-25.085119343753718,0.01751314751527735,0.2698463147222428,0.04490789541734181,-0.04519788920879364,-0.2280443012714386,0.1528070569038391,-0.002454698085784912,0.04379670321941376,-0.00961989164352417,-0.22412723539812904,1.5652786886391772,0.1329212817944427,0.9749735593795776,0.22225551307201385,-0.0053796060383319855, 314, 253, 180, 281
1730928435179,9i,9.126603312321299,1.0s : 0.3s,-25.085119343753718,0.018139854170217993,0.2382748703877277,0.03056346225347409,-0.08723588287830353,-0.2030249685049057,0.11252301931381226,-0.00992673635482788,0.026574596762657166,-0.011374354362487793,-0.22441941664343834,1.5651214613138398,0.13355411844412196,0.9749076962471008,0.22254037857055664,-0.005532529205083847, 314, 253, 180, 281
1730928435189,9i,9.126603312321299,1.0s : 0.3s,-25.085119343753718,0.018709983461338096,0.2176562362751913,0.008798238541898831,-0.1419445425271988,-0.18666210770606995,0.10220710188150406,-0.00838327407836914,0.002571508288383484,-0.0007190704345703125,-0.22470217108185192,1.565053687126578,0.13474762838908713,0.9748444557189941,0.22281603515148163,-0.005598241928964853, 314, 253, 180, 281
1730928435199,9i,9.126603312321299,1.0s : 0.3s,-25.085119343753718,0.01918012658909269,0.20448487343157187,0.030852840468734193,-0.20205767452716827,-0.16577067971229553,0.07896329462528229,-0.005230367183685303,-0.028229087591171265,0.011298656463623047,-0.22488296958937115,1.5650754905278765,0.13653615421191362,0.9748042821884155,0.22299228608608246,-0.0055767567828297615, 314, 253, 180, 281
1730928435209,9i,9.126603312321299,1.0s : 0.3s,-25.085119343753718,0.019560438302386372,0.18668403607717407,0.03802192673574152,-0.17176048457622528,-0.13296230137348175,0.058311283588409424,-0.008634030818939209,-0.03669656813144684,0.004947960376739502,-0.2250852680112617,1.5651409722071037,0.13852539936487296,0.9747594594955444,0.22318947315216064,-0.005512669216841459, 314, 253, 180, 281
1730928435219,9i,9.126603312321299,1.0s : 0.3s,-25.085119343753718,0.019916473989840273,0.15876842543434558,0.021570097477692923,-0.08442851155996323,-0.09324659407138824,0.06053236126899719,-0.01518160104751587,-0.01269499957561493,-0.008580505847930908,-0.22514840075219908,1.5652128909050036,0.13986428565387782,0.9747456908226013,0.22325101494789124,-0.005442486610263586, 314, 253, 180, 281
1730928435229,9i,9.126603312321299,1.0s : 0.3s,-25.085119343753718,0.0203050926288611,0.1248869593624409,0.03614042418073271,-0.006756089627742767,-0.05787164345383644,0.055655911564826965,-0.009965479373931885,0.006079345941543579,-0.03420323133468628,-0.22500132499520548,1.565232020820971,0.1403191189736496,0.9747786521911621,0.22310765087604523,-0.005424022674560547, 314, 253, 180, 281
1730928435239,9i,9.126603312321299,1.0s : 0.3s,-25.085119343753718,0.020742158980058267,0.0946147104353585,0.042670423248329425,0.029429078102111816,-0.050855278968811035,0.02764904499053955,-0.003212273120880127,0.005327403545379639,-0.04221451282501221,-0.22483347921582236,1.5651387991264452,0.14017929173933336,0.9748155474662781,0.22294403612613678,-0.005515105091035366, 314, 253, 180, 281
1730928435249,9i,9.126603312321299,1.0s : 0.3s,-25.085119343753718,0.021193860227263342,0.07137677371669537,0.039490952499270565,0.040376000106334686,-0.047438353300094604,0.005089209880679846,-0.0011402368545532227,-6.42240047454834e-06,-0.0394744873046875,-0.22481096066174422,1.5648168058699132,0.13982290183637486,0.9748188853263855,0.22292208671569824,-0.005829019472002983, 314, 253, 180, 281
1730928435259,9i,9.126603312321299,1.0s : 0.3s,-25.085119343753718,0.02162599879689037,0.054941760330840854,0.02478886217260628,0.015772122889757156,-0.03996073082089424,-0.015343626961112022,0.0013644695281982422,-0.006648540496826172,-0.02384161949157715,-0.2248782396731236,1.5643860831701966,0.13950472392192442,0.974801242351532,0.22298766672611237,-0.006248799152672291, 314, 253, 180, 281
1730928435269,9i,9.126603312321299,1.0s : 0.3s,-25.085119343753718,0.022025007406504354,0.049952457614610604,0.02053094482510726,-0.022864218801259995,-0.044970668852329254,-0.018987365067005157,0.0006906390190124512,-0.011967197060585022,-0.016668200492858887,-0.22505925853758302,1.5639456439747383,0.13954737990161123,0.9747580885887146,0.2231641262769699,-0.006677862722426653, 314, 253, 180, 281
1730928435279,9i,9.126603312321299,1.0s : 0.3s,-25.085119343753718,0.022378378571298357,0.04967727632833679,0.02018442424073797,-0.06299352645874023,-0.061887599527835846,-0.01750345155596733,0.0007950067520141602,-0.017408177256584167,-0.010185004211962223,-0.22524050316967692,1.5635088657360008,0.1399916869394186,0.9747146964073181,0.22334079444408417,-0.0071033211424946785, 314, 253, 180, 281
1730928435289,9i,9.126603312321299,1.0s : 0.3s,-25.085119343753718,0.022693068534505218,0.05918431160873089,0.029210918884637685,-0.10927101224660873,-0.08293509483337402,-0.003722391091287136,0.002671658992767334,-0.023266687989234924,-0.017458558082580566,-0.22522393056121934,1.5630342181166836,0.14090196662913784,0.9747147560119629,0.22332464158535004,-0.007565993815660477, 314, 253, 180, 281
1730928435299,9i,9.126603312321299,1.0s : 0.3s,-25.085119343753718,0.02298546550514848,0.06797706580642246,0.03298206900473402,-0.09807055443525314,-0.09141859412193298,0.0065049463883042336,0.008590638637542725,-0.018933728337287903,-0.02560335397720337,-0.2251931971644053,1.5623576235765755,0.14197429463794184,0.9747163653373718,0.2232946902513504,-0.008225536905229092, 314, 253, 180, 281
1730928435309,9i,9.126603312321299,1.0s : 0.3s,-25.085119343753718,0.02327590039362144,0.07334945070303615,0.03399961589292788,-0.10597428679466248,-0.08283309638500214,0.020774763077497482,0.009709656238555908,-0.010935172438621521,-0.03069394826889038,-0.2251118848760774,1.5614281961848995,0.1429427769268001,0.9747263193130493,0.22321543097496033,-0.009131630882620811, 314, 253, 180, 281
1730928435319,9i,9.126603312321299,1.0s : 0.3s,-25.085119343753718,0.023572679264577675,0.08529327484487305,0.033713072240029375,-0.15697595477104187,-0.07674244791269302,0.016499057412147522,0.004202723503112793,-0.011641323566436768,-0.03135901689529419,-0.22500664638097617,1.5604201143024174,0.1441660918769553,0.9747401475906372,0.22311283648014069,-0.010114474222064018, 314, 253, 180, 281
1730928435329,9i,9.126603312321299,1.0s : 0.3s,-25.085119343753718,0.023872720333105724,0.10298016111295337,0.021689421192909314,-0.2197909951210022,-0.055543284863233566,0.006520026363432407,-0.007981419563293457,-0.008586302399635315,-0.018248379230499268,-0.22494077058641798,1.5597436303514804,0.14599091417066404,0.9747477769851685,0.2230486273765564,-0.010774030350148678, 314, 253, 180, 281
1730928435339,9i,9.126603312321299,1.0s : 0.3s,-25.085119343753718,0.02415537877618531,0.12226106037071714,0.01223627720508965,-0.23934179544448853,-0.0756743922829628,0.017718885093927383,-0.011206984519958496,-0.004847779870033264,-0.0007931003347039223,-0.2248310575551185,1.5594473665464978,0.14834010545868448,0.9747690558433533,0.22294168174266815,-0.011063090525567532, 314, 253, 180, 281
1730928435349,9i,9.126603312321299,1.0s : 0.3s,-25.085119343753718,0.02440550278480145,0.14645576477090225,0.00614763752290893,-0.2906290888786316,-0.09076692163944244,-0.01883077062666416,-0.0008226633071899414,0.0008541792631149292,0.006032167933881283,-0.224710797314718,1.559035931648194,0.15097406453847362,0.9747912287712097,0.22282443940639496,-0.011464458890259266, 314, 253, 180, 281
1730928435359,9i,9.126603312321299,1.0s : 0.3s,-25.085119343753718,0.02464692820850322,0.1669162341357873,0.017424153896418458,-0.301326721906662,-0.10725268721580505,-0.0246585663408041,0.0015903115272521973,0.017234519124031067,0.002010820433497429,-0.22490638360514503,1.558668224743747,0.1540702111883401,0.9747433662414551,0.22301509976387024,-0.011822366155683994, 314, 253, 180, 281
1730928435369,9i,9.126603312321299,1.0s : 0.3s,-25.085119343753718,0.024876141595387077,0.16697419693845442,0.03171198369853088,-0.2286413460969925,-0.09969960898160934,-0.02371653914451599,-0.004792571067810059,0.027665257453918457,0.014741597697138786,-0.22499114078817,1.5580993651647814,0.15677190417230769,0.9747175574302673,0.22309772670269012,-0.012376616708934307, 314, 253, 180, 281
1730928435379,9i,9.126603312321299,1.0s : 0.3s,-25.085119343753718,0.02509139659880327,0.15499337007130629,0.038259916631171134,-0.16099944710731506,-0.10527067631483078,-0.012961097061634064,0.005781412124633789,0.03612528741359711,0.011196432635188103,-0.22507820089986344,1.5572589855936512,0.15870906770963522,0.9746874570846558,0.2231825888156891,-0.013195482082664967, 314, 253, 180, 281
1730928435389,9i,9.126603312321299,1.0s : 0.3s,-25.085119343753718,0.025347581734056508,0.1342654920823607,0.04404169623578011,-0.0858628898859024,-0.11371014267206192,0.0017281670588999987,0.009229660034179688,0.043054088950157166,-0.0009109377861022949,-0.22507681840791155,1.5561391721865623,0.1599034409646671,0.9746723175048828,0.22318124771118164,-0.014286945573985577, 314, 253, 180, 281
1730928435399,9i,9.126603312321299,1.0s : 0.3s,-25.085119343753718,0.025656808443845942,0.11807605830940057,0.04790558157535916,-0.07760229706764221,-0.10106918215751648,-0.0020687016658484936,0.015059173107147217,0.04453107714653015,-0.009227633476257324,-0.22500179034648862,1.5549659480995195,0.16066422526206087,0.9746716022491455,0.22310811281204224,-0.015430709347128868, 314, 253, 180, 281
1730928435409,9i,9.126603312321299,1.0s : 0.3s,-25.085119343753718,0.02600802757139982,0.09500251892576134,0.0504241794125817,-0.02665030211210251,-0.06557904928922653,-0.014887994155287743,-0.00021213293075561523,0.05028611421585083,0.003722846508026123,-0.22509313103913253,1.5541558422338513,0.16122853511674676,0.9746384024620056,0.22319714725017548,-0.016219953075051308, 314, 253, 180, 281
1730928435419,9i,9.126603312321299,1.0s : 0.3s,-25.085119343753718,0.026322659245260668,0.07016232270377243,0.06704301229719763,0.02695806510746479,-0.05294767767190933,-0.009338232688605785,-0.01917940378189087,0.05210122466087341,0.03758162260055542,-0.22518777489905892,1.5536237198779916,0.16121516247218792,0.9746085405349731,0.2232894003391266,-0.01673821546137333, 314, 253, 180, 281
1730928435429,9i,9.126603312321299,1.0s : 0.3s,-25.085119343753718,0.02664484334513013,0.06246060943005037,0.04759081787943315,0.08774138242006302,-0.0542089082300663,-0.010258320719003677,-0.004391729831695557,0.041843563318252563,0.022242186591029167,-0.22528558025283232,1.5530014790355249,0.16064123382351725,0.9745761752128601,0.22338473796844482,-0.017344264313578606, 314, 253, 180, 281
1730928435439,9i,9.126603312321299,1.0s : 0.3s,-25.085119343753718,0.02696087652980727,0.056182793150451084,0.04777935656360741,0.0921233519911766,-0.0553697794675827,0.004784277640283108,0.011856257915496826,0.04075537621974945,0.021938445046544075,-0.22535307531845467,1.5522795337928628,0.15967870585399035,0.9745481014251709,0.22345052659511566,-0.018047567456960678, 314, 253, 180, 281
1730928435449,9i,9.126603312321299,1.0s : 0.3s,-25.085119343753718,0.027253412515687987,0.04439842038514157,0.040809805833240204,0.13079671561717987,-0.04277755692601204,-0.0036873044446110725,0.010243117809295654,0.028962373733520508,0.026864469051361084,-0.22546061476932844,1.5516867002288284,0.15863340064398507,0.9745132923126221,0.22355534136295319,-0.01862485334277153, 314, 253, 180, 281
1730928435459,9i,9.126603312321299,1.0s : 0.3s,-25.085119343753718,0.027513140308299988,0.053951046684459686,0.03641647638295217,0.16153757274150848,-0.0372653491795063,0.0047546494752168655,0.002859354019165039,0.018415555357933044,0.03128659725189209,-0.22562024594194618,1.5510782930232845,0.15713186951419592,0.9744660258293152,0.22371092438697815,-0.019217045977711678, 314, 253, 180, 281
1730928435469,9i,9.126603312321299,1.0s : 0.3s,-25.085119343753718,0.027754536875666883,0.07230330110732335,0.01686117130046824,0.19050158560276031,-0.023458275943994522,0.008154042065143585,-0.003274857997894287,0.005776539444923401,0.015498580411076546,-0.22576592970816323,1.550415007687768,0.155361544182545,0.9744203686714172,0.22385291755199432,-0.019862722605466843, 314, 253, 180, 281
1730928435479,9i,9.126603312321299,1.0s : 0.3s,-25.085119343753718,0.02798105493307602,0.09412842451634736,0.019487996178917374,0.229789599776268,0.008181675337255001,0.009901607409119606,-0.005576074123382568,0.00786300003528595,0.016937019303441048,-0.2259266140939283,1.5497836092405917,0.15318955161800502,0.9743717312812805,0.22400952875614166,-0.020477212965488434, 314, 253, 180, 281
1730928435489,9i,9.126603312321299,1.0s : 0.3s,-25.085119343753718,0.028231033446313582,0.11933347406888532,0.024267575168889687,0.27029696106910706,0.024380752816796303,0.028617937117815018,-0.013556182384490967,0.018900379538536072,0.006922483444213867,-0.22603082524619192,1.549427871203541,0.15065750294679117,0.9743410348892212,0.22411108016967773,-0.02082333341240883, 314, 253, 180, 281
1730928435499,9i,9.126603312321299,1.0s : 0.3s,-25.085119343753718,0.028521348436003832,0.1475045359500765,0.03195990609254122,0.31782078742980957,0.01708475686609745,0.02597661502659321,-0.009921073913574219,0.03026801347732544,0.002618253231048584,-0.22604661806080853,1.549429015634633,0.14775972178597294,0.9743375182151794,0.22412647306919098,-0.02082214131951332, 314, 253, 180, 281
1730928435509,9i,9.126603312321299,1.0s : 0.3s,-25.085119343753718,0.028823259215131666,0.17609406950292988,0.02887537173579403,0.3614552319049835,0.037393443286418915,0.011937195435166359,-0.011187434196472168,0.02279476821422577,0.013748707249760628,-0.22608994110311892,1.549155619427235,0.1443168966904537,0.9743220210075378,0.22416870296001434,-0.021088309586048126, 314, 253, 180, 281
1730928435519,9i,9.126603312321299,1.0s : 0.3s,-25.085119343753718,0.029103894830392205,0.21649336941363637,0.03280501357019847,0.45804542303085327,0.07224676758050919,0.03773310407996178,-0.019888639450073242,0.0065912604331970215,0.02524215169250965,-0.22599465292327917,1.5490427562350881,0.14022048832884632,0.9743409752845764,0.22407583892345428,-0.021198740229010582, 314, 253, 180, 281
1730928435529,9i,9.126603312321299,1.0s : 0.3s,-25.085119343753718,0.029399857299733743,0.2705817218267565,0.03889961828286708,0.5849647521972656,0.07933059334754944,0.040041666477918625,-0.021590888500213623,0.023826926946640015,0.021892724558711052,-0.2256728659159581,1.5489270810766138,0.13496660949397665,0.9744107127189636,0.22376221418380737,-0.021313026547431946, 314, 253, 180, 281
1730928435539,9i,9.126603312321299,1.0s : 0.3s,-25.085119343753718,0.02974340302272724,0.328551246829973,0.04596696815843597,0.6833943724632263,0.08698824793100357,0.057078175246715546,-0.009499311447143555,0.04323381185531616,0.012392044067382812,-0.22512724553553076,1.5486266344847914,0.1285029385557189,0.9745261073112488,0.22323039174079895,-0.021608484908938408, 314, 253, 180, 281
1730928435549,9i,9.126603312321299,1.0s : 0.3s,-25.085119343753718,0.030088380183893336,0.3827695968252423,0.03177603935437602,0.7488074898719788,0.09884331375360489,0.0759473368525505,0.004549264907836914,0.027443677186965942,0.015357911586761475,-0.22437317100713,1.5481393143828248,0.12122851953440705,0.9746834635734558,0.22249528765678406,-0.02208719588816166, 314, 253, 180, 281
1730928435559,9i,9.126603312321299,1.0s : 0.3s,-25.085119343753718,0.030395197670733905,0.43018828263617775,0.0291745143144215,0.7928937077522278,0.11461135745048523,0.0905049741268158,0.0010583996772766113,0.009671151638031006,0.027504561468958855,-0.22335193425280478,1.547408280426931,0.11328790878010621,0.9748938083648682,0.22149953246116638,-0.022805020213127136, 314, 253, 180, 281
1730928435569,9i,9.126603312321299,1.0s : 0.3s,-25.085119343753718,0.030633954929189758,0.4678763640465217,0.03181423184430026,0.8103204965591431,0.1383059024810791,0.10687033087015152,0.002964019775390625,-0.00719490647315979,0.030847905203700066,-0.22218371381882204,1.546880707470943,0.10510763872117303,0.9751396775245667,0.2203601747751236,-0.023325515910983086, 314, 253, 180, 281
1730928435579,9i,9.126603312321299,1.0s : 0.3s,-25.085119343753718,0.030815962543025734,0.5057934627520999,0.02668637581293043,0.8702152967453003,0.12047363817691803,0.11227255314588547,-0.002330303192138672,-0.011652469635009766,0.02389460802078247,-0.22087189256828646,1.5462885738584475,0.09653620312914425,0.9754137396812439,0.21908041834831238,-0.02390998601913452, 314, 253, 180, 281
1730928435589,9i,9.126603312321299,1.0s : 0.3s,-25.085119343753718,0.03098247337661219,0.5453743312170173,0.009658279286684014,0.9324630498886108,0.13779106736183167,0.12134571373462677,-0.007309913635253906,-0.005226194858551025,0.0035403966903686523,-0.21950917168824327,1.5455599601958427,0.08735481663652211,0.9756937026977539,0.21775059401988983,-0.02462819218635559, 314, 253, 180, 281
1730928435599,9i,9.126603312321299,1.0s : 0.3s,-25.085119343753718,0.03114766366543846,0.5713038238551706,0.013495381997577278,0.9178465604782104,0.15851925313472748,0.140757754445076,-0.011612772941589355,-0.0042390525341033936,-0.005412880331277847,-0.21796647293127414,1.5449863973140232,0.07777089191186029,0.9760140776634216,0.2162446528673172,-0.02519644983112812, 314, 253, 180, 281
1730928435609,9i,9.126603312321299,1.0s : 0.3s,-25.085119343753718,0.03129443885390573,0.5877758826292965,0.02764120326873586,0.9141802191734314,0.11440886557102203,0.15189403295516968,-0.02330106496810913,-0.014505073428153992,0.0032709836959838867,-0.21607260534908534,1.5445579808191041,0.06844948440049693,0.9764107465744019,0.214395210146904,-0.025625284761190414, 314, 253, 180, 281
1730928435619,9i,9.126603312321299,1.0s : 0.3s,-25.085119343753718,0.03130605606507502,0.5685853866726769,0.046032074780512335,0.7673734426498413,0.07957365363836288,0.12195237725973129,-0.0031065940856933594,-0.044242531061172485,-0.012324748560786247,-0.21463362033470768,1.5436146052770068,0.05999635727212619,0.9766935110092163,0.2129894644021988,-0.02655475027859211, 314, 253, 180, 281
1730928435629,9i,9.126603312321299,1.0s : 0.3s,-25.085119343753718,0.03108673937482146,0.5386136737769565,0.06416962388483678,0.6798986792564392,0.1128583773970604,0.1152016669511795,0.002896249294281006,-0.05621372163295746,-0.030811846256256104,-0.2132211409824769,1.5430226655224129,0.05253605820021638,0.9769773483276367,0.21160918474197388,-0.02714121714234352, 314, 253, 180, 281
1730928435639,9i,9.126603312321299,1.0s : 0.3s,-25.085119343753718,0.03073904770039314,0.5140479973641877,0.0682058899948201,0.6660094857215881,0.10030503571033478,0.09798992425203323,-0.02119225263595581,-0.0606209933757782,-0.02297883853316307,-0.2119697368575141,1.542665711579551,0.045755240016778845,0.977231502532959,0.21038596332073212,-0.02749737724661827, 314, 253, 180, 281
1730928435649,9i,9.126603312321299,1.0s : 0.3s,-25.085119343753718,0.030494060583380805,0.5022907668142655,0.05542507399595561,0.695285975933075,0.08735843002796173,0.09891636669635773,-0.024963021278381348,-0.020628198981285095,-0.04498070478439331,-0.21079978819724263,1.5421406964651456,0.03880158760663385,0.9774624109268188,0.209242045879364,-0.028017470613121986, 314, 253, 180, 281
1730928435659,9i,9.126603312321299,1.0s : 0.3s,-25.085119343753718,0.03052834774648303,0.5017272635379126,0.06810651841551943,0.7274478673934937,0.08772328495979309,0.10492872446775436,0.0008010268211364746,0.009622886776924133,-0.06741851568222046,-0.20957448453204308,1.5414846548268137,0.03156341813305961,0.9776992797851562,0.20804370939731598,-0.028666211292147636, 314, 253, 180, 281
1730928435669,9i,9.126603312321299,1.0s : 0.3s,-25.085119343753718,0.03066498058135238,0.5028682594322318,0.0597601493026299,0.749284565448761,0.08803810924291611,0.12606000900268555,0.007585883140563965,0.0026474446058273315,-0.05921757221221924,-0.20820407583464806,1.540815159175685,0.02402765128552105,0.9779639840126038,0.2067030966281891,-0.029329290613532066, 314, 253, 180, 281
1730928435679,9i,9.126603312321299,1.0s : 0.3s,-25.085119343753718,0.030837451511749193,0.5021822615901318,0.05178465963371171,0.7250130772590637,0.06834403425455093,0.13118737936019897,0.004852712154388428,-0.011467352509498596,-0.05026531592011452,-0.2066764432662861,1.5400496214487536,0.016516659364900516,0.9782558679580688,0.2052082121372223,-0.030087627470493317, 314, 253, 180, 281
1730928435689,9i,9.126603312321299,1.0s : 0.3s,-25.085119343753718,0.031021168365386525,0.49673240060544355,0.0509416504949978,0.7001590132713318,0.04054911434650421,0.1401492953300476,0.009504079818725586,-0.02058042585849762,-0.045619845390319824,-0.20510564952638677,1.5391171903956056,0.009252723333554914,0.9785482287406921,0.20367059111595154,-0.031009936705231667, 314, 253, 180, 281
1730928435699,9i,9.126603312321299,1.0s : 0.3s,-25.085119343753718,0.031132465388341583,0.4768158258188511,0.06338495831068344,0.6321716904640198,0.02079884335398674,0.11482023447751999,0.016127705574035645,-0.04700407385826111,-0.03934675455093384,-0.20358945482529336,1.5380342087856156,0.0025348156402549434,0.9788215756416321,0.20218594372272491,-0.032079748809337616, 314, 253, 180, 281
1730928435709,9i,9.126603312321299,1.0s : 0.3s,-25.085119343753718,0.031231080349621045,0.46683715281720184,0.06700253117274749,0.6524480581283569,0.016534723341464996,0.1107180044054985,0.003310859203338623,-0.04516640305519104,-0.04937988892197609,-0.202274127739988,1.5369136407888733,-0.00393716166821915,0.9790500402450562,0.20089761912822723,-0.03318554535508156, 314, 253, 180, 281
1730928435719,9i,9.126603312321299,1.0s : 0.3s,-25.085119343753718,0.031504726714722486,0.4720537229289769,0.0704435221846529,0.7216058373451233,0.01397755742073059,0.10510165989398956,-0.016293466091156006,-0.00038267672061920166,-0.06853222846984863,-0.20093554074888348,1.5356634091478496,-0.010910892000589215,0.9792755246162415,0.19958613812923431,-0.034418970346450806, 314, 253, 180, 281
1730928435729,9i,9.126603312321299,1.0s : 0.3s,-25.085119343753718,0.031999164341686134,0.49646686271865126,0.07586417304364272,0.8198128342628479,0.015732137486338615,0.09682828187942505,-0.00689619779586792,0.017681792378425598,-0.07345181703567505,-0.19967636329901656,1.534245633584335,-0.01868425145368415,0.9794762134552002,0.1983521282672882,-0.035816486924886703, 314, 253, 180, 281
1730928435739,9i,9.126603312321299,1.0s : 0.3s,-25.085119343753718,0.03260172900620962,0.5401204386178987,0.06713095799825392,0.9492917060852051,0.038658224046230316,0.11384668201208115,-0.004613399505615234,0.027851372957229614,-0.06090634688735008,-0.19828359861467001,1.5327267403515035,-0.027693399088281372,0.9796956777572632,0.1969868540763855,-0.03731463849544525, 314, 253, 180, 281
1730928435749,9i,9.126603312321299,1.0s : 0.3s,-25.085119343753718,0.03330099211662452,0.5898795268956948,0.06337959726849904,1.0440425872802734,0.043448228389024734,0.12286803871393204,-0.007041215896606445,0.04173746705055237,-0.047173917293548584,-0.19672687366156094,1.5311664488283552,-0.03781375591100069,0.9799415469169617,0.19546039402484894,-0.038855306804180145, 314, 253, 180, 281
1730928435759,9i,9.126603312321299,1.0s : 0.3s,-25.085119343753718,0.03407783107739848,0.6394750362122855,0.0636985420503051,1.1177102327346802,0.029133208096027374,0.12919571995735168,-0.005472779273986816,0.05280371010303497,-0.03520399332046509,-0.19501199835854977,1.5293826482832242,-0.04881894675370399,0.980204164981842,0.19377830624580383,-0.04061708226799965, 314, 253, 180, 281
1730928435769,9i,9.126603312321299,1.0s : 0.3s,-25.085119343753718,0.03487604388588452,0.676385127510683,0.04604336040120318,1.1274898052215576,0.020648464560508728,0.14027327299118042,0.007017552852630615,0.029963165521621704,-0.034248411655426025,-0.19320618882320634,1.5274112856889661,-0.06022779415940563,0.9804701805114746,0.1920064091682434,-0.04256444796919823, 314, 253, 180, 281
1730928435779,9i,9.126603312321299,1.0s : 0.3s,-25.085119343753718,0.03563785854820451,0.6977559839546461,0.03015882942616236,1.1028176546096802,0.00576858501881361,0.1604994386434555,0.01409292221069336,0.002970084547996521,-0.026497606188058853,-0.19120120230580612,1.5253908350857417,-0.07153721857552815,0.9807649254798889,0.19003833830356598,-0.04456274211406708, 314, 253, 180, 281
1730928435789,9i,9.126603312321299,1.0s : 0.3s,-25.085119343753718,0.036318602269349194,0.6973563668683185,0.038408859086458504,1.0221409797668457,-0.010462937876582146,0.15941405296325684,0.025674939155578613,-0.019584983587265015,-0.020795825868844986,-0.18909054430461045,1.523330391357362,-0.08227184082431391,0.9810695052146912,0.18796572089195251,-0.046602386981248856, 314, 253, 180, 281
1730928435799,9i,9.126603312321299,1.0s : 0.3s,-25.085119343753718,0.0368888037709146,0.6858882807604306,0.06046795754207581,0.9708056449890137,-0.007345974445343018,0.15162032842636108,0.02972543239593506,-0.048361554741859436,-0.020831048488616943,-0.18706972872571906,1.52134774951346,-0.09229017590242118,0.9813523888587952,0.18598054349422455,-0.0485660694539547, 314, 253, 180, 281
1730928435809,9i,9.126603312321299,1.0s : 0.3s,-25.085119343753718,0.037417099147556504,0.6855555941337388,0.05067020179302349,1.0052257776260376,-0.0015648286789655685,0.1561402678489685,0.008904755115509033,-0.036707520484924316,-0.033774733543395996,-0.18503946099680416,1.5194746848470062,-0.10217693326441543,0.9816347360610962,0.18398532271385193,-0.050423383712768555, 314, 253, 180, 281
1730928435819,9i,9.126603312321299,1.0s : 0.3s,-25.085119343753718,0.03798468896782837,0.6980198067314214,0.052909580180472614,1.0738961696624756,0.004614504054188728,0.14397016167640686,-0.0035644173622131348,-0.00922498106956482,-0.051977094262838364,-0.1829892024718441,1.5175815597418005,-0.1126593182215391,0.9819120764732361,0.18196967244148254,-0.05230160057544708, 314, 253, 180, 281
1730928435829,9i,9.126603312321299,1.0s : 0.3s,-25.085119343753718,0.038622587267660796,0.7282875137775734,0.05860879303266368,1.1817353963851929,0.0032914457842707634,0.14501233398914337,-0.003860175609588623,0.011427655816078186,-0.0573541484773159,-0.18093362168245933,1.5155882490200827,-0.12402758688175886,0.9821773767471313,0.17994803190231323,-0.05427928268909454, 314, 253, 180, 281
1730928435839,9i,9.126603312321299,1.0s : 0.3s,-25.085119343753718,0.03939709371876774,0.7640134104805613,0.06815274472687659,1.2573018074035645,-0.009542327374219894,0.1227986291050911,-0.006585121154785156,0.031959742307662964,-0.059833165258169174,-0.17890827061036735,1.513348326944063,-0.13637340129187445,0.9824151396751404,0.17795537412166595,-0.05649995058774948, 314, 253, 180, 281
1730928435849,9i,9.126603312321299,1.0s : 0.3s,-25.085119343753718,0.04040384124526154,0.8008132026865121,0.07960372935660667,1.3156318664550781,-0.01640724577009678,0.12508049607276917,-0.0043852925300598145,0.044385239481925964,-0.06593537330627441,-0.17691889400634617,1.5109142145693184,-0.14936536390929797,0.9826261401176453,0.17599740624427795,-0.058912161737680435, 314, 253, 180, 281
1730928435859,9i,9.126603312321299,1.0s : 0.3s,-25.085119343753718,0.04145171264429803,0.8261698420446169,0.06459415754949939,1.3133106231689453,-0.019412623718380928,0.1257217824459076,1.2993812561035156e-05,0.035144656896591187,-0.05419647693634033,-0.1748513515685988,1.5084008282090202,-0.16268976112076827,0.9828360676765442,0.17396175861358643,-0.06140425428748131, 314, 253, 180, 281
1730928435869,9i,9.126603312321299,1.0s : 0.3s,-25.085119343753718,0.04249284609244502,0.83679044937122,0.04613533219178441,1.278653621673584,-0.029839875176548958,0.11447925120592117,0.0001575946807861328,0.011039510369300842,-0.04479479044675827,-0.172833547989578,1.5058906912927332,-0.17574633793065855,0.9830271005630493,0.17197436094284058,-0.06389375030994415, 314, 253, 180, 281
1730928435879,9i,9.126603312321299,1.0s : 0.3s,-25.085119343753718,0.04351044224228349,0.8369283147917029,0.03691544422820174,1.242791771888733,-0.038067977875471115,0.12040744721889496,-0.006750583648681641,0.005150213837623596,-0.03592568635940552,-0.17081965271733746,1.5033646579841213,-0.18843186854372174,0.9832062125205994,0.16999012231826782,-0.06639990955591202, 314, 253, 180, 281
1730928435889,9i,9.126603312321299,1.0s : 0.3s,-25.085119343753718,0.04448062393459995,0.8359406392484102,0.029389611066268504,1.2257287502288818,-0.037123579531908035,0.12420854717493057,-0.00046390295028686523,0.00013783574104309082,-0.029385626316070557,-0.16873727499581243,1.5008813748940852,-0.20083146697388266,0.9833892583847046,0.16793769598007202,-0.06886585801839828, 314, 253, 180, 281
1730928435899,9i,9.126603312321299,1.0s : 0.3s,-25.085119343753718,0.045338813780895104,0.8347316434723083,0.0203106733322726,1.2192676067352295,-0.032777298241853714,0.1409640908241272,0.0034309029579162598,-0.0024912655353546143,-0.019863180816173553,-0.16655981269708836,1.4984863581882257,-0.213109814341677,0.9835837483406067,0.16579075157642365,-0.07124713063240051, 314, 253, 180, 281
1730928435909,9i,9.126603312321299,1.0s : 0.3s,-25.085119343753718,0.046163328780180556,0.8247212536556936,0.02585241496362754,1.1854978799819946,-0.04375631362199783,0.13876861333847046,0.005812883377075195,0.008869588375091553,-0.023577280342578888,-0.164230938649198,1.496132437559909,-0.22518251846719406,0.9837959408760071,0.16349366307258606,-0.07359082996845245, 314, 253, 180, 281
1730928435919,9i,9.126603312321299,1.0s : 0.3s,-25.085119343753718,0.04695688831746305,0.8050013636501766,0.028710970227845373,1.1231186389923096,-0.05613894760608673,0.12365011125802994,0.01004946231842041,0.007155358791351318,-0.025925450026988983,-0.16205577275699076,1.493738552895,-0.23675873980325723,0.98396897315979,0.1613473892211914,-0.07597289234399796, 314, 253, 180, 281
1730928435929,9i,9.126603312321299,1.0s : 0.3s,-25.085119343753718,0.047683129635243036,0.7761232863110488,0.024564682870269906,1.0480726957321167,-0.05521629378199577,0.1196247786283493,0.0030318498611450195,-0.01821206510066986,-0.016203463077545166,-0.15999172263467276,1.4914212754327925,-0.24759988145025438,0.98412024974823,0.15931002795696259,-0.0782790556550026, 314, 253, 180, 281
1730928435939,9i,9.126603312321299,1.0s : 0.3s,-25.085119343753718,0.04833423105894912,0.7543817692962346,0.03273507960709419,1.0421538352966309,-0.03516056016087532,0.11008027195930481,-0.006601691246032715,-0.029997095465660095,-0.011321544647216797,-0.15803441492121073,1.4893234313188166,-0.25800986458610775,0.9842627644538879,0.1573774218559265,-0.08036863803863525, 314, 253, 180, 281
1730928435949,9i,9.126603312321299,1.0s : 0.3s,-25.085119343753718,0.048945998635092344,0.7439523142325069,0.02275429109663543,1.0654484033584595,-0.035404909402132034,0.11596736311912537,-0.018106460571289062,-0.008748933672904968,-0.01064753532409668,-0.15601805288093892,1.4873319700584213,-0.268550432393976,0.9844150543212891,0.15538586676120758,-0.08235489577054977, 314, 253, 180, 281
1730928435959,9i,9.126603312321299,1.0s : 0.3s,-25.085119343753718,0.049558735885294,0.7290745361415403,0.028946690097427234,1.0256065130233765,-0.0528789721429348,0.12769672274589539,0.00035709142684936523,0.01911945641040802,-0.021730847656726837,-0.15391177445591603,1.4852729138423946,-0.2790545014762962,0.9845672845840454,0.1533048301935196,-0.0844094529747963, 314, 253, 180, 281
1730928435969,9i,9.126603312321299,1.0s : 0.3s,-25.085119343753718,0.0501380550189435,0.6932429450317615,0.017647200154271077,0.8982633948326111,-0.05210035294294357,0.12793266773223877,0.009179890155792236,0.008418291807174683,-0.012501426041126251,-0.1518014676341359,1.4832732999128695,-0.2886757080869203,0.9847166538238525,0.15121912956237793,-0.08640612661838531, 314, 253, 180, 281
1730928435979,9i,9.126603312321299,1.0s : 0.3s,-25.085119343753718,0.05060291633082363,0.6394113609174181,0.0419771137458316,0.7558881044387817,-0.04234039783477783,0.11647868156433105,-0.008983790874481201,-0.03877429664134979,0.01333879679441452,-0.14985390855856529,1.4815723747229146,-0.29686872027955075,0.9848597049713135,0.1492936760187149,-0.08810700476169586, 314, 253, 180, 281
1730928435989,9i,9.126603312321299,1.0s : 0.3s,-25.085119343753718,0.05084691376897368,0.5908777457635677,0.05552787078076839,0.7007380723953247,-0.04708712920546532,0.11855907738208771,-0.03092259168624878,-0.04145301878452301,0.02021843194961548,-0.1480417273682031,1.4800653063480447,-0.3040480227933975,0.984993577003479,0.14750155806541443,-0.08961551636457443, 314, 253, 180, 281
1730928435999,9i,9.126603312321299,1.0s : 0.3s,-25.085119343753718,0.05106141821380245,0.553447994917395,0.026371143049425883,0.68166583776474,-0.03786087408661842,0.13169220089912415,-0.02311497926712036,-0.011251688003540039,0.005876600742340088,-0.1461710294019623,1.4786177080046654,-0.31085562452514187,0.9851357936859131,0.14565107226371765,-0.09106653183698654, 314, 253, 180, 281
1730928436009,9i,9.126603312321299,1.0s : 0.3s,-25.085119343753718,0.051254409504372885,0.5279238898758741,0.01038590180860253,0.6845786571502686,-0.034360989928245544,0.13381582498550415,-0.008127391338348389,0.003376707434654236,0.005514554679393768,-0.14418656047275447,1.4772930461014453,-0.3175910964554486,0.9853003025054932,0.14368747174739838,-0.09239824116230011, 314, 253, 180, 281
1730928436019,9i,9.126603312321299,1.0s : 0.3s,-25.085119343753718,0.05144758471189288,0.509504715771366,0.02213675751016397,0.6831211447715759,-0.03615862503647804,0.12421566992998123,-0.01790517568588257,0.012662619352340698,0.0030164197087287903,-0.14226619044323818,1.4759676264729793,-0.3243667414525718,0.9854496121406555,0.14178676903247833,-0.09373003244400024, 314, 253, 180, 281
1730928436029,9i,9.126603312321299,1.0s : 0.3s,-25.085119343753718,0.05166255679551162,0.4937546567466199,0.026834745317791328,0.6680227518081665,-0.034869786351919174,0.1282844841480255,-0.017150521278381348,0.019989565014839172,-0.0051361918449401855,-0.14035232359930588,1.4746666347908697,-0.3310837599423266,0.9855953454971313,0.13989198207855225,-0.09503789991140366, 314, 253, 180, 281
1730928436039,9i,9.126603312321299,1.0s : 0.3s,-25.085119343753718,0.05185054479069393,0.47190127105479035,0.012326504093320832,0.6151067614555359,-0.038187287747859955,0.11689360439777374,-0.005187869071960449,0.007148608565330505,0.008598029613494873,-0.13849632852521568,1.4734211940493491,-0.33739675169667765,0.9857328534126282,0.1380539983510971,-0.09629040211439133, 314, 253, 180, 281
1730928436049,9i,9.126603312321299,1.0s : 0.3s,-25.085119343753718,0.05196972728128139,0.4483905760834071,0.026861941720308,0.5734477639198303,-0.04109235107898712,0.11640657484531403,-0.006697297096252441,-0.012910038232803345,0.022584088146686554,-0.13676428657813774,1.472228251759103,-0.34325421377246645,0.9858537316322327,0.13633833825588226,-0.09748963266611099, 314, 253, 180, 281
1730928436059,9i,9.126603312321299,1.0s : 0.3s,-25.085119343753718,0.052029275848038445,0.42968232532841344,0.029983931689867568,0.5620462894439697,-0.040696874260902405,0.1161077693104744,-0.01296323537826538,-0.00990132987499237,0.025158584117889404,-0.13505204424920977,1.4710641379464604,-0.3488289384442803,0.9859703779220581,0.1346418857574463,-0.09866031259298325, 314, 253, 180, 281
1730928436069,9i,9.126603312321299,1.0s : 0.3s,-25.085119343753718,0.052040628889461586,0.41286989875882957,0.02897657282742248,0.542194664478302,-0.030122660100460052,0.12419988960027695,-0.011348128318786621,0.00014071166515350342,0.026661619544029236,-0.133310410432318,1.4699813062820057,-0.35423920874420756,0.9860948920249939,0.1329158991575241,-0.09975135326385498, 314, 253, 180, 281
1730928436079,9i,9.126603312321299,1.0s : 0.3s,-25.085119343753718,0.05196431295263594,0.39854100928948777,0.03643918486666443,0.5270172953605652,-0.03197675198316574,0.13318991661071777,-0.014661908149719238,-0.0018260478973388672,0.03330928087234497,-0.13147692278015166,1.4689746994081878,-0.3594986269004466,0.986234724521637,0.13109846413135529,-0.10076850652694702, 314, 253, 180, 281
1730928436089,9i,9.126603312321299,1.0s : 0.3s,-25.085119343753718,0.05176106548100625,0.38124517076001,0.04188969064905158,0.4873722791671753,-0.024924835190176964,0.14497710764408112,-0.012937188148498535,-0.017930030822753906,0.035579338669776917,-0.1295746049799842,1.468044690417647,-0.36443658562852316,0.9863867163658142,0.12921231985092163,-0.10171105712652206, 314, 253, 180, 281
1730928436099,9i,9.126603312321299,1.0s : 0.3s,-25.085119343753718,0.051351994578941705,0.36163598136807507,0.05377808090078819,0.44767600297927856,-0.01527034305036068,0.14938969910144806,-0.011702954769134521,-0.03335222601890564,0.04053087532520294,-0.12761611001919368,1.4672587981718834,-0.3689717737271801,0.9865562915802002,0.12726999819278717,-0.1025121733546257, 314, 253, 180, 281
1730928436109,9i,9.126603312321299,1.0s : 0.3s,-25.085119343753718,0.05089905517264941,0.3412939666407982,0.04962745955839765,0.41034790873527527,-0.014222522266209126,0.15787476301193237,-0.019878685474395752,-0.03169667720794678,0.03260434418916702,-0.1256395679173075,1.4665964103926126,-0.37311296524940823,0.9867364764213562,0.1253092885017395,-0.10319159924983978, 314, 253, 180, 281
1730928436119,9i,9.126603312321299,1.0s : 0.3s,-25.085119343753718,0.050437149326657715,0.32577227743200843,0.04158063598731645,0.4014449715614319,-0.009595014154911041,0.16230705380439758,-0.019774436950683594,-0.0244663804769516,0.02719038724899292,-0.12362743297617,1.4659859237780999,-0.3769986423310953,0.9869222044944763,0.12331275641918182,-0.10382015258073807, 314, 253, 180, 281
1730928436129,9i,9.126603312321299,1.0s : 0.3s,-25.085119343753718,0.04994451715467252,0.3124698225605709,0.04623791212563224,0.385294646024704,-0.004020795691758394,0.1700373888015747,-0.009321033954620361,-0.0321551188826561,0.03189218044281006,-0.12155023181410052,1.4654542490925595,-0.3807872540040967,0.9871194362640381,0.12125114351511002,-0.1043715700507164, 314, 253, 180, 281
1730928436139,9i,9.126603312321299,1.0s : 0.3s,-25.085119343753718,0.049378061691093864,0.3037127846055629,0.05644864700666234,0.38922014832496643,0.005091476254165173,0.16557206213474274,-0.004442274570465088,-0.042616091668605804,0.03675030171871185,-0.11946865850510653,1.465011398619874,-0.38444733656287994,0.9873220324516296,0.11918467283248901,-0.1048351302742958, 314, 253, 180, 281
1730928436149,9i,9.126603312321299,1.0s : 0.3s,-25.085119343753718,0.04879482805151129,0.3040923915861498,0.041762259723439506,0.4249744117259979,0.007961209863424301,0.17236018180847168,-0.006600797176361084,-0.02340179681777954,0.033953964710235596,-0.11737527775268897,1.4646246553945783,-0.3883173929099008,0.9875272512435913,0.11710595339536667,-0.10524316132068634, 314, 253, 180, 281
1730928436159,9i,9.126603312321299,1.0s : 0.3s,-25.085119343753718,0.04822588570529759,0.30719182278261287,0.02478537894596089,0.44320428371429443,0.0044224015437066555,0.18515613675117493,0.001010894775390625,-0.002153262495994568,0.02467096596956253,-0.11510864073107102,1.4641951668044215,-0.39251451688325445,0.9877431988716125,0.1148546114563942,-0.10569524019956589, 314, 253, 180, 281
1730928436169,9i,9.126603312321299,1.0s : 0.3s,-25.085119343753718,0.04766483944221242,0.3146218927384448,0.024109723411401007,0.4586925506591797,0.011717998422682285,0.1897815465927124,0.008754849433898926,-0.006648644804954529,0.02145756036043167,-0.11276818068961562,1.463785096819874,-0.39680002251007207,0.9879644513130188,0.11252932995557785,-0.10612870752811432, 314, 253, 180, 281
1730928436179,9i,9.126603312321299,1.0s : 0.3s,-25.085119343753718,0.04711746078423111,0.33299811820175723,0.02484862220539161,0.5262972116470337,0.02573048695921898,0.19143778085708618,-0.0036385059356689453,-0.013826392590999603,0.020323537290096283,-0.11034833256084119,1.4634485418431675,-0.40147093112272714,0.9881963729858398,0.11012452095746994,-0.10649005323648453, 314, 253, 180, 281
1730928436189,9i,9.126603312321299,1.0s : 0.3s,-25.085119343753718,0.046613385401817954,0.3600200522883892,0.018555301285162702,0.5965762734413147,0.03449162095785141,0.20279233157634735,-0.011301934719085693,0.0022178590297698975,0.014548078179359436,-0.10777760927124011,1.4631624476723901,-0.40691583577031687,0.9884441494941711,0.10756907612085342,-0.10680283606052399, 314, 253, 180, 281
1730928436199,9i,9.126603312321299,1.0s : 0.3s,-25.085119343753718,0.04617425261167945,0.3855571892292034,0.02555519583890244,0.6334730386734009,0.04145551845431328,0.1952609121799469,-0.0011035799980163574,0.024941138923168182,0.0054579973220825195,-0.10511985151966366,1.4629111528841519,-0.412850709592414,0.9886981248855591,0.10492636263370514,-0.10708164423704147, 314, 253, 180, 281
1730928436209,9i,9.126603312321299,1.0s : 0.3s,-25.085119343753718,0.04579737982204033,0.39914994599236175,0.025226900424419208,0.6116187572479248,0.03892618045210838,0.19230276346206665,0.00800323486328125,0.023824840784072876,-0.0021729469299316406,-0.10249889200096722,1.4626954002841317,-0.41889718437907353,0.9889450073242188,0.10231950879096985,-0.1073242574930191, 314, 253, 180, 281
1730928436219,9i,9.126603312321299,1.0s : 0.3s,-25.085119343753718,0.04545277236750351,0.40132795266879623,0.0055250709307743786,0.5902338027954102,0.04737639054656029,0.1791941523551941,0.005358994007110596,-0.0011755526065826416,0.0006524324417114258,-0.1000054512151977,1.462535232033746,-0.4246898267373891,0.9891782999038696,0.09983883798122406,-0.10750988125801086, 314, 253, 180, 281
1730928436229,9i,9.126603312321299,1.0s : 0.3s,-25.085119343753718,0.0451487388739231,0.408340242062467,0.01057496853409506,0.6105737090110779,0.05804874375462532,0.16881874203681946,-0.004374265670776367,-0.008744895458221436,-0.004027724266052246,-0.09762970689955264,1.4624794400859633,-0.4304843054798708,0.9894052743911743,0.09747468680143356,-0.10759039968252182, 314, 253, 180, 281
1730928436239,9i,9.126603312321299,1.0s : 0.3s,-25.085119343753718,0.045008448072949035,0.4173492738370528,0.04148063020797286,0.6321994066238403,0.052248645573854446,0.15931740403175354,-0.01858466863632202,0.02437589317560196,-0.027947604656219482,-0.09532095032704622,1.4624514615244777,-0.4365150838655201,0.9896234273910522,0.09517666697502136,-0.10764213651418686, 314, 253, 180, 281
1730928436249,9i,9.126603312321299,1.0s : 0.3s,-25.085119343753718,0.04520688981878324,0.42597290429422885,0.0593115976524881,0.648078203201294,0.04725326597690582,0.14490437507629395,-0.0072304606437683105,0.05239568650722504,-0.026837997138500214,-0.09312452406876348,1.4623704529369501,-0.4427480339570563,0.9898200631141663,0.092989981174469,-0.10774466395378113, 314, 253, 180, 281
1730928436259,9i,9.126603312321299,1.0s : 0.3s,-25.085119343753718,0.04555650664624317,0.43462116347896135,0.06078297437923073,0.666307270526886,0.02805480547249317,0.12870170176029205,0.009786069393157959,0.057364314794540405,-0.017553865909576416,-0.09104627154120337,1.46213789935788,-0.44913058340128836,0.9899849891662598,0.09092053771018982,-0.10799556970596313, 314, 253, 180, 281
1730928436269,9i,9.126603312321299,1.0s : 0.3s,-25.085119343753718,0.04611368324800734,0.44550978893826,0.07170944752229293,0.6920628547668457,0.033700574189424515,0.11889383941888809,0.008604466915130615,0.06409934163093567,-0.03097551316022873,-0.08907925267819071,1.461842902470541,-0.45580028503774345,0.9901289343833923,0.08896148949861526,-0.10830684751272202, 314, 253, 180, 281
1730928436279,9i,9.126603312321299,1.0s : 0.3s,-25.085119343753718,0.04692958129376618,0.4450372230234654,0.08304683714265411,0.6510165929794312,0.03264063596725464,0.0938529372215271,-0.002695739269256592,0.07286935299634933,-0.03974377363920212,-0.08727553319690015,1.4615928249710866,-0.46239910508105153,0.9902597069740295,0.08716478198766708,-0.10857176035642624, 314, 253, 180, 281
1730928436289,9i,9.126603312321299,1.0s : 0.3s,-25.085119343753718,0.04784770628246098,0.43070865656232915,0.08193361912406504,0.5914686322212219,0.01845681667327881,0.05978184938430786,0.004169464111328125,0.07364552468061447,-0.0356660932302475,-0.08583783839534025,1.4613101196656715,-0.46853731236681606,0.9903524518013,0.08573246747255325,-0.10886527597904205, 314, 253, 180, 281
1730928436299,9i,9.126603312321299,1.0s : 0.3s,-25.085119343753718,0.048812653495617885,0.4030323405801613,0.08426437211980287,0.5065284371376038,-0.004904166795313358,0.03241254389286041,0.022858858108520508,0.07341975718736649,-0.03446006774902344,-0.08476271706252003,1.4609191002678426,-0.4739531532857872,0.9904009699821472,0.08466125279664993,-0.10926257073879242, 314, 253, 180, 281
1730928436309,9i,9.126603312321299,1.0s : 0.3s,-25.085119343753718,0.04983056192425609,0.3660737688468862,0.0949460841034104,0.4216281473636627,-0.013737249188125134,-0.0037190960720181465,0.032772719860076904,0.08285260200500488,-0.032804787158966064,-0.08408600210675962,1.4604403935406716,-0.4785655525387506,0.9904053211212158,0.08398695290088654,-0.10974296927452087, 314, 253, 180, 281
1730928436319,9i,9.126603312321299,1.0s : 0.3s,-25.085119343753718,0.0509128733785746,0.3259597915531484,0.10052383191739879,0.35210341215133667,-0.03667851909995079,-0.052963607013225555,0.019091546535491943,0.09646987915039062,-0.020835451781749725,-0.08392639099172777,1.4598499127087396,-0.48243243972638117,0.9903535842895508,0.0838278979063034,-0.11032923310995102, 314, 253, 180, 281
1730928436329,9i,9.126603312321299,1.0s : 0.3s,-25.085119343753718,0.05221465819337105,0.29690519981534264,0.12485917291114139,0.34175607562065125,-0.0426652617752552,-0.10739252716302872,0.0053351521492004395,0.12228325009346008,-0.02466081827878952,-0.08435966919174169,1.4591478402104252,-0.4859288196923591,0.990239679813385,0.08425964415073395,-0.11102045327425003, 314, 253, 180, 281
1730928436339,9i,9.126603312321299,1.0s : 0.3s,-25.085119343753718,0.05400210408004285,0.29430802715677357,0.18880343905094754,0.3965602219104767,-0.03687421604990959,-0.14475613832473755,-0.012945353984832764,0.185696542263031,-0.03155868500471115,-0.08521949283013408,1.4584316135795692,-0.48974571763432273,0.9900875687599182,0.08511637896299362,-0.11172149330377579, 314, 253, 180, 281
1730928436349,9i,9.126603312321299,1.0s : 0.3s,-25.085119343753718,0.05631888635957207,0.30108745623937955,0.2235501024021884,0.4542139172554016,-0.02720179222524166,-0.17730183899402618,-0.01672232151031494,0.22086521983146667,-0.030225269496440887,-0.08634034068684218,1.457721234592226,-0.4941358474477329,0.9899125099182129,0.08623310923576355,-0.11241396516561508, 314, 253, 180, 281
1730928436359,9i,9.126603312321299,1.0s : 0.3s,-25.085119343753718,0.059066562454968365,0.3197251948210264,0.2215702760893999,0.5098140835762024,-0.018445318564772606,-0.20647436380386353,-0.026646077632904053,0.2184181809425354,-0.02601676434278488,-0.08769385071032544,1.4570478327256193,-0.49921829794863243,0.9897196888923645,0.08758149296045303,-0.11306719481945038, 314, 253, 180, 281
1730928436369,9i,9.126603312321299,1.0s : 0.3s,-25.085119343753718,0.06218685846544202,0.3421938271158385,0.22149513245467814,0.5410276651382446,0.0019489903934299946,-0.24943800270557404,-0.056342482566833496,0.21322833001613617,-0.02047675848007202,-0.0893348380683165,1.4564595515050385,-0.5046920573577447,0.9895089268684387,0.08921606093645096,-0.11363285779953003, 314, 253, 180, 281
1730928436379,9i,9.126603312321299,1.0s : 0.3s,-25.085119343753718,0.0656215821629707,0.3802289514028539,0.22823608102730716,0.6414732933044434,0.029003776609897614,-0.2853478193283081,-0.08231222629547119,0.2125348150730133,-0.012056469917297363,-0.09136416599107965,1.4560400532434683,-0.5108506154797314,0.9892793297767639,0.09123711287975311,-0.1140269935131073, 314, 253, 180, 281
1730928436389,9i,9.126603312321299,1.0s : 0.3s,-25.085119343753718,0.06942355513051822,0.429680287380726,0.24530095491857995,0.7486563324928284,0.03857140615582466,-0.31591102480888367,-0.09893965721130371,0.22379478812217712,-0.017303049564361572,-0.09349523678901367,1.455706188237408,-0.5181495600718833,0.9890458583831787,0.0933590829372406,-0.11433468759059906, 314, 253, 180, 281
1730928436399,9i,9.126603312321299,1.0s : 0.3s,-25.085119343753718,0.07361323977431423,0.48536174287800243,0.25714963167451205,0.8412073254585266,0.05973820760846138,-0.36254721879959106,-0.09615510702133179,0.23699826002120972,-0.026682451367378235,-0.09595832934253105,1.4553966022463358,-0.5265060589721661,0.9887790083885193,0.0958111360669136,-0.11461405456066132, 314, 253, 180, 281
1730928436409,9i,9.126603312321299,1.0s : 0.3s,-25.085119343753718,0.07800803128664291,0.530776437774631,0.25410309915442053,0.8605055212974548,0.05951055511832237,-0.3977130353450775,-0.10916274785995483,0.22856882214546204,-0.02020329236984253,-0.09873992814207029,1.4551395035296966,-0.5354448476154318,0.9884809851646423,0.09857956320047379,-0.11483706533908844, 314, 253, 180, 281
1730928436419,9i,9.126603312321299,1.0s : 0.3s,-25.085119343753718,0.08249201785763698,0.572013059550328,0.2322085510007764,0.8926053643226624,0.06517696380615234,-0.4391603469848633,-0.09919965267181396,0.20900440216064453,-0.019934892654418945,-0.10190177928280564,1.4548308494804416,-0.5446791625200045,0.9881308674812317,0.1017255112528801,-0.1151055097579956, 314, 253, 180, 281
1730928436429,9i,9.126603312321299,1.0s : 0.3s,-25.085119343753718,0.08706789572533363,0.6100026601273073,0.23355436404696542,0.9287394285202026,0.060338087379932404,-0.46818307042121887,-0.09257709980010986,0.21177121996879578,-0.03361654281616211,-0.10534852848955195,1.4544591246054248,-0.5543394185361804,0.9877339601516724,0.10515376925468445,-0.11543143540620804, 314, 253, 180, 281
1730928436439,9i,9.126603312321299,1.0s : 0.3s,-25.085119343753718,0.09176225264142278,0.6426819333519299,0.2484612218062976,0.9471863508224487,0.05977189913392067,-0.4987342953681946,-0.09969460964202881,0.22250431776046753,-0.04780995845794678,-0.10907161191524586,1.4539823703314543,-0.5642646050720025,0.9872830510139465,0.1088554784655571,-0.11585588753223419, 314, 253, 180, 281
1730928436449,9i,9.126603312321299,1.0s : 0.3s,-25.085119343753718,0.09655833859426073,0.675395665292973,0.24478155836810828,0.9776429533958435,0.05599469318985939,-0.5464495420455933,-0.10305941104888916,0.21354472637176514,-0.06078995764255524,-0.11311229213776088,1.45341384025216,-0.5744688331510306,0.9867722392082214,0.11287124454975128,-0.11636471748352051, 314, 253, 180, 281
1730928436459,9i,9.126603312321299,1.0s : 0.3s,-25.085119343753718,0.10147907596357413,0.7157792090911029,0.2548848043485647,1.0480808019638062,0.056269265711307526,-0.5978198051452637,-0.11899340152740479,0.21314208209514618,-0.07332998514175415,-0.11760360954738355,1.4527462986235107,-0.5852416469272843,0.9861809015274048,0.11733271181583405,-0.11696251481771469, 314, 253, 180, 281
1730928436469,9i,9.126603312321299,1.0s : 0.3s,-25.085119343753718,0.10684275182947967,0.7681266046766707,0.28759570492455444,1.152923583984375,0.045762695372104645,-0.6556727886199951,-0.13087457418441772,0.23850581049919128,-0.09326367825269699,-0.12253353959790919,1.4518454478263125,-0.5970160754890872,0.985488772392273,0.12222713977098465,-0.11778078228235245, 314, 253, 180, 281
1730928436479,9i,9.126603312321299,1.0s : 0.3s,-25.085119343753718,0.1126966847723292,0.8205682778096508,0.31264985899200615,1.2091785669326782,0.03340056538581848,-0.7165454626083374,-0.13517886400222778,0.2537623941898346,-0.12280576676130295,-0.12791850460881934,1.4506653766025777,-0.6096813335459379,0.9846813082695007,0.12756992876529694,-0.11886303871870041, 314, 253, 180, 281
1730928436489,9i,9.126603312321299,1.0s : 0.3s,-25.085119343753718,0.11888181736037402,0.869166794855354,0.3121485310665172,1.235331654548645,0.03062213771045208,-0.7885701060295105,-0.1438767910003662,0.24585384130477905,-0.12764036655426025,-0.1339099471068022,1.4492493118337002,-0.6228490075623636,0.9837356805801392,0.13351009786128998,-0.1201624646782875, 314, 253, 180, 281
1730928436499,9i,9.126603312321299,1.0s : 0.3s,-25.085119343753718,0.12527667766464176,0.9144351738158885,0.3160251556178198,1.2679983377456665,0.01949012279510498,-0.8411912322044373,-0.15900319814682007,0.24822674691677094,-0.11390067636966705,-0.14046401258261867,1.4476878580629704,-0.6363606080937649,0.9826574921607971,0.14000257849693298,-0.1215883269906044, 314, 253, 180, 281
1730928436509,9i,9.126603312321299,1.0s : 0.3s,-25.085119343753718,0.13196293130664788,0.9590048924773642,0.3334399933670262,1.3005577325820923,0.008117226883769035,-0.9079988598823547,-0.15886133909225464,0.2746891379356384,-0.10242646932601929,-0.1475681787469779,1.4458195272305052,-0.6503260258902355,0.9814168810844421,0.1470331847667694,-0.12329693883657455, 314, 253, 180, 281
1730928436519,9i,9.126603312321299,1.0s : 0.3s,-25.085119343753718,0.13893912364386451,1.0096110304897143,0.3467560171139663,1.375978708267212,0.017482232302427292,-0.966334342956543,-0.15485870838165283,0.2950993776321411,-0.09578555822372437,-0.15516845777686403,1.4437555389136616,-0.6649458078007208,0.9800234436988831,0.15454652905464172,-0.12517710030078888, 314, 253, 180, 281
1730928436529,9i,9.126603312321299,1.0s : 0.3s,-25.085119343753718,0.14614437819108067,1.0658161824749843,0.35351167668052697,1.4517563581466675,0.028086185455322266,-1.0372159481048584,-0.17046630382537842,0.2937456965446472,-0.09810815751552582,-0.1633084986411376,1.4415491936993026,-0.6804124754821617,0.9784648418426514,0.16258357465267181,-0.12717269361019135, 314, 253, 180, 281
1730928436539,9i,9.126603312321299,1.0s : 0.3s,-25.085119343753718,0.15376623319025948,1.1306431548309992,0.38830862215620815,1.5406748056411743,0.018021833151578903,-1.1306278705596924,-0.18959033489227295,0.31823310256004333,-0.11647653579711914,-0.17208634863335556,1.438993909228579,-0.6968803510974506,0.9766843914985657,0.1712382584810257,-0.1294800043106079, 314, 253, 180, 281
1730928436549,9i,9.126603312321299,1.0s : 0.3s,-25.085119343753718,0.16189814564551003,1.192808515338318,0.4190648283220855,1.5817327499389648,0.015428358688950539,-1.21578848361969,-0.19187015295028687,0.3480740189552307,-0.1328369379043579,-0.18162459225660305,1.4361253878962223,-0.714210987282024,0.9746459722518921,0.18062767386436462,-0.13205578923225403, 314, 253, 180, 281
1730928436559,9i,9.126603312321299,1.0s : 0.3s,-25.085119343753718,0.1704331353676373,1.2519064279108676,0.426127073573654,1.5929851531982422,-0.004835634026676416,-1.3290503025054932,-0.19576525688171387,0.3552950620651245,-0.13048243522644043,-0.19210310741690995,1.4328864007746078,-0.732018504120452,0.9722849726676941,0.19092373549938202,-0.134944349527359, 314, 253, 180, 281
1730928436569,9i,9.126603312321299,1.0s : 0.3s,-25.085119343753718,0.17924373778438282,1.2998888801759134,0.42623984830844286,1.5768026113510132,-0.02845720574259758,-1.3994380235671997,-0.1930733323097229,0.3612889051437378,-0.1177854984998703,-0.2033885713868369,1.429140635034951,-0.7499957816665145,0.9695777893066406,0.20198920369148254,-0.13827233016490936, 314, 253, 180, 281
1730928436579,9i,9.126603312321299,1.0s : 0.3s,-25.085119343753718,0.18808287444745153,1.3337453041704974,0.40602441857246524,1.4860529899597168,-0.02063470333814621,-1.505297303199768,-0.17411571741104126,0.346662700176239,-0.11985206604003906,-0.21553370602583685,1.4252591747786612,-0.7675740248385837,0.9665351510047913,0.21386881172657013,-0.1416684091091156, 314, 253, 180, 281
1730928436589,9i,9.126603312321299,1.0s : 0.3s,-25.085119343753718,0.1969560831593097,1.3832434712689483,0.4147479820484929,1.5334563255310059,-0.036154940724372864,-1.6351577043533325,-0.20300710201263428,0.3473008871078491,-0.10092620551586151,-0.22888039794553622,1.421120590287234,-0.7851648101227033,0.9630320072174072,0.22688725590705872,-0.14522865414619446, 314, 253, 180, 281
1730928436599,9i,9.126603312321299,1.0s : 0.3s,-25.085119343753718,0.20629395202630446,1.4515806263202284,0.47591925265511825,1.6669480800628662,-0.03531071916222572,-1.7310535907745361,-0.21579527854919434,0.4147258400917053,-0.0890730619430542,-0.24311851666558335,1.416327842086679,-0.8040562093819661,0.9590355753898621,0.24073059856891632,-0.14933036267757416, 314, 253, 180, 281
1730928436609,9i,9.126603312321299,1.0s : 0.3s,-25.085119343753718,0.21630163077404385,1.5287438058894494,0.5261897445975433,1.7695472240447998,-0.03709486126899719,-1.8322848081588745,-0.1720142960548401,0.483085572719574,-0.11796210706233978,-0.25803417068229284,1.4109109169788832,-0.8244820247262087,0.9545612335205078,0.255180299282074,-0.15393434464931488, 314, 253, 180, 281
1730928436619,9i,9.126603312321299,1.0s : 0.3s,-25.085119343753718,0.22690088852807144,1.5978517178129141,0.5486790740533171,1.7758551836013794,-0.07781592011451721,-1.9297919273376465,-0.16493868827819824,0.5118974447250366,-0.10865063965320587,-0.2737031020891167,1.4047241197618174,-0.8458295269016387,0.9495304226875305,0.2702985405921936,-0.15915648639202118, 314, 253, 180, 281
1730928436629,9i,9.126603312321299,1.0s : 0.3s,-25.085119343753718,0.23753879767732047,1.6576511930746296,0.501893513260565,1.7648251056671143,-0.11181232333183289,-2.015869379043579,-0.13402140140533447,0.47635772824287415,-0.0837775468826294,-0.2901791285310394,1.397748728045573,-0.8674747770069844,0.943881630897522,0.2861238718032837,-0.16498661041259766, 314, 253, 180, 281
1730928436639,9i,9.126603312321299,1.0s : 0.3s,-25.085119343753718,0.24785541078442935,1.7138052603027623,0.4428644623395539,1.7786048650741577,-0.13731661438941956,-2.0959770679473877,-0.10463094711303711,0.42441609501838684,-0.07107935845851898,-0.3072955451848133,1.3900234883224003,-0.889465076324032,0.9376233816146851,0.3024819791316986,-0.1713676154613495, 314, 253, 180, 281
1730928436649,9i,9.126603312321299,1.0s : 0.3s,-25.085119343753718,0.2579331541387057,1.7634324306141012,0.43291729799121803,1.7747000455856323,-0.13856320083141327,-2.165595769882202,-0.0951617956161499,0.4125387966632843,-0.0904066413640976,-0.32499402366818086,1.3816330977113693,-0.9120323724015769,0.9307482242584229,0.31930312514305115,-0.1781938523054123, 314, 253, 180, 281
1730928436659,9i,9.126603312321299,1.0s : 0.3s,-25.085119343753718,0.2678248893736799,1.805736033267978,0.4255238428188819,1.7477840185165405,-0.15185770392417908,-2.2352805137634277,-0.08837807178497314,0.4039919674396515,-0.10025142133235931,-0.34321564228608886,1.3727089297964454,-0.9348239984798298,0.9232625961303711,0.3365169167518616,-0.18531690537929535, 314, 253, 180, 281
1730928436669,9i,9.126603312321299,1.0s : 0.3s,-25.085119343753718,0.27729075916913515,1.840224080210421,0.391096380491487,1.6831814050674438,-0.19103790819644928,-2.314556121826172,-0.0706363320350647,0.37520673871040344,-0.0847749412059784,-0.36203556435060014,1.3631455906215677,-0.9575854937420668,0.9150883555412292,0.3541785776615143,-0.19279783964157104, 314, 253, 180, 281
1730928436679,9i,9.126603312321299,1.0s : 0.3s,-25.085119343753718,0.28626744379298874,1.874570533719582,0.37061656313060454,1.6460654735565186,-0.2510825991630554,-2.3990962505340576,-0.03832656145095825,0.36255621910095215,-0.06663857400417328,-0.3815756338920678,1.3526240238396021,-0.9803736783505991,0.906078577041626,0.3723832368850708,-0.20087863504886627, 314, 253, 180, 281
1730928436689,9i,9.126603312321299,1.0s : 0.3s,-25.085119343753718,0.2951523306249675,1.9172391453827005,0.39310154948485543,1.676175832748413,-0.2815341055393219,-2.4845941066741943,0.007645905017852783,0.3870101273059845,-0.06850934028625488,-0.40170659339763937,1.3410380997022,-1.0037392068240631,0.8962084650993347,0.39098966121673584,-0.20961271226406097, 314, 253, 180, 281
1730928436699,9i,9.126603312321299,1.0s : 0.3s,-25.085119343753718,0.30396140824787854,1.9629034939400443,0.4138447867776945,1.6911121606826782,-0.34555119276046753,-2.560994863510132,0.05008089542388916,0.40397611260414124,-0.07458359003067017,-0.42229104422816915,1.3281688483523097,-1.0280352865682558,0.8854354023933411,0.4098513126373291,-0.21914821863174438, 314, 253, 180, 281
1730928436709,9i,9.126603312321299,1.0s : 0.3s,-25.085119343753718,0.3126806740641953,2.010042676693272,0.44573074151596853,1.709784984588623,-0.3935031294822693,-2.6316537857055664,0.07651835680007935,0.42897212505340576,-0.09382830560207367,-0.44326601591942283,1.3138869329487337,-1.0532779580895189,0.8737074136734009,0.4288921356201172,-0.22953598201274872, 314, 253, 180, 281
1730928436719,9i,9.126603312321299,1.0s : 0.3s,-25.085119343753718,0.3213759349302381,2.054631945014054,0.47039061689394596,1.7007851600646973,-0.45358964800834656,-2.6973319053649902,0.11459225416183472,0.4439976215362549,-0.10489070415496826,-0.46451061263189103,1.2981816264012176,-1.0793774494694783,0.8610241413116455,0.44798532128334045,-0.2407209575176239, 314, 253, 180, 281
1730928436729,9i,9.126603312321299,1.0s : 0.3s,-25.085119343753718,0.33007563288769415,2.094375982737714,0.48187658599286676,1.6677711009979248,-0.5223808288574219,-2.7571487426757812,0.1382359266281128,0.4459511935710907,-0.11926192045211792,-0.48606457301255357,1.2810770664991158,-1.1061099803945387,0.8473292589187622,0.46714988350868225,-0.25259485840797424, 314, 253, 180, 281
1730928436739,9i,9.126603312321299,1.0s : 0.3s,-25.085119343753718,0.3386696109623069,2.130898693978426,0.4798509241065578,1.6293909549713135,-0.5789424180984497,-2.8203113079071045,0.1662866473197937,0.43983399868011475,-0.09566459059715271,-0.5078655640366299,1.262546106872561,-1.1333694692126646,0.832599401473999,0.4863133132457733,-0.26509901881217957, 314, 253, 180, 281
1730928436749,9i,9.126603312321299,1.0s : 0.3s,-25.085119343753718,0.34704687169753196,2.165042256427702,0.4905666441114678,1.621519923210144,-0.6325269341468811,-2.8621647357940674,0.21214061975479126,0.4387829303741455,-0.055870652198791504,-0.5298104736056944,1.2426192810219359,-1.161342236959997,0.816851019859314,0.5053697824478149,-0.27812904119491577, 314, 253, 180, 281
1730928436759,9i,9.126603312321299,1.0s : 0.3s,-25.085119343753718,0.3553559140291033,2.204642265121228,0.5154246134843047,1.6993811130523682,-0.6780073046684265,-2.895674228668213,0.2382352352142334,0.45432090759277344,-0.049990177154541016,-0.5514645635808301,1.2208724393264847,-1.1907743312644525,0.8001406192779541,0.5239352583885193,-0.29200509190559387, 314, 253, 180, 281
1730928436769,9i,9.126603312321299,1.0s : 0.3s,-25.085119343753718,0.36384950488568124,2.244044262964145,0.5594132960731949,1.7482318878173828,-0.7250581383705139,-2.9236631393432617,0.27324867248535156,0.480563759803772,-0.08565554022789001,-0.5725655008383226,1.1972053119090384,-1.2220072412350242,0.7825373411178589,0.5417901873588562,-0.30675479769706726, 314, 253, 180, 281
1730928436779,9i,9.126603312321299,1.0s : 0.3s,-25.085119343753718,0.37265210974018986,2.2782489171702247,0.5951977808100356,1.717060923576355,-0.7866823077201843,-2.9660804271698,0.30113476514816284,0.5059624314308167,-0.08706474304199219,-0.5933746552661167,1.1716795039974939,-1.2546223359298165,0.7638981938362122,0.5591619610786438,-0.3221760392189026, 314, 253, 180, 281
1730928436789,9i,9.126603312321299,1.0s : 0.3s,-25.085119343753718,0.3815944460444825,2.3026889558128816,0.597936021065665,1.644622802734375,-0.8695947527885437,-2.9894378185272217,0.32750338315963745,0.4963940382003784,-0.06214481592178345,-0.6139870663506235,1.1444277607467623,-1.287930204861999,0.7441824078559875,0.5761308670043945,-0.33803224563598633, 314, 253, 180, 281
1730928436799,9i,9.126603312321299,1.0s : 0.3s,-25.085119343753718,0.3903493494319696,2.3215555561502303,0.5921205679946178,1.5607342720031738,-0.9275773763656616,-3.0289366245269775,0.3778862953186035,0.4527738690376282,-0.052957892417907715,-0.6344035352665646,1.1157410478046892,-1.3215935613030225,0.7234625816345215,0.5926972031593323,-0.3539940416812897, 314, 253, 180, 281
1730928436809,9i,9.126603312321299,1.0s : 0.3s,-25.085119343753718,0.3990095270595801,2.3391506275837046,0.5862353288623613,1.4661318063735962,-0.9863612055778503,-3.0851666927337646,0.4036576747894287,0.4209088087081909,-0.05973371863365173,-0.6548162695914299,1.0856323186197998,-1.3557679766405009,0.7016279101371765,0.6090134978294373,-0.36989280581474304, 314, 253, 180, 281
1730928436819,9i,9.126603312321299,1.0s : 0.3s,-25.085119343753718,0.40771951342789,2.363515641996405,0.6231123772080563,1.4761706590652466,-1.0535944700241089,-3.1244962215423584,0.42355310916900635,0.44884294271469116,-0.08609187602996826,-0.6750460031371147,1.053603922251439,-1.391140046429375,0.6785739660263062,0.6249332427978516,-0.3859998881816864, 314, 253, 180, 281
1730928436829,9i,9.126603312321299,1.0s : 0.3s,-25.085119343753718,0.4167239324797367,2.3807486266505573,0.6808571006197792,1.370976209640503,-1.1410733461380005,-3.1464834213256836,0.4695817232131958,0.48818111419677734,-0.06883746385574341,-0.6947269317388304,1.0195345930710207,-1.427618950780743,0.6544263958930969,0.6401757001876831,-0.4023692309856415, 314, 253, 180, 281
1730928436839,9i,9.126603312321299,1.0s : 0.3s,-25.085119343753718,0.42563687964994984,2.3945462551186307,0.6913055866087634,1.2587767839431763,-1.1886818408966064,-3.1873669624328613,0.5290140509605408,0.44400501251220703,-0.030118048191070557,-0.7143765007419475,0.9839449140761386,-1.4645523173585184,0.629097580909729,0.6551464796066284,-0.4183530807495117, 314, 253, 180, 281
1730928436849,9i,9.126603312321299,1.0s : 0.3s,-25.085119343753718,0.4342710585932958,2.413066845708585,0.6805763330460098,1.2116656303405762,-1.275658369064331,-3.221412181854248,0.549501359462738,0.40152639150619507,-0.002992987632751465,-0.7337246312059845,0.9465401575420832,-1.5023313777650256,0.6026135683059692,0.6696404814720154,-0.4340950846672058, 314, 253, 180, 281
1730928436859,9i,9.126603312321299,1.0s : 0.3s,-25.085119343753718,0.44309817115226674,2.4331253300067264,0.7110493612948463,1.2253117561340332,-1.3069573640823364,-3.2383830547332764,0.5614436864852905,0.4351661205291748,-0.03166431188583374,-0.7522769127041454,0.9068185427089989,-1.5419068159010678,0.575015664100647,0.6833029985427856,-0.44994887709617615, 314, 253, 180, 281
1730928436869,9i,9.126603312321299,1.0s : 0.3s,-25.085119343753718,0.45230494683894173,2.455145976189449,0.7264638222418538,1.217641830444336,-1.3476718664169312,-3.268070936203003,0.5663213133811951,0.45337122678756714,-0.038527727127075195,-0.7696799343279374,0.8649242563249954,-1.583428513202937,0.5465326905250549,0.6959054470062256,-0.4658515751361847, 314, 253, 180, 281
1730928436879,9i,9.126603312321299,1.0s : 0.3s,-25.085119343753718,0.46182560467164324,2.4810204645150487,0.716995943636521,1.202460527420044,-1.3978993892669678,-3.311462163925171,0.5647919774055481,0.43783068656921387,-0.05828803777694702,-0.7862265728864992,0.8207245986396536,-1.626809755288309,0.5169188380241394,0.7076923251152039,-0.48162904381752014, 314, 253, 180, 281
1730928436889,9i,9.126603312321299,1.0s : 0.3s,-25.085119343753718,0.47171640215249966,2.5101197070475956,0.7379980703968186,1.2148642539978027,-1.413466215133667,-3.360966682434082,0.5861541628837585,0.4433535933494568,-0.0670972466468811,-0.801659837064825,0.7740746615307617,-1.6724334488687604,0.48620307445526123,0.7185115218162537,-0.49734070897102356, 314, 253, 180, 281
1730928436899,9i,9.126603312321299,1.0s : 0.3s,-25.085119343753718,0.4819900624491409,2.5392814468302065,0.7576541604826056,1.2204625606536865,-1.451471209526062,-3.3923285007476807,0.6056686639785767,0.4530981183052063,-0.043673694133758545,-0.8157685598935863,0.7252050020933037,-1.720226179431256,0.45455777645111084,0.7282525300979614,-0.5128601789474487, 314, 253, 180, 281
1730928436909,9i,9.126603312321299,1.0s : 0.3s,-25.085119343753718,0.4926606115205351,2.572047647358711,0.7861686720321455,1.240805983543396,-1.5021108388900757,-3.4332382678985596,0.6350228786468506,0.46322911977767944,-0.015030205249786377,-0.8283225006831266,0.6737321394054874,-1.7702621708164696,0.4218313992023468,0.7367982268333435,-0.5283811092376709, 314, 253, 180, 281
1730928436919,9i,9.126603312321299,1.0s : 0.3s,-25.085119343753718,0.5036778417824914,2.600319389615011,0.8096902330988763,1.2397483587265015,-1.5379928350448608,-3.4482040405273438,0.6691380143165588,0.4558461308479309,-0.007542967796325684,-0.8391483561030596,0.6200590867681166,-1.8222136378582705,0.38821983337402344,0.7440744042396545,-0.5437266230583191, 314, 253, 180, 281
1730928436929,9i,9.126603312321299,1.0s : 0.3s,-25.085119343753718,0.5148432344626838,2.6176083023346806,0.7875560198751326,1.1962816715240479,-1.5503100156784058,-3.4438631534576416,0.6747713088989258,0.4060562252998352,0.006819605827331543,-0.8483318025999256,0.5647018906876489,-1.8756061180613937,0.35386940836906433,0.7501783967018127,-0.5585774183273315, 314, 253, 180, 281
1730928436939,9i,9.126603312321299,1.0s : 0.3s,-25.085119343753718,0.5262059663469504,2.6294783449133394,0.7687932298570511,1.0999490022659302,-1.5853809118270874,-3.460495948791504,0.6621549129486084,0.3905355930328369,0.008709311485290527,-0.8560537537436096,0.5083723063844557,-1.9296275844941575,0.3190310597419739,0.755262017250061,-0.572536826133728, 314, 253, 180, 281
1730928436949,9i,9.126603312321299,1.0s : 0.3s,-25.085119343753718,0.5377475770822252,2.6275964862828056,0.7687702200183757,0.9855755567550659,-1.5905663967132568,-3.4190123081207275,0.6678698658943176,0.38063204288482666,0.008760213851928711,-0.8626919004272626,0.45144356982129386,-1.9837805357497598,0.28374454379081726,0.7595961093902588,-0.5852373242378235, 314, 253, 180, 281
1730928436959,9i,9.126603312321299,1.0s : 0.3s,-25.085119343753718,0.5493598334390344,2.6213291451556024,0.7524384925350458,0.936255931854248,-1.6017961502075195,-3.4097025394439697,0.672511100769043,0.33531826734542847,0.03813350200653076,-0.867979542804747,0.39435202279042253,-2.0377959663120047,0.2483416199684143,0.7630245089530945,-0.5967578291893005, 314, 253, 180, 281
1730928436969,9i,9.126603312321299,1.0s : 0.3s,-25.085119343753718,0.5607168136935504,2.626537173967886,0.7308375706204792,1.008400321006775,-1.6246002912521362,-3.4451076984405518,0.6594136953353882,0.31324565410614014,0.034267961978912354,-0.8712091635492756,0.3363055493443763,-2.0926966637320796,0.2124888002872467,0.7651081085205078,-0.6078305840492249, 314, 253, 180, 281
1730928436979,9i,9.126603312321299,1.0s : 0.3s,-25.085119343753718,0.5722623488290334,2.64999042449404,0.7399020615098953,1.1138750314712524,-1.6603097915649414,-3.4998862743377686,0.6483664512634277,0.35638999938964844,-0.00788503885269165,-0.8715763856465368,0.2766685341403307,-2.14916543553378,0.17580655217170715,0.765344500541687,-0.6191443800926208, 314, 253, 180, 281
1730928436989,9i,9.126603312321299,1.0s : 0.3s,-25.085119343753718,0.5841257274369379,2.6719970396854658,0.7712384060180326,1.1639333963394165,-1.6816045045852661,-3.5056393146514893,0.6530359983444214,0.40462422370910645,-0.0680580735206604,-0.8689707572311879,0.21632391858362301,-2.206217578277788,0.13857479393482208,0.7636648416519165,-0.6305656433105469, 314, 253, 180, 281
1730928436999,9i,9.126603312321299,1.0s : 0.3s,-25.085119343753718,0.5962278088054906,2.6927145095286624,0.7530137832669462,1.1258386373519897,-1.7041457891464233,-3.5374629497528076,0.6464539766311646,0.3828136920928955,-0.05080050230026245,-0.8641952699141404,0.1561469943156944,-2.262989111830762,0.10096733272075653,0.7605730295181274,-0.6413534283638, 314, 253, 180, 281
1730928437009,9i,9.126603312321299,1.0s : 0.3s,-25.085119343753718,0.6079493832985838,2.7085672875034423,0.6935891392867295,1.2178232669830322,-1.5972460508346558,-3.565441370010376,0.6229912042617798,0.30474627017974854,-0.008807063102722168,-0.8573886179642602,0.09657989348257505,-2.3192070482957425,0.06310504674911499,0.7561362385749817,-0.6513645052909851, 314, 253, 180, 281
1730928437019,9i,9.126603312321299,1.0s : 0.3s,-25.085119343753718,0.6197367014996444,2.744530498646864,0.7131944647266807,1.444994568824768,-1.794285535812378,-3.537721633911133,0.6465554237365723,0.29906678199768066,-0.03422701358795166,-0.8475398140804836,0.03826635079120527,-2.3740984527566504,0.025319615378975868,0.7496544718742371,-0.6613448858261108, 314, 253, 180, 281
1730928437029,9i,9.126603312321299,1.0s : 0.3s,-25.085119343753718,0.6328062415180216,2.7995256167716804,0.8315099822817568,1.5507559776306152,-1.823775291442871,-3.6534523963928223,0.6444486379623413,0.49028128385543823,-0.1889948844909668,-0.8318750573259878,-0.02004262738474537,-2.428071430288832,-0.013497622683644295,0.7391955256462097,-0.6733555793762207, 314, 253, 180, 281
1730928437039,9i,9.126603312321299,1.0s : 0.3s,-25.085119343753718,0.6460730677468016,2.8329224344417336,0.7799093571983353,1.4017810821533203,-1.934513807296753,-3.62292742729187,0.6688831448554993,0.39611631631851196,-0.06281566619873047,-0.8154871268839213,-0.07740296270404293,-2.480563102781845,-0.0530078262090683,0.7280595898628235,-0.6834612488746643, 314, 253, 180, 281
1730928437049,9i,9.126603312321299,1.0s : 0.3s,-25.085119343753718,0.6589344412416257,2.846097723416522,0.7355462637338742,1.0986347198486328,-2.0269477367401123,-3.625760793685913,0.6928874850273132,0.22136884927749634,0.1092294454574585,-0.7992494864083772,-0.13343237516501325,-2.5307792842832875,-0.09275921434164047,0.7168329954147339,-0.6910471320152283, 314, 253, 180, 281
1730928437059,9i,9.126603312321299,1.0s : 0.3s,-25.085119343753718,0.6717058591294068,2.8595187685667347,0.7313583340469408,1.0775784254074097,-2.051856279373169,-3.638333320617676,0.6899711489677429,0.24154216051101685,0.021959304809570312,-0.7828407984888571,-0.1885248671601802,-2.5794213757905915,-0.13285741209983826,0.7052961587905884,-0.6963520646095276, 314, 253, 180, 281
1730928437069,9i,9.126603312321299,1.0s : 0.3s,-25.085119343753718,0.684617988248164,2.8589456591845255,0.7749904643030319,1.1182990074157715,-2.022282361984253,-3.5725982189178467,0.7008031606674194,0.3239193558692932,-0.06753814220428467,-0.7643976256754057,-0.24090503561645094,-2.6253211232540226,-0.17220807075500488,0.692102313041687,-0.7009555697441101, 314, 253, 180, 281
1730928437079,9i,9.126603312321299,1.0s : 0.3s,-25.085119343753718,0.6976869079979157,2.871802542569844,0.7471611446692134,1.2213020324707031,-2.0642261505126953,-3.5993645191192627,0.6590555906295776,0.34760987758636475,-0.05534327030181885,-0.7437443287452842,-0.2909792287603719,-2.6685897734289745,-0.21113374829292297,0.6770482659339905,-0.7050023078918457, 314, 253, 180, 281
1730928437089,9i,9.126603312321299,1.0s : 0.3s,-25.085119343753718,0.7109131676532683,2.8734020961891305,0.7578672209190626,1.218062162399292,-2.0746288299560547,-3.565272808074951,0.6726399660110474,0.3426383137702942,-0.06721001863479614,-0.7209830988619251,-0.3389288609327485,-2.709338260545655,-0.2497425228357315,0.6601234674453735,-0.7084248065948486, 314, 253, 180, 281
1730928437099,9i,9.126603312321299,1.0s : 0.3s,-25.085119343753718,0.7242227121629311,2.8755043776060543,0.7794563644644081,1.193253993988037,-2.1100821495056152,-3.5586180686950684,0.7149965167045593,0.30629420280456543,-0.05016040802001953,-0.6970560175236141,-0.38477710452680824,-2.7475731096839002,-0.28779610991477966,0.6419632434844971,-0.7106733918190002, 314, 253, 180, 281
1730928437109,9i,9.126603312321299,1.0s : 0.3s,-25.085119343753718,0.7375632450788784,2.8743581895544414,0.7666968081950623,1.142842411994934,-2.134611129760742,-3.5180532932281494,0.7190457582473755,0.2632828950881958,-0.03846180438995361,-0.6723879450004201,-0.4287538851433795,-2.783579886417132,-0.3252468705177307,0.6228559613227844,-0.7115229964256287, 314, 253, 180, 281
1730928437119,9i,9.126603312321299,1.0s : 0.3s,-25.085119343753718,0.7509379259404139,2.8701406329151804,0.7674652707035243,1.1041202545166016,-2.1703884601593018,-3.4883110523223877,0.7219336628913879,0.25725215673446655,-0.04044818878173828,-0.6469984022956882,-0.47096070277935304,-2.8173267925387773,-0.3620397448539734,0.6027941703796387,-0.711031973361969, 314, 253, 180, 281
1730928437129,9i,9.126603312321299,1.0s : 0.3s,-25.085119343753718,0.7641733775993443,2.8568384531530646,0.7914664906308301,1.0386980772018433,-2.19864559173584,-3.4434549808502197,0.7553352117538452,0.23628824949264526,-0.007469058036804199,-0.6212170534542971,-0.5115642089079914,-2.8489581370539265,-0.3980810344219208,0.5820252895355225,-0.7090684175491333, 314, 253, 180, 281
1730928437139,9i,9.126603312321299,1.0s : 0.3s,-25.085119343753718,0.7769745218718228,2.841888390703098,0.8048998031081486,1.0257830619812012,-2.2208211421966553,-3.3972439765930176,0.7849554419517517,0.17370831966400146,0.039167165756225586,-0.5950432248640916,-0.5505745506159366,-2.878560756464492,-0.43325552344322205,0.5605445504188538,-0.7057474255561829, 314, 253, 180, 281
1730928437149,9i,9.126603312321299,1.0s : 0.3s,-25.085119343753718,0.7896081389158411,2.8228155187394077,0.802114036240862,1.0491724014282227,-2.2196154594421387,-3.3362860679626465,0.7868759632110596,0.1518802046775818,0.03384596109390259,-0.5681532481492861,-0.5877858088894738,-2.905827282874604,-0.46740254759788513,0.5380763411521912,-0.7014332413673401, 314, 253, 180, 281
1730928437159,9i,9.126603312321299,1.0s : 0.3s,-25.085119343753718,0.8023083873000927,2.7918884519647227,0.785157194764813,1.0224120616912842,-2.1789121627807617,-3.262176513671875,0.7663196921348572,0.170759379863739,0.008196592330932617,-0.5408309509024785,-0.6228974716744075,-2.9307662282293587,-0.5001300573348999,0.514848530292511,-0.6962764859199524, 314, 253, 180, 281
1730928437169,9i,9.126603312321299,1.0s : 0.3s,-25.085119343753718,0.8149903038477994,2.7493723165490978,0.7871175036432787,0.9302180409431458,-2.1347596645355225,-3.191107749938965,0.7755626440048218,0.12400656938552856,0.0517582893371582,-0.5137264991792123,-0.656161513706834,-2.954000328455932,-0.5313303470611572,0.49142614006996155,-0.690064013004303, 314, 253, 180, 281
1730928437179,9i,9.126603312321299,1.0s : 0.3s,-25.085119343753718,0.8270875612549333,2.6992065725068626,0.8350898292985971,0.9092778563499451,-2.1291396617889404,-3.0752618312835693,0.8225791454315186,0.06668329238891602,0.1276397705078125,-0.4869916410106541,-0.6876998390667375,-2.9754084431060344,-0.5609670877456665,0.4679693877696991,-0.6828766465187073, 314, 253, 180, 281
1730928437189,9i,9.126603312321299,1.0s : 0.3s,-25.085119343753718,0.8390729724225452,2.6452584897772002,0.8607519578931696,0.8851641416549683,-2.1002695560455322,-2.9848215579986572,0.8482734560966492,0.08520480990409851,0.11860108375549316,-0.46048422825879043,-0.7177644851577704,-2.9948386767145196,-0.5891943573951721,0.4443819522857666,-0.6748145222663879, 314, 253, 180, 281
1730928437199,9i,9.126603312321299,1.0s : 0.3s,-25.085119343753718,0.850983082875166,2.5760641370512087,0.89459625265093,0.796046793460846,-2.0353283882141113,-2.8602688312530518,0.8839399218559265,0.04751583933830261,0.12920880317687988,-0.4347215148978104,-0.7461910709240437,-3.0127573710951485,-0.6157055497169495,0.4211578369140625,-0.6659826040267944, 314, 253, 180, 281
1730928437209,9i,9.126603312321299,1.0s : 0.3s,-25.085119343753718,0.8624395064536654,2.4916395313523707,0.9210424570348562,0.7733222842216492,-1.9535757303237915,-2.6989524364471436,0.8979867100715637,-0.04045256972312927,0.20075523853302002,-0.4098808488705045,-0.7727956428668976,-3.0289623871252593,-0.6403114199638367,0.3985000550746918,-0.6566573977470398, 314, 253, 180, 281
1730928437219,9i,9.126603312321299,1.0s : 0.3s,-25.085119343753718,0.8735015680538625,2.3895209790944834,0.9540536699240061,0.7853927612304688,-1.8367582559585571,-2.5081839561462402,0.9209638237953186,-0.08692297339439392,0.23342758417129517,-0.38595411083125114,-0.7972120060364597,-3.0429785473572792,-0.662784993648529,0.3764432370662689,-0.6473070383071899, 314, 253, 180, 281
1730928437229,9i,9.126603312321299,1.0s : 0.3s,-25.085119343753718,0.884051285907985,2.264395362634865,0.9789026616705034,0.7721546292304993,-1.7214542627334595,-2.2565982341766357,0.9242293834686279,-0.14862513542175293,0.28628838062286377,-0.363371371764544,-0.8192507192933559,-3.054637837086134,-0.6829268336296082,0.35542747378349304,-0.6381866335868835, 314, 253, 180, 281
1730928437239,9i,9.126603312321299,1.0s : 0.3s,-25.085119343753718,0.8936699461659733,2.1219141102932504,1.0099112031127362,0.7358869314193726,-1.6047407388687134,-2.003183364868164,0.9084610939025879,-0.2607199549674988,0.3558710217475891,-0.3425443723489465,-0.8391544972729433,-3.0640303328218286,-0.7008498311042786,0.3358847200870514,-0.6292780637741089, 314, 253, 180, 281
1730928437249,9i,9.126603312321299,1.0s : 0.3s,-25.085119343753718,0.9019928194892378,1.965171762945767,1.0949930211951633,0.690401017665863,-1.4537373781204224,-1.76297926902771,0.9177361726760864,-0.41213202476501465,0.43233925104141235,-0.32374858456290473,-0.856896097492813,-3.07157869751728,-0.7165489196777344,0.31812262535095215,-0.6207700967788696, 314, 253, 180, 281
1730928437259,9i,9.126603312321299,1.0s : 0.3s,-25.085119343753718,0.9089173750890538,1.7995804252236018,1.1760819138318033,0.7318381667137146,-1.3067950010299683,-1.4943454265594482,0.9111126065254211,-0.5299825668334961,0.5216904878616333,-0.3067589901706931,-0.8723861653845564,-3.077065089117752,-0.7301127314567566,0.301970511674881,-0.6129838824272156, 314, 253, 180, 281
1730928437269,9i,9.126603312321299,1.0s : 0.3s,-25.085119343753718,0.9146540908517553,1.6252088566126919,1.2460691368399037,0.7623741626739502,-1.1417745351791382,-1.2172409296035767,0.9105095267295837,-0.6097170114517212,0.5932165384292603,-0.2915170247348278,-0.8854970813725815,-3.0800479489466377,-0.741564154624939,0.2874055802822113,-0.6062018275260925, 314, 253, 180, 281
1730928437279,9i,9.126603312321299,1.0s : 0.3s,-25.085119343753718,0.9191749553717518,1.436246480046258,1.348171384927766,0.704491138458252,-0.9771587252616882,-0.9092764258384705,0.9149751663208008,-0.7409324049949646,0.6568148136138916,-0.2785951837815657,-0.8964101511424689,-3.0810521438011533,-0.750973641872406,0.2750052809715271,-0.6003420948982239, 314, 253, 180, 281
1730928437289,9i,9.126603312321299,1.0s : 0.3s,-25.085119343753718,0.9223554764186304,1.2238017757003306,1.4558876252225474,0.568393349647522,-0.7635341882705688,-0.5820583701133728,0.8957299590110779,-0.8838658928871155,0.7321596145629883,-0.26877357330024687,-0.9049690245696428,-3.0806565247131483,-0.7581719160079956,0.2655492424964905,-0.5955324769020081, 314, 253, 180, 281
1730928437299,9i,9.126603312321299,1.0s : 0.3s,-25.085119343753718,0.9243917537924851,1.001183799079694,1.572630094100171,0.47857823967933655,-0.5640109777450562,-0.2517140507698059,0.8910185694694519,-0.9952881932258606,0.8298510313034058,-0.26232455763937307,-0.9111061078545851,-3.0790479019647785,-0.7631497979164124,0.2593262791633606,-0.5919055938720703, 314, 253, 180, 281
1730928437309,9i,9.126603312321299,1.0s : 0.3s,-25.085119343753718,0.9259036687432025,0.7747018487056614,1.6652085483224213,0.43671175837516785,-0.33735722303390503,0.09807084500789642,0.915241003036499,-1.0521842241287231,0.9100339412689209,-0.2589882969549631,-0.9147700197683278,-3.075787741270534,-0.765994668006897,0.25610271096229553,-0.5896299481391907, 314, 253, 180, 281
1730928437319,9i,9.126603312321299,1.0s : 0.3s,-25.085119343753718,0.9276686243923028,0.5582866478925951,1.74292158911533,0.4470517337322235,-0.04882821440696716,0.4560779929161072,0.9681896567344666,-1.0823166370391846,0.9638335704803467,-0.2584951074631731,-0.9153521338136973,-3.0704332498785334,-0.7664377689361572,0.2556259334087372,-0.5892608761787415, 314, 253, 180, 281
1730928437329,9i,9.126603312321299,1.0s : 0.3s,-25.085119343753718,0.9301712691552629,0.39660364881423155,1.835119486340784,0.4189594089984894,0.2655439078807831,0.8725769519805908,1.0047791004180908,-1.120640516281128,1.0498796701431274,-0.2610938020345025,-0.9122647603632142,-3.0626823137863637,-0.764086902141571,0.25813743472099304,-0.5912158489227295, 314, 253, 180, 281
1730928437339,9i,9.126603312321299,1.0s : 0.3s,-25.085119343753718,0.9336853284649154,0.4218194286380419,1.9376814575183197,0.3946221172809601,0.6166830062866211,1.282829999923706,1.030768632888794,-1.1803176403045654,1.139726161956787,-0.2670845898540544,-0.9052469072914088,-3.05251856026404,-0.7586890459060669,0.26392051577568054,-0.5955978631973267, 314, 253, 180, 281
1730928437349,9i,9.126603312321299,1.0s : 0.3s,-25.085119343753718,0.9386413120394796,0.6528714887685633,2.051068584263958,0.3816387951374054,1.015117883682251,1.7567448616027832,1.0910725593566895,-1.2492740154266357,1.206547737121582,-0.2765433444432637,-0.8936191045533518,-3.039546245915272,-0.7497332692146301,0.27303197979927063,-0.6027880311012268, 314, 253, 180, 281
1730928437359,9i,9.126603312321299,1.0s : 0.3s,-25.085119343753718,0.9454089272767823,0.974538687307899,2.151809455285884,0.35681280493736267,1.4245266914367676,2.231691837310791,1.1454147100448608,-1.3147408962249756,1.2608590126037598,-0.2896766014602034,-0.8769376434883347,-3.0234545024753077,-0.7367537021636963,0.2856423258781433,-0.6128641366958618, 314, 253, 180, 281
1730928437369,9i,9.126603312321299,1.0s : 0.3s,-25.085119343753718,0.9545128556156328,1.3445989347056626,2.2279809466286817,0.3197338879108429,1.8885527849197388,2.7336373329162598,1.2213975191116333,-1.3550939559936523,1.278986930847168,-0.3063507670214602,-0.8545948678531439,-3.0038808574174523,-0.7191848754882812,0.30158132314682007,-0.6259567141532898, 314, 253, 180, 281
1730928437379,9i,9.126603312321299,1.0s : 0.3s,-25.085119343753718,0.9665590527711897,1.7471168675670623,2.3287186564979505,0.3710671067237854,2.3418831825256348,3.2495205402374268,1.3253718614578247,-1.3880423307418823,1.3189611434936523,-0.326361217700815,-0.8260989577758784,-2.9801958002943016,-0.6964807510375977,0.32059845328330994,-0.6419744491577148, 314, 253, 180, 281
1730928437389,9i,9.126603312321299,1.0s : 0.3s,-25.085119343753718,0.9824548574415879,2.1826573393057522,2.4505268474864885,0.36103537678718567,2.8457648754119873,3.8222458362579346,1.4909828901290894,-1.393118977546692,1.3569345474243164,-0.3493550392816237,-0.7906802785263874,-2.95153612738064,-0.6678931713104248,0.3422918915748596,-0.6608743667602539, 314, 253, 180, 281
1730928437399,9i,9.126603312321299,1.0s : 0.3s,-25.085119343753718,1.0030792074790618,2.650147767439682,2.619710981254423,0.3444252610206604,3.3825223445892334,4.42807674407959,1.699319839477539,-1.4153249263763428,1.4042980670928955,-0.37547053071677416,-0.7473088526228193,-2.9172048494322187,-0.6323183178901672,0.3667103350162506,-0.682420015335083, 314, 253, 180, 281
1730928437409,9i,9.126603312321299,1.0s : 0.3s,-25.085119343753718,1.029449207573669,3.1578267848709194,2.8604661361469415,0.3663594424724579,3.9440550804138184,5.122226238250732,1.9757390022277832,-1.4621680974960327,1.4631426334381104,-0.404323251473723,-0.6950794330333978,-2.876020073457474,-0.5888065099716187,0.39339667558670044,-0.7060778737068176, 314, 253, 180, 281
1730928437419,9i,9.126603312321299,1.0s : 0.3s,-25.085119343753718,1.0627618029402306,3.73096675498322,3.1588310835440487,0.3027932345867157,4.638654708862305,5.9579854011535645,2.324493408203125,-1.5101956129074097,1.5146793127059937,-0.43570049745693895,-0.6318127555012851,-2.825910803851975,-0.5354306697845459,0.4220455586910248,-0.7315678000450134, 314, 253, 180, 281
1730928437429,9i,9.126603312321299,1.0s : 0.3s,-25.085119343753718,1.1039143763381587,4.372607615254759,3.5504516121549154,0.08122316747903824,5.479720592498779,6.829235076904297,2.6806583404541016,-1.6367253065109253,1.6555687189102173,-0.4697616042465763,-0.5549735801139296,-2.7657005813889937,-0.469842791557312,0.4526737332344055,-0.7578484416007996, 314, 253, 180, 281
1730928437439,9i,9.126603312321299,1.0s : 0.3s,-25.085119343753718,1.1539714719979548,5.090297693817168,4.02686230208314,-0.4515581727027893,6.425285816192627,7.787094593048096,3.053447723388672,-1.777634620666504,1.9318623542785645,-0.5067836280412973,-0.46200831317021757,-2.694373864612517,-0.3897209167480469,0.48536765575408936,-0.7826467156410217, 314, 253, 180, 281
1730928437449,9i,9.126603312321299,1.0s : 0.3s,-25.085119343753718,1.2149319961734613,5.895308692433515,4.629541160814918,-1.2156436443328857,7.454982757568359,8.843698501586914,3.5707077980041504,-1.86808443069458,2.278806209564209,-0.5471913880593569,-0.3500555045631447,-2.6098138917617857,-0.2928755581378937,0.520290732383728,-0.8021978735923767, 314, 253, 180, 281
1730928437459,9i,9.126603312321299,1.0s : 0.3s,-25.085119343753718,1.2895378318490813,6.78917440784626,5.359567768730779,-2.0704612731933594,8.498908996582031,9.996973037719727,4.299086570739746,-1.902745008468628,2.573399066925049,-0.5892035806197753,-0.21549931850179027,-2.5079711771212083,-0.17777907848358154,0.5556990504264832,-0.8121533989906311, 314, 253, 180, 281
1730928437469,9i,9.126603312321299,1.0s : 0.3s,-25.085119343753718,1.3806013273861764,7.716711706404458,6.156576784142666,-2.779628038406372,9.234428405761719,11.192499160766602,5.247455596923828,-1.8550045490264893,2.6318445205688477,-0.6277806414050215,-0.05557552394939286,-2.383836833726068,-0.04495595768094063,0.5873500108718872,-0.8080834746360779, 314, 253, 180, 281
1730928437479,9i,9.126603312321299,1.0s : 0.3s,-25.085119343753718,1.4907947171851468,8.58753821649552,7.0753754743992445,-3.104137659072876,9.73858642578125,12.115814208984375,6.417369842529297,-1.6658060550689697,2.4705045223236084,-0.6532962825965775,0.12730580692857138,-2.236931004610973,0.10081873834133148,0.6078072190284729,-0.7876585125923157, 314, 253, 180, 281
1730928437489,9i,9.126603312321299,1.0s : 0.3s,-25.085119343753718,1.6222713095571453,9.329335439226806,8.116788215040332,-3.3180060386657715,10.118709564208984,12.597596168518066,7.698550224304199,-1.2409722805023193,2.2526791095733643,-0.6566073902117476,0.32517944008332333,-2.0757831585564848,0.2530488669872284,0.6104332208633423,-0.7505581378936768, 314, 253, 180, 281
1730928437499,9i,9.126603312321299,1.0s : 0.3s,-25.085119343753718,1.7761724246871664,9.93438844861885,9.189382708118652,-4.36438512802124,10.258177757263184,12.772395133972168,8.887073516845703,-0.5477540493011475,2.272585391998291,-0.6383992342188428,0.5267691264713198,-1.9111657759887095,0.403728187084198,0.5959107279777527,-0.6941857933998108, 314, 253, 180, 281
1730928437509,9i,9.126603312321299,1.0s : 0.3s,-25.085119343753718,1.9531328376526145,10.383813148960332,10.314895774871422,-6.387097358703613,9.816182136535645,12.627335548400879,9.997036933898926,0.48104602098464966,2.4949793815612793,-0.6069263619170645,0.7242696354169222,-1.7457390151350143,0.5442534685134888,0.5703454613685608,-0.6152187585830688, 314, 253, 180, 281
1730928437519,9i,9.126603312321299,1.0s : 0.3s,-25.085119343753718,2.1530948461207293,10.682407679660576,11.511293519398174,-9.05411434173584,8.592220306396484,12.196246147155762,11.094697952270508,1.7702374458312988,2.506753921508789,-0.568557753051282,0.9110307412516848,-1.576107041012918,0.6658304929733276,0.5384172797203064,-0.5165042877197266, 314, 253, 180, 281
1730928437529,9i,9.126603312321299,1.0s : 0.3s,-25.085119343753718,2.374621238923835,10.943369225065446,12.716616065185276,-12.6126070022583,6.41637659072876,11.63585376739502,12.003355026245117,3.533233404159546,2.268932342529297,-0.5265084626145875,1.081356744349884,-1.394126826109811,0.7630636096000671,0.5025177597999573,-0.4064599573612213, 314, 253, 180, 281
1730928437539,9i,9.126603312321299,1.0s : 0.3s,-25.085119343753718,2.613920846192026,11.368697437995305,13.831728148573195,-16.47603416442871,3.8288533687591553,10.920483589172363,12.278483390808105,5.989713191986084,2.1630730628967285,-0.48146257611369897,1.2311925820021936,-1.1900715103185167,0.8356980085372925,0.4630759656429291,-0.29524466395378113, 314, 253, 180, 281
1730928437549,9i,9.126603312321299,1.0s : 0.3s,-25.085119343753718,2.863455913585907,11.991282091659553,14.674320586379668,-19.147903442382812,0.9267126321792603,10.41257381439209,11.44991683959961,8.881550788879395,2.3136863708496094,-0.42772883929905486,1.3538656893613903,-0.9656767582378845,0.8885842561721802,0.4148053228855133,-0.1958428919315338, 314, 253, 180, 281
1730928437559,9i,9.126603312321299,1.0s : 0.3s,-25.085119343753718,3.1118001677599425,12.577215095853118,15.099398639341064,-19.29970932006836,-1.6115370988845825,10.550227165222168,9.333463668823242,11.619165420532227,2.4234871864318848,-0.3578765652849791,1.436865129691623,-0.7389791885351349,0.9282547235488892,0.3502861261367798,-0.1250709891319275, 314, 253, 180, 281
1730928437569,9i,9.126603312321299,1.0s : 0.3s,-25.085119343753718,3.346973611805373,12.642501875078903,14.908740972198888,-16.346773147583008,-2.8749935626983643,10.712098121643066,6.380531311035156,13.24991512298584,2.4493114948272705,-0.2723126591967846,1.4764710475912726,-0.5386496923928011,0.9588698148727417,0.26895958185195923,-0.09071486443281174, 314, 253, 180, 281
1730928437579,9i,9.126603312321299,1.0s : 0.3s,-25.085119343753718,3.557513573398947,12.460954921071332,14.047229578357841,-14.500720024108887,-3.6364567279815674,10.740778923034668,2.942713975906372,13.522833824157715,2.4079158306121826,-0.1785375179567639,1.480632501497176,-0.37314174203269324,0.9801070094108582,0.1775905340909958,-0.0886104479432106, 314, 253, 180, 281
