timestamp,club,max_speed,tempo,w.rotation,l.speed,t.spped,acc,rotation.x,rotation.y,rotation.z,userAcceleration.x,userAcceleration.y,userAcceleration.z,pitch,roll,yaw,gravity.x,gravity.y,gravity.z,impactIndex,minDownIndex,StartIndex,endIndex
1730926673376,6i,8.339581026073432,1.0s : 0.3s,-17.319236398014937,4.843906256234307e-05,0.02194379300165635,0.026402879541748518,0.10416443645954132,0.012148108333349228,0.029707852751016617,-0.025858521461486816,0.0032937973737716675,0.004195213317871094,-0.1837740431057017,1.4586466574304473,0.16433178782562952,0.9769846200942993,0.18274135887622833,-0.11003018915653229, 288, 223, 156, 255
1730926673386,6i,8.339581026073432,1.0s : 0.3s,-17.319236398014937,0.00023417939427425536,0.044147544441262974,0.031207093438581083,0.13817048072814941,0.01712489128112793,0.032796818763017654,-0.023546159267425537,0.020142212510108948,-0.0037084147334098816,-0.1875750555534942,1.4620505128077654,0.1637797289351894,0.9766558408737183,0.18647703528404236,-0.10662788152694702, 288, 223, 156, 255
1730926673396,6i,8.339581026073432,1.0s : 0.3s,-17.319236398014937,0.0004439851069806636,0.05799166503573463,0.02080106723760756,0.12961719930171967,0.01483616977930069,0.032918259501457214,-0.012621521949768066,0.015226215124130249,-0.006445460021495819,-0.19396501077495545,1.4597782372472325,0.16201792073860996,0.9752069115638733,0.19275106489658356,-0.10871259868144989, 288, 223, 156, 255
1730926673406,6i,8.339581026073432,1.0s : 0.3s,-17.319236398014937,0.000631213465980374,0.061199616295832975,0.0020076418305143414,0.10796210914850235,0.019235756248235703,0.03082318603992462,0.0003052949905395508,-0.0019497275352478027,-0.00036875903606414795,-0.19812866951278937,1.457505220176837,0.16042735893398657,0.9741513133049011,0.19683495163917542,-0.11083728075027466, 288, 223, 156, 255
1730926673416,6i,8.339581026073432,1.0s : 0.3s,-17.319236398014937,0.00077677828705306,0.06093128858944347,0.013971068860251377,0.08104154467582703,0.023702943697571754,0.025242265313863754,0.004665255546569824,-0.01308344304561615,0.0014998912811279297,-0.19891717823476548,1.4583885361900397,0.15966194598745412,0.9740944504737854,0.19760797917842865,-0.10995932668447495, 288, 223, 156, 255
1730926673426,6i,8.339581026073432,1.0s : 0.3s,-17.319236398014937,0.0009066267998517246,0.05553371147785254,0.008614490341689516,0.051618266850709915,0.01828194595873356,0.017086833715438843,-0.0028454065322875977,-0.007484078407287598,-0.003178313374519348,-0.1971280898820608,1.4612408083461346,0.15955072447314333,0.9747540354728699,0.19585385918617249,-0.10721898823976517, 288, 223, 156, 255
1730926673436,6i,8.339581026073432,1.0s : 0.3s,-17.319236398014937,0.0010416292803733882,0.0461907692266018,0.014914656060956377,0.032374799251556396,0.01889260858297348,0.007695461623370647,-0.003916025161743164,0.008114993572235107,-0.011885225772857666,-0.1933903288067138,1.4638184478169232,0.15960926255222968,0.9757482409477234,0.1921871155500412,-0.10478350520133972, 288, 223, 156, 255
1730926673446,6i,8.339581026073432,1.0s : 0.3s,-17.319236398014937,0.0011888669078647246,0.04002106824669793,0.024097808358847634,0.027824390679597855,0.018151139840483665,0.006212513893842697,-0.003917574882507324,0.01179516315460205,-0.020645365118980408,-0.1907759475652256,1.4647812193703953,0.15947875421209168,0.9763448238372803,0.18962082266807556,-0.10389683395624161, 288, 223, 156, 255
1730926673456,6i,8.339581026073432,1.0s : 0.3s,-17.319236398014937,0.00134630330117365,0.03889062920958768,0.02062659855053376,0.03688446432352066,0.02395896054804325,0.00743517093360424,-0.0031586885452270508,0.00734025239944458,-0.019015781581401825,-0.19083746959721257,1.4643455459548684,0.15904724701467823,0.976287841796875,0.18968123197555542,-0.1043209508061409, 288, 223, 156, 255
1730926673466,6i,8.339581026073432,1.0s : 0.3s,-17.319236398014937,0.001512725766644737,0.039220050284973856,0.01878609459665412,0.058273110538721085,0.02491956204175949,0.006399201229214668,-0.0009922385215759277,0.007205873727798462,-0.017320744693279266,-0.19304173103194544,1.4635321360982627,0.15839398731156185,0.9757846593856812,0.19184501469135284,-0.10507002472877502, 288, 223, 156, 255
1730926673476,6i,8.339581026073432,1.0s : 0.3s,-17.319236398014937,0.001703183515842595,0.044342591910181646,0.02577443249615551,0.08922809362411499,0.019905097782611847,0.008921748027205467,-0.0011092424392700195,0.016550466418266296,-0.019727468490600586,-0.19469928227737737,1.4624447619107686,0.15742495019481345,0.97535240650177,0.1934715062379837,-0.10609647631645203, 288, 223, 156, 255
1730926673486,6i,8.339581026073432,1.0s : 0.3s,-17.319236398014937,0.0019264804184253297,0.04927890607942714,0.029805818913197647,0.09886661171913147,0.010511507280170918,0.0026761023327708244,-0.0023894906044006348,0.014767542481422424,-0.02577977627515793,-0.19466577451924602,1.4619392729243206,0.15637282942587863,0.9753050804138184,0.19343863427639008,-0.10659019649028778, 288, 223, 156, 255
1730926673496,6i,8.339581026073432,1.0s : 0.3s,-17.319236398014937,0.0021630585591934965,0.06282277539032681,0.020469611037350753,0.10259583592414856,0.09509243816137314,-0.11135006695985794,-0.0009786486625671387,0.002304255962371826,-0.020315945148468018,-0.1940560600184215,1.461919891075554,0.15528809037463864,0.9754201173782349,0.19284039735794067,-0.10662190616130829, 288, 223, 156, 255
1730926673506,6i,8.339581026073432,1.0s : 0.3s,-17.319236398014937,0.002410015445948517,0.23472235986178328,0.015548213386494134,0.16287901997566223,0.5659968852996826,-0.8336869478225708,-0.007537841796875,-0.0023584365844726562,-0.013392746448516846,-0.19386283854050076,1.4614121594388376,0.15386569265172073,0.9754027724266052,0.19265079498291016,-0.10712119191884995, 288, 223, 156, 255
1730926673516,6i,8.339581026073432,1.0s : 0.3s,-17.319236398014937,0.002732919410625193,0.37923578564761556,0.036271216276072354,0.24088114500045776,0.6135052442550659,-0.8416266441345215,-0.02301234006881714,0.006357759237289429,-0.027305901050567627,-0.19300416358497746,1.4599104475589062,0.15249217081995337,0.9754049181938171,0.19180813431739807,-0.10860411822795868, 288, 223, 156, 255
1730926673526,6i,8.339581026073432,1.0s : 0.3s,-17.319236398014937,0.0030717159338484,0.3176984672966853,0.047763590062636335,0.19773606956005096,0.09729047864675522,-0.1880461424589157,0.023591279983520508,0.03405967354774475,-0.023764483630657196,-0.1930900409218559,1.459609945843732,1.0593094560406717,0.9753558039665222,0.19189241528511047,-0.10889538377523422, 288, 223, 156, 255
1730926673536,6i,8.339581026073432,1.0s : 0.3s,-17.319236398014937,0.0034483464570475484,0.23346490527469024,0.03283080186115613,0.19850198924541473,-0.04132119566202164,0.009992371313273907,0.006554126739501953,0.0208674818277359,-0.024483732879161835,-0.19336313770174784,1.459324444175309,1.0572308437579494,0.9752726554870605,0.1921604424715042,-0.10916802287101746, 288, 223, 156, 255
1730926673546,6i,8.339581026073432,1.0s : 0.3s,-17.319236398014937,0.0038620021285381066,0.19307418309540803,0.03281145783370746,0.24969621002674103,-0.0264955572783947,-0.014431145042181015,-0.00976639986038208,-0.0003339052200317383,-0.031322479248046875,-0.19312144948292248,1.458566034763048,1.054937591842533,0.9752357602119446,0.19192324578762054,-0.10991284996271133, 288, 223, 156, 255
1730926673556,6i,8.339581026073432,1.0s : 0.3s,-17.319236398014937,0.00427440348771804,0.18640275641396092,0.02577146916310384,0.27449581027030945,-0.026224447414278984,-0.005747909191995859,0.00903630256652832,-0.0009030550718307495,-0.024118423461914062,-0.1929395605767156,1.4578014249926354,1.0523020952092843,0.9751861095428467,0.19174472987651825,-0.11066243797540665, 288, 223, 156, 255
1730926673566,6i,8.339581026073432,1.0s : 0.3s,-17.319236398014937,0.004687368862208569,0.18251401688977908,0.018216739808823035,0.291969895362854,-0.02017534337937832,-0.008905685506761074,-0.011966109275817871,-0.000858113169670105,-0.01370859146118164,-0.1926916095893328,1.457021117290707,1.04940406801655,0.9751466512680054,0.19150137901306152,-0.11142873764038086, 288, 223, 156, 255
1730926673576,6i,8.339581026073432,1.0s : 0.3s,-17.319236398014937,0.005079589608858531,0.1788335897382693,0.009896758788189932,0.27359727025032043,-0.024913638830184937,-0.00968838855624199,-0.004554271697998047,-0.0025195926427841187,-0.008417606353759766,-0.19245667618344886,1.45624785572045,1.0465292550943077,0.9751047492027283,0.19127078354358673,-0.11218787729740143, 288, 223, 156, 255
1730926673586,6i,8.339581026073432,1.0s : 0.3s,-17.319236398014937,0.005431283977816314,0.17537030802950315,0.006247241529876417,0.2549518048763275,-0.017869357019662857,-0.013190345838665962,-0.0027529001235961914,-0.005601838231086731,0.00026263296604156494,-0.19227004049058613,1.4555186453649331,1.0438329781637006,0.9750580787658691,0.19108758866786957,-0.11290299892425537, 288, 223, 156, 255
1730926673596,6i,8.339581026073432,1.0s : 0.3s,-17.319236398014937,0.005725738611790003,0.17235729581204975,0.020600469199920802,0.2493211030960083,-0.019312789663672447,-0.012378878891468048,-0.011008501052856445,-0.015177637338638306,0.008534140884876251,-0.19210778704702558,1.4548481283146695,1.0412892865230696,0.9750128984451294,0.19092832505702972,-0.11356034874916077, 288, 223, 156, 255
1730926673606,6i,8.339581026073432,1.0s : 0.3s,-17.319236398014937,0.005962781999860212,0.17057486079012607,0.02765067718517404,0.256402850151062,-0.009025219827890396,-0.011348670348525047,-0.0170590877532959,-0.018128305673599243,0.012037940323352814,-0.1919270552065324,1.454216395739996,1.0387025947369788,0.9749752879142761,0.19075092673301697,-0.11418028920888901, 288, 223, 156, 255
1730926673616,6i,8.339581026073432,1.0s : 0.3s,-17.319236398014937,0.006153537449498953,0.169094527220322,0.02205660037927085,0.2506685256958008,-0.0033127397764474154,-0.014727156609296799,-0.01434248685836792,-0.011539250612258911,0.012150406837463379,-0.19175892884732462,1.4536667119322593,1.0361282557731677,0.9749442934989929,0.1905858814716339,-0.11471995711326599, 288, 223, 156, 255
1730926673626,6i,8.339581026073432,1.0s : 0.3s,-17.319236398014937,0.00631589028800835,0.16830936831858712,0.013467308137533284,0.25434115529060364,0.0013734027743339539,-0.0162823423743248,-0.009993433952331543,-0.00244295597076416,0.008690893650054932,-0.19161691954240637,1.4531647413437758,1.0335491459162474,0.9749134182929993,0.19044646620750427,-0.11521250754594803, 288, 223, 156, 255
1730926673636,6i,8.339581026073432,1.0s : 0.3s,-17.319236398014937,0.006450638231519908,0.16771054397454344,0.00891928649198592,0.2528146207332611,0.0035558631643652916,-0.01622561737895012,-0.003678262233734131,-0.0065238624811172485,0.00484389066696167,-0.19148396432069376,1.4527000543470996,1.0309696054852195,0.9748849272727966,0.19031594693660736,-0.11566851288080215, 288, 223, 156, 255
1730926673646,6i,8.339581026073432,1.0s : 0.3s,-17.319236398014937,0.006537493065564142,0.17711317411314764,0.01884189235436144,0.24628429114818573,0.1118781641125679,-0.1426791548728943,0.00276947021484375,-0.016051068902015686,0.00947154313325882,-0.19166076540468993,1.4525195332459604,1.0283549149522337,0.9748305678367615,0.1904895156621933,-0.11584052443504333, 288, 223, 156, 255
1730926673656,6i,8.339581026073432,1.0s : 0.3s,-17.319236398014937,0.006598464818220463,0.32742880156316045,0.012308352107112482,0.2838052809238434,0.7206352353096008,-0.8705003261566162,0.005234241485595703,-0.010972350835800171,0.0019250363111495972,-0.19157005661108978,1.4521704870484187,1.0255503878188499,0.9748073816299438,0.19040046632289886,-0.1161828339099884, 288, 223, 156, 255
1730926673666,6i,8.339581026073432,1.0s : 0.3s,-17.319236398014937,0.006678155991915163,0.4364492879605429,0.01843651906822404,0.35087767243385315,0.744632363319397,-0.6494202017784119,-0.015925705432891846,-0.0050671398639678955,-0.007784679532051086,-0.18981388267377317,1.4507451354386456,1.0229806433774267,0.9749712347984314,0.188676118850708,-0.11761201918125153, 288, 223, 156, 255
1730926673676,6i,8.339581026073432,1.0s : 0.3s,-17.319236398014937,0.006703398517229942,0.36968362166915786,0.03132137489412424,0.2779640555381775,0.16581805050373077,-0.13525216281414032,0.030944466590881348,0.0033679604530334473,0.003482148051261902,-0.18973929528953165,1.4505373931332615,1.0202903710119433,0.9749607443809509,0.18860287964344025,-0.1178162544965744, 288, 223, 156, 255
1730926673686,6i,8.339581026073432,1.0s : 0.3s,-17.319236398014937,0.0066290834920859675,0.28225918676367323,0.03467079795666079,0.22782392799854279,-0.0011580651625990868,0.022416217252612114,0.03147357702255249,-0.014252990484237671,0.002886250615119934,-0.1896430262672975,1.4505560928652161,1.0177733133834619,0.9749807715415955,0.18850833177566528,-0.11780016869306564, 288, 223, 156, 255
1730926673696,6i,8.339581026073432,1.0s : 0.3s,-17.319236398014937,0.006537484945624086,0.23066062281046304,0.02949848599797894,0.22757172584533691,0.020783985033631325,0.00593497883528471,0.01208961009979248,-0.026762574911117554,-0.00278685986995697,-0.1892674379030708,1.4502642371986638,1.01540795380625,0.9750165343284607,0.18813946843147278,-0.11809322237968445, 288, 223, 156, 255
1730926673706,6i,8.339581026073432,1.0s : 0.3s,-17.319236398014937,0.006438460601266428,0.2003119443174523,0.03164070418908278,0.23871678113937378,0.023482656106352806,0.01613275520503521,0.02313143014907837,-0.020700603723526,-0.006128303706645966,-0.1888592189066555,1.450054380506705,1.0130765972148787,0.9750679731369019,0.18773852288722992,-0.11830708384513855, 288, 223, 156, 255
1730926673716,6i,8.339581026073432,1.0s : 0.3s,-17.319236398014937,0.006379525198368567,0.18639350873280153,0.015675968407828693,0.2437770515680313,0.022756943479180336,-0.029337791725993156,0.0016337037086486816,-0.0077379196882247925,-0.013534829020500183,-0.18849385116898984,1.4498499482852811,1.010676309835211,0.9751117825508118,0.1873796433210373,-0.11851468682289124, 288, 223, 156, 255
1730926673726,6i,8.339581026073432,1.0s : 0.3s,-17.319236398014937,0.006388693368822972,0.18536617572743164,0.03057599251691093,0.2500639855861664,0.03687267377972603,-0.08821915090084076,0.008198857307434082,-0.0041266679763793945,-0.02916574478149414,-0.18804857972904337,1.449506394098833,1.0082544826146294,0.9751538038253784,0.1869422346353531,-0.11885976791381836, 288, 223, 156, 255
1730926673736,6i,8.339581026073432,1.0s : 0.3s,-17.319236398014937,0.006504197599642781,0.1855774036855623,0.038836161022197224,0.23654843866825104,0.06048479303717613,-0.15374703705310822,0.0118485689163208,-0.010164618492126465,-0.03556036204099655,-0.1875935219918121,1.449158269292185,1.0059666334117106,0.9751966595649719,0.18649518489837646,-0.11920954287052155, 288, 223, 156, 255
1730926673746,6i,8.339581026073432,1.0s : 0.3s,-17.319236398014937,0.00669599466254706,0.18948141106041905,0.03962454770054281,0.20731571316719055,0.0887693390250206,-0.2230759710073471,0.003830552101135254,-0.021486550569534302,-0.03307203948497772,-0.18711192731539628,1.4488553947645413,1.0039578529091226,0.9752495884895325,0.18602201342582703,-0.1195158138871193, 288, 223, 156, 255
1730926673756,6i,8.339581026073432,1.0s : 0.3s,-17.319236398014937,0.006953894384298354,0.20074088414060853,0.042502863778213926,0.17936743795871735,0.1112392321228981,-0.3010075092315674,0.0019245147705078125,-0.02862592041492462,-0.03135835379362106,-0.18669092354606034,1.44857873341204,1.0023280601606914,0.9752940535545349,0.18560834228992462,-0.11979515850543976, 288, 223, 156, 255
1730926673766,6i,8.339581026073432,1.0s : 0.3s,-17.319236398014937,0.00726129845973809,0.22287530628395114,0.043215861096044736,0.16394414007663727,0.14057008922100067,-0.37780293822288513,0.007944703102111816,-0.03127872943878174,-0.028742536902427673,-0.18628491919580245,1.448268485027286,1.0009724459472578,0.9753315448760986,0.18520937860012054,-0.12010693550109863, 288, 223, 156, 255
1730926673776,6i,8.339581026073432,1.0s : 0.3s,-17.319236398014937,0.007611387813322599,0.25723240284344984,0.04410579898787434,0.16112838685512543,0.17778243124485016,-0.46245843172073364,0.0133134126663208,-0.03233252465724945,-0.026882752776145935,-0.185897676878984,1.4479507970909438,0.9998269858743217,0.9753644466400146,0.18482881784439087,-0.12042555212974548, 288, 223, 156, 255
1730926673786,6i,8.339581026073432,1.0s : 0.3s,-17.319236398014937,0.00800375541931461,0.3029248280723832,0.03561612546233654,0.19907750189304352,0.21307921409606934,-0.5436001420021057,0.005908846855163574,-0.024546071887016296,-0.02512139081954956,-0.18547394071959256,1.4475940344881977,0.9985509833978917,0.9753991365432739,0.18441236019134521,-0.12078314274549484, 288, 223, 156, 255
1730926673796,6i,8.339581026073432,1.0s : 0.3s,-17.319236398014937,0.008449434983077216,0.3559654487475811,0.03519115461618872,0.22289255261421204,0.2565542459487915,-0.6326916217803955,0.006163537502288818,-0.013775423169136047,-0.031790971755981445,-0.1849792980612623,1.4471377769891816,0.9969899744877131,0.975434422492981,0.18392618000507355,-0.12123940885066986, 288, 223, 156, 255
1730926673806,6i,8.339581026073432,1.0s : 0.3s,-17.319236398014937,0.00893617135501982,0.4128659737645279,0.031528540197868334,0.23399992287158966,0.29315873980522156,-0.7240791320800781,0.007358193397521973,-0.00032520294189453125,-0.030656158924102783,-0.184475201492731,1.4465962144039892,0.9953350948040172,0.9754604697227478,0.18343067169189453,-0.12177911400794983, 288, 223, 156, 255
1730926673816,6i,8.339581026073432,1.0s : 0.3s,-17.319236398014937,0.009453441962391788,0.45914337705196834,0.03063970582579376,0.22143353521823883,0.3201131224632263,-0.7524157166481018,0.004958510398864746,0.0022820234298706055,-0.03014957904815674,-0.18393399022173068,1.4459487578215455,0.9937543633844667,0.9754797220230103,0.182898610830307,-0.12242300063371658, 288, 223, 156, 255
1730926673826,6i,8.339581026073432,1.0s : 0.3s,-17.319236398014937,0.009985480052778795,0.48747755395082804,0.02646483686459412,0.20027285814285278,0.3272355794906616,-0.7321868538856506,0.002853691577911377,-0.007833287119865417,-0.02511739730834961,-0.18345160714860748,1.4453532616075877,0.9923334663946456,0.9754940271377563,0.18242433667182922,-0.1230148896574974, 288, 223, 156, 255
1730926673836,6i,8.339581026073432,1.0s : 0.3s,-17.319236398014937,0.010530595720218496,0.5042847457768499,0.027928886432294502,0.17020229995250702,0.33234885334968567,-0.7210327386856079,-0.004849255084991455,-0.009732574224472046,-0.025725170969963074,-0.18299332385751796,1.444782625024681,0.9911406944817465,0.9755064845085144,0.18197372555732727,-0.12358202040195465, 288, 223, 156, 255
1730926673846,6i,8.339581026073432,1.0s : 0.3s,-17.319236398014937,0.011079697945984752,0.5121037674394291,0.02698424681868243,0.1432604342699051,0.33869531750679016,-0.7021621465682983,-0.01081174612045288,-0.008055344223976135,-0.023374497890472412,-0.18259118089157966,1.4442906549609014,0.9902413455048151,0.9755181670188904,0.18157829344272614,-0.1240711510181427, 288, 223, 156, 255
1730926673856,6i,8.339581026073432,1.0s : 0.3s,-17.319236398014937,0.011619531327032603,0.5125863524966833,0.023793724712063338,0.1288580596446991,0.3402585983276367,-0.6816230416297913,-0.007694602012634277,-0.014879867434501648,-0.016897454857826233,-0.18220722374650256,1.4438228980069208,0.9895150317220761,0.9755291938781738,0.18120069801807404,-0.12453627586364746, 288, 223, 156, 255
1730926673866,6i,8.339581026073432,1.0s : 0.3s,-17.319236398014937,0.012135945713077632,0.5119121822354449,0.02101889026558727,0.12261694669723511,0.3443521559238434,-0.6621415615081787,0.00239485502243042,-0.018875092267990112,-0.008932486176490784,-0.18183217438545418,1.443378269146792,0.9888867158021915,0.9755411148071289,0.18083184957504272,-0.12497863918542862, 288, 223, 156, 255
1730926673876,6i,8.339581026073432,1.0s : 0.3s,-17.319236398014937,0.012623684121185877,0.5089389880036373,0.012252754119600176,0.12809693813323975,0.34313854575157166,-0.6394149661064148,0.0027506351470947266,-0.009661495685577393,-0.007015660405158997,-0.18147814282311744,1.4429546100517132,0.9882249551557757,0.9755514860153198,0.1804836392402649,-0.12540008127689362, 288, 223, 156, 255
1730926673886,6i,8.339581026073432,1.0s : 0.3s,-17.319236398014937,0.013083096894041978,0.5000356862851647,0.009218402568887748,0.131348118185997,0.341165155172348,-0.6150107383728027,0.00025343894958496094,-0.006238967180252075,-0.006781592965126038,-0.1811167376230982,1.442519852411696,0.9874815150974208,0.9755614399909973,0.18012815713882446,-0.12583252787590027, 288, 223, 156, 255
1730926673896,6i,8.339581026073432,1.0s : 0.3s,-17.319236398014937,0.013507270288576173,0.48775450147154403,0.012508945464611685,0.11883951723575592,0.3345378637313843,-0.5860563516616821,0.005244255065917969,-0.01131238043308258,-0.0010007768869400024,-0.18073651187061246,1.4420931964606958,0.9867657336396698,0.9755755662918091,0.1797541379928589,-0.12625752389431, 288, 223, 156, 255
1730926673906,6i,8.339581026073432,1.0s : 0.3s,-17.319236398014937,0.013884706952273852,0.4725853990366411,0.014506824186173191,0.10257533192634583,0.323971688747406,-0.5569455027580261,0.006711840629577637,-0.011302918195724487,0.006135404109954834,-0.18035462769221142,1.4416537093290671,0.9861734995419142,0.9755879044532776,0.1793784648180008,-0.12669509649276733, 288, 223, 156, 255
1730926673916,6i,8.339581026073432,1.0s : 0.3s,-17.319236398014937,0.014226533650437417,0.4557220982885377,0.011612094509390873,0.08638490736484528,0.31350255012512207,-0.5295085310935974,0.004232466220855713,-0.010381057858467102,0.0030266493558883667,-0.17999144710358708,1.4412045947603036,0.9857214625615881,0.9755955338478088,0.17902116477489471,-0.12714165449142456, 288, 223, 156, 255
1730926673926,6i,8.339581026073432,1.0s : 0.3s,-17.319236398014937,0.014543301213553154,0.43735328105350907,0.0107116516515049,0.06986718624830246,0.3067292273044586,-0.4979671537876129,0.0048926472663879395,-0.009525507688522339,-0.0002572685480117798,-0.17963367204428204,1.4407941612986574,0.9853969013915203,0.9756067395210266,0.17866915464401245,-0.12755036354064941, 288, 223, 156, 255
1730926673936,6i,8.339581026073432,1.0s : 0.3s,-17.319236398014937,0.014832713898487108,0.41851975029911787,0.0035006605040624203,0.05404108017683029,0.2991253733634949,-0.4697088897228241,0.0021949410438537598,-0.002725943922996521,-7.802248001098633e-05,-0.1793140025852489,1.4404459585918297,0.9852164467586183,0.9756187796592712,0.17835462093353271,-0.1278974711894989, 288, 223, 156, 255
1730926673946,6i,8.339581026073432,1.0s : 0.3s,-17.319236398014937,0.015087463320201824,0.39764905705994624,0.0056784400956093935,0.024454958736896515,0.2855094373226166,-0.4365554451942444,-0.003176093101501465,-0.0024311840534210205,0.004030689597129822,-0.17901444663630034,1.4401517309364653,0.9852133756333112,0.9756340980529785,0.17805986106395721,-0.12819147109985352, 288, 223, 156, 255
1730926673956,6i,8.339581026073432,1.0s : 0.3s,-17.319236398014937,0.015311091789941271,0.3765378730379292,0.012726947278802641,0.0002939633559435606,0.27019572257995605,-0.4093067944049835,-0.0037232041358947754,-0.01038430631160736,0.006346583366394043,-0.17875416493184101,1.4398956168543442,0.9854849392905133,0.9756470322608948,0.17780372500419617,-0.12844738364219666, 288, 223, 156, 255
1730926673966,6i,8.339581026073432,1.0s : 0.3s,-17.319236398014937,0.015515846955607338,0.3552237429196722,0.011505618336114933,0.007567855529487133,0.2557123005390167,-0.3778904378414154,-0.004830420017242432,-0.010233581066131592,0.0020784884691238403,-0.17852344253953847,1.4396463442060194,0.9858078816053554,0.9756555557250977,0.1775766760110855,-0.12869592010974884, 288, 223, 156, 255
1730926673976,6i,8.339581026073432,1.0s : 0.3s,-17.319236398014937,0.01571979183094765,0.3340900310187139,0.009969251173871926,0.025058697909116745,0.24625621736049652,-0.34529200196266174,-0.004083096981048584,-0.0060097575187683105,-0.0068262070417404175,-0.17826278846581167,1.43941137047172,0.9859373688655314,0.975671112537384,0.17732015252113342,-0.12893123924732208, 288, 223, 156, 255
1730926673986,6i,8.339581026073432,1.0s : 0.3s,-17.319236398014937,0.015929089637605476,0.3121352930274604,0.011687200700499865,0.02300313673913479,0.22634753584861755,-0.3156152665615082,-0.0017485618591308594,-0.00048238039016723633,-0.011545583605766296,-0.17801094482895793,1.4391873546756369,0.9859678081437011,0.9756864905357361,0.17707230150699615,-0.12915565073490143, 288, 223, 156, 255
1730926673996,6i,8.339581026073432,1.0s : 0.3s,-17.319236398014937,0.01613875560885573,0.2884102753498049,0.00997512750242693,-0.003566155442968011,0.2040177285671234,-0.2821348011493683,-0.0024774670600891113,-0.005616962909698486,-0.007862254977226257,-0.17777066583661585,1.4389523437852878,0.9861110013803389,0.9756982326507568,0.1768358200788498,-0.12939053773880005, 288, 223, 156, 255
1730926674006,6i,8.339581026073432,1.0s : 0.3s,-17.319236398014937,0.016347598912178202,0.2632657695128745,0.022033061147100963,-0.031072348356246948,0.1805930882692337,-0.24700993299484253,0.0015391707420349121,-0.021953940391540527,-0.0010541528463363647,-0.17753283788295254,1.438720704057427,0.9865163372086775,0.9757099151611328,0.17660172283649445,-0.12962208688259125, 288, 223, 156, 255
1730926674016,6i,8.339581026073432,1.0s : 0.3s,-17.319236398014937,0.016553707737456697,0.23970577429315373,0.03020272166089106,-0.05490390956401825,0.16339519619941711,-0.22072532773017883,0.0005257725715637207,-0.0300128310918808,0.0033403486013412476,-0.17734916038280155,1.4385218204705301,0.9871542146233354,0.9757163524627686,0.17642094194889069,-0.12982042133808136, 288, 223, 156, 255
1730926674026,6i,8.339581026073432,1.0s : 0.3s,-17.319236398014937,0.016759326353060326,0.21703273617383328,0.02158728719249901,-0.06077098846435547,0.14798317849636078,-0.19077777862548828,-0.0042719244956970215,-0.021151840686798096,-0.0006010532379150391,-0.17721405469845858,1.4383890300015312,0.9878891172986216,0.9757227301597595,0.1762879490852356,-0.12995313107967377, 288, 223, 156, 255
1730926674036,6i,8.339581026073432,1.0s : 0.3s,-17.319236398014937,0.01697530088454508,0.19360531576489787,0.01528994869030589,-0.06988592445850372,0.12044688314199448,-0.1601889729499817,-0.003451049327850342,-0.011756345629692078,-0.009146645665168762,-0.17709399460581954,1.4382518269744669,0.9886911375064951,0.9757259488105774,0.1761697679758072,-0.13008980453014374, 288, 223, 156, 255
1730926674046,6i,8.339581026073432,1.0s : 0.3s,-17.319236398014937,0.017221461805908726,0.17225722615452507,0.024938163419015218,-0.09841316938400269,0.09924714267253876,-0.1345045268535614,-0.00041162967681884766,-0.019199952483177185,-0.015909254550933838,-0.17699824866646283,1.4381007321953796,0.9896630435385244,0.9757228493690491,0.1760755181312561,-0.13023944199085236, 288, 223, 156, 255
1730926674056,6i,8.339581026073432,1.0s : 0.3s,-17.319236398014937,0.017485746975761562,0.15108628861413648,0.026286476330939418,-0.09742619842290878,0.07688671350479126,-0.10492639243602753,-0.00612562894821167,-0.02363528311252594,-0.0097380131483078,-0.17694671262109188,1.4379700191492264,0.9907707915118182,0.9757147431373596,0.17602477967739105,-0.1303681880235672, 288, 223, 156, 255
1730926674066,6i,8.339581026073432,1.0s : 0.3s,-17.319236398014937,0.0177623519248089,0.1285579536219195,0.02368326396509392,-0.07497016340494156,0.05110615864396095,-0.0780734047293663,-0.016353189945220947,-0.007922902703285217,-0.015188738703727722,-0.176873446455484,1.437787539897786,0.9917386286347488,0.9757036566734314,0.17595265805721283,-0.1305479258298874, 288, 223, 156, 255
1730926674076,6i,8.339581026073432,1.0s : 0.3s,-17.319236398014937,0.018057714631258086,0.10497771360933783,0.023522290236409726,-0.051537007093429565,0.025844745337963104,-0.05375341698527336,-0.008524954319000244,-0.0008807778358459473,-0.02190542221069336,-0.17675698772576656,1.4375117155198016,0.992439453694695,0.9756880402565002,0.17583802342414856,-0.13081978261470795, 288, 223, 156, 255
1730926674086,6i,8.339581026073432,1.0s : 0.3s,-17.319236398014937,0.01836520869920297,0.0818060827712246,0.020012533034921235,-0.029353410005569458,0.010519585572183132,-0.03115423396229744,-0.006736874580383301,-0.003616154193878174,-0.01849430799484253,-0.17662163317607493,1.4371935820634703,0.9929259448447336,0.9756699800491333,0.17570477724075317,-0.13113334774971008, 288, 223, 156, 255
1730926674096,6i,8.339581026073432,1.0s : 0.3s,-17.319236398014937,0.01867244703540989,0.05621468773776696,0.018738167193820356,0.02147727832198143,-0.008181131444871426,-0.009769581258296967,-0.011553287506103516,-0.0007324814796447754,-0.014734447002410889,-0.17646689104374838,1.4368312319170904,0.9930104127895865,0.975649356842041,0.17555244266986847,-0.13149051368236542, 288, 223, 156, 255
1730926674106,6i,8.339581026073432,1.0s : 0.3s,-17.319236398014937,0.018980014271907705,0.04731799956994532,0.01945097191027879,0.06916623562574387,-0.03095027059316635,0.013146585784852505,-0.007265985012054443,0.004540368914604187,-0.017462268471717834,-0.17621021637694265,1.4363802528635365,0.992588248631305,0.9756346344947815,0.1752997487783432,-0.13193653523921967, 288, 223, 156, 255
1730926674116,6i,8.339581026073432,1.0s : 0.3s,-17.319236398014937,0.019296268902391018,0.02900700705498497,0.021090147898745342,0.11102394014596939,-0.029642924666404724,0.014853672124445438,-0.002091050148010254,0.0029288679361343384,-0.02078084647655487,-0.17594067483329895,1.435893843937776,0.9917100854729753,0.975616991519928,0.17503437399864197,-0.13241739571094513, 288, 223, 156, 255
1730926674126,6i,8.339581026073432,1.0s : 0.3s,-17.319236398014937,0.019547591147101147,0.040870025145969484,0.021522674698586274,0.1481269747018814,-0.023696841672062874,0.0161911454051733,-0.00830453634262085,0.018350258469581604,0.007584735751152039,-0.15628109560785067,1.415500517245211,0.9871283631188299,0.9759255051612854,0.1556457132101059,-0.15278737246990204, 288, 223, 156, 255
1730926674136,6i,8.339581026073432,1.0s : 0.3s,-17.319236398014937,0.019746139493519988,0.060387765670739564,0.02309844721872495,0.164594367146492,-0.02336927130818367,0.019092924892902374,-0.0070323944091796875,0.021769165992736816,0.003191724419593811,-0.15473558995410208,1.4212085849091227,0.9865256674626659,0.9770182967185974,0.1541188508272171,-0.14724992215633392, 288, 223, 156, 255
1730926674146,6i,8.339581026073432,1.0s : 0.3s,-17.319236398014937,0.019914700039320467,0.07439571212714227,0.007359449385008657,0.15912142395973206,-0.02422383613884449,0.024644318968057632,-0.002882540225982666,0.006409376859664917,0.002184569835662842,-0.15993624177839644,1.4203652022241915,0.9848689687027786,0.9760880470275879,0.1592552661895752,-0.14795173704624176, 288, 223, 156, 255
1730926674156,6i,8.339581026073432,1.0s : 0.3s,-17.319236398014937,0.02006334540865983,0.07928055856786774,0.024467002491135436,0.13994985818862915,-0.019869301468133926,0.02781001850962639,5.716085433959961e-05,-0.021232590079307556,0.012157633900642395,-0.16374800962457356,1.4184310785922658,0.9831643180266294,0.9751930236816406,0.16301721334457397,-0.1497461199760437, 288, 223, 156, 255
1730926674166,6i,8.339581026073432,1.0s : 0.3s,-17.319236398014937,0.020179970672017055,0.08038703275671673,0.03619116458682309,0.1330880969762802,-0.013249348849058151,0.017847631126642227,-0.004563570022583008,-0.03160165250301361,0.017038479447364807,-0.16538059635391422,1.4179376034246316,0.9818538297294537,0.974854588508606,0.16462774574756622,-0.15018659830093384, 288, 223, 156, 255
1730926674176,6i,8.339581026073432,1.0s : 0.3s,-17.319236398014937,0.020298531049411178,0.08148876756042306,0.02816915702590672,0.13398078083992004,-0.017000945284962654,0.02064475044608116,-0.00949251651763916,-0.025593623518943787,0.0069541335105896,-0.16702463893600167,1.4180028665345117,0.9806269378192135,0.9745956659317017,0.1662491410970688,-0.1500815898180008, 288, 223, 156, 255
1730926674186,6i,8.339581026073432,1.0s : 0.3s,-17.319236398014937,0.020428456913789382,0.0811597262896536,0.02398912392420626,0.11370627582073212,-0.018470965325832367,0.022085020318627357,-0.0051108598709106445,-0.023380175232887268,0.0016506314277648926,-0.16872611162615742,1.417622880903142,0.9794002616032629,0.9742575883865356,0.16792668402194977,-0.150408536195755, 288, 223, 156, 255
1730926674196,6i,8.339581026073432,1.0s : 0.3s,-17.319236398014937,0.020564986849665998,0.07709306560803723,0.03217716954811987,0.08758173137903214,-0.020748233422636986,0.01397942379117012,-0.005034983158111572,-0.03074611723423004,0.008043348789215088,-0.1696507493965406,1.4169255571863164,0.9783583056785835,0.9739986062049866,0.16883812844753265,-0.15106400847434998, 288, 223, 156, 255
1730926674206,6i,8.339581026073432,1.0s : 0.3s,-17.319236398014937,0.020704562551952303,0.07601190214089477,0.036085707985243486,0.09649480134248734,-0.01956632360816002,0.009956518188118935,-0.005311429500579834,-0.03358444571495056,0.012085199356079102,-0.17013089407623994,1.4171653006165263,0.9775929444380301,0.9739545583724976,0.16931135952472687,-0.1508180797100067, 288, 223, 156, 255
1730926674216,6i,8.339581026073432,1.0s : 0.3s,-17.319236398014937,0.020846766210739,0.07707688556891681,0.021861866600206517,0.12635895609855652,-0.025903314352035522,0.010131487622857094,-0.0027666091918945312,-0.020788639783859253,0.006174102425575256,-0.17061722761075032,1.4174247638691395,0.9766123456587834,0.9739121198654175,0.16979064047336578,-0.15055274963378906, 288, 223, 156, 255
1730926674226,6i,8.339581026073432,1.0s : 0.3s,-17.319236398014937,0.020990232727073666,0.07742120084563131,0.006124804690718974,0.11631643772125244,-0.03319123014807701,0.005184200592339039,-0.00011640787124633789,-0.005844101309776306,-0.0018292516469955444,-0.1700071518046614,1.4173863042084955,0.9754609163962494,0.9740085005760193,0.16918939352035522,-0.15060602128505707, 288, 223, 156, 255
1730926674236,6i,8.339581026073432,1.0s : 0.3s,-17.319236398014937,0.021128945419351192,0.07642473014409434,0.008310679891021718,0.09606389701366425,-0.03861316293478012,-0.0039722793735563755,0.0003184676170349121,-0.00800330936908722,0.002216532826423645,-0.1676003007595098,1.4180268302979293,0.974597119627242,0.9745044112205505,0.16681675612926483,-0.15004363656044006, 288, 223, 156, 255
1730926674246,6i,8.339581026073432,1.0s : 0.3s,-17.319236398014937,0.021253307987816585,0.07314022071942297,0.015500453023339014,0.07783136516809464,-0.04001256451010704,-0.005973312072455883,0.003011345863342285,-0.011695176362991333,0.009716928005218506,-0.16500021696412914,1.4188053677748416,0.9739414953821878,0.9750465154647827,0.16425254940986633,-0.1493500918149948, 288, 223, 156, 255
1730926674256,6i,8.339581026073432,1.0s : 0.3s,-17.319236398014937,0.0213572361156952,0.07141166130887462,0.013273439274780417,0.08057975023984909,-0.034686774015426636,-0.00249682180583477,0.01032024621963501,-0.0029184967279434204,0.007820427417755127,-0.16335782157988632,1.4186638293086364,0.9732130302432281,0.9752907156944275,0.16263224184513092,-0.14952877163887024, 288, 223, 156, 255
1730926674266,6i,8.339581026073432,1.0s : 0.3s,-17.319236398014937,0.021434806344685794,0.07028269768225621,0.014095806858588482,0.08346714824438095,-0.03448162227869034,0.007588636130094528,0.007909178733825684,0.011444181203842163,0.002273187041282654,-0.16205470970224448,1.4181889220281592,0.9723853470579766,0.9754283428192139,0.16134633123874664,-0.15002402663230896, 288, 223, 156, 255
1730926674276,6i,8.339581026073432,1.0s : 0.3s,-17.319236398014937,0.021491343310472324,0.06244373513272508,0.0230363038845394,0.04597676545381546,-0.031330302357673645,0.04275887459516525,0.005622267723083496,0.021342799067497253,-0.006598964333534241,-0.16037404974888048,1.4181284214835912,0.9717868489746257,0.9756858944892883,0.15968747437000275,-0.15012407302856445, 288, 223, 156, 255
1730926674286,6i,8.339581026073432,1.0s : 0.3s,-17.319236398014937,0.02150800098063302,0.06361388352521957,0.02047373477238919,0.09987302124500275,-0.053638361394405365,-0.01678614690899849,0.006158888339996338,0.018584907054901123,0.005986914038658142,-0.1585000420889919,1.4182869290314601,0.9712718578601537,0.9760037064552307,0.15783722698688507,-0.15001460909843445, 288, 223, 156, 255
1730926674296,6i,8.339581026073432,1.0s : 0.3s,-17.319236398014937,0.021513548984843443,0.04907469639416899,0.008587216444967283,0.008786250837147236,-0.03716298192739487,0.0025864867493510246,0.006261348724365234,0.0057630836963653564,0.0011500716209411621,-0.1583036343769265,1.4180101229437982,0.9709310771800655,0.9759926795959473,0.15764327347278595,-0.15028947591781616, 288, 223, 156, 255
1730926674306,6i,8.339581026073432,1.0s : 0.3s,-17.319236398014937,0.02146647426770208,0.05009077703365137,0.028933923337076246,0.0827397033572197,-0.030099613592028618,0.011204242706298828,-0.018128514289855957,0.021943017840385437,0.005199313163757324,-0.15837518642377935,1.4175178927817607,0.9703373744036079,0.9759074449539185,0.15771393477916718,-0.15076814591884613, 288, 223, 156, 255
1730926674316,6i,8.339581026073432,1.0s : 0.3s,-17.319236398014937,0.02145042157631405,0.05121595450646773,0.020647768914002506,0.08460045605897903,-0.03455055505037308,0.006790319457650185,-0.001804947853088379,0.007075846195220947,-0.019313335418701172,-0.15825677252475134,1.4172153150559221,0.9696066283254041,0.9758802652359009,0.15759700536727905,-0.15106628835201263, 288, 223, 156, 255
1730926674326,6i,8.339581026073432,1.0s : 0.3s,-17.319236398014937,0.021449169768652042,0.05204768914909482,0.015547809163902509,0.08508488535881042,-0.026121117174625397,0.009496823884546757,-0.009042978286743164,0.006113141775131226,-0.011071965098381042,-0.15779462943736414,1.4173814078059008,0.9688361168141622,0.9759771227836609,0.1571406126022339,-0.15091530978679657, 288, 223, 156, 255
1730926674336,6i,8.339581026073432,1.0s : 0.3s,-17.319236398014937,0.021455367618862683,0.05376874994097743,0.013780967449462245,0.0962107703089714,-0.025936292484402657,0.005205672234296799,-0.009291887283325195,0.006389111280441284,-0.007921814918518066,-0.1576697093231664,1.4174868638273896,0.9680271069709776,0.9760124683380127,0.15701724588871002,-0.15081538259983063, 288, 223, 156, 255
1730926674346,6i,8.339581026073432,1.0s : 0.3s,-17.319236398014937,0.021471450892940145,0.05487223703020481,0.005991852164004315,0.0911671444773674,-0.029315980151295662,0.015662740916013718,0.00044220685958862305,0.0004927664995193481,-0.005955159664154053,-0.15806251718201933,1.4172914168482673,0.9671369021360748,0.9759219288825989,0.15740516781806946,-0.15099669992923737, 288, 223, 156, 255
1730926674356,6i,8.339581026073432,1.0s : 0.3s,-17.319236398014937,0.02150354180809395,0.054906626882257864,0.012314624957000121,0.07529017329216003,-0.029690952971577644,0.0163988396525383,0.00849902629852295,-0.0018063187599182129,-0.008726611733436584,-0.15873737337369137,1.4166747140430465,0.966283078274985,0.9757235050201416,0.1580715775489807,-0.15158219635486603, 288, 223, 156, 255
1730926674366,6i,8.339581026073432,1.0s : 0.3s,-17.319236398014937,0.021564876224995134,0.05355136050114292,0.015946141843113795,0.053311508148908615,-0.025717560201883316,0.023356180638074875,0.0005244016647338867,-0.013724461197853088,-0.008102074265480042,-0.15915566626228153,1.416665374528279,0.965724074317612,0.9756567478179932,0.15848460793495178,-0.15158115327358246, 288, 223, 156, 255
1730926674376,6i,8.339581026073432,1.0s : 0.3s,-17.319236398014937,0.021705495050874598,0.04715005144314195,0.030161333289791054,0.0262087844312191,-0.029511231929063797,0.023795336484909058,-0.00329667329788208,-0.02859140932559967,-0.009020492434501648,-0.159021489375318,1.4164683224852723,0.9653804829199666,0.9756476879119873,0.15835212171077728,-0.15177664160728455, 288, 223, 156, 255
1730926674386,6i,8.339581026073432,1.0s : 0.3s,-17.319236398014937,0.021904074558708516,0.04145144045765153,0.0301388856184209,0.013372214511036873,-0.03258438780903816,0.016804572194814682,-0.0011566877365112305,-0.027755573391914368,-0.011689424514770508,-0.1597358436943931,1.416277036216588,0.965256095873737,0.975506603717804,0.15905742347240448,-0.1519458144903183, 288, 223, 156, 255
1730926674396,6i,8.339581026073432,1.0s : 0.3s,-17.319236398014937,0.022126910761646777,0.04069821649840451,0.02228623500073733,0.03458695486187935,-0.033385198563337326,0.02075963281095028,-0.0004661679267883301,-0.019982337951660156,-0.009857237339019775,-0.1597292607520377,1.4152435794710196,0.964949782815856,0.9753502011299133,0.15905092656612396,-0.15295405685901642, 288, 223, 156, 255
1730926674406,6i,8.339581026073432,1.0s : 0.3s,-17.319236398014937,0.022366036956678197,0.04152567522756544,0.018228418139738693,0.06123028323054314,-0.03216041252017021,0.02443026751279831,0.002517879009246826,-0.014396578073501587,-0.010893762111663818,-0.1596200095867063,1.4144786469563413,0.9644500052439301,0.9752500653266907,0.1589430570602417,-0.15370279550552368, 288, 223, 156, 255
1730926674416,6i,8.339581026073432,1.0s : 0.3s,-17.319236398014937,0.022611058293363868,0.0444313584601632,0.014370781596264716,0.07840953767299652,-0.03448029235005379,0.022238751873373985,-0.0001055598258972168,-0.0030421316623687744,-0.014044702053070068,-0.15947899067310087,1.4138329221208912,0.9637566732253466,0.9751726984977722,0.15880383551120758,-0.15433600544929504, 288, 223, 156, 255
1730926674426,6i,8.339581026073432,1.0s : 0.3s,-17.319236398014937,0.022850039160651456,0.05116488175869314,0.014347636177019977,0.09263841062784195,-0.0370313785970211,0.027613576501607895,-0.0026895999908447266,0.0046811699867248535,-0.013293132185935974,-0.15907477818133756,1.4132602832221712,0.9629079663585629,0.9751474261283875,0.15840473771095276,-0.15490444004535675, 288, 223, 156, 255
1730926674436,6i,8.339581026073432,1.0s : 0.3s,-17.319236398014937,0.023084548438084863,0.05344390996591205,0.010433582995122592,0.08602418005466461,-0.04079815372824669,0.03184587135910988,0.0031827688217163086,-0.0015326589345932007,-0.009817361831665039,-0.15852201695670898,1.4126204480557034,0.9620402117729134,0.9751344323158264,0.1578589230775833,-0.15554212033748627, 288, 223, 156, 255
1730926674446,6i,8.339581026073432,1.0s : 0.3s,-17.319236398014937,0.0233193284211543,0.05417086644789963,0.012939555697217154,0.07287734746932983,-0.043909747153520584,0.03229092061519623,0.0008635520935058594,-0.01217012107372284,-0.004309818148612976,-0.15767430491050197,1.4119700981140375,0.9612820465904011,0.9751648902893066,0.15702179074287415,-0.15619736909866333, 288, 223, 156, 255
1730926674456,6i,8.339581026073432,1.0s : 0.3s,-17.319236398014937,0.023556443986801956,0.05505742523278822,0.015477221188993721,0.07409707456827164,-0.04641152173280716,0.036427874118089676,-0.005434274673461914,-0.014019593596458435,-0.003669336438179016,-0.15641069097204052,1.4112828886560647,0.9605916598095525,0.9752525687217712,0.15577372908592224,-0.1568988859653473, 288, 223, 156, 255
1730926674466,6i,8.339581026073432,1.0s : 0.3s,-17.319236398014937,0.023798334574670777,0.05785402093051345,0.013350944134712122,0.08880891650915146,-0.04746364802122116,0.03946368023753166,-0.0021371841430664062,-0.010615989565849304,-0.0078090280294418335,-0.15520500012117486,1.4104889019384796,0.9598034277446915,0.9753121733665466,0.15458263456821442,-0.15770301222801208, 288, 223, 156, 255
1730926674476,6i,8.339581026073432,1.0s : 0.3s,-17.319236398014937,0.02404839342461752,0.057984182132558515,0.014703189713275576,0.06888793408870697,-0.04169550538063049,0.03763728216290474,-0.0003262162208557129,-0.0108938068151474,-0.00986926257610321,-0.15425069356442642,1.4097936332980112,0.9590433296118043,0.9753473997116089,0.15363973379135132,-0.1584046483039856, 288, 223, 156, 255
1730926674486,6i,8.339581026073432,1.0s : 0.3s,-17.319236398014937,0.024295211625482618,0.05725613626205341,0.016488297120473505,0.05567319691181183,-0.045074835419654846,0.027541471645236015,-0.004562437534332275,-0.015844449400901794,3.910064697265625e-05,-0.15357817431888346,1.4091167121226769,0.9584636591523475,0.975341796875,0.1529751569032669,-0.15908145904541016, 288, 223, 156, 255
1730926674496,6i,8.339581026073432,1.0s : 0.3s,-17.319236398014937,0.024530185089075424,0.056453394260626386,0.017144187994855342,0.05284092575311661,-0.04480745270848274,0.027670368552207947,-0.007686734199523926,-0.014646589756011963,0.004507184028625488,-0.15329249685255258,1.4083445088112903,0.9579455700276507,0.9752618074417114,0.15269283950328827,-0.1598416417837143, 288, 223, 156, 255
1730926674506,6i,8.339581026073432,1.0s : 0.3s,-17.319236398014937,0.024746957533239824,0.056506933040462115,0.01058192346347613,0.06356681138277054,-0.05396996811032295,0.022215083241462708,-0.006364226341247559,-0.007669731974601746,0.0035565346479415894,-0.15322713131229063,1.4075529001234703,0.9573790798522074,0.9751448631286621,0.15262824296951294,-0.1606152355670929, 288, 223, 156, 255
1730926674516,6i,8.339581026073432,1.0s : 0.3s,-17.319236398014937,0.024957215041191413,0.05660633103857401,0.011113010026777816,0.06462088972330093,-0.05611594393849373,0.01764616370201111,-0.00856471061706543,-0.0007133781909942627,-0.007045269012451172,-0.1529971851083136,1.406788839532642,0.9567666975950082,0.9750564098358154,0.15240098536014557,-0.16136598587036133, 288, 223, 156, 255
1730926674526,6i,8.339581026073432,1.0s : 0.3s,-17.319236398014937,0.0251536296385331,0.05789138313000417,0.019502285493235745,0.0858493447303772,-0.05338163301348686,0.023703889921307564,-0.013973116874694824,0.009366914629936218,-0.009866714477539062,-0.152493535350403,1.4061742303745228,0.9560498954809309,0.9750326871871948,0.1519031971693039,-0.16197779774665833, 288, 223, 156, 255
1730926674536,6i,8.339581026073432,1.0s : 0.3s,-17.319236398014937,0.025336134951051692,0.06673335192455938,0.023741845447713773,0.10848195105791092,-0.07172442227602005,0.018167177215218544,-0.020152568817138672,0.009303227066993713,-0.008426100015640259,-0.15189414980713192,1.405431924233639,0.955127311189896,0.9750016927719116,0.1513107419013977,-0.16271646320819855, 288, 223, 156, 255
1730926674546,6i,8.339581026073432,1.0s : 0.3s,-17.319236398014937,0.025505578696609365,0.08121504853964442,0.026622967571582466,0.15761034190654755,-0.06999114155769348,0.018016843125224113,-0.019190609455108643,0.014229744672775269,-0.011748075485229492,-0.15134057042636434,1.4044555830826924,0.9538396429780698,0.9749248623847961,0.15076351165771484,-0.16368217766284943, 288, 223, 156, 255
1730926674556,6i,8.339581026073432,1.0s : 0.3s,-17.319236398014937,0.025621999435184808,0.10150423916542095,0.03785782203316432,0.21340250968933105,-0.06721054017543793,0.02094232477247715,-0.018203675746917725,0.03025880455970764,-0.013647183775901794,-0.15065401846430537,1.4034003733637743,0.9520161392590893,0.9748533964157104,0.15008477866649628,-0.16472803056240082, 288, 223, 156, 255
1730926674566,6i,8.339581026073432,1.0s : 0.3s,-17.319236398014937,0.025671933267271747,0.12595513647883877,0.04580595343042445,0.2588514983654022,-0.0842883288860321,0.027476323768496513,-0.014803171157836914,0.03940838575363159,-0.018056318163871765,-0.14974927676362032,1.402421106137217,0.9497061522146065,0.9748250246047974,0.14919021725654602,-0.16570527851581573, 288, 223, 156, 255
1730926674576,6i,8.339581026073432,1.0s : 0.3s,-17.319236398014937,0.025703808143423875,0.14048794411051835,0.03660010851115862,0.24549759924411774,-0.07723414152860641,0.03887784853577614,-0.007293760776519775,0.03350076079368591,-0.0128089040517807,-0.1487796704329998,1.4014614763734825,0.9472429998365742,0.9748076796531677,0.1482314020395279,-0.1666649729013443, 288, 223, 156, 255
1730926674586,6i,8.339581026073432,1.0s : 0.3s,-17.319236398014937,0.025724706344897298,0.14296091475690012,0.011533542456787864,0.21917396783828735,-0.07341131567955017,0.03791874647140503,-0.006898224353790283,0.008872762322425842,0.0025905966758728027,-0.14797771721777805,1.4005863131487006,0.9450423026127184,0.9747784733772278,0.14743825793266296,-0.1675381362438202, 288, 223, 156, 255
1730926674596,6i,8.339581026073432,1.0s : 0.3s,-17.319236398014937,0.025744619819573426,0.148918331942484,0.015063818653713291,0.237298384308815,-0.0648878663778305,0.03474798426032066,-0.013643920421600342,-0.0021956562995910645,0.0059950947761535645,-0.14738192785755796,1.3995353001265716,0.9428399096392859,0.9746882319450378,0.14684894680976868,-0.16857747733592987, 288, 223, 156, 255
1730926674606,6i,8.339581026073432,1.0s : 0.3s,-17.319236398014937,0.025758876872299608,0.1599894343380072,0.01786446153588565,0.27162957191467285,-0.04727296531200409,0.04188462346792221,-0.014923334121704102,0.009810090065002441,0.00044183433055877686,-0.14692213887614805,1.398497203461504,0.9403713391819521,0.9745791554450989,0.14639413356781006,-0.16960078477859497, 288, 223, 156, 255
1730926674616,6i,8.339581026073432,1.0s : 0.3s,-17.319236398014937,0.02575676632146456,0.17146722675677242,0.019927332180764572,0.29170581698417664,-0.0411229245364666,0.037942346185445786,-0.009026050567626953,0.01775422692298889,0.0006452947854995728,-0.1464034381447595,1.397565893073949,0.9376007971101589,0.9744952321052551,0.14588099718093872,-0.17052136361598969, 288, 223, 156, 255
1730926674626,6i,8.339581026073432,1.0s : 0.3s,-17.319236398014937,0.025733408038392462,0.17727645574552248,0.016971543794554275,0.2851218581199646,-0.03507963567972183,0.045247163623571396,-0.004195809364318848,0.015696197748184204,0.004904881119728088,-0.14595424102615834,1.396604165487519,0.9347557086259503,0.9743952751159668,0.1454365849494934,-0.17146983742713928, 288, 223, 156, 255
1730926674636,6i,8.339581026073432,1.0s : 0.3s,-17.319236398014937,0.025688166583595875,0.1767883068977561,0.014587618705896624,0.25027918815612793,-0.03054959699511528,0.05525585636496544,0.008520424365997314,0.004473894834518433,0.010962903499603271,-0.14576094180627638,1.3957006067328461,0.9321268258137079,0.9742677211761475,0.14524534344673157,-0.17235510051250458, 288, 223, 156, 255
1730926674646,6i,8.339581026073432,1.0s : 0.3s,-17.319236398014937,0.02560712218933939,0.16116832672796222,0.03635088168142455,0.17347200214862823,-0.03979112580418587,0.06162307411432266,0.016662657260894775,-0.017463266849517822,0.027180448174476624,-0.1456942039659865,1.394796457554637,0.9300676167255129,0.9741209149360657,0.14517931640148163,-0.17323759198188782, 288, 223, 156, 255
1730926674656,6i,8.339581026073432,1.0s : 0.3s,-17.319236398014937,0.025445523831732,0.13520674394263005,0.05427191369436825,0.09217368066310883,-0.04595154896378517,0.061655834317207336,0.021019816398620605,-0.03487199544906616,0.03588247299194336,-0.14558468394888568,1.3940427750176074,0.9288494682293499,0.9740058183670044,0.14507095515727997,-0.17397452890872955, 288, 223, 156, 255
1730926674666,6i,8.339581026073432,1.0s : 0.3s,-17.319236398014937,0.025249512873672678,0.10853732199316517,0.0542524203124609,0.04240666329860687,-0.04012729972600937,0.06628966331481934,0.018796026706695557,-0.03696818649768829,0.034976959228515625,-0.1450507172622639,1.3936705109397882,0.9283256462520352,0.9740170836448669,0.1445426195859909,-0.17435073852539062, 288, 223, 156, 255
1730926674676,6i,8.339581026073432,1.0s : 0.3s,-17.319236398014937,0.02505374782226346,0.08627864292153639,0.03773850400309462,0.012038370594382286,-0.04343254864215851,0.06760766357183456,0.009753286838531494,-0.022469356656074524,0.028708815574645996,-0.14440008500637744,1.3933708973052394,0.9282113597138775,0.974057137966156,0.14389878511428833,-0.1746591031551361, 288, 223, 156, 255
1730926674686,6i,8.339581026073432,1.0s : 0.3s,-17.319236398014937,0.024842566420960836,0.07272217875321095,0.030084682156317512,0.006984090432524681,-0.04708734154701233,0.07215823978185654,0.015671968460083008,-0.004458695650100708,0.025290265679359436,-0.14390132200203687,1.392977192942391,0.9282645942726211,0.9740588068962097,0.14340519905090332,-0.17505525052547455, 288, 223, 156, 255
1730926674696,6i,8.339581026073432,1.0s : 0.3s,-17.319236398014937,0.024627380135969924,0.07064423033759733,0.026346176006932866,0.02195931226015091,-0.04569584131240845,0.0724615752696991,0.019923865795135498,-0.0011579245328903198,0.017199411988258362,-0.14346469689406108,1.3925693783041357,0.9282646555023695,0.9740488529205322,0.14297306537628174,-0.17546355724334717, 288, 223, 156, 255
1730926674706,6i,8.339581026073432,1.0s : 0.3s,-17.319236398014937,0.024405182892981252,0.06996033202357346,0.019844963451108012,0.05473203957080841,-0.04094480350613594,0.06723994761705399,0.011783480644226074,0.007258176803588867,0.014222905039787292,-0.14297822090676504,1.3922228418049651,0.9280167067298839,0.9740564823150635,0.14249157905578613,-0.1758134514093399, 288, 223, 156, 255
1730926674716,6i,8.339581026073432,1.0s : 0.3s,-17.319236398014937,0.02417255173450719,0.06966825681218272,0.020155614283384492,0.056619685143232346,-0.04586712643504143,0.06937394291162491,-0.0035437345504760742,0.016396328806877136,0.011173680424690247,-0.14230181749363568,1.3919870551707567,0.9275976080750138,0.974109411239624,0.14182204008102417,-0.17606018483638763, 288, 223, 156, 255
1730926674726,6i,8.339581026073432,1.0s : 0.3s,-17.319236398014937,0.02393461420014975,0.06900592950309707,0.017662683366018953,0.043868470937013626,-0.04576459527015686,0.07269996404647827,-0.005266785621643066,0.013463124632835388,0.010147690773010254,-0.1412418269634113,1.392096490158013,0.9272948273488503,0.9742761850357056,0.14077268540859222,-0.17598022520542145, 288, 223, 156, 255
1730926674736,6i,8.339581026073432,1.0s : 0.3s,-17.319236398014937,0.023701392937046963,0.06761839351877505,0.01904198723450204,0.029854118824005127,-0.03741318732500076,0.07279051095247269,-0.009031832218170166,-0.0015554428100585938,0.016691431403160095,-0.13990505560778413,1.392414900422951,0.9271944914459177,0.9745165705680847,0.1394491046667099,-0.1757032424211502, 288, 223, 156, 255
1730926674746,6i,8.339581026073432,1.0s : 0.3s,-17.319236398014937,0.023478851980775574,0.06690951851559895,0.020943159845314325,0.045491933822631836,-0.03553290665149689,0.070888951420784,-0.017662346363067627,0.001880839467048645,0.011095941066741943,-0.1385614935387508,1.3927260192904016,0.9270467123006761,0.9747546315193176,0.13811853528022766,-0.17543305456638336, 288, 223, 156, 255
1730926674756,6i,8.339581026073432,1.0s : 0.3s,-17.319236398014937,0.023255002597139043,0.06748115706739077,0.029434046103458594,0.07414781302213669,-0.03337574750185013,0.07304424792528152,-0.016921043395996094,0.023975253105163574,-0.0022866129875183105,-0.1374526171146097,1.3928638806081493,0.9266631781517936,0.9749289155006409,0.13702020049095154,-0.1753256767988205, 288, 223, 156, 255
1730926674766,6i,8.339581026073432,1.0s : 0.3s,-17.319236398014937,0.023033206516376848,0.06805678312536503,0.028987409728246018,0.07695531845092773,-0.029526591300964355,0.07380729913711548,-0.012759983539581299,0.02507750689983368,-0.00696931779384613,-0.13661716375131816,1.3929453814876551,0.9261223136575952,0.975055456161499,0.13619258999824524,-0.17526639997959137, 288, 223, 156, 255
1730926674776,6i,8.339581026073432,1.0s : 0.3s,-17.319236398014937,0.022826950651669186,0.07011463516969534,0.017352384648763576,0.09977754205465317,-0.02564956061542034,0.07288318872451782,-0.015427589416503906,0.007940858602523804,-0.00019365549087524414,-0.135801967980889,1.3929177919931552,0.9254316606961193,0.9751596450805664,0.1353849321603775,-0.17531289160251617, 288, 223, 156, 255
1730926674786,6i,8.339581026073432,1.0s : 0.3s,-17.319236398014937,0.022637769786586832,0.07848295630861775,0.022635018748096706,0.13655060529708862,-0.02453959919512272,0.06530033051967621,-0.018330037593841553,0.012089967727661133,-0.005494222044944763,-0.13514104584997932,1.392783378269158,0.924422330148914,0.9752238392829895,0.13473007082939148,-0.17545975744724274, 288, 223, 156, 255
1730926674796,6i,8.339581026073432,1.0s : 0.3s,-17.319236398014937,0.02246091804782242,0.0890698338753016,0.033885146912270916,0.15470963716506958,-0.025316976010799408,0.07308049499988556,-0.01400059461593628,0.02649635076522827,-0.01581549644470215,-0.13464618995306982,1.3925203816381444,0.9230954444748389,0.975243330001831,0.13423971831798553,-0.17572806775569916, 288, 223, 156, 255
1730926674806,6i,8.339581026073432,1.0s : 0.3s,-17.319236398014937,0.022294174028190006,0.09534240792244834,0.0157580950518749,0.14951887726783752,-0.028283290565013885,0.07379202544689178,-0.0017458796501159668,0.013841301202774048,-0.0073271989822387695,-0.13400506009716392,1.39220293399174,0.921745358118351,0.9752718806266785,0.13360436260700226,-0.17605288326740265, 288, 223, 156, 255
1730926674816,6i,8.339581026073432,1.0s : 0.3s,-17.319236398014937,0.022153037308440315,0.10735951601865576,0.010429539336573462,0.19060559570789337,-0.0198820848017931,0.07154511660337448,0.003771364688873291,-0.009327411651611328,0.0027479976415634155,-0.133102652794864,1.3920013161613096,0.9202413233094727,0.975354790687561,0.13270998001098633,-0.17627090215682983, 288, 223, 156, 255
1730926674826,6i,8.339581026073432,1.0s : 0.3s,-17.319236398014937,0.022037192332276353,0.13059075270510478,0.00623536026932156,0.275615930557251,-0.012055720202624798,0.058325812220573425,-0.0043492913246154785,-0.0019215643405914307,-0.004033729434013367,-0.13220436694637674,1.3917014125257399,0.9180860677338142,0.9754185676574707,0.13181959092617035,-0.17658452689647675, 288, 223, 156, 255
1730926674836,6i,8.339581026073432,1.0s : 0.3s,-17.319236398014937,0.02193116891312059,0.16593175984385514,0.034281834516342626,0.3727845549583435,-0.005007131956517696,0.05041409656405449,-0.0022443532943725586,0.027357369661331177,-0.02053731679916382,-0.13165297166417805,1.3911292963480881,0.9149706983888525,0.9753888249397278,0.13127298653125763,-0.177155539393425, 288, 223, 156, 255
1730926674846,6i,8.339581026073432,1.0s : 0.3s,-17.319236398014937,0.021841417231091783,0.2029888337744387,0.03464984787519741,0.42967489361763,0.001959120389074087,0.059190645813941956,0.005622386932373047,0.025367602705955505,-0.02292346954345703,-0.1309203794121895,1.3904645292389686,0.9109974022627917,0.975365161895752,0.1305467039346695,-0.1778210997581482, 288, 223, 156, 255
1730926674856,6i,8.339581026073432,1.0s : 0.3s,-17.319236398014937,0.02180199699694582,0.23159436979486026,0.02155391442396259,0.44106391072273254,-0.0021890192292630672,0.06132223829627037,0.009414374828338623,-0.015518724918365479,-0.011623680591583252,-0.12982044052332878,1.3898878755323854,0.906768389513534,0.9754031300544739,0.12945610284805298,-0.17840924859046936, 288, 223, 156, 255
1730926674866,6i,8.339581026073432,1.0s : 0.3s,-17.319236398014937,0.02202094457852433,0.2496370842964091,0.0512161967926856,0.4254300892353058,-0.003826774889603257,0.09016174077987671,0.004176437854766846,-0.05069783329963684,-0.00594860315322876,-0.12859713776105774,1.3892142638354537,0.9025810720846867,0.9754378199577332,0.12824298441410065,-0.17909473180770874, 288, 223, 156, 255
1730926674876,6i,8.339581026073432,1.0s : 0.3s,-17.319236398014937,0.022578904065912984,0.2556408082041203,0.08544732546905807,0.38747072219848633,-0.019554603844881058,0.1275985985994339,0.019198894500732422,-0.08243966102600098,-0.011676907539367676,-0.12701613441472073,1.3884916166195225,0.8986978531319862,0.9755063056945801,0.12667487561702728,-0.17983610928058624, 288, 223, 156, 255
1730926674886,6i,8.339581026073432,1.0s : 0.3s,-17.319236398014937,0.023591475905370727,0.2388457265786846,0.12533901262583957,0.26478514075279236,-0.007135175168514252,0.15874482691287994,0.016776859760284424,-0.1235048770904541,-0.013226881623268127,-0.12505124049840907,1.38796790269644,0.8957191626024242,0.9756549000740051,0.1247255727648735,-0.18039187788963318, 288, 223, 156, 255
1730926674896,6i,8.339581026073432,1.0s : 0.3s,-17.319236398014937,0.024958270967616436,0.20996709758597432,0.1514715940717491,0.17130473256111145,0.02795143984258175,0.15049248933792114,-0.002109825611114502,-0.15023350715637207,0.019211605191230774,-0.12313968265713289,1.3878417057755514,0.8938572115045534,0.9758646488189697,0.12282871454954147,-0.18055802583694458, 288, 223, 156, 255
1730926674906,6i,8.339581026073432,1.0s : 0.3s,-17.319236398014937,0.02639812814435875,0.1830243919514357,0.13796863703071577,0.1373901665210724,0.03581264615058899,0.12757685780525208,-0.03260236978530884,-0.12401075661182404,0.050928995013237,-0.1214865048921796,1.3880414609624643,0.8926624401731109,0.9760991930961609,0.12118788808584213,-0.18039977550506592, 288, 223, 156, 255
1730926674916,6i,8.339581026073432,1.0s : 0.3s,-17.319236398014937,0.02771139053629309,0.18236097441228413,0.06988621119465711,0.25691094994544983,0.027649791911244392,0.0708126425743103,-0.028826653957366943,-0.04787781089544296,0.0419621467590332,-0.12023453408736132,1.388110970377277,0.8909756465335277,0.9762601256370544,0.11994504928588867,-0.180359348654747, 288, 223, 156, 255
1730926674926,6i,8.339581026073432,1.0s : 0.3s,-17.319236398014937,0.028427445321133504,0.2080613142176239,0.04304748603546561,0.4098455309867859,0.034189581871032715,0.04486357048153877,-0.01440727710723877,0.037864670157432556,0.014552772045135498,-0.11904777792164417,1.388016961533865,0.8877432011173216,0.9763823747634888,0.11876677721738815,-0.1804768443107605, 288, 223, 156, 255
1730926674936,6i,8.339581026073432,1.0s : 0.3s,-17.319236398014937,0.02838762677771441,0.2551484074035668,0.10525205202711518,0.556653618812561,0.03410409390926361,0.009189728647470474,0.011378586292266846,0.10425480455160141,-0.00891391932964325,-0.11789613185013396,1.387790907085182,0.8829831848954747,0.9764753580093384,0.11762320250272751,-0.18072232604026794, 288, 223, 156, 255
1730926674946,6i,8.339581026073432,1.0s : 0.3s,-17.319236398014937,0.027539093394629288,0.31585687346603897,0.16175917932388095,0.6880449056625366,0.03296009078621864,-0.004499452188611031,0.00895017385482788,0.16022340953350067,-0.02035646140575409,-0.11674443998344429,1.387408218647234,0.8768103296147731,0.9765386581420898,0.11647943407297134,-0.18112057447433472, 288, 223, 156, 255
1730926674956,6i,8.339581026073432,1.0s : 0.3s,-17.319236398014937,0.026032012716785183,0.37359562565791987,0.19648633727748752,0.7596847414970398,0.029256433248519897,-0.007348768413066864,0.0057585835456848145,0.19371861219406128,-0.032354578375816345,-0.11545184115735946,1.3868629315011587,0.8695956618507149,0.9765868782997131,0.11519553512334824,-0.18168042600154877, 288, 223, 156, 255
1730926674966,6i,8.339581026073432,1.0s : 0.3s,-17.319236398014937,0.024221310968833287,0.4281053594659572,0.20072544587014268,0.8285262584686279,0.03216491639614105,-0.03358087316155434,0.005651593208312988,0.19559615850448608,-0.0447314977645874,-0.11419161033897131,1.3862515056958185,0.8617517368217393,0.976617693901062,0.11394359916448593,-0.1823040246963501, 288, 223, 156, 255
1730926674976,6i,8.339581026073432,1.0s : 0.3s,-17.319236398014937,0.022446399057548645,0.4954669060454634,0.22062701324241354,0.9720338582992554,0.029492966830730438,-0.06892581284046173,-0.01284104585647583,0.21053355932235718,-0.06470708549022675,-0.11304073618456686,1.385543611480894,0.8527931576568749,0.9766166806221008,0.11280014365911484,-0.18301934003829956, 288, 223, 156, 255
1730926674986,6i,8.339581026073432,1.0s : 0.3s,-17.319236398014937,0.021106194159424545,0.5670697276898926,0.2661346160193494,1.0906494855880737,0.01902887225151062,-0.11234598606824875,-0.024197757244110107,0.24721282720565796,-0.09554015100002289,-0.11199943678110783,1.3846075467821197,0.8423572868137673,0.9765597581863403,0.11176542937755585,-0.18395507335662842, 288, 223, 156, 255
1730926674996,6i,8.339581026073432,1.0s : 0.3s,-17.319236398014937,0.020685022116456713,0.6302633883812141,0.2783560170346383,1.1516371965408325,0.005240090191364288,-0.15080949664115906,-0.02666604518890381,0.2586715817451477,-0.09929756820201874,-0.11123231870749259,1.3834712872790136,0.8310147285714804,0.976434051990509,0.1110030859708786,-0.18508049845695496, 288, 223, 156, 255
1730926675006,6i,8.339581026073432,1.0s : 0.3s,-17.319236398014937,0.02140763242825807,0.6810801579266454,0.24627150629580635,1.1793276071548462,-0.003497030818834901,-0.1874912828207016,-0.02998673915863037,0.2320578396320343,-0.07680891454219818,-0.11069738131896549,1.382141504458988,0.8191624856019518,0.9762452244758606,0.1104714423418045,-0.18638987839221954, 288, 223, 156, 255
1730926675016,6i,8.339581026073432,1.0s : 0.3s,-17.319236398014937,0.02321035863804486,0.7243719999665276,0.22722964987061534,1.2084243297576904,-0.02914140559732914,-0.24926117062568665,-0.04654437303543091,0.2093532681465149,-0.07508757710456848,-0.11060476077480005,1.3806300673648229,0.8069513118542665,0.975972592830658,0.11037938296794891,-0.1878671646118164, 288, 223, 156, 255
1730926675026,6i,8.339581026073432,1.0s : 0.3s,-17.319236398014937,0.02608466267073737,0.7640904648612562,0.26590520345201507,1.2449612617492676,-0.03980071097612381,-0.2989681363105774,-0.07797777652740479,0.23983226716518402,-0.08429428935050964,-0.11101205651868865,1.3788444617283306,0.7943195106992008,0.9755913615226746,0.11078418791294098,-0.18960097432136536, 288, 223, 156, 255
1730926675036,6i,8.339581026073432,1.0s : 0.3s,-17.319236398014937,0.029976848363589645,0.7985634390385754,0.2955443298039149,1.2727444171905518,-0.02138361893594265,-0.31851547956466675,-0.08834582567214966,0.26322150230407715,-0.10127145051956177,-0.1116287048576237,1.3770728225495064,0.781246215491592,0.9751866459846497,0.11139701306819916,-0.19131585955619812, 288, 223, 156, 255
1730926675046,6i,8.339581026073432,1.0s : 0.3s,-17.319236398014937,0.034417251183920985,0.8258762013701546,0.27379199004051097,1.276201844215393,-0.010998888872563839,-0.37061116099357605,-0.11310625076293945,0.2307223230600357,-0.09453168511390686,-0.11254793993367947,1.3754296004521218,0.7679985971717952,0.9747699499130249,0.1123104840517044,-0.19289807975292206, 288, 223, 156, 255
1730926675056,6i,8.339581026073432,1.0s : 0.3s,-17.319236398014937,0.039292014193317105,0.848160761866373,0.2854326098633549,1.273764967918396,-0.01999744400382042,-0.43594491481781006,-0.15335321426391602,0.222502201795578,-0.09190939366817474,-0.11404858098471564,1.3737382402944789,0.7546057020324844,0.9742760062217712,0.1138015016913414,-0.19451327621936798, 288, 223, 156, 255
1730926675066,6i,8.339581026073432,1.0s : 0.3s,-17.319236398014937,0.0446497331641189,0.8665121020356623,0.31292800660109416,1.266857385635376,-0.026614468544721603,-0.4976116120815277,-0.16355293989181519,0.25078532099723816,-0.0910005271434784,-0.11612896613459811,1.3719264927448598,0.7411574668882304,0.9736879467964172,0.11586812138557434,-0.1962309330701828, 288, 223, 156, 255
1730926675076,6i,8.339581026073432,1.0s : 0.3s,-17.319236398014937,0.05033765718894815,0.891867077277145,0.3206279050071591,1.3017224073410034,-0.025770245119929314,-0.5779589414596558,-0.16198551654815674,0.2692004144191742,-0.06398501992225647,-0.11885079790398288,1.3700510160429893,0.7274538929547728,0.9730055332183838,0.1185711920261383,-0.19799308478832245, 288, 223, 156, 255
1730926675086,6i,8.339581026073432,1.0s : 0.3s,-17.319236398014937,0.05658551442643799,0.93952045768041,0.3735234321155778,1.4198970794677734,-0.02915862947702408,-0.6736635565757751,-0.18793457746505737,0.3165666162967682,-0.06313419342041016,-0.12229080581247222,1.367992691093328,0.7128008235168911,0.9721905589103699,0.12198622524738312,-0.19991207122802734, 288, 223, 156, 255
1730926675096,6i,8.339581026073432,1.0s : 0.3s,-17.319236398014937,0.06384872084126156,1.002354781357698,0.45392572822979654,1.5434597730636597,-0.009835531935095787,-0.7496365904808044,-0.20682477951049805,0.39143800735473633,-0.1002415269613266,-0.12627705432758074,1.36576776562429,0.6966600584267634,0.9712595343589783,0.12594172358512878,-0.201974019408226, 288, 223, 156, 255
1730926675106,6i,8.339581026073432,1.0s : 0.3s,-17.319236398014937,0.07206465071936685,1.0599598653932605,0.48614882029774104,1.5796416997909546,0.00011115311644971371,-0.8292959332466125,-0.22196239233016968,0.41977524757385254,-0.10422146320343018,-0.13078337660652428,1.363521255840249,0.6795837530801468,0.970238208770752,0.13041086494922638,-0.20403659343719482, 288, 223, 156, 255
1730926675116,6i,8.339581026073432,1.0s : 0.3s,-17.319236398014937,0.0808977861465396,1.121198562613337,0.4832875709125412,1.6474992036819458,-0.008572349324822426,-0.9219497442245483,-0.2417042851448059,0.41132986545562744,-0.07715994119644165,-0.13604064050159273,1.3611137910967983,0.66186421974522,0.9690602421760559,0.13562141358852386,-0.20622627437114716, 288, 223, 156, 255
1730926675126,6i,8.339581026073432,1.0s : 0.3s,-17.319236398014937,0.0902280861376899,1.1862611187437417,0.4910958783931771,1.7273845672607422,-0.005812338087707758,-1.0024244785308838,-0.2406885027885437,0.42272961139678955,-0.06740832328796387,-0.14190943357257507,1.358431294562841,0.6431198826268929,0.9677087664604187,0.14143361151218414,-0.20865365862846375, 288, 223, 156, 255
1730926675136,6i,8.339581026073432,1.0s : 0.3s,-17.319236398014937,0.09994559616762506,1.2380994525052316,0.49292218129259197,1.712363839149475,0.017680736258625984,-1.0912331342697144,-0.22269529104232788,0.43511661887168884,-0.06366012990474701,-0.1484819287948332,1.35571931284605,0.6238710827375535,0.9662102460861206,0.14793694019317627,-0.2110743373632431, 288, 223, 156, 255
1730926675146,6i,8.339581026073432,1.0s : 0.3s,-17.319236398014937,0.10975599705304176,1.2817962180436377,0.4726148778714245,1.6936681270599365,0.021319234743714333,-1.189228892326355,-0.23065263032913208,0.4111922085285187,-0.03294168412685394,-0.15596764674289865,1.352998427198024,0.6045609161069888,0.9645240306854248,0.15533606708049774,-0.21345721185207367, 288, 223, 156, 255
1730926675156,6i,8.339581026073432,1.0s : 0.3s,-17.319236398014937,0.11963325771431427,1.3290357257915544,0.4711413809456595,1.705946683883667,0.019611351191997528,-1.3154118061065674,-0.23865997791290283,0.4055018723011017,-0.024162933230400085,-0.1644986188578542,1.3500731022608878,0.585034488487911,0.9625673890113831,0.16375774145126343,-0.21597984433174133, 288, 223, 156, 255
1730926675166,6i,8.339581026073432,1.0s : 0.3s,-17.319236398014937,0.12987408542121645,1.3808491173324275,0.5184087034934871,1.7437585592269897,0.015977513045072556,-1.4150029420852661,-0.23873186111450195,0.45920029282569885,-0.02982906997203827,-0.17403156991034363,1.3468692788636658,0.5649115707412652,0.9603046774864197,0.17315441370010376,-0.21870602667331696, 288, 223, 156, 255
1730926675176,6i,8.339581026073432,1.0s : 0.3s,-17.319236398014937,0.1404360714429384,1.4287476452737153,0.5244656421047751,1.7302883863449097,0.00826659519225359,-1.5224965810775757,-0.2183774709701538,0.4757239818572998,-0.03259114921092987,-0.18445408531831836,1.3433173021620386,0.5443355410307275,0.9577115178108215,0.1834098994731903,-0.22169655561447144, 288, 223, 156, 255
1730926675186,6i,8.339581026073432,1.0s : 0.3s,-17.319236398014937,0.15105225746514017,1.479505328028948,0.4928590649130415,1.753392219543457,-0.004550355486571789,-1.6226447820663452,-0.2096533179283142,0.44480615854263306,-0.03321182727813721,-0.1958477478605201,1.3394011140696223,0.5234724922666018,0.9547399878501892,0.19459815323352814,-0.2249515801668167, 288, 223, 156, 255
1730926675196,6i,8.339581026073432,1.0s : 0.3s,-17.319236398014937,0.1617411667255922,1.5433012010593612,0.4978078756940875,1.8479772806167603,-0.008750959299504757,-1.72165846824646,-0.2169516682624817,0.4429776072502136,-0.06719742715358734,-0.20794716558099594,1.3348935266074355,0.5016242239005637,0.9513570666313171,0.20645172894001007,-0.22868575155735016, 288, 223, 156, 255
1730926675206,6i,8.339581026073432,1.0s : 0.3s,-17.319236398014937,0.17279608737536306,1.6045277512372365,0.5329456404080541,1.844209909439087,-0.014287582598626614,-1.8467055559158325,-0.2150987982749939,0.47618725895881653,-0.1049250066280365,-0.22090222867282683,1.3299412958419243,0.4788947844465698,0.947536051273346,0.21911001205444336,-0.2327367663383484, 288, 223, 156, 255
1730926675216,6i,8.339581026073432,1.0s : 0.3s,-17.319236398014937,0.1840730861729252,1.6617519012168276,0.5389252777088905,1.8273167610168457,-0.03543015196919441,-1.9640108346939087,-0.22590821981430054,0.48458343744277954,-0.06771132349967957,-0.23502729532096547,1.3245133044621773,0.4559457863723727,0.943162739276886,0.23286953568458557,-0.23709823191165924, 288, 223, 156, 255
1730926675226,6i,8.339581026073432,1.0s : 0.3s,-17.319236398014937,0.19535366134781898,1.7248563661076506,0.511807856207104,1.8830686807632446,-0.05816031992435455,-2.064228057861328,-0.18843984603881836,0.4744243025779724,-0.036868512630462646,-0.24998836949465786,1.3183750456813341,0.4323384586454077,0.9382109045982361,0.2473926842212677,-0.24198585748672485, 288, 223, 156, 255
1730926675236,6i,8.339581026073432,1.0s : 0.3s,-17.319236398014937,0.20665662006687815,1.7949165869185943,0.5249891113240021,1.939765214920044,-0.08681806921958923,-2.183988094329834,-0.13767963647842407,0.5036481022834778,-0.0547400563955307,-0.2656867225967143,1.311341512702549,0.40761420409860644,0.9326167106628418,0.26257196068763733,-0.2475517839193344, 288, 223, 156, 255
1730926675246,6i,8.339581026073432,1.0s : 0.3s,-17.319236398014937,0.21804132090397357,1.8639250924954234,0.539862422637407,1.9625062942504883,-0.12312711030244827,-2.294329881668091,-0.1294243335723877,0.5185104012489319,-0.0764705240726471,-0.28226570421973873,1.303355907870016,0.38198943512852535,0.9262840151786804,0.2785324156284332,-0.253805935382843, 288, 223, 156, 255
1730926675256,6i,8.339581026073432,1.0s : 0.3s,-17.319236398014937,0.22944194002247664,1.9293038420173805,0.527311618006227,1.9776151180267334,-0.16516298055648804,-2.3899643421173096,-0.11197930574417114,0.5085132122039795,-0.08326157927513123,-0.2995505973403562,1.2943235037585943,0.3556098212750029,0.9191844463348389,0.29509085416793823,-0.2608087956905365, 288, 223, 156, 255
1730926675266,6i,8.339581026073432,1.0s : 0.3s,-17.319236398014937,0.2407839856574825,1.9876434720693608,0.49875638773278447,1.962977647781372,-0.2048148363828659,-2.4801433086395264,-0.08145290613174438,0.4843127727508545,-0.0869741141796112,-0.3174715569947207,1.2842911136991007,0.32862453259356483,0.9113020896911621,0.3121654689311981,-0.2684793770313263, 288, 223, 156, 255
1730926675276,6i,8.339581026073432,1.0s : 0.3s,-17.319236398014937,0.2518179923457579,2.0413856516558195,0.47757322677225106,1.9383695125579834,-0.2488427311182022,-2.577653408050537,-0.05614131689071655,0.46526849269866943,-0.09192153811454773,-0.33606572767373954,1.2731973502843699,0.3011971997185528,0.9025616645812988,0.32977545261383057,-0.27682235836982727, 288, 223, 156, 255
1730926675286,6i,8.339581026073432,1.0s : 0.3s,-17.319236398014937,0.26275351575709105,2.0943611034765337,0.48020389004846725,1.9361652135849,-0.2784040868282318,-2.670694351196289,-0.032620370388031006,0.46893152594566345,-0.09815758466720581,-0.35534862212231244,1.261055521405755,0.27320859677635273,0.892910897731781,0.34791722893714905,-0.2857687473297119, 288, 223, 156, 255
1730926675296,6i,8.339581026073432,1.0s : 0.3s,-17.319236398014937,0.2736215004085836,2.1477477324343863,0.49510838048472583,1.9164758920669556,-0.3254895806312561,-2.780066728591919,-0.0015926361083984375,0.4852156639099121,-0.09846588969230652,-0.37527664297549246,1.2477676857197113,0.24451193992568288,0.8822841048240662,0.3665299415588379,-0.2953481674194336, 288, 223, 156, 255
1730926675306,6i,8.339581026073432,1.0s : 0.3s,-17.319236398014937,0.28442569477773744,2.2032960969668896,0.5329114517089206,1.908991813659668,-0.38753747940063477,-2.887239694595337,0.030051767826080322,0.5259876251220703,-0.08017808198928833,-0.39589430670671594,1.2331371477762632,0.2150828027772562,0.8705524802207947,0.3856334686279297,-0.3056555986404419, 288, 223, 156, 255
1730926675316,6i,8.339581026073432,1.0s : 0.3s,-17.319236398014937,0.29538701510420207,2.2592075745735194,0.5843769720372478,1.911576271057129,-0.4660751521587372,-2.9756338596343994,0.07022619247436523,0.5755409002304077,-0.07292050123214722,-0.41706682423958763,1.2168276270115859,0.1846816498152664,0.857599675655365,0.4050804376602173,-0.3169110119342804, 288, 223, 156, 255
1730926675326,6i,8.339581026073432,1.0s : 0.3s,-17.319236398014937,0.30652643773833066,2.308491300606699,0.6224496437206518,1.908592939376831,-0.5343721508979797,-3.025489091873169,0.1283472180366516,0.6055358052253723,-0.0655510425567627,-0.4383687038658605,1.1987520634959006,0.15331496348926474,0.8435003161430359,0.4244629740715027,-0.3291480243206024, 288, 223, 156, 255
1730926675336,6i,8.339581026073432,1.0s : 0.3s,-17.319236398014937,0.3175260522875827,2.35174044453223,0.6094049121830437,1.8942837715148926,-0.5780495405197144,-3.0771846771240234,0.18918919563293457,0.5756916999816895,-0.06450474262237549,-0.4597085511871796,1.1791146603522453,0.12107095822851321,0.8283125758171082,0.44368693232536316,-0.34211140871047974, 288, 223, 156, 255
1730926675346,6i,8.339581026073432,1.0s : 0.3s,-17.319236398014937,0.3284219443822503,2.3945544356751327,0.5854475910563246,1.8896287679672241,-0.6355857849121094,-3.14233136177063,0.22068947553634644,0.5378966927528381,-0.06864535808563232,-0.4811570944603609,1.1577719525892596,0.08778218994210833,0.8119185566902161,0.46280521154403687,-0.35580840706825256, 288, 223, 156, 255
1730926675356,6i,8.339581026073432,1.0s : 0.3s,-17.319236398014937,0.33916032946696356,2.431788540970686,0.5868918373019638,1.841984748840332,-0.711300253868103,-3.1984739303588867,0.261837363243103,0.5189778804779053,-0.08090230822563171,-0.5024119913183971,1.134849534156766,0.053576164965125024,0.7944522500038147,0.48154085874557495,-0.3700863718986511, 288, 223, 156, 255
1730926675366,6i,8.339581026073432,1.0s : 0.3s,-17.319236398014937,0.3494747077357076,2.4601430237471265,0.5968391065573196,1.7408438920974731,-0.7942717671394348,-3.25233793258667,0.3159310221672058,0.4985891580581665,-0.0883932113647461,-0.5237478994691181,1.1103325587203388,0.019009039376933896,0.7757590413093567,0.5001291632652283,-0.38479703664779663, 288, 223, 156, 255
1730926675376,6i,8.339581026073432,1.0s : 0.3s,-17.319236398014937,0.3593902919979611,2.4878133008275833,0.5947031552248282,1.6625916957855225,-0.8833712935447693,-3.317345142364502,0.3617241382598877,0.4660535454750061,-0.07497721910476685,-0.5452795716780034,1.0841081526540919,-0.015969143355215366,0.7557075023651123,0.5186571478843689,-0.39987626671791077, 288, 223, 156, 255
1730926675386,6i,8.339581026073432,1.0s : 0.3s,-17.319236398014937,0.368818952943774,2.5223082729611757,0.6215181689692102,1.6728347539901733,-0.9561758637428284,-3.3750669956207275,0.40150076150894165,0.46768665313720703,-0.07969421148300171,-0.5666571232756737,1.055847065999949,-0.05205338463793612,0.7342872619628906,0.5368146896362305,-0.4155144989490509, 288, 223, 156, 255
1730926675396,6i,8.339581026073432,1.0s : 0.3s,-17.319236398014937,0.37819390724604557,2.5701534130186166,0.6797877783345505,1.7758071422576904,-1.016823649406433,-3.4366917610168457,0.44730275869369507,0.5019162893295288,-0.10055696964263916,-0.587353234169247,1.0250519804941196,-0.09037609259482075,0.7114954590797424,0.5541597604751587,-0.43206632137298584, 288, 223, 156, 255
1730926675406,6i,8.339581026073432,1.0s : 0.3s,-17.319236398014937,0.3877803911074332,2.6132319591809043,0.7211680366006413,1.7885199785232544,-1.0851356983184814,-3.4645373821258545,0.4805428981781006,0.526804506778717,-0.10788360238075256,-0.6070225571246125,0.9917131836847939,-0.13096316374090475,0.6874410510063171,0.570424497127533,-0.44948941469192505, 288, 223, 156, 255
1730926675416,6i,8.339581026073432,1.0s : 0.3s,-17.319236398014937,0.397339136082478,2.6477112479785143,0.7397521030241575,1.7256219387054443,-1.1845020055770874,-3.4913833141326904,0.542991042137146,0.49343204498291016,-0.09443897008895874,-0.6259504866296609,0.9562547288068072,-0.17272481577282395,0.6621328592300415,0.5858678221702576,-0.4672675132751465, 288, 223, 156, 255
1730926675426,6i,8.339581026073432,1.0s : 0.3s,-17.319236398014937,0.40655579968083494,2.6688387499666066,0.7509931816623105,1.6282845735549927,-1.2650631666183472,-3.494865655899048,0.6069223284721375,0.43855154514312744,-0.05752032995223999,-0.6441590650143738,0.9187376992330265,-0.21527737789485027,0.63555508852005,0.6005262136459351,-0.4852195084095001, 288, 223, 156, 255
1730926675436,6i,8.339581026073432,1.0s : 0.3s,-17.319236398014937,0.4154438387579567,2.680196706032797,0.7653901281573667,1.53696608543396,-1.3255107402801514,-3.4950006008148193,0.6466497182846069,0.4068930745124817,-0.045871734619140625,-0.6617130517260817,0.8796619821039127,-0.2582526685066499,0.6078974008560181,0.6144692301750183,-0.5028800368309021, 288, 223, 156, 255
1730926675446,6i,8.339581026073432,1.0s : 0.3s,-17.319236398014937,0.42421407440863096,2.6880968541952757,0.7779662604087327,1.497825026512146,-1.3685652017593384,-3.4930500984191895,0.6653534173965454,0.4016878604888916,-0.03439760208129883,-0.6783018377346249,0.8390043455196572,-0.3019935435877949,0.5792907476425171,0.6274716854095459,-0.5202898979187012, 288, 223, 156, 255
1730926675456,6i,8.339581026073432,1.0s : 0.3s,-17.319236398014937,0.43315128893869076,2.691174758647021,0.7855088971116052,1.4556403160095215,-1.4047253131866455,-3.4914393424987793,0.6668998003005981,0.41334521770477295,-0.03761136531829834,-0.6936837179535472,0.7967361034160683,-0.346823046119453,0.5498207807540894,0.6393738985061646,-0.5374923944473267, 288, 223, 156, 255
1730926675466,6i,8.339581026073432,1.0s : 0.3s,-17.319236398014937,0.4422949384381218,2.6900208273472286,0.7896398054313504,1.3765559196472168,-1.447695016860962,-3.46769642829895,0.6760084629058838,0.4077467918395996,-0.016915500164031982,-0.707915895967748,0.7531351409602762,-0.3923295127241794,0.5195939540863037,0.6502518653869629,-0.554251492023468, 288, 223, 156, 255
1730926675476,6i,8.339581026073432,1.0s : 0.3s,-17.319236398014937,0.4515044362397497,2.687462127860796,0.8049166136768244,1.3008954524993896,-1.4941223859786987,-3.4603166580200195,0.7120274305343628,0.375371515750885,-0.0019794702529907227,-0.7210805415194017,0.7082855061069102,-0.4382576649459824,0.48861032724380493,0.6601966619491577,-0.5704386830329895, 288, 223, 156, 255
1730926675486,6i,8.339581026073432,1.0s : 0.3s,-17.319236398014937,0.46073430418108785,2.66564509720513,0.810101402652218,1.090983510017395,-1.531065821647644,-3.437093734741211,0.7327945232391357,0.34532666206359863,-0.00509566068649292,-0.7335831977915909,0.6625707737037165,-0.48435040664629103,0.45691803097724915,0.6695354580879211,-0.5856178402900696, 288, 223, 156, 255
1730926675496,6i,8.339581026073432,1.0s : 0.3s,-17.319236398014937,0.47021950067580875,2.647842482460322,0.8046262242131069,1.0621742010116577,-1.5600143671035767,-3.4093029499053955,0.7353259325027466,0.32667261362075806,0.002034008502960205,-0.7453866791334178,0.6162406558246022,-0.5301537951733925,0.4247082769870758,0.6782559752464294,-0.5996596813201904, 288, 223, 156, 255
1730926675506,6i,8.339581026073432,1.0s : 0.3s,-17.319236398014937,0.4799704503482347,2.6394072395555366,0.8144425978441041,1.0799720287322998,-1.5637284517288208,-3.4140021800994873,0.7422674894332886,0.33434927463531494,-0.023796677589416504,-0.7556289129077683,0.5687168459569578,-0.5769696291293712,0.3919793963432312,0.6857465505599976,-0.613273024559021, 288, 223, 156, 255
1730926675516,6i,8.339581026073432,1.0s : 0.3s,-17.319236398014937,0.4905010793146394,2.6404898882132777,0.8529753507251658,1.1092537641525269,-1.6863092184066772,-3.4006309509277344,0.7472619414329529,0.4007558822631836,-0.09252709150314331,-0.7638998230256069,0.5193886163759517,-0.6249226789492339,0.358435720205307,0.6917429566383362,-0.6269094944000244, 288, 223, 156, 255
1730926675526,6i,8.339581026073432,1.0s : 0.3s,-17.319236398014937,0.501895378827586,2.63943273560586,0.8700155130081849,0.8245118260383606,-1.7241859436035156,-3.4492027759552,0.750670313835144,0.4265350103378296,-0.10718655586242676,-0.7715034021117176,0.4687186991772152,-0.6733224602639953,0.32383835315704346,0.6972137689590454,-0.6395480036735535, 288, 223, 156, 255
1730926675536,6i,8.339581026073432,1.0s : 0.3s,-17.319236398014937,0.5124934491600884,2.6375438715082162,0.7633363727680725,0.7167741656303406,-1.760990023612976,-3.44724702835083,0.7261224985122681,0.22942668199539185,0.05283874273300171,-0.779445788437135,0.41750375047504684,-0.7215349948596009,0.28841909766197205,0.7028853297233582,-0.6502050161361694, 288, 223, 156, 255
1730926675546,6i,8.339581026073432,1.0s : 0.3s,-17.319236398014937,0.5230453285534656,2.6359958406295916,0.770514327041589,0.7100086808204651,-1.7947041988372803,-3.4297451972961426,0.72099769115448,0.26614683866500854,0.054959237575531006,-0.786107181133026,0.3654637403245764,-0.7701509945661781,0.25252828001976013,0.7076079249382019,-0.6599396467208862, 288, 223, 156, 255
1730926675556,6i,8.339581026073432,1.0s : 0.3s,-17.319236398014937,0.5345075360843917,2.637449824012693,0.8373321959382812,0.8393783569335938,-1.7933974266052246,-3.4224369525909424,0.7337357997894287,0.4013151526451111,-0.041269004344940186,-0.7901668897678008,0.31238601065185173,-0.8196224124987546,0.2162763774394989,0.7104707360267639,-0.6696684956550598, 288, 223, 156, 255
1730926675566,6i,8.339581026073432,1.0s : 0.3s,-17.319236398014937,0.5465695805674933,2.6417283791179345,0.8348221294498422,0.9589089155197144,-1.7615197896957397,-3.417198896408081,0.7280235290527344,0.40325939655303955,-0.06551021337509155,-0.7911339505117776,0.25890910378128984,-0.8698565992667296,0.17999647557735443,0.7111509442329407,-0.6796069145202637, 288, 223, 156, 255
1730926675576,6i,8.339581026073432,1.0s : 0.3s,-17.319236398014937,0.5589356237655618,2.6581008310381944,0.793325480739372,1.0262186527252197,-1.7794582843780518,-3.454516887664795,0.7103806734085083,0.3514883518218994,-0.03435921669006348,-0.7893963291569184,0.20517235525606667,-0.9205998517975807,0.143485888838768,0.7099282741546631,-0.689502477645874, 288, 223, 156, 255
1730926675586,6i,8.339581026073432,1.0s : 0.3s,-17.319236398014937,0.5715774415061177,2.684387419800911,0.7947911750510718,1.1503288745880127,-1.829781413078308,-3.4762110710144043,0.7151073217391968,0.34297144412994385,-0.051818132400512695,-0.7848173028514965,0.15088556451280485,-0.9717015851909733,0.10634955763816833,0.7066959142684937,-0.6994788646697998, 288, 223, 156, 255
1730926675596,6i,8.339581026073432,1.0s : 0.3s,-17.319236398014937,0.5845785241852917,2.7134635081012823,0.8268446451720941,1.1533347368240356,-1.8722904920578003,-3.5143136978149414,0.7292328476905823,0.38174116611480713,-0.078518807888031,-0.7776222477378468,0.09659569358583339,-1.0225733413724014,0.06872553378343582,0.7015870809555054,-0.7092618942260742, 288, 223, 156, 255
1730926675606,6i,8.339581026073432,1.0s : 0.3s,-17.319236398014937,0.5978433113891274,2.7387481102979283,0.8122088018188914,1.1045186519622803,-1.9415338039398193,-3.5218002796173096,0.7296455502510071,0.3490402102470398,-0.07396918535232544,-0.7687972853231517,0.042471118309800715,-1.0726854885267254,0.03051683120429516,0.6952713131904602,-0.7180992960929871, 288, 223, 156, 255
1730926675616,6i,8.339581026073432,1.0s : 0.3s,-17.319236398014937,0.6112634426257613,2.755061850674719,0.8005772727046276,1.1114073991775513,-1.9550701379776,-3.5034618377685547,0.7385835647583008,0.3007696866989136,-0.07039803266525269,-0.7583299377439042,-0.010841555233846835,-1.1215948388506878,-0.007870658300817013,0.6877099871635437,-0.7259429097175598, 288, 223, 156, 255
1730926675626,6i,8.339581026073432,1.0s : 0.3s,-17.319236398014937,0.6248544152452377,2.771497548637289,0.7982565805824063,1.2175426483154297,-1.9751534461975098,-3.487363338470459,0.7308586835861206,0.31603825092315674,-0.05638241767883301,-0.7454059817392148,-0.06274390330062472,-1.168786425645438,-0.0460747629404068,0.678270161151886,-0.7333666682243347, 288, 223, 156, 255
1730926675636,6i,8.339581026073432,1.0s : 0.3s,-17.319236398014937,0.6386822304728145,2.7893865414177785,0.8075866481448871,1.2896980047225952,-2.0278773307800293,-3.470717430114746,0.7230573892593384,0.35552018880844116,-0.05467724800109863,-0.729890652811405,-0.11324827393993563,-1.2141315452843726,-0.08421768993139267,0.6667881608009338,-0.7404735088348389, 288, 223, 156, 255
1730926675646,6i,8.339581026073432,1.0s : 0.3s,-17.319236398014937,0.6527451155490945,2.801805191749435,0.8179260867089667,1.3464256525039673,-2.067664384841919,-3.4258363246917725,0.732428789138794,0.36005526781082153,-0.05395698547363281,-0.7120307650665172,-0.16220897262317174,-1.2572100187852413,-0.12226032465696335,0.6533724665641785,-0.7470989227294922, 288, 223, 156, 255
1730926675656,6i,8.339581026073432,1.0s : 0.3s,-17.319236398014937,0.6669786551993452,2.8114755296907954,0.8064635981576395,1.3252094984054565,-2.1078073978424072,-3.4138436317443848,0.7314789295196533,0.3310258388519287,-0.07578921318054199,-0.6925903217782897,-0.2093368753538354,-1.29800566691549,-0.15993045270442963,0.638532817363739,-0.7527934908866882, 288, 223, 156, 255
1730926675666,6i,8.339581026073432,1.0s : 0.3s,-17.319236398014937,0.6808700828668152,2.813555157808814,0.7422161088138823,1.1631112098693848,-2.1865904331207275,-3.40979266166687,0.6844682097434998,0.2770419716835022,-0.07507175207138062,-0.6723740839992183,-0.25482340317069024,-1.3367573174454286,-0.19720928370952606,0.6228451132774353,-0.7570815086364746, 288, 223, 156, 255
1730926675676,6i,8.339581026073432,1.0s : 0.3s,-17.319236398014937,0.6942506911377108,2.8179186401238185,0.7214665337635238,1.0882058143615723,-2.265573740005493,-3.3980655670166016,0.6820768713951111,0.22717100381851196,-0.06065011024475098,-0.652390972610744,-0.2999343197498636,-1.3741915916751608,-0.2347807139158249,0.6070880889892578,-0.7591588497161865, 288, 223, 156, 255
1730926675686,6i,8.339581026073432,1.0s : 0.3s,-17.319236398014937,0.7072801988912004,2.8186455343549754,0.72801979206752,1.0567677021026611,-2.2654197216033936,-3.394465446472168,0.6898424625396729,0.20345193147659302,-0.11286056041717529,-0.631632290423885,-0.3442504602633665,-1.4103738839551365,-0.27237728238105774,0.5904629230499268,-0.7597132325172424, 288, 223, 156, 255
1730926675696,6i,8.339581026073432,1.0s : 0.3s,-17.319236398014937,0.7204580747804644,2.818292220161659,0.747672785590521,1.1455109119415283,-2.280602216720581,-3.3345954418182373,0.6934702396392822,0.26581496000289917,-0.08634829521179199,-0.6092762257823474,-0.3865536702436413,-1.444095847228664,-0.3091624081134796,0.5722740888595581,-0.7595531344413757, 288, 223, 156, 255
1730926675706,6i,8.339581026073432,1.0s : 0.3s,-17.319236398014937,0.7337755136712095,2.819180220234532,0.7477266194977599,1.2113802433013916,-2.3007824420928955,-3.3201193809509277,0.6935502290725708,0.26465511322021484,-0.08967077732086182,-0.5852676713375911,-0.42705154513391735,-1.47542826199342,-0.3452531099319458,0.5524225234985352,-0.7587026357650757, 288, 223, 156, 255
1730926675716,6i,8.339581026073432,1.0s : 0.3s,-17.319236398014937,0.747219785138686,2.8193985307617924,0.7373216246641837,1.1785584688186646,-2.355238676071167,-3.2852423191070557,0.6784515380859375,0.267744243144989,-0.10798013210296631,-0.5601674189257657,-0.4662218980667558,-1.5046684729038664,-0.3808135986328125,0.531328022480011,-0.7567506432533264, 288, 223, 156, 255
1730926675726,6i,8.339581026073432,1.0s : 0.3s,-17.319236398014937,0.7607471224995286,2.8096860043786234,0.7449981625296728,1.088181495666504,-2.372683048248291,-3.2383387088775635,0.6951917409896851,0.2325727939605713,-0.13281792402267456,-0.5348788259854099,-0.5042656525791446,-1.532335689836735,-0.41568121314048767,0.5097367763519287,-0.7532446384429932, 288, 223, 156, 255
1730926675736,6i,8.339581026073432,1.0s : 0.3s,-17.319236398014937,0.7739861813436621,2.790149390058669,0.7157776279873235,1.0306867361068726,-2.36318039894104,-3.1806914806365967,0.6847100257873535,0.17651376128196716,-0.11114263534545898,-0.5096295886898451,-0.5409061360068419,-1.5582948250108157,-0.4494805634021759,0.4878539443016052,-0.7483085989952087, 288, 223, 156, 255
1730926675746,6i,8.339581026073432,1.0s : 0.3s,-17.319236398014937,0.7868218139399507,2.764646927299205,0.7068948883918378,0.9945124387741089,-2.3641507625579834,-3.114614486694336,0.6920649409294128,0.12962880730628967,-0.06279230117797852,-0.48434844567180846,-0.5761275991420104,-1.582565209400588,-0.48211926221847534,0.4656318426132202,-0.7421240210533142, 288, 223, 156, 255
1730926675756,6i,8.339581026073432,1.0s : 0.3s,-17.319236398014937,0.7996042841726413,2.7393684810949264,0.7462842986106807,0.9554681181907654,-2.3897409439086914,-3.0592966079711914,0.7395729422569275,0.09982499480247498,0.0026623010635375977,-0.4591366174074118,-0.6101740383603319,-1.6052370154310365,-0.513666570186615,0.4431743025779724,-0.7346721887588501, 288, 223, 156, 255
1730926675766,6i,8.339581026073432,1.0s : 0.3s,-17.319236398014937,0.8122316507814148,2.7125438689566654,0.7858502477355847,0.9568431377410889,-2.3885276317596436,-2.998854637145996,0.7785687446594238,0.10643115639686584,-0.007983148097991943,-0.4335934350460239,-0.6431738403448041,-1.6261968449225446,-0.5442395210266113,0.42013442516326904,-0.7261477112770081, 288, 223, 156, 255
1730926675776,6i,8.339581026073432,1.0s : 0.3s,-17.319236398014937,0.8249642456050035,2.6737473106385523,0.8111197344474819,0.8881868124008179,-2.3623509407043457,-2.9100236892700195,0.8026837110519409,0.11593490839004517,-0.01315981149673462,-0.40813450960830583,-0.6748763721208789,-1.6456145706900478,-0.5734814405441284,0.3968977630138397,-0.7166528105735779, 288, 223, 156, 255
1730926675786,6i,8.339581026073432,1.0s : 0.3s,-17.319236398014937,0.8375799427789905,2.624006308390892,0.8016472398571641,0.8476824760437012,-2.3274638652801514,-2.8016154766082764,0.7986973524093628,0.06861430406570435,-0.0035935640335083008,-0.3833154893390487,-0.7052356732511331,-1.6635228842207803,-0.6011723279953003,0.37399739027023315,-0.7061995267868042, 288, 223, 156, 255
1730926675796,6i,8.339581026073432,1.0s : 0.3s,-17.319236398014937,0.8502022163709924,2.5708666674270435,0.7825946516787479,0.9119275212287903,-2.288834571838379,-2.6905517578125,0.7802435755729675,0.041226327419281006,0.044438064098358154,-0.3586234506659828,-0.734085469618704,-1.6794952174203717,-0.6272894144058228,0.350985586643219,-0.6952100992202759, 288, 223, 156, 255
1730926675806,6i,8.339581026073432,1.0s : 0.3s,-17.319236398014937,0.8627457261440094,2.514106477269722,0.7965017281356415,0.9530110955238342,-2.2277944087982178,-2.595994472503662,0.7901144027709961,0.020476698875427246,0.09856438636779785,-0.33381793855727515,-0.7613844257887025,-1.6933301803713317,-0.6518392562866211,0.32765260338783264,-0.6839219927787781, 288, 223, 156, 255
1730926675816,6i,8.339581026073432,1.0s : 0.3s,-17.319236398014937,0.8749071648021077,2.449825713603237,0.8287452594416984,0.928813636302948,-2.182755947113037,-2.4762871265411377,0.810734748840332,0.00046241283416748047,0.17183613777160645,-0.30933312131534674,-0.7872768865765686,-1.7054965255093182,-0.674809455871582,0.3044234812259674,-0.672278642654419, 288, 223, 156, 255
1730926675826,6i,8.339581026073432,1.0s : 0.3s,-17.319236398014937,0.8866150909465629,2.373633096611857,0.8386574344146402,0.896923303604126,-2.1079578399658203,-2.339099645614624,0.8102657794952393,-0.04390719532966614,0.21186745166778564,-0.2857087181584661,-0.811913974775194,-1.7162233952788064,-0.6961910724639893,0.281837522983551,-0.6602163910865784, 288, 223, 156, 255
1730926675836,6i,8.339581026073432,1.0s : 0.3s,-17.319236398014937,0.897854026096115,2.281415755109895,0.8446255025130995,0.8778049945831299,-1.9985798597335815,-2.174417734146118,0.8158667683601379,-0.0997975766658783,0.19440704584121704,-0.2631166172584732,-0.8349533519056301,-1.7254303531132023,-0.7157538533210754,0.2600911557674408,-0.648111879825592, 288, 223, 156, 255
1730926675846,6i,8.339581026073432,1.0s : 0.3s,-17.319236398014937,0.9083951427049031,2.176089582586906,0.8556170195920432,0.870615541934967,-1.8861340284347534,-1.9939651489257812,0.7977445125579834,-0.16492445766925812,0.26169466972351074,-0.24176627322622202,-0.8562855897675802,-1.7329556436704094,-0.7334439754486084,0.2394178956747055,-0.6361910700798035, 288, 223, 156, 255
1730926675856,6i,8.339581026073432,1.0s : 0.3s,-17.319236398014937,0.9182388875781807,2.0604425791036145,0.8947974456759248,0.8842208385467529,-1.7647607326507568,-1.8029898405075073,0.7979444861412048,-0.21446581184864044,0.3434406518936157,-0.22160036583925538,-0.8758639619575215,-1.7387586276569167,-0.7493147253990173,0.21979112923145294,-0.6246753931045532, 288, 223, 156, 255
1730926675866,6i,8.339581026073432,1.0s : 0.3s,-17.319236398014937,0.9275079947948472,1.935417426369774,0.9365642998017515,0.9179682731628418,-1.6229509115219116,-1.6023651361465454,0.8012741208076477,-0.24813269078731537,0.41658449172973633,-0.20273520587873683,-0.893624510303346,-1.74266506035207,-0.7633864879608154,0.20134927332401276,-0.6137585043907166, 288, 223, 156, 255
1730926675876,6i,8.339581026073432,1.0s : 0.3s,-17.319236398014937,0.936172031878443,1.7975717815872492,0.9949204032916011,0.9570019841194153,-1.4563928842544556,-1.3689242601394653,0.8152024745941162,-0.3251549005508423,0.4685998558998108,-0.18526753004059143,-0.9094091304842419,-1.7445903997091985,-0.7756363153457642,0.18420949578285217,-0.603701114654541, 288, 223, 156, 255
1730926675886,6i,8.339581026073432,1.0s : 0.3s,-17.319236398014937,0.9440758110223263,1.6557102513439934,1.0159043688863214,1.0733133554458618,-1.2787301540374756,-1.1237705945968628,0.7899607419967651,-0.40064918994903564,0.49749767780303955,-0.16918587493315523,-0.9230152657539695,-1.7441055693992962,-0.7860391736030579,0.16837990283966064,-0.5948029160499573, 288, 223, 156, 255
1730926675896,6i,8.339581026073432,1.0s : 0.3s,-17.319236398014937,0.951052165347504,1.5025091737383915,1.0522302672344561,1.0810810327529907,-1.0829819440841675,-0.8652493357658386,0.7639066576957703,-0.4914022386074066,0.5311864018440247,-0.15476964431416812,-0.9344141957116086,-1.7413725464904128,-0.79463791847229,0.1541524976491928,-0.5871861577033997, 288, 223, 156, 255
1730926675906,6i,8.339581026073432,1.0s : 0.3s,-17.319236398014937,0.9569846563628349,1.335576222084191,1.1439573065570543,1.0466207265853882,-0.8697165250778198,-0.5826669335365295,0.7560300827026367,-0.6029092669487,0.6111932992935181,-0.1426226793410465,-0.943521770082816,-1.737015211732069,-0.8014097213745117,0.14213964343070984,-0.5809809565544128, 288, 223, 156, 255
1730926675916,6i,8.339581026073432,1.0s : 0.3s,-17.319236398014937,0.9619415895169305,1.1629564860400805,1.2492670557108112,1.0278420448303223,-0.6412761211395264,-0.2943195104598999,0.7511868476867676,-0.6936770677566528,0.7177733778953552,-0.13304937321231472,-0.9502890207377124,-1.7311316966494201,-0.8063931465148926,0.13265717029571533,-0.5763091444969177, 288, 223, 156, 255
1730926675926,6i,8.339581026073432,1.0s : 0.3s,-17.319236398014937,0.9662611152343755,0.9880755401508244,1.3411841159511386,0.9901307821273804,-0.38617876172065735,0.012616083957254887,0.7633251547813416,-0.75328528881073,0.8054010272026062,-0.12602462937934286,-0.9544572783508452,-1.7236242639084491,-0.8095287680625916,0.12569130957126617,-0.5734674334526062, 288, 223, 156, 255
1730926675936,6i,8.339581026073432,1.0s : 0.3s,-17.319236398014937,0.9702195053854835,0.8330765472339973,1.4587070278676437,1.0113470554351807,-0.09854139387607574,0.34682175517082214,0.7776198387145996,-0.818374514579773,0.9237947463989258,-0.12172975025263946,-0.9557199012636883,-1.714351905509364,-0.8106855750083923,0.12142933905124664,-0.5727510452270508, 288, 223, 156, 255
1730926675946,6i,8.339581026073432,1.0s : 0.3s,-17.319236398014937,0.9740197812574485,0.7151898748360996,1.5839450847057388,0.9507291316986084,0.20586693286895752,0.6856571435928345,0.7913526296615601,-0.9003628492355347,1.0353693962097168,-0.12036457493508217,-0.9536497095988082,-1.70320046619173,-0.8096325993537903,0.12007415294647217,-0.5745235085487366, 288, 223, 156, 255
1730926675956,6i,8.339581026073432,1.0s : 0.3s,-17.319236398014937,0.9779393650026693,0.6710540722261182,1.7162033664041532,0.8405669331550598,0.5563916563987732,1.0708472728729248,0.8221964836120605,-0.9953646063804626,1.130750298500061,-0.12230199353296668,-0.9483278889914631,-1.6907635178083176,-0.806373119354248,0.12199732661247253,-0.578687310218811, 288, 223, 156, 255
1730926675966,6i,8.339581026073432,1.0s : 0.3s,-17.319236398014937,0.9823719107637576,0.7527567756902591,1.8804211549112093,0.7511131167411804,0.9392631649971008,1.4658547639846802,0.8786645531654358,-1.1039156913757324,1.243101954460144,-0.12788459662523222,-0.939119268662852,-1.6767366665162513,-0.8004480004310608,0.12753629684448242,-0.5856769680976868, 288, 223, 156, 255
1730926675976,6i,8.339581026073432,1.0s : 0.3s,-17.319236398014937,0.9877885126047643,0.9538831078998865,2.042496309837703,0.651401698589325,1.3670626878738403,1.882133960723877,0.9554084539413452,-1.2257555723190308,1.325333595275879,-0.13716547880747265,-0.9255074900266155,-1.6609895348738029,-0.7914222478866577,0.13673576712608337,-0.5957803726196289, 288, 223, 156, 255
1730926675986,6i,8.339581026073432,1.0s : 0.3s,-17.319236398014937,0.9949707455981331,1.2448836977079187,2.176525972441064,0.6672900319099426,1.8236764669418335,2.2928006649017334,1.0612764358520508,-1.3005179166793823,1.385500192642212,-0.14975567884821356,-0.9069886265327421,-1.642960004317722,-0.778836190700531,0.1491965502500534,-0.6092245578765869, 288, 223, 156, 255
1730926675996,6i,8.339581026073432,1.0s : 0.3s,-17.319236398014937,1.0049364379790617,1.6014222257277255,2.262069710739822,0.7789909839630127,2.318009853363037,2.754568099975586,1.1977686882019043,-1.3048710823059082,1.4069900512695312,-0.16490092563248232,-0.8828946705691413,-1.621280053193389,-0.7620996832847595,0.16415460407733917,-0.626304566860199, 288, 223, 156, 255
1730926676006,6i,8.339581026073432,1.0s : 0.3s,-17.319236398014937,1.0183842138367614,1.9971321385427758,2.365794268555399,0.8160989880561829,2.85064697265625,3.2299294471740723,1.3359489440917969,-1.3249168395996094,1.4341611862182617,-0.1824955171908525,-0.8526242400242254,-1.595384188355077,-0.7405051589012146,0.18148420751094818,-0.6470823287963867, 288, 223, 156, 255
1730926676016,6i,8.339581026073432,1.0s : 0.3s,-17.319236398014937,1.0357362065136502,2.426606235177745,2.5331878802818406,0.7695916891098022,3.409440755844116,3.760819911956787,1.4815523624420166,-1.4077122211456299,1.4967931509017944,-0.2030810398177552,-0.8156105514773602,-1.5655171974881625,-0.7131807804107666,0.2016880065202713,-0.6713383793830872, 288, 223, 156, 255
1730926676026,6i,8.339581026073432,1.0s : 0.3s,-17.319236398014937,1.0578558251701669,2.8872702623177697,2.7528989204004786,0.7983655333518982,3.978935956954956,4.308737754821777,1.701869010925293,-1.485515832901001,1.5733203887939453,-0.22635059890024062,-0.7713202606917707,-1.5308847576112823,-0.6793012022972107,0.22442270815372467,-0.6987018585205078, 288, 223, 156, 255
1730926676036,6i,8.339581026073432,1.0s : 0.3s,-17.319236398014937,1.0861144966785123,3.3871066367017995,3.000527943004961,0.8408113121986389,4.63485050201416,4.897400379180908,2.0152199268341064,-1.503783941268921,1.6372814178466797,-0.25151397670835146,-0.7187150956087237,-1.4903423570490006,-0.6377021670341492,0.2488705813884735,-0.7289714813232422, 288, 223, 156, 255
1730926676046,6i,8.339581026073432,1.0s : 0.3s,-17.319236398014937,1.1216334477494463,3.9270398395405577,3.2845684124349175,0.7618197202682495,5.35393762588501,5.537818908691406,2.351672410964966,-1.5244909524917603,1.7128788232803345,-0.2783141859839286,-0.656432399737274,-1.443248622068994,-0.5868104100227356,0.27473509311676025,-0.7616916298866272, 288, 223, 156, 255
1730926676056,6i,8.339581026073432,1.0s : 0.3s,-17.319236398014937,1.165324891930355,4.513720775483973,3.6147341397672186,0.4771762192249298,6.129777431488037,6.275094985961914,2.7168946266174316,-1.5730125904083252,1.7917639017105103,-0.307463561962123,-0.5834563806008073,-1.3892116146100633,-0.5250763893127441,0.3026421368122101,-0.7954260110855103, 288, 223, 156, 255
1730926676066,6i,8.339581026073432,1.0s : 0.3s,-17.319236398014937,1.2184798242584325,5.159929788087855,4.051736747493184,0.010611449368298054,7.041090965270996,7.05850076675415,3.1836280822753906,-1.6319607496261597,1.902048110961914,-0.33962398269818755,-0.49808863959824157,-1.3276187011521468,-0.4504583477973938,0.3331325650215149,-0.8283175230026245, 288, 223, 156, 255
1730926676076,6i,8.339581026073432,1.0s : 0.3s,-17.319236398014937,1.2828198101054673,5.887432556877755,4.625870599482612,-0.5357165932655334,8.058743476867676,7.970433235168457,3.764585494995117,-1.7115557193756104,2.0729572772979736,-0.37449953086419535,-0.39778998147874656,-1.2566557773714926,-0.3605327308177948,0.36580678820610046,-0.8580219149589539, 288, 223, 156, 255
1730926676086,6i,8.339581026073432,1.0s : 0.3s,-17.319236398014937,1.3604125686415476,6.72735697488439,5.296890771026666,-0.9022477269172668,9.20389461517334,9.105411529541016,4.468160629272461,-1.7272554636001587,2.260349750518799,-0.40975301159359423,-0.27919313813849467,-1.1722157512111215,-0.2527673840522766,0.3983827829360962,-0.8817027807235718, 288, 223, 156, 255
1730926676096,6i,8.339581026073432,1.0s : 0.3s,-17.319236398014937,1.4529381611341585,7.6264420147199825,6.000371612253082,-1.2598716020584106,10.377005577087402,10.071344375610352,5.2647929191589355,-1.710923194885254,2.3149852752685547,-0.44024788335089815,-0.13963172085263706,-1.0715575618146571,-0.12590721249580383,0.4261637330055237,-0.8958414196968079, 288, 223, 156, 255
1730926676106,6i,8.339581026073432,1.0s : 0.3s,-17.319236398014937,1.562114451937189,8.50293623666201,6.818661011508791,-1.8263187408447266,11.303279876708984,10.810379981994629,6.182346820831299,-1.6778124570846558,2.3361659049987793,-0.46184912799580774,0.01920581283978269,-0.9566056205178508,0.01719256490468979,0.44560426473617554,-0.8950649499893188, 288, 223, 156, 255
1730926676116,6i,8.339581026073432,1.0s : 0.3s,-17.319236398014937,1.6913160734098551,9.269509405997049,7.938588026216165,-2.675074338912964,11.725157737731934,11.331809997558594,7.385349273681641,-1.4033761024475098,2.551143169403076,-0.4723170294860074,0.19161911267570553,-0.8304721180397878,0.16959764063358307,0.45495086908340454,-0.8742175698280334, 288, 223, 156, 255
1730926676126,6i,8.339581026073432,1.0s : 0.3s,-17.319236398014937,1.8446545107244379,9.859209284194616,9.341227094178658,-4.143980503082275,11.573408126831055,11.537938117980957,8.865763664245605,-0.7816376686096191,2.8365120887756348,-0.47282683257539354,0.3694601537156033,-0.6964999246090333,0.321492463350296,0.45540478825569153,-0.8302102088928223, 288, 223, 156, 255
1730926676136,6i,8.339581026073432,1.0s : 0.3s,-17.319236398014937,2.0237466196892293,10.290825615118058,10.662099081093267,-6.304571151733398,11.134513854980469,11.380104064941406,10.246621131896973,0.19943767786026,2.9406354427337646,-0.46824307534830817,0.547369110906379,-0.5548490067108908,0.46442341804504395,0.45131915807724,-0.7619854807853699, 288, 223, 156, 255
1730926676146,6i,8.339581026073432,1.0s : 0.3s,-17.319236398014937,2.2257504063028852,10.712937107472477,11.563958637337524,-9.797738075256348,10.775346755981445,10.81141185760498,11.185452461242676,1.451412320137024,2.5503323078155518,-0.46609984595586373,0.7260920775325338,-0.4016197453430838,0.5931272506713867,0.44940561056137085,-0.668008029460907, 288, 223, 156, 255
1730926676156,6i,8.339581026073432,1.0s : 0.3s,-17.319236398014937,2.4456588165853503,11.138817221059968,12.146415884382135,-14.301616668701172,9.162179946899414,9.663966178894043,11.608463287353516,2.86413836479187,2.1390910148620605,-0.47348539156781533,0.9072146901801781,-0.22447678455985262,0.7011219263076782,0.4559909999370575,-0.5481791496276855, 288, 223, 156, 255
1730926676166,6i,8.339581026073432,1.0s : 0.3s,-17.319236398014937,2.6828213588047682,11.694845208852183,13.35156057004725,-17.807680130004883,5.640854358673096,10.09455394744873,12.200417518615723,4.948304176330566,2.219970226287842,-0.4800133737200038,1.0799453463281596,-0.012033176481013451,0.7822638750076294,0.4617910385131836,-0.41810575127601624, 288, 223, 156, 255
1730926676176,6i,8.339581026073432,1.0s : 0.3s,-17.319236398014937,2.941200754907273,12.32910485235477,15.790329957771077,-18.962112426757812,2.0128211975097656,11.45040225982666,13.219099044799805,8.28369426727295,2.443429946899414,-0.45537725100549964,1.2258833014840218,0.2277161334001912,0.8452017903327942,0.4398011565208435,-0.3036593198776245, 288, 223, 156, 255
1730926676186,6i,8.339581026073432,1.0s : 0.3s,-17.319236398014937,3.2125580374971108,12.713811287946168,17.33668733393706,-17.475894927978516,0.03136490285396576,12.204535484313965,12.20697021484375,12.095213890075684,2.2926855087280273,-0.394310280389561,1.3313102512636992,0.4578554260184494,0.8969117999076843,0.3841714859008789,-0.21900080144405365, 288, 223, 156, 255
1730926676196,6i,8.339581026073432,1.0s : 0.3s,-17.319236398014937,3.475387665211664,12.82882035768838,16.367336371725592,-15.926000595092773,-1.8561257123947144,12.525717735290527,8.530078887939453,13.838274002075195,1.9051579236984253,-0.30687028187563004,1.3913061241041589,0.6586672337481416,0.9379689693450928,0.3020766079425812,-0.1701878011226654, 288, 223, 156, 255
1730926676206,6i,8.339581026073432,1.0s : 0.3s,-17.319236398014937,3.722623808936441,12.777297551536325,15.40779512328792,-15.235567092895508,-2.482208013534546,11.696475982666016,5.868961334228516,14.049623489379883,2.3587121963500977,-0.2121725875393351,1.4146274318469567,0.8375115869574455,0.9656789302825928,0.21058426797389984,-0.15204709768295288, 288, 223, 156, 255
1730926676216,6i,8.339581026073432,1.0s : 0.3s,-17.319236398014937,3.946228214766128,12.92111637795916,13.493993526088799,-17.07965087890625,-4.338753700256348,10.24051570892334,3.1397547721862793,12.854742050170898,2.6429922580718994,-0.1290600238047225,1.412075749117516,1.0149262896472102,0.979218065738678,0.1287020444869995,-0.1567404866218567, 288, 223, 156, 255
1730926676226,6i,8.339581026073432,1.0s : 0.3s,-17.319236398014937,4.141132982381545,12.598427577360665,10.056398869679349,-13.34497356414795,-5.994467258453369,10.999191284179688,1.6255383491516113,9.710162162780762,2.049764394760132,-0.05570484201674597,1.3741078932926343,1.1988992637719185,0.9791979789733887,0.055676039308309555,-0.19511958956718445, 288, 223, 156, 255
1730926676236,6i,8.339581026073432,1.0s : 0.3s,-17.319236398014937,4.308020140722967,11.460448161689078,5.560302073259769,-5.810051441192627,-4.408934116363525,12.678326606750488,2.425018310546875,5.000927448272705,-0.16422544419765472,0.039954958627243076,1.331838937987559,1.3063144174132073,0.970809817314148,-0.039944328367710114,-0.23650085926055908, 288, 223, 156, 255
1730926676246,6i,8.339581026073432,1.0s : 0.3s,-17.319236398014937,4.458790207766538,11.759235723316648,5.89428325882106,-15.350668907165527,-7.752682685852051,8.76292610168457,5.601706504821777,0.14943699538707733,-1.8278752565383911,0.12588923910237787,1.2520586765906374,1.4257706292017231,0.9421167969703674,-0.12555699050426483,-0.3108881711959839, 288, 223, 156, 255
1730926676256,6i,8.339581026073432,1.0s : 0.3s,-17.319236398014937,4.633245329682784,12.968799282960177,11.542755121798367,-24.711896896362305,-5.958911895751953,3.617286205291748,10.258661270141602,-1.3069864511489868,5.127070426940918,0.09714269120154141,1.1563689583538435,1.6575563554550883,0.9110314846038818,-0.09698998183012009,-0.40076741576194763, 288, 223, 156, 255
1730926676266,6i,8.339581026073432,1.0s : 0.3s,-17.319236398014937,4.797598982596271,13.08309486692841,9.359717270266966,-18.89619255065918,-8.833300590515137,2.1486122608184814,4.343152046203613,0.3473113477230072,8.283761978149414,0.0316428425424327,1.0639521202831683,1.855948990702025,0.8738431334495544,-0.031637560576200485,-0.4851776361465454, 288, 223, 156, 255
1730926676276,6i,8.339581026073432,1.0s : 0.3s,-17.319236398014937,4.961041006834646,12.527275832195702,9.675975541925295,-13.804604530334473,-12.3878755569458,-0.11570896208286285,3.4349920749664307,6.286215305328369,6.504523754119873,-0.05440316093370544,0.9646583459072131,2.0136158545107237,0.8206384778022766,0.054376330226659775,-0.5688548684120178, 288, 223, 156, 255
1730926676286,6i,8.339581026073432,1.0s : 0.3s,-17.319236398014937,5.137853279431849,10.82474454991048,12.957342244997603,-1.7321358919143677,-15.361651420593262,2.323744058609009,3.819885015487671,10.57053279876709,6.447094917297363,-0.08755327204664415,0.824640831953726,2.0742131405401496,0.7314913868904114,0.08744145929813385,-0.6762206554412842, 288, 223, 156, 255
1730926676296,6i,8.339581026073432,1.0s : 0.3s,-17.319236398014937,5.296660740134686,10.703997127111558,7.419760504687511,-9.021683692932129,-13.068218231201172,1.8743255138397217,2.53840708732605,6.957511901855469,0.44984835386276245,-0.10878836960895585,0.693616817505147,2.1258269380703387,0.6355430483818054,0.10857391357421875,-0.7643930315971375, 288, 223, 156, 255
1730926676306,6i,8.339581026073432,1.0s : 0.3s,-17.319236398014937,5.432180202241686,10.446517789263384,7.678405699616741,-6.773695468902588,-13.640586853027344,1.4506268501281738,0.1823151707649231,2.512583017349243,7.253385543823242,-0.16739682946494394,0.5721669933895245,2.1866412193676674,0.5338866114616394,0.16661612689495087,-0.8289777636528015, 288, 223, 156, 255
1730926676316,6i,8.339581026073432,1.0s : 0.3s,-17.319236398014937,5.544652376914703,10.179233153530886,4.328113170405621,-7.696961402893066,-12.217248916625977,0.3599688708782196,0.3281600773334503,2.4148428440093994,3.5767874717712402,-0.22585107644106173,0.4518567308599452,2.2317320714728055,0.4255478084087372,0.22393590211868286,-0.8767906427383423, 288, 223, 156, 255
1730926676326,6i,8.339581026073432,1.0s : 0.3s,-17.319236398014937,5.63858843657374,9.478844808792429,4.941900299763365,-3.0099942684173584,-12.24904727935791,-0.6169384121894836,-0.5952152013778687,3.336336612701416,3.5967979431152344,-0.2763595925280925,0.33517427086847085,2.250593857173951,0.31645238399505615,0.2728551924228668,-0.9085196256637573, 288, 223, 156, 255
1730926676336,6i,8.339581026073432,1.0s : 0.3s,-17.319236398014937,5.711884323081223,9.006472904168353,4.795954609775818,-2.7708420753479004,-11.995265007019043,-0.8345330357551575,-1.7733581066131592,3.1548333168029785,3.146968126296997,-0.3038458058006912,0.21376160777606118,2.2515177411361873,0.20241999626159668,0.29919204115867615,-0.9324753284454346, 288, 223, 156, 255
1730926676346,6i,8.339581026073432,1.0s : 0.3s,-17.319236398014937,5.7716200949714365,8.595654613512007,3.5162806379989506,-1.9703443050384521,-11.608785629272461,-1.51118004322052,-0.9170863628387451,1.9860913753509521,2.752929925918579,-0.32903288252920493,0.09288003562775313,2.243036027562225,0.08777119219303131,0.32312795519828796,-0.9422762393951416, 288, 223, 156, 255
1730926676356,6i,8.339581026073432,1.0s : 0.3s,-17.319236398014937,5.822038976162363,8.325684320626928,3.4055026186356856,-2.026479959487915,-11.405858993530273,-2.1222097873687744,-0.6459383368492126,1.1687980890274048,3.1327500343322754,-0.35007307102922486,-0.028606126666379846,2.2248271439534304,-0.02686743438243866,0.3429664373397827,-0.9389633536338806, 288, 223, 156, 255
1730926676366,6i,8.339581026073432,1.0s : 0.3s,-17.319236398014937,5.865260372876174,8.098116440373934,2.2499984181875274,-1.697458267211914,-11.103586196899414,-2.5071215629577637,-0.08004467189311981,0.7398436665534973,2.1233739852905273,-0.36664338410200203,-0.15106692848649944,2.1985626663390314,-0.1404906064271927,0.3584839403629303,-0.9229038953781128, 288, 223, 156, 255
1730926676376,6i,8.339581026073432,1.0s : 0.3s,-17.319236398014937,5.903372488981984,7.775654019313617,1.6958057353762392,-1.2805876731872559,-10.090444564819336,-3.4880151748657227,0.22333577275276184,0.7210782766342163,1.5185270309448242,-0.3751701719653686,-0.27204033407233014,2.165775893380825,-0.25000813603401184,0.3664308786392212,-0.8962278366088867, 288, 223, 156, 255
1730926676386,6i,8.339581026073432,1.0s : 0.3s,-17.319236398014937,5.93640887326179,7.434726931313527,1.2627081065446006,-0.5815751552581787,-9.382852554321289,-3.951223611831665,0.2925618588924408,0.4789644479751587,1.131119966506958,-0.3740908343878106,-0.3894239194657006,2.1298192402606686,-0.3533986508846283,0.3654263913631439,-0.8611462712287903, 288, 223, 156, 255
1730926676396,6i,8.339581026073432,1.0s : 0.3s,-17.319236398014937,5.966615154619133,7.185177127793983,1.1366351948406883,0.1907828152179718,-9.334714889526367,-3.7808525562286377,0.623119592666626,0.40471068024635315,0.8601574301719666,-0.36103117702122217,-0.4999751453385291,2.0942896322018156,-0.44849804043769836,0.35323911905288696,-0.821018636226654, 288, 223, 156, 255
1730926676406,6i,8.339581026073432,1.0s : 0.3s,-17.319236398014937,5.995571078858266,6.951291083145159,1.157106538544474,0.8568592071533203,-8.971426963806152,-3.7440764904022217,0.9779336452484131,0.38387417793273926,0.4849556088447571,-0.33703977848467526,-0.6027138912331873,2.0634122670448254,-0.5349863171577454,0.33069488406181335,-0.7774513363838196, 288, 223, 156, 255
1730926676416,6i,8.339581026073432,1.0s : 0.3s,-17.319236398014937,6.024293278261911,6.671839620812999,1.2936613628563285,1.3808037042617798,-8.245107650756836,-3.78755259513855,1.1774849891662598,0.3127495348453522,0.43505924940109253,-0.3051860616515136,-0.6965770923732596,2.0390210225601426,-0.6119484901428223,0.30047065019607544,-0.7315985560417175, 288, 223, 156, 255
1730926676426,6i,8.339581026073432,1.0s : 0.3s,-17.319236398014937,6.053507467286455,6.386165051750712,1.3990751163495567,1.7578274011611938,-7.674328804016113,-3.7007665634155273,1.2541289329528809,0.3184571862220764,0.5321248173713684,-0.26851326858570723,-0.7810479183832627,2.0209819672700484,-0.6787962913513184,0.2652982771396637,-0.6847279667854309, 288, 223, 156, 255
1730926676436,6i,8.339581026073432,1.0s : 0.3s,-17.319236398014937,6.083131171220309,6.129958685384578,1.4166813396363271,2.2492756843566895,-7.333298206329346,-3.4383394718170166,1.308836579322815,0.42179542779922485,0.34061920642852783,-0.22865993502785173,-0.8586011660561472,2.0110167144954416,-0.7372270822525024,0.22667254507541656,-0.6364870667457581, 288, 223, 156, 255
1730926676446,6i,8.339581026073432,1.0s : 0.3s,-17.319236398014937,6.113141546111855,5.889113429920481,1.4890552399887698,2.5323684215545654,-6.9124650955200195,-3.3179852962493896,1.4043008089065552,0.47714611887931824,0.1325002908706665,-0.1874786193373073,-0.9303598310071403,2.0086928407919,-0.78778475522995,0.18638229370117188,-0.5870749354362488, 288, 223, 156, 255
1730926676456,6i,8.339581026073432,1.0s : 0.3s,-17.319236398014937,6.14410864053579,5.715855658743976,1.5595287195209515,2.864252805709839,-6.809007167816162,-3.146361827850342,1.463883638381958,0.4422728419303894,0.30589091777801514,-0.14507321080740862,-0.9972013918911272,2.0121169940050585,-0.831132173538208,0.14456486701965332,-0.5369547605514526, 288, 223, 156, 255
1730926676466,6i,8.339581026073432,1.0s : 0.3s,-17.319236398014937,6.176813046088625,5.60908386050134,1.7211581582897533,3.16414475440979,-6.945704460144043,-2.665606737136841,1.6133300065994263,0.42859748005867004,0.4193517565727234,-0.10062495430800554,-1.059332123339688,2.020734248619209,-0.8676177263259888,0.10045523196458817,-0.4869787395000458, 288, 223, 156, 255
