timestamp,club,max_speed,tempo,w.rotation,l.speed,t.spped,acc,rotation.x,rotation.y,rotation.z,userAcceleration.x,userAcceleration.y,userAcceleration.z,pitch,roll,yaw,gravity.x,gravity.y,gravity.z,impactIndex,minDownIndex,StartIndex,endIndex
1730928568951,9i,8.215718239331043,0.9s : 0.3s,-17.089828964006117,0.00014801617757220867,0.05051926193428418,0.046533326077252385,-0.12116455286741257,-0.09736184030771255,0.019535493105649948,-0.0120772123336792,0.03774853050708771,-0.024383187294006348,-0.23566704461263646,1.5764451119484026,2.9072408953871,0.9723430871963501,0.23349164426326752,0.0054926155135035515, 265, 202, 144, 234
1730928568961,9i,8.215718239331043,0.9s : 0.3s,-17.089828964006117,0.0005413546571052649,0.06840821791209857,0.04005142874966773,-0.13213637471199036,-0.10509428381919861,0.008147849701344967,-0.005795836448669434,0.03266644477844238,-0.022437214851379395,-0.23579354150389875,1.575605220041341,2.9084889004445174,0.9723178744316101,0.23361463844776154,0.0046758088283240795, 265, 202, 144, 234
1730928568971,9i,8.215718239331043,0.9s : 0.3s,-17.089828964006117,0.0009370247860758024,0.09138960997018886,0.018944051991876047,-0.18403871357440948,-0.11488886177539825,0.012750058434903622,-0.00044846534729003906,0.01778775453567505,-0.006501674652099609,-0.23596759522013266,1.5748151299418918,2.91007647576396,0.9722806215286255,0.23378387093544006,0.003907425329089165, 265, 202, 144, 234
1730928568981,9i,8.215718239331043,0.9s : 0.3s,-17.089828964006117,0.0012766084134716855,0.12474313067410882,0.008928234224636539,-0.27713432908058167,-0.12681999802589417,0.002208268502727151,-0.003197014331817627,-0.0076545774936676025,0.003301501041278243,-0.23609922594425906,1.5741959906385719,2.9124232757420203,0.9722520709037781,0.23391185700893402,0.0033053429797291756, 265, 202, 144, 234
1730928568991,9i,8.215718239331043,0.9s : 0.3s,-17.089828964006117,0.0015363623910113603,0.1749746518350758,0.026553587026544118,-0.4163239002227783,-0.13988439738750458,0.007189178839325905,-0.010398149490356445,-0.023960426449775696,0.004782199859619141,-0.23610899045140885,1.5737873141652523,2.916008064149721,0.9722511172294617,0.2339213490486145,0.002907999325543642, 265, 202, 144, 234
1730928569001,9i,8.215718239331043,0.9s : 0.3s,-17.089828964006117,0.001662920798700523,0.23197836710197914,0.036643869141223764,-0.5253933668136597,-0.15050171315670013,0.0087515227496624,-0.010151565074920654,-0.03506602346897125,0.003176927799358964,-0.23612183455792704,1.5735708570908746,2.920864660555696,0.9722487926483154,0.23393383622169495,0.002697540679946542, 265, 202, 144, 234
1730928569011,9i,8.215718239331043,0.9s : 0.3s,-17.089828964006117,0.001513661567101086,0.29986167881417775,0.054760857339714614,-0.6653856635093689,-0.16269473731517792,0.013670114800333977,-0.00954526662826538,-0.05374382436275482,-0.004386425018310547,-0.23610718381792628,1.5733773439150271,2.926972878231838,0.9722527265548706,0.23391959071159363,0.0025094065349549055, 265, 202, 144, 234
1730928569021,9i,8.215718239331043,0.9s : 0.3s,-17.089828964006117,0.001344336063660294,0.37519896595390995,0.060578300358473225,-0.8029853105545044,-0.17783871293067932,0.014792770147323608,-0.008494436740875244,-0.0589938759803772,-0.010830402374267578,-0.2359670159526149,1.5734291830896923,2.934497723813254,0.9722853899002075,0.2337833195924759,0.0025598937645554543, 265, 202, 144, 234
1730928569031,9i,8.215718239331043,0.9s : 0.3s,-17.089828964006117,0.0015482317469875863,0.4570768747519333,0.06871052165947497,-0.9500248432159424,-0.18185928463935852,0.012129874899983406,-0.009952545166015625,-0.06738831102848053,-0.008994340896606445,-0.23579651940770321,1.5737378983514505,2.9435485661382272,0.9723242521286011,0.23361754417419434,0.0028601696249097586, 265, 202, 144, 234
1730928569041,9i,8.215718239331043,0.9s : 0.3s,-17.089828964006117,0.002391818111837995,0.5454439806716729,0.08896177698034761,-1.0996224880218506,-0.2150246798992157,0.013945018872618675,-0.008462667465209961,-0.08740442991256714,-0.014249444007873535,-0.23563608006331813,1.5742304657094053,2.954078991538055,0.9723603129386902,0.23346152901649475,0.003339233575388789, 265, 202, 144, 234
1730928569051,9i,8.215718239331043,0.9s : 0.3s,-17.089828964006117,0.003643038955514847,0.6282732324267423,0.09569853379471897,-1.2008486986160278,-0.23878967761993408,0.007308688014745712,0.013643920421600342,-0.09451934695243835,-0.0061762332916259766,-0.23548361581028981,1.574684051514214,2.9659701508567267,0.9723941683769226,0.23331327736377716,0.0037804199382662773, 265, 202, 144, 234
1730928569061,9i,8.215718239331043,0.9s : 0.3s,-17.089828964006117,0.005005484160560702,0.6905793085254482,0.07419284490354053,-1.2257094383239746,-0.22406905889511108,0.0026583427097648382,0.01585179567337036,-0.07036350667476654,0.01738607883453369,-0.23538825741713942,1.5752773761147525,2.97845424901526,0.9724140763282776,0.23322054743766785,0.004357464611530304, 265, 202, 144, 234
1730928569071,9i,8.215718239331043,0.9s : 0.3s,-17.089828964006117,0.006271510030214382,0.7271687796456463,0.040259505529020835,-1.1917974948883057,-0.21498821675777435,-0.013759246096014977,-0.002517998218536377,-0.030561670660972595,0.026085853576660156,-0.23538110894575592,1.5759968227559549,2.9909490549843585,0.9724122881889343,0.2332136034965515,0.005057071801275015, 265, 202, 144, 234
1730928569081,9i,8.215718239331043,0.9s : 0.3s,-17.089828964006117,0.0072661487235174075,0.7374214237599303,0.03232420913632853,-1.1178869009017944,-0.19420787692070007,-0.018180059269070625,-0.004043996334075928,0.010098934173583984,0.030438661575317383,-0.2354951541641051,1.5766989573367822,3.0028306168256633,0.9723818302154541,0.23332449793815613,0.005739677231758833, 265, 202, 144, 234
1730928569091,9i,8.215718239331043,0.9s : 0.3s,-17.089828964006117,0.008068584128975417,0.7212589736590314,0.06226902352266801,-1.007178783416748,-0.15404953062534332,-0.01916835829615593,-0.005325257778167725,0.04339286684989929,0.044341087341308594,-0.2356057632780906,1.5775448595096724,3.0138126539113124,0.9723508954048157,0.23343205451965332,0.006562041584402323, 265, 202, 144, 234
1730928569101,9i,8.215718239331043,0.9s : 0.3s,-17.089828964006117,0.008127885534805064,0.6722217671033397,0.08420212196677158,-0.8176235556602478,-0.1479329615831375,-0.030413156375288963,-0.011750340461730957,0.07504110038280487,0.03634226322174072,-0.23577683546615813,1.5782233197698956,3.0232100199512364,0.9723062515258789,0.23359839618206024,0.007221444509923458, 265, 202, 144, 234
1730928569111,9i,8.215718239331043,0.9s : 0.3s,-17.089828964006117,0.0074966940588708396,0.5999587058145798,0.10537080551118005,-0.631942093372345,-0.11697797477245331,-0.010975277051329613,-0.004991471767425537,0.10350686311721802,0.019089818000793457,-0.23595683416335422,1.5786262013561623,3.030669106499889,0.9722612500190735,0.23377341032028198,0.007612839341163635, 265, 202, 144, 234
1730928569121,9i,8.215718239331043,0.9s : 0.3s,-17.089828964006117,0.006427850588401845,0.5225562036075494,0.10482805042498418,-0.501350462436676,-0.09222673624753952,0.017424339428544044,-0.011221647262573242,0.10004495084285736,0.029223322868347168,-0.23586078979191966,1.5789539000052908,3.036435366725199,0.9722811579704285,0.23368002474308014,0.007931631058454514, 265, 202, 144, 234
1730928569131,9i,8.215718239331043,0.9s : 0.3s,-17.089828964006117,0.005428278867719551,0.4616714030615609,0.06029652415747346,-0.46842771768569946,-0.08604686707258224,0.020736780017614365,-0.013453066349029541,0.04926367104053497,0.0320589542388916,-0.23564109776013462,1.579191435133148,3.041356027529544,0.9723304510116577,0.23346641659736633,0.008163011632859707, 265, 202, 144, 234
1730928569141,9i,8.215718239331043,0.9s : 0.3s,-17.089828964006117,0.004640159560977846,0.41643309395528455,0.04214792693772023,-0.456584095954895,-0.07731302827596664,0.02192315086722374,-0.0049967169761657715,0.0028238147497177124,0.0417553186416626,-0.23538187014649878,1.579481847883006,3.0461379690504176,0.9723885655403137,0.2332143485546112,0.008445913903415203, 265, 202, 144, 234
1730928569151,9i,8.215718239331043,0.9s : 0.3s,-17.089828964006117,0.004144294316804938,0.38135592147170766,0.04276198349431687,-0.44365018606185913,-0.04891121760010719,0.03731995075941086,-0.006121277809143066,-0.013324767351150513,0.04016923904418945,-0.23505731233787147,1.5799353255126622,3.0507555350952287,0.9724602103233337,0.23289872705936432,0.008887560106813908, 265, 202, 144, 234
1730928569161,9i,8.215718239331043,0.9s : 0.3s,-17.089828964006117,0.003987546804570099,0.35753641980462264,0.047590264561261926,-0.44916239380836487,-0.03244098648428917,0.03421470522880554,-0.012594282627105713,-0.018853798508644104,0.041841983795166016,-0.23462349322422005,1.5805992339032886,3.0553494120135967,0.9725549817085266,0.23247681558132172,0.009534171782433987, 265, 202, 144, 234
1730928569171,9i,8.215718239331043,0.9s : 0.3s,-17.089828964006117,0.004129933756223225,0.33941218562137104,0.040963270514062164,-0.44289490580558777,-0.021449852734804153,0.024791641160845757,-0.008802056312561035,-0.012324735522270203,0.038060665130615234,-0.23429580725687282,1.581395533988274,3.059963455705223,0.9726232886314392,0.2321580946445465,0.010309421457350254, 265, 202, 144, 234
1730928569181,9i,8.215718239331043,0.9s : 0.3s,-17.089828964006117,0.004465986867467827,0.3158812720865524,0.02876023221632867,-0.38939735293388367,-0.010497070848941803,0.019333692267537117,0.0001137852668762207,0.00526776909828186,0.028273461386561394,-0.23401430234201437,1.5822327849993254,3.0642857528641243,0.9726795554161072,0.23188427090644836,0.01112449448555708, 265, 202, 144, 234
1730928569191,9i,8.215718239331043,0.9s : 0.3s,-17.089828964006117,0.004908348186692496,0.2758266367011254,0.04332541698432676,-0.27319619059562683,0.006332242861390114,0.004895364865660667,-0.009252488613128662,0.040334030985832214,0.012831568717956543,-0.23385587299655825,1.583001013518642,3.067721602679124,0.9727076292037964,0.2317301481962204,0.011872180737555027, 265, 202, 144, 234
1730928569201,9i,8.215718239331043,0.9s : 0.3s,-17.089828964006117,0.0052874660281464715,0.21631863716071034,0.08382425691767456,-0.11692346632480621,0.025098828598856926,0.0032005291432142258,-0.018276691436767578,0.08085942268371582,-0.012418629601597786,-0.2337951356662613,1.5836408104346356,3.069741918777822,0.9727137088775635,0.2316710650920868,0.012494692578911781, 265, 202, 144, 234
1730928569211,9i,8.215718239331043,0.9s : 0.3s,-17.089828964006117,0.005708057353800147,0.1451562415971118,0.10458468532255444,0.0308058001101017,0.03290162608027458,0.00475874450057745,-0.014345049858093262,0.09910498559474945,-0.03017246723175049,-0.23375214837531616,1.5840253017225716,3.0701660313421826,0.9727190136909485,0.23162925243377686,0.012868826277554035, 265, 202, 144, 234
1730928569221,9i,8.215718239331043,0.9s : 0.3s,-17.089828964006117,0.006273785100780336,0.07675728061901384,0.10645545574726356,0.12392295897006989,0.02113693207502365,-0.008364514447748661,-0.006850540637969971,0.09464497864246368,-0.04825103282928467,-0.2337567379164068,1.5841319129913196,3.069318939539687,0.9727165102958679,0.231633722782135,0.012972514145076275, 265, 202, 144, 234
1730928569231,9i,8.215718239331043,0.9s : 0.3s,-17.089828964006117,0.007033659369691033,0.011912806949689641,0.11626852175351915,0.2125907689332962,0.0038255867548286915,-0.025802094489336014,0.0014719963073730469,0.09210580587387085,-0.07094168663024902,-0.23399836819384698,1.5838354836409876,3.067657491469905,0.9726642370223999,0.23186877369880676,0.012683439999818802, 265, 202, 144, 234
1730928569241,9i,8.215718239331043,0.9s : 0.3s,-17.089828964006117,0.008115393401637977,0.04834013523864671,0.09486012097333082,0.26675376296043396,0.05163602903485298,0.037550415843725204,-0.00949394702911377,0.06776058673858643,-0.06570243835449219,-0.23397464323344147,1.58346898105396,3.065029262491047,0.9726743102073669,0.2318456918001175,0.012327024713158607, 265, 202, 144, 234
1730928569251,9i,8.215718239331043,0.9s : 0.3s,-17.089828964006117,0.009055179197057828,0.04858814805858453,0.03764520011365558,0.06277558207511902,0.05263471603393555,0.004967969376593828,-0.03533667325973511,-0.011983558535575867,-0.004987478256225586,-0.23372551102480887,1.583656205714383,3.063253636417356,0.9727298021316528,0.23160333931446075,0.012509876862168312, 265, 202, 144, 234
1730928569261,9i,8.215718239331043,0.9s : 0.3s,-17.089828964006117,0.009865006986236349,0.01654452827061937,0.07109684114273573,-0.10872626304626465,-0.010101858526468277,-0.009651154279708862,-0.0014690756797790527,-0.06060674786567688,0.037140607833862305,-0.23381283022192983,1.5839245869579157,3.0635596657328565,0.972706139087677,0.23168827593326569,0.012770673260092735, 265, 202, 144, 234
1730928569271,9i,8.215718239331043,0.9s : 0.3s,-17.089828964006117,0.010210604498062464,0.032615103885924424,0.07600807471206265,-0.18240927159786224,0.01587674580514431,-0.08118446171283722,0.048765599727630615,-0.05662928521633148,0.013866065070033073,-0.2340062397490011,1.5842125934450941,3.0651401569589294,0.9726575016975403,0.2318764179944992,0.013050215318799019, 265, 202, 144, 234
1730928569281,9i,8.215718239331043,0.9s : 0.3s,-17.089828964006117,0.010476898816895862,0.1325789978313245,0.026516682568014392,-0.08995244652032852,0.13044464588165283,-0.5584692358970642,0.018189549446105957,-0.019293084740638733,0.0002272147685289383,-0.23400840185103175,1.5843669242749634,3.0667505539546185,0.972655177116394,0.23187853395938873,0.013200322166085243, 265, 202, 144, 234
1730928569291,9i,8.215718239331043,0.9s : 0.3s,-17.089828964006117,0.010903336036123933,0.20753464827816923,0.07018460261397154,-0.018718477338552475,-0.03481914475560188,-0.589794933795929,-0.06603914499282837,0.009222835302352905,-0.02190089225769043,-0.2338387184403803,1.5850124367505287,3.067925360061388,0.9726858139038086,0.2317134588956833,0.013828740455210209, 265, 202, 144, 234
1730928569301,9i,8.215718239331043,0.9s : 0.3s,-17.089828964006117,0.011318178086382934,0.16124952287766153,0.04601544644761575,-0.043750859797000885,-0.11801788955926895,-0.07293874770402908,0.030803143978118896,0.02532114088535309,-0.02296578884124756,-0.23413643352624458,1.5851513706520084,3.068457949668366,0.9726147651672363,0.23200306296348572,0.013962886296212673, 265, 202, 144, 234
1730928569311,9i,8.215718239331043,0.9s : 0.3s,-17.089828964006117,0.011679171838136992,0.1103617874771403,0.036582441912587076,-0.03318210691213608,-0.02203676849603653,0.02246979810297489,0.03310006856918335,0.00571538507938385,-0.01449120044708252,-0.23436993234415152,1.5851304066276777,3.0688068283672107,0.9725608229637146,0.23223018646240234,0.013941719196736813, 265, 202, 144, 234
1730928569321,9i,8.215718239331043,0.9s : 0.3s,-17.089828964006117,0.012008400672773362,0.08064376041356199,0.019999523476724436,-0.006657153367996216,-0.005453399382531643,-0.015096853487193584,-0.006212413311004639,-0.005843177437782288,-0.018089890480041504,-0.23442485074749822,1.5848927573963765,3.0690175555016843,0.9725514650344849,0.2322836071252823,0.013710412196815014, 265, 202, 144, 234
1730928569331,9i,8.215718239331043,0.9s : 0.3s,-17.089828964006117,0.012336005663148396,0.05607311361591809,0.023469166724377186,0.01798907108604908,0.004482322372496128,-0.002779466100037098,0.0027824044227600098,0.012021392583847046,-0.019963620230555534,-0.23452259754693083,1.5848899313061724,3.068971349039418,0.9725289344787598,0.23237867653369904,0.013707345351576805, 265, 202, 144, 234
1730928569341,9i,8.215718239331043,0.9s : 0.3s,-17.089828964006117,0.012706926544057546,0.0385834775315464,0.035086211180426416,0.03123456984758377,-0.0018099281005561352,1.4067627489566803e-06,-0.009778141975402832,0.02775433659553528,-0.019108295440673828,-0.2344429037736597,1.5849358630386192,3.0686872947349704,0.9725465774536133,0.23230116069316864,0.013752274215221405, 265, 202, 144, 234
1730928569351,9i,8.215718239331043,0.9s : 0.3s,-17.089828964006117,0.013058043810956436,0.028734776597096823,0.020985400494688264,-0.02118016965687275,-0.0071799261495471,0.012147817760705948,0.0038576126098632812,0.004725396633148193,-0.02007925510406494,-0.2342895519318467,1.5848981962287434,3.0686060049773607,0.9725826978683472,0.23215200006961823,0.013716143555939198, 265, 202, 144, 234
1730928569361,9i,8.215718239331043,0.9s : 0.3s,-17.089828964006117,0.01330734831741918,0.026551196568743055,0.03455090375187437,-0.09296154975891113,-0.0017260827589780092,0.02295628935098648,0.007911741733551025,-0.033631935715675354,0.00024938490241765976,-0.23406662811819953,1.5849875077992532,3.0692215316435005,0.9726331830024719,0.23193517327308655,0.013803740032017231, 265, 202, 144, 234
1730928569371,9i,8.215718239331043,0.9s : 0.3s,-17.089828964006117,0.0134188913761554,0.03800799765923645,0.04098175332470333,-0.11241301149129868,-0.00034949486143887043,0.034417737275362015,0.002437770366668701,-0.04035507142543793,0.006710409186780453,-0.2338094525914329,1.5851681396690718,3.070297189234186,0.9726902842521667,0.23168499767780304,0.01398028526455164, 265, 202, 144, 234
1730928569381,9i,8.215718239331043,0.9s : 0.3s,-17.089828964006117,0.013499419490559062,0.039547715695634665,0.015948681817971162,-0.07278729975223541,0.003126285271719098,0.038345567882061005,-0.004197180271148682,-0.015256628394126892,-0.0019948482513427734,-0.23348245897745806,1.585316165495694,3.0712589564500448,0.9727640151977539,0.23136688768863678,0.014125368557870388, 265, 202, 144, 234
1730928569391,9i,8.215718239331043,0.9s : 0.3s,-17.089828964006117,0.013604994568194447,0.034872640097984284,0.01764318768927404,0.014809389598667622,0.0052869077771902084,0.05426567792892456,-0.003557264804840088,0.010284677147865295,-0.013887165114283562,-0.23301390755597337,1.5853517824491625,3.071553544039586,0.9728718400001526,0.2309110313653946,0.014161593280732632, 265, 202, 144, 234
1730928569401,9i,8.215718239331043,0.9s : 0.3s,-17.089828964006117,0.013757540685052376,0.0147256159212726,0.034673442934314486,0.09276757389307022,0.004392174072563648,0.05196377635002136,0.004081249237060547,0.01938699185848236,-0.02845585346221924,-0.23247240480757586,1.5851111783385867,3.070915322529909,0.9729999303817749,0.23038412630558014,0.01392930094152689, 265, 202, 144, 234
1730928569411,9i,8.215718239331043,0.9s : 0.3s,-17.089828964006117,0.013952560919952861,0.02838219019398835,0.03553575681840679,0.11728090047836304,0.010625569149851799,0.05318962782621384,0.000634312629699707,0.018148526549339294,-0.030545353889465332,-0.23203589937065688,1.5847637358409448,3.069732005332702,0.9731051921844482,0.22995933890342712,0.013592641800642014, 265, 202, 144, 234
1730928569421,9i,8.215718239331043,0.9s : 0.3s,-17.089828964006117,0.01412800267956324,0.029059574334918584,0.012906161301264997,0.06484352797269821,0.04275474324822426,-0.048115286976099014,-0.0040010809898376465,-0.007998168468475342,-0.009305356070399284,-0.23199754710697698,1.5845286665203195,3.0687020431695204,0.9731173515319824,0.22992201149463654,0.013364017941057682, 265, 202, 144, 234
1730928569431,9i,8.215718239331043,0.9s : 0.3s,-17.089828964006117,0.014014828389327143,0.172387892127885,0.048903437745803593,0.048682402819395065,0.28887102007865906,-0.7954496741294861,0.015238642692565918,-0.044766172766685486,0.012462735176086426,-0.23174086096998406,1.5842519189986497,3.0682586922103785,0.9731798768043518,0.22967219352722168,0.013095501810312271, 265, 202, 144, 234
1730928569441,9i,8.215718239331043,0.9s : 0.3s,-17.089828964006117,0.013862952780975686,0.3406433123951678,0.06858793281591322,0.077691949903965,0.4651234745979309,-0.9880422949790955,-0.052722811698913574,-0.04372434318065643,0.0035765161737799644,-0.23005924501713498,1.5845971357465347,3.068301929310842,0.973560094833374,0.22803521156311035,0.01343677006661892, 265, 202, 144, 234
1730928569451,9i,8.215718239331043,0.9s : 0.3s,-17.089828964006117,0.013769741144634948,0.28106628052244653,0.018420898112012345,0.08787454664707184,0.11813435703516006,-0.16773223876953125,-0.00479888916015625,0.005861297249794006,-0.01679122820496559,-0.2297200860538967,1.5843738906454263,3.0677603767594444,0.9736402034759521,0.2277049720287323,0.013220474123954773, 265, 202, 144, 234
1730928569461,9i,8.215718239331043,0.9s : 0.3s,-17.089828964006117,0.013770059014939426,0.1870654230402129,0.04409612774384597,0.14073136448860168,-0.021137066185474396,0.08203532546758652,0.01009148359298706,0.027355611324310303,-0.033080220222473145,-0.22970982702085638,1.5843818928279447,3.0666408083058228,0.9736424088478088,0.22769498825073242,0.013228297233581543, 265, 202, 144, 234
1730928569471,9i,8.215718239331043,0.9s : 0.3s,-17.089828964006117,0.013877022214232752,0.13917394930386154,0.04097835100335417,0.18230144679546356,0.005069505423307419,0.052456922829151154,-0.006561160087585449,0.026756078004837036,-0.03033626079559326,-0.22904067923350752,1.5839438053754897,3.06496551406546,0.9738004207611084,0.22704336047172546,0.01280375849455595, 265, 202, 144, 234
1730928569481,9i,8.215718239331043,0.9s : 0.3s,-17.089828964006117,0.014013044695284579,0.1161043540132333,0.016302970192810098,0.16052837669849396,0.015589745715260506,0.0590926893055439,-0.004092395305633545,0.010661482810974121,-0.011634944006800652,-0.22850447916411631,1.5836505197359154,3.0631941571692014,0.973925769329071,0.22652113437652588,0.012519720010459423, 265, 202, 144, 234
1730928569491,9i,8.215718239331043,0.9s : 0.3s,-17.089828964006117,0.014158861544828365,0.10956652918671123,0.020475296990973953,0.1518736332654953,-0.014690394513309002,0.0669705867767334,-0.0144461989402771,0.004948839545249939,0.013640165328979492,-0.2280091926565228,1.583407342772239,3.0616023431344224,0.9740408062934875,0.22603869438171387,0.01228429563343525, 265, 202, 144, 234
1730928569501,9i,8.215718239331043,0.9s : 0.3s,-17.089828964006117,0.014330265192818877,0.10202344782809943,0.021133987758654823,0.1920992136001587,-0.07970920950174332,0.09054352343082428,-0.004345297813415527,0.020220503211021423,0.004346846602857113,-0.22762007799841205,1.5830623478650192,3.0598627781747747,0.974132776260376,0.22565962374210358,0.011949332430958748, 265, 202, 144, 234
1730928569511,9i,8.215718239331043,0.9s : 0.3s,-17.089828964006117,0.014677646195985468,0.12538357925316723,0.04807563451983643,0.26942703127861023,-0.1263723224401474,0.11168103665113449,-0.000441133975982666,0.04659537971019745,-0.011829734779894352,-0.22701699811743137,1.5827653656886271,3.0575772039069657,0.9742721915245056,0.22507207095623016,0.011661658063530922, 265, 202, 144, 234
1730928569521,9i,8.215718239331043,0.9s : 0.3s,-17.089828964006117,0.015385843306659023,0.16942961844252416,0.07758746064489166,0.3658859133720398,-0.16510792076587677,0.12091800570487976,-0.012889862060546875,0.07250960171222687,-0.024413585662841797,-0.22671456562703174,1.5822586195179789,3.0543560978746873,0.9743459820747375,0.22477738559246063,0.011168728582561016, 265, 202, 144, 234
1730928569531,9i,8.215718239331043,0.9s : 0.3s,-17.089828964006117,0.016490126329643483,0.21767541098721058,0.10014985847648451,0.4350564479827881,-0.207869753241539,0.11765989661216736,-0.017524242401123047,0.09506061673164368,-0.026198744773864746,-0.22655946783034075,1.5816473741391521,3.0502981469405914,0.9743874669075012,0.22462624311447144,0.010573538951575756, 265, 202, 144, 234
1730928569541,9i,8.215718239331043,0.9s : 0.3s,-17.089828964006117,0.01783877591976959,0.27764478813695737,0.09925462398484762,0.5520488619804382,-0.2507082223892212,0.144229456782341,-0.01009434461593628,0.09821619093418121,-0.010156989097595215,-0.22645297262674968,1.580890574612467,3.045318117796393,0.9744191765785217,0.22452247142791748,0.009836362674832344, 265, 202, 144, 234
1730928569551,9i,8.215718239331043,0.9s : 0.3s,-17.089828964006117,0.019198894429508367,0.33689776989030057,0.07121455485064683,0.6260868906974792,-0.27625271677970886,0.18380190432071686,-0.004379689693450928,0.07097744941711426,0.003812192939221859,-0.22604767508828638,1.5800365203597917,3.039262935706479,0.9745181202888489,0.22412750124931335,0.009004992432892323, 265, 202, 144, 234
1730928569561,9i,8.215718239331043,0.9s : 0.3s,-17.089828964006117,0.020494478271012386,0.3839206185201847,0.05386010117243446,0.6433100700378418,-0.3076152503490448,0.18271686136722565,-0.010300993919372559,0.03885103762149811,0.03585243225097656,-0.225459586429796,1.579271431352814,3.0328077281136867,0.9746562838554382,0.2235543429851532,0.008260511793196201, 265, 202, 144, 234
1730928569571,9i,8.215718239331043,0.9s : 0.3s,-17.089828964006117,0.021699589969890427,0.4283893582249053,0.05169927539465554,0.6897476315498352,-0.34650859236717224,0.18414030969142914,-0.015705645084381104,0.021814271807670593,0.04416203498840332,-0.22485726002945444,1.5785255448018733,3.026036359923869,0.9747967720031738,0.2229672223329544,0.007534566801041365, 265, 202, 144, 234
1730928569581,9i,8.215718239331043,0.9s : 0.3s,-17.089828964006117,0.02273762537822762,0.4726566780583579,0.03218534655277085,0.748298168182373,-0.3777680993080139,0.1860043704509735,-0.011910736560821533,0.011739328503608704,0.02749943733215332,-0.22411022797056435,1.577679028684289,3.018713204253149,0.9749691486358643,0.2222389280796051,0.006710527930408716, 265, 202, 144, 234
1730928569591,9i,8.215718239331043,0.9s : 0.3s,-17.089828964006117,0.02365095778776689,0.5107511490572757,0.02594523610976725,0.7987338900566101,-0.3705267012119293,0.15745821595191956,-0.018107712268829346,0.005807444453239441,0.017650485038757324,-0.22323005498506507,1.5768712364773025,3.0108311139940573,0.9751694798469543,0.22138068079948425,0.005924139637500048, 265, 202, 144, 234
1730928569601,9i,8.215718239331043,0.9s : 0.3s,-17.089828964006117,0.024431731564590775,0.5387015215981829,0.019141448554912323,0.8195820450782776,-0.35033565759658813,0.1351115107536316,-0.014788508415222168,-0.007889777421951294,-0.00924372673034668,-0.22225472689732073,1.57587713593041,3.0025415033962455,0.9753902554512024,0.2204294502735138,0.004955814220011234, 265, 202, 144, 234
1730928569611,9i,8.215718239331043,0.9s : 0.3s,-17.089828964006117,0.025088244042344016,0.5481069609664027,0.049722309122000506,0.7746105790138245,-0.33617642521858215,0.1050066202878952,-0.0037431716918945312,-0.037430018186569214,-0.0325160026550293,-0.22115898836388884,1.574689919155736,2.9943852522542733,0.97563636302948,0.21936053037643433,0.003798749530687928, 265, 202, 144, 234
1730928569621,9i,8.215718239331043,0.9s : 0.3s,-17.089828964006117,0.025187391369978065,0.5331920577097169,0.0827249045803489,0.6713478565216064,-0.31436753273010254,0.06784400343894958,-0.002642214298248291,-0.07504977285861969,-0.03469812870025635,-0.22007136908666944,1.5735007415966393,2.986994766169633,0.9758782386779785,0.2182992696762085,0.002639185870066285, 265, 202, 144, 234
1730928569631,9i,8.215718239331043,0.9s : 0.3s,-17.089828964006117,0.024789058890438878,0.4958413703285618,0.10431131782982399,0.540996253490448,-0.2858376204967499,0.025534629821777344,-0.010033011436462402,-0.09914791584014893,-0.030820131301879883,-0.21907539279018212,1.5724817735715189,2.980851373754851,0.9760974049568176,0.21732720732688904,0.0016451617702841759, 265, 202, 144, 234
1730928569641,9i,8.215718239331043,0.9s : 0.3s,-17.089828964006117,0.024101431335115404,0.4469899636720917,0.10056416184304362,0.42442262172698975,-0.2707862854003906,-0.013937578536570072,-0.007554888725280762,-0.09427443146705627,-0.034181952476501465,-0.21819399643157608,1.5716111605453016,2.9759923945343787,0.9762894511222839,0.21646679937839508,0.0007955137989483774, 265, 202, 144, 234
1730928569651,9i,8.215718239331043,0.9s : 0.3s,-17.089828964006117,0.0234186205861295,0.398374320887312,0.0794668810424854,0.35095664858818054,-0.2538008689880371,-0.05699077248573303,0.0011646747589111328,-0.06922617554664612,-0.03900468349456787,-0.2174506965600112,1.5707837760847074,2.9721295199351188,0.9764505624771118,0.21574105322360992,-1.2255148249096237e-05, 265, 202, 144, 234
1730928569661,9i,8.215718239331043,0.9s : 0.3s,-17.089828964006117,0.022821117919867084,0.3576227576940109,0.052964348466858956,0.32239437103271484,-0.22596682608127594,-0.09324042499065399,6.490945816040039e-05,-0.037248000502586365,-0.03765374422073364,-0.216876926000555,1.5699629473043002,2.9687915936107534,0.9765739440917969,0.21518076956272125,-0.0008138568955473602, 265, 202, 144, 234
1730928569671,9i,8.215718239331043,0.9s : 0.3s,-17.089828964006117,0.022408234136853437,0.3307159107914304,0.032092011145058344,0.34063971042633057,-0.1964408904314041,-0.11774682998657227,-0.006370365619659424,-0.005785658955574036,-0.030916690826416016,-0.2163938664131751,1.5691424615988308,2.965516773879163,0.9766767024993896,0.21470899879932404,-0.0016152930911630392, 265, 202, 144, 234
1730928569681,9i,8.215718239331043,0.9s : 0.3s,-17.089828964006117,0.022149364106609743,0.31985870068132355,0.035597629289194695,0.3902265429496765,-0.175895094871521,-0.13061651587486267,-0.01004481315612793,0.014868885278701782,-0.03074425458908081,-0.21589995159171166,1.5681850692877173,2.9618836813266793,0.9767806529998779,0.21422657370567322,-0.0025506317615509033, 265, 202, 144, 234
1730928569691,9i,8.215718239331043,0.9s : 0.3s,-17.089828964006117,0.022025585772960866,0.318691523714639,0.03343426437753416,0.42513447999954224,-0.1461494415998459,-0.13477984070777893,-0.007626950740814209,0.021238282322883606,-0.024670124053955078,-0.2153465677563277,1.5671065214557311,2.9578038073119917,0.9768956303596497,0.213686004281044,-0.0036045711021870375, 265, 202, 144, 234
1730928569701,9i,8.215718239331043,0.9s : 0.3s,-17.089828964006117,0.02200392215765602,0.32060000926209253,0.026760533169501145,0.4705517590045929,-0.12313955277204514,-0.1270534098148346,-0.00634080171585083,0.022961050271987915,-0.012194693088531494,-0.21462964823299865,1.5659577774607762,2.9533481456436497,0.9770438075065613,0.2129855901002884,-0.004727511666715145, 265, 202, 144, 234
1730928569711,9i,8.215718239331043,0.9s : 0.3s,-17.089828964006117,0.022060333893944104,0.3350360723951701,0.026682390687174384,0.5372096300125122,-0.1038750410079956,-0.12383312731981277,5.3942203521728516e-05,0.02027401328086853,-0.01734679937362671,-0.21374105637868143,1.5646416128894385,2.9483080083513586,0.9772255420684814,0.2121172994375229,-0.006014619488269091, 265, 202, 144, 234
1730928569721,9i,8.215718239331043,0.9s : 0.3s,-17.089828964006117,0.022200345203121485,0.35390201687324485,0.033777671597165736,0.5850299596786499,-0.07431551069021225,-0.1269693672657013,-0.006293952465057373,0.019785895943641663,-0.02664273977279663,-0.21275733532077898,1.563210079281211,2.9426410272418666,0.9774242639541626,0.21115586161613464,-0.0074151246808469296, 265, 202, 144, 234
1730928569731,9i,8.215718239331043,0.9s : 0.3s,-17.089828964006117,0.02244405864736996,0.3713583318625987,0.04568735307937655,0.6053168773651123,-0.05055265501141548,-0.1324421614408493,-0.018150389194488525,0.030587241053581238,-0.028676092624664307,-0.21176027336694975,1.5618110277003565,2.9366591874150516,0.977622926235199,0.21018117666244507,-0.008784471079707146, 265, 202, 144, 234
1730928569741,9i,8.215718239331043,0.9s : 0.3s,-17.089828964006117,0.02276151850559027,0.38507480509457037,0.04052403392983469,0.6090921759605408,-0.040079329162836075,-0.13870537281036377,-0.00985705852508545,0.028106465935707092,-0.027478396892547607,-0.21078613064668583,1.5603696359174941,2.930545721931078,0.9778133630752563,0.20922869443893433,-0.010195727460086346, 265, 202, 144, 234
1730928569751,9i,8.215718239331043,0.9s : 0.3s,-17.089828964006117,0.02309588082722712,0.389101301872466,0.02270821259334826,0.5896891951560974,-0.027731051668524742,-0.1329665333032608,-0.000980973243713379,0.005609408020973206,-0.02198261022567749,-0.20980892832403783,1.5588713057360766,2.9245209413430193,0.9780011773109436,0.2082730233669281,-0.01166323758661747, 265, 202, 144, 234
1730928569761,9i,8.215718239331043,0.9s : 0.3s,-17.089828964006117,0.02342437508895028,0.388659572741552,0.023299985782950606,0.562046229839325,-0.010609988123178482,-0.1293928027153015,-0.007749378681182861,-0.013484582304954529,-0.017349423840641975,-0.2088003674414956,1.5574443740267747,2.918736635327784,0.9781931638717651,0.20728647708892822,-0.013061565347015858, 265, 202, 144, 234
1730928569771,9i,8.215718239331043,0.9s : 0.3s,-17.089828964006117,0.02376171085321367,0.3830726740835503,0.03787967607504196,0.5321700572967529,-0.009560436941683292,-0.12107574939727783,-0.01659262180328369,-0.022131770849227905,-0.025879325345158577,-0.20778197055237208,1.5560594913622896,2.9132630382953955,0.9783846139907837,0.2062900811433792,-0.014419336803257465, 265, 202, 144, 234
1730928569781,9i,8.215718239331043,0.9s : 0.3s,-17.089828964006117,0.024107084465170216,0.37085885260672513,0.04470179374672931,0.49745553731918335,-0.013854250311851501,-0.11685164272785187,-0.01079857349395752,-0.027408480644226074,-0.033621665090322495,-0.20676552378859975,1.554618762716485,2.9081107914298654,0.9785717725753784,0.2052953988313675,-0.015832288190722466, 265, 202, 144, 234
1730928569791,9i,8.215718239331043,0.9s : 0.3s,-17.089828964006117,0.024448800960011494,0.35528553459927126,0.04276324166607891,0.46548429131507874,-0.008518608286976814,-0.09903030097484589,-0.0023030638694763184,-0.028278619050979614,-0.03199547529220581,-0.20573706145981874,1.5531790541154,2.9033084196719354,0.9787586331367493,0.20428873598575592,-0.017244841903448105, 265, 202, 144, 234
1730928569801,9i,8.215718239331043,0.9s : 0.3s,-17.089828964006117,0.024776898258335345,0.33988890314991305,0.04510603528300298,0.44720765948295593,-0.010478206910192966,-0.07550810277462006,-0.001073300838470459,-0.03497202694416046,-0.02846681885421276,-0.20460957004832378,1.551776435955992,2.898749822983986,0.9789631366729736,0.20318488776683807,-0.0186220183968544, 265, 202, 144, 234
1730928569811,9i,8.215718239331043,0.9s : 0.3s,-17.089828964006117,0.025057547459098942,0.32548363502653926,0.055550786890463694,0.4307993948459625,-0.006548978388309479,-0.06454147398471832,0.0038123726844787598,-0.04796551167964935,-0.027760861441493034,-0.2034337722956022,1.5503588969201003,2.8943800750127355,0.9791739583015442,0.20203347504138947,-0.020014585927128792, 265, 202, 144, 234
1730928569821,9i,8.215718239331043,0.9s : 0.3s,-17.089828964006117,0.02532582625190676,0.3130297568239068,0.045584389255608496,0.4195278584957123,-0.0023513042833656073,-0.05950748920440674,-0.0008384585380554199,-0.039968520402908325,-0.02190321683883667,-0.2023263217406937,1.5490098631936442,2.890145393108268,0.9793692231178284,0.20094874501228333,-0.021340368315577507, 265, 202, 144, 234
1730928569831,9i,8.215718239331043,0.9s : 0.3s,-17.089828964006117,0.025630358150425293,0.3124090453994351,0.027264139439259403,0.4552006423473358,0.0013299831189215183,-0.05267781764268875,-0.007672905921936035,-0.006160810589790344,-0.02542644739151001,-0.20135096046373396,1.5476885183932318,2.885786715279032,0.9795355796813965,0.19999317824840546,-0.022638950496912003, 265, 202, 144, 234
1730928569841,9i,8.215718239331043,0.9s : 0.3s,-17.089828964006117,0.025992689473462057,0.32312397378930635,0.037104149016421104,0.5199704170227051,-0.002345223678275943,-0.031927965581417084,-0.004213571548461914,0.019414737820625305,-0.03133738413453102,-0.20039925754088603,1.546281627052952,2.8809080450606963,0.9796927571296692,0.1990606188774109,-0.024021685123443604, 265, 202, 144, 234
1730928569851,9i,8.215718239331043,0.9s : 0.3s,-17.089828964006117,0.026385638682596257,0.34289203004980673,0.031453785982358776,0.582592785358429,-0.00065837730653584,-0.007362699136137962,0.0007107257843017578,0.020556390285491943,-0.023796435445547104,-0.19942117839115464,1.544772793851529,2.8753419968266654,0.9798493385314941,0.19810201227664948,-0.02550489827990532, 265, 202, 144, 234
1730928569861,9i,8.215718239331043,0.9s : 0.3s,-17.089828964006117,0.026798583038043215,0.3632148840543984,0.028471714334301092,0.6148796677589417,-0.00673349155113101,0.022594600915908813,-0.004340171813964844,0.02290607988834381,-0.01634358987212181,-0.19836288622207396,1.5432147179376166,2.869287815064678,0.9800174832344055,0.1970645785331726,-0.02703731507062912, 265, 202, 144, 234
1730928569871,9i,8.215718239331043,0.9s : 0.3s,-17.089828964006117,0.027218242923860582,0.37864394791459643,0.02454982409323575,0.6192120909690857,-0.014599669724702835,0.05073169618844986,-0.009654343128204346,0.020930901169776917,-0.008448958396911621,-0.19726490389903917,1.5416425344761961,2.8630232761044856,0.9801895022392273,0.1959880143404007,-0.02858434058725834, 265, 202, 144, 234
1730928569881,9i,8.215718239331043,0.9s : 0.3s,-17.089828964006117,0.027598172563354298,0.37932455184614045,0.004106739505949832,0.573566734790802,-0.03608423471450806,0.0896187424659729,-0.00311201810836792,0.0016097873449325562,0.0021422505378723145,-0.19607042879924866,1.5400603255338656,2.85696857189904,0.9803763031959534,0.19481655955314636,-0.030142338946461678, 265, 202, 144, 234
1730928569891,9i,8.215718239331043,0.9s : 0.3s,-17.089828964006117,0.027891314279276134,0.3659446839768633,0.028176542409262886,0.49186834692955017,-0.06673216074705124,0.11823893338441849,0.013783276081085205,-0.02175261080265045,0.01143515482544899,-0.19481168675855734,1.5384493733825908,2.8515578761055385,0.9805707931518555,0.19358178973197937,-0.03172954544425011, 265, 202, 144, 234
1730928569901,9i,8.215718239331043,0.9s : 0.3s,-17.089828964006117,0.02803661173152053,0.3406469208364188,0.04439455850506746,0.40754029154777527,-0.06367543339729309,0.11009235680103302,0.012423098087310791,-0.039581894874572754,0.015805602073669434,-0.1935125838219936,1.5369108784772296,2.8470251088817804,0.9807713627815247,0.19230709969997406,-0.03324660286307335, 265, 202, 144, 234
1730928569911,9i,8.215718239331043,0.9s : 0.3s,-17.089828964006117,0.028144209149412888,0.32017530467791266,0.02958620793579639,0.39312806725502014,-0.04788927361369133,0.101313516497612,-0.00889277458190918,-0.02541804313659668,0.01225501298904419,-0.19232721908639402,1.5355918402203648,2.843039283207442,0.9809538125991821,0.1911437213420868,-0.03454824909567833, 265, 202, 144, 234
1730928569921,9i,8.215718239331043,0.9s : 0.3s,-17.089828964006117,0.028286032250812106,0.3149838311328531,0.022876036155856004,0.4309646487236023,-0.0368637852370739,0.10138747841119766,-0.01941734552383423,0.010329261422157288,-0.006291747093200684,-0.19116554743847355,1.534394197891869,2.8388959593957908,0.9811329245567322,0.19000333547592163,-0.03573111072182655, 265, 202, 144, 234
1730928569931,9i,8.215718239331043,0.9s : 0.3s,-17.089828964006117,0.028482509159953383,0.31925461242687925,0.03591801057852785,0.4876287281513214,-0.03891468420624733,0.10451323539018631,-0.010120689868927002,0.029607683420181274,-0.017636898905038834,-0.18997785504148368,1.5331355059234621,2.8342806051332334,0.981312096118927,0.18883715569972992,-0.036974500864744186, 265, 202, 144, 234
1730928569941,9i,8.215718239331043,0.9s : 0.3s,-17.089828964006117,0.028704898735536,0.3334980267384049,0.02666453860648359,0.5333305597305298,-0.03823074325919151,0.11388133466243744,-0.000789344310760498,0.019973590970039368,-0.017647385597229004,-0.18869419436994214,1.5317718435366914,2.829085579672219,0.9815021753311157,0.18757642805576324,-0.03832206875085831, 265, 202, 144, 234
1730928569951,9i,8.215718239331043,0.9s : 0.3s,-17.089828964006117,0.02891638478058639,0.3443238333224358,0.009779873450029244,0.5371497869491577,-0.03548369184136391,0.11698977649211884,0.002030313014984131,-0.004179656505584717,-0.008605476468801498,-0.18732587087037048,1.5303898254794808,2.8236856298433155,0.9817036390304565,0.18623222410678864,-0.03968881070613861, 265, 202, 144, 234
1730928569961,9i,8.215718239331043,0.9s : 0.3s,-17.089828964006117,0.029096768181307665,0.34913551106016727,0.023747694220210207,0.5312660932540894,-0.038660842925310135,0.11695462465286255,-0.001573801040649414,-0.023691952228546143,-0.0004093050956726074,-0.1859401200249069,1.529015185339327,2.818290518760598,0.9819051027297974,0.18487052619457245,-0.04104900360107422, 265, 202, 144, 234
1730928569971,9i,8.215718239331043,0.9s : 0.3s,-17.089828964006117,0.0291991066521089,0.34972271133378324,0.04104396755052155,0.5122116804122925,-0.038892269134521484,0.12822698056697845,0.0016192197799682617,-0.04100660979747772,-0.0006658472120761871,-0.18449222425828757,1.5276564101901269,2.8130345614572594,0.9821149706840515,0.18344740569591522,-0.04239466041326523, 265, 202, 144, 234
1730928569981,9i,8.215718239331043,0.9s : 0.3s,-17.089828964006117,0.029210807123500087,0.3493658398361855,0.05090338909495983,0.4987499415874481,-0.03645122051239014,0.12837179005146027,-0.0023693442344665527,-0.05082738399505615,0.0014554262161254883,-0.1829807663692756,1.526347958066612,2.8079596089302212,0.9823344349861145,0.18196138739585876,-0.04369194060564041, 265, 202, 144, 234
1730928569991,9i,8.215718239331043,0.9s : 0.3s,-17.089828964006117,0.029238564369049206,0.3488659652300607,0.04730441369035555,0.4964263439178467,-0.03676946461200714,0.12596270442008972,-0.011327803134918213,-0.045230746269226074,-0.007972955703735352,-0.18147913841484492,1.525069713585675,2.8029794062660707,0.9825496673583984,0.1804846227169037,-0.044960007071495056, 265, 202, 144, 234
1730928570001,9i,8.215718239331043,0.9s : 0.3s,-17.089828964006117,0.029311017785159876,0.3494797010494647,0.03416195657929022,0.5122575163841248,-0.039591796696186066,0.12673282623291016,-0.014438271522521973,-0.026116326451301575,-0.016628682613372803,-0.17997945960342487,1.5237977215161984,2.797915900715128,0.9827609062194824,0.1790093630552292,-0.04622242972254753, 265, 202, 144, 234
1730928570011,9i,8.215718239331043,0.9s : 0.3s,-17.089828964006117,0.029436596871775904,0.35430854347773977,0.03401966953427485,0.5361034274101257,-0.046569544821977615,0.12780234217643738,-0.013453900814056396,-0.021617352962493896,-0.022561483085155487,-0.17846212898372465,1.522426158338417,2.792665725208823,0.9829666018486023,0.17751634120941162,-0.04758337512612343, 265, 202, 144, 234
1730928570021,9i,8.215718239331043,0.9s : 0.3s,-17.089828964006117,0.029626310433246972,0.36818096555337293,0.036958934522516,0.5817865133285522,-0.04466325417160988,0.1257123053073883,-0.017134904861450195,-0.017454832792282104,-0.027707159519195557,-0.17691503715721962,1.5209533176655343,2.787074179286705,0.9831687211990356,0.17599360644817352,-0.04904470965266228, 265, 202, 144, 234
1730928570031,9i,8.215718239331043,0.9s : 0.3s,-17.089828964006117,0.029906407489476903,0.3946625008788105,0.04465227125393849,0.6670894026756287,-0.04090393707156181,0.12763749063014984,-0.025423765182495117,0.0022947192192077637,-0.03663593530654907,-0.1753294483923288,1.5194336605353465,2.780825800540898,0.9833704829216003,0.17443254590034485,-0.05055299028754234, 265, 202, 144, 234
1730928570041,9i,8.215718239331043,0.9s : 0.3s,-17.089828964006117,0.030360341244927,0.43200595427015304,0.05548837518852371,0.7585330605506897,-0.03525332733988762,0.1487899124622345,-0.02181452512741089,0.022175326943397522,-0.04594933241605759,-0.17358022761120787,1.5178263195670731,2.77364779545422,0.9835910797119141,0.1727098822593689,-0.052149608731269836, 265, 202, 144, 234
1730928570051,9i,8.215718239331043,0.9s : 0.3s,-17.089828964006117,0.030874805332903765,0.4650691080200809,0.04706517855754666,0.7909751534461975,-0.03996792063117027,0.16014617681503296,-0.010067999362945557,0.01423025131225586,-0.04371803253889084,-0.1716083097823873,1.5161039850279796,2.765851340456091,0.983837902545929,0.17076726257801056,-0.05386211723089218, 265, 202, 144, 234
1730928570061,9i,8.215718239331043,0.9s : 0.3s,-17.089828964006117,0.031394595586871465,0.48329965189446333,0.032038370784352496,0.7616584300994873,-0.047368887811899185,0.17874965071678162,-0.005234420299530029,-0.015478923916816711,-0.02755831927061081,-0.1694874029846275,1.5143402843533114,2.7580395827422657,0.9841007590293884,0.16867712140083313,-0.05561753734946251, 265, 202, 144, 234
1730928570071,9i,8.215718239331043,0.9s : 0.3s,-17.089828964006117,0.03185900161688176,0.4839632475828262,0.053405705231613226,0.7051439881324768,-0.05093779042363167,0.18498916923999786,-0.0015144944190979004,-0.05173598229885101,-0.013162970542907715,-0.16724535496328063,1.5126193511604746,2.7507043337377186,0.9843787550926208,0.16646677255630493,-0.057332877069711685, 265, 202, 144, 234
1730928570081,9i,8.215718239331043,0.9s : 0.3s,-17.089828964006117,0.032244951386052996,0.4727316848201221,0.06260655644794104,0.6406900882720947,-0.05151619017124176,0.17462678253650665,-0.009445905685424805,-0.06168551743030548,-0.005025207996368408,-0.16503369681778082,1.5110090395292348,2.7440284055952406,0.9846503138542175,0.1642855703830719,-0.05893981456756592, 265, 202, 144, 234
1730928570091,9i,8.215718239331043,0.9s : 0.3s,-17.089828964006117,0.032652502648554294,0.4656413496141749,0.044946841239803026,0.6413843631744385,-0.06073951721191406,0.17161554098129272,-0.019137442111968994,-0.037612587213516235,-0.015468358993530273,-0.16293581083675232,1.5094093604301433,2.7376951987375615,0.9848966002464294,0.16221582889556885,-0.06053587421774864, 265, 202, 144, 234
1730928570101,9i,8.215718239331043,0.9s : 0.3s,-17.089828964006117,0.033107045760030734,0.46585094683160744,0.037598831976368825,0.6684624552726746,-0.07189740240573883,0.18628773093223572,-0.00786513090133667,-0.008868128061294556,-0.035681482404470444,-0.16074348064860522,1.5077073359630782,2.731199500858662,0.9851446747779846,0.16005215048789978,-0.06223437190055847, 265, 202, 144, 234
1730928570111,9i,8.215718239331043,0.9s : 0.3s,-17.089828964006117,0.033601387236165306,0.4709079696885693,0.04074608918300344,0.694359540939331,-0.09177204221487045,0.19679762423038483,0.0008407235145568848,-0.002302214503288269,-0.04067230969667435,-0.15840511167909815,1.505812334891949,2.724413511458105,0.9853958487510681,0.15774348378181458,-0.06412524729967117, 265, 202, 144, 234
1730928570121,9i,8.215718239331043,0.9s : 0.3s,-17.089828964006117,0.034112756896562624,0.4700683348042195,0.04079127056627216,0.6521306037902832,-0.10305052995681763,0.2050257921218872,0.00286257266998291,-0.02438199520111084,-0.03257685899734497,-0.15594896528851235,1.5037858895819871,2.7176973301645937,0.9856474995613098,0.15531761944293976,-0.06614770740270615, 265, 202, 144, 234
1730928570131,9i,8.215718239331043,0.9s : 0.3s,-17.089828964006117,0.03461066379302834,0.45261697056825306,0.04443308755212972,0.5704096555709839,-0.10545483231544495,0.21114814281463623,-0.0033532381057739258,-0.042556583881378174,-0.012328512966632843,-0.15346400643042363,1.5018155713287726,2.7116429528909083,0.9858971834182739,0.1528623402118683,-0.06811600923538208, 265, 202, 144, 234
1730928570141,9i,8.215718239331043,0.9s : 0.3s,-17.089828964006117,0.035079682254849226,0.4207852016908017,0.05055995910988728,0.46347546577453613,-0.11569415032863617,0.21233297884464264,-0.008922934532165527,-0.04973883926868439,0.0016548633575439453,-0.15098933073585283,1.499932329400339,2.706584717849251,0.9861414432525635,0.1504162847995758,-0.06999913603067398, 265, 202, 144, 234
1730928570151,9i,8.215718239331043,0.9s : 0.3s,-17.089828964006117,0.035499437906856356,0.38553303111885046,0.05309486227155888,0.37991318106651306,-0.13104727864265442,0.2330121546983719,-0.001796424388885498,-0.05184479057788849,0.011311717331409454,-0.14847423682939445,1.498089508394859,2.7025018352029493,0.9863848686218262,0.1479293256998062,-0.07184354960918427, 265, 202, 144, 234
1730928570161,9i,8.215718239331043,0.9s : 0.3s,-17.089828964006117,0.035869369287047106,0.34958649573941764,0.05103686321519705,0.3046397268772125,-0.13674405217170715,0.24350208044052124,0.008571267127990723,-0.04942804574966431,0.009389519691467285,-0.14583059477202925,1.4962464702606513,2.6992146648934874,0.9866374135017395,0.1453142613172531,-0.07369024306535721, 265, 202, 144, 234
1730928570171,9i,8.215718239331043,0.9s : 0.3s,-17.089828964006117,0.0361874449102539,0.3142758503820449,0.04309214696348744,0.24548161029815674,-0.12157760560512543,0.23521752655506134,-0.0012446045875549316,-0.038327813148498535,0.019656114280223846,-0.14323292405500931,1.4945766518699477,2.696676009112538,0.9868861436843872,0.14274367690086365,-0.07536613941192627, 265, 202, 144, 234
1730928570181,9i,8.215718239331043,0.9s : 0.3s,-17.089828964006117,0.03645477452375347,0.2913290753099163,0.033758785694971476,0.24435269832611084,-0.12687943875789642,0.23865406215190887,-0.011541128158569336,-0.017717182636260986,0.026316523551940918,-0.14069365730107491,1.4930355324305873,2.694420216304101,0.9871269464492798,0.1402299553155899,-0.07691486924886703, 265, 202, 144, 234
1730928570191,9i,8.215718239331043,0.9s : 0.3s,-17.089828964006117,0.03667028550974504,0.27931287139243194,0.01697160673286847,0.25273168087005615,-0.14145460724830627,0.24723432958126068,0.012961149215698242,0.0013370811939239502,0.010874569416046143,-0.13807828207280382,1.4913643505808802,2.6921042815225085,0.9873591661453247,0.13763993978500366,-0.07859325408935547, 265, 202, 144, 234
1730928570201,9i,8.215718239331043,0.9s : 0.3s,-17.089828964006117,0.036816319456770746,0.2679465175083854,0.026966742685589237,0.23574218153953552,-0.1343158632516861,0.24244414269924164,0.021068274974822998,0.0020088553428649902,0.016712196171283722,-0.1354286262867326,1.489654165376456,2.6898143154640435,0.987583339214325,0.13501502573490143,-0.08031097799539566, 265, 202, 144, 234
1730928570211,9i,8.215718239331043,0.9s : 0.3s,-17.089828964006117,0.036901611308691545,0.25327925892844894,0.029119560808367587,0.20518720149993896,-0.1236962378025055,0.22630459070205688,0.0002745389938354492,-0.0031458139419555664,0.02894783765077591,-0.13291604595674772,1.4881080857090583,2.6878168166535117,0.9877929091453552,0.1325250267982483,-0.08186552673578262, 265, 202, 144, 234
1730928570221,9i,8.215718239331043,0.9s : 0.3s,-17.089828964006117,0.03694485314403119,0.24218904906520292,0.028090111408987147,0.21435445547103882,-0.11435036361217499,0.2125927358865738,-0.009253740310668945,0.007175877690315247,0.025532908737659454,-0.13055425404903165,1.4866638602818816,2.6859286485460587,0.9879828691482544,0.13018369674682617,-0.08331810683012009, 265, 202, 144, 234
1730928570231,9i,8.215718239331043,0.9s : 0.3s,-17.089828964006117,0.036944939323028364,0.24200652590180477,0.03688398379258183,0.2706187963485718,-0.10880539566278458,0.20968350768089294,0.0005001425743103027,0.03344939649105072,0.015534348785877228,-0.12824824717080924,1.4852726921302035,2.683688510232699,0.9881623983383179,0.1278969794511795,-0.08471789211034775, 265, 202, 144, 234
1730928570241,9i,8.215718239331043,0.9s : 0.3s,-17.089828964006117,0.03685231583966088,0.2485108266274031,0.05184754908800507,0.3296229839324951,-0.10039584338665009,0.20188109576702118,0.003517746925354004,0.05145938694477081,0.005265481770038605,-0.12593617795249867,1.4838620008220136,2.680848113005596,0.9883338809013367,0.1256035566329956,-0.08613724261522293, 265, 202, 144, 234
1730928570251,9i,8.215718239331043,0.9s : 0.3s,-17.089828964006117,0.03669327698445963,0.2555333305055132,0.04984949962489781,0.35148993134498596,-0.08761400729417801,0.1927158385515213,-0.007849335670471191,0.04789625108242035,0.011371441185474396,-0.12365268820772989,1.4825261585185572,2.677562659966107,0.9885009527206421,0.12333782017230988,-0.08748247474431992, 265, 202, 144, 234
1730928570261,9i,8.215718239331043,0.9s : 0.3s,-17.089828964006117,0.0364890741138393,0.2608602434845923,0.0495058663456147,0.36319056153297424,-0.0916295200586319,0.1811322718858719,-0.015413045883178711,0.04167985916137695,0.02181875705718994,-0.12147569782832462,1.4811968015063446,2.67413922811028,0.9886490106582642,0.12117715924978256,-0.08882029354572296, 265, 202, 144, 234
1730928570271,9i,8.215718239331043,0.9s : 0.3s,-17.089828964006117,0.03627324811365711,0.2620039840222234,0.043583020953126515,0.35739338397979736,-0.0925629585981369,0.174773707985878,-0.012126326560974121,0.035647422075271606,0.021947510540485382,-0.11937522977998502,1.4798549413699476,2.6706920477507077,0.9887802004814148,0.11909190565347672,-0.090169757604599, 265, 202, 144, 234
1730928570281,9i,8.215718239331043,0.9s : 0.3s,-17.089828964006117,0.036057686568024105,0.2696088310538443,0.04231443073694721,0.39365750551223755,-0.08710591495037079,0.15838845074176788,-0.014482736587524414,0.034801796078681946,0.01922488957643509,-0.1173840403486371,1.4785253732382613,2.667107067064646,0.9888935685157776,0.11711465567350388,-0.0915059894323349, 265, 202, 144, 234
1730928570291,9i,8.215718239331043,0.9s : 0.3s,-17.089828964006117,0.035895282063837505,0.2934250292608208,0.05758186506915076,0.5068756937980652,-0.06826484948396683,0.1423937827348709,-0.019226491451263428,0.054144904017448425,0.0037871599197387695,-0.1154687808977481,1.4772614643581963,2.6628017645888575,0.9889987111091614,0.11521235853433609,-0.0927765816450119, 265, 202, 144, 234
1730928570301,9i,8.215718239331043,0.9s : 0.3s,-17.089828964006117,0.03592731719336344,0.34538276490028097,0.0901640591550478,0.6931837797164917,-0.05902661383152008,0.13566948473453522,-0.02171999216079712,0.08511091023683548,-0.020345330238342285,-0.11354290085107258,1.4759639561217497,2.6569253816905096,0.9890965819358826,0.11329909414052963,-0.09408056735992432, 265, 202, 144, 234
1730928570311,9i,8.215718239331043,0.9s : 0.3s,-17.089828964006117,0.036166067050400603,0.41488796116511456,0.09294046924793267,0.8614686727523804,-0.04698006808757782,0.12082875519990921,-0.021310627460479736,0.0861339196562767,-0.027653858065605164,-0.11151522886701626,1.4745663047513684,2.649262916204398,0.9891906976699829,0.11128424853086472,-0.09548476338386536, 265, 202, 144, 234
1730928570321,9i,8.215718239331043,0.9s : 0.3s,-17.089828964006117,0.03649587800636754,0.5058517261261759,0.07541034213576385,1.073630452156067,-0.038515035063028336,0.10129926353693008,-0.025099217891693115,0.06705188006162643,-0.023681096732616425,-0.10948195921920746,1.4730865281178585,2.63973064941923,0.9892714619636536,0.10926337540149689,-0.09697031229734421, 265, 202, 144, 234
1730928570331,9i,8.215718239331043,0.9s : 0.3s,-17.089828964006117,0.037099779174426264,0.6376869325331953,0.09420396203270345,1.4133422374725342,-0.03632431849837303,0.07849141955375671,-0.02419734001159668,0.06884494423866272,-0.05957557260990143,-0.10738668066766714,1.471387414349635,2.62747312396488,0.9893310070037842,0.1071804016828537,-0.09867356717586517, 265, 202, 144, 234
1730928570341,9i,8.215718239331043,0.9s : 0.3s,-17.089828964006117,0.03826600295130788,0.8216629426850421,0.14256943354171855,1.8657872676849365,-0.030846063047647476,0.08597101271152496,-0.022635281085968018,0.08946039527654648,-0.1086762398481369,-0.10493061162924261,1.4693450283053624,2.611189808747869,0.9893862009048462,0.10473816096782684,-0.10072030127048492, 265, 202, 144, 234
1730928570351,9i,8.215718239331043,0.9s : 0.3s,-17.089828964006117,0.039881884446135475,1.0259230157794812,0.14443915456365342,2.240568161010742,-0.005859752185642719,0.07272364944219589,-0.014791250228881836,0.07959724962711334,-0.11961674690246582,-0.10202185716228457,1.4670011141606065,2.5905578138421945,0.9894463419914246,0.10184496641159058,-0.1030701994895935, 265, 202, 144, 234
1730928570361,9i,8.215718239331043,0.9s : 0.3s,-17.089828964006117,0.04155726345036136,1.1774923736876255,0.08675430640097896,2.2832436561584473,0.0477219820022583,0.04743367061018944,-0.024242103099822998,0.04927875101566315,-0.0671582818031311,-0.09901524039780753,1.464906219255203,2.567853279699647,0.989528238773346,0.09885352849960327,-0.10517464578151703, 265, 202, 144, 234
1730928570371,9i,8.215718239331043,0.9s : 0.3s,-17.089828964006117,0.042778138964064155,1.2473913440035693,0.06509636062955872,2.102306604385376,0.08040668815374374,0.025471381843090057,-0.040750741958618164,0.020978450775146484,0.04622572660446167,-0.09631205815828955,1.463427505235161,2.5458836910869955,0.9896337389945984,0.09616322815418243,-0.10666600614786148, 265, 202, 144, 234
1730928570381,9i,8.215718239331043,0.9s : 0.3s,-17.089828964006117,0.043735053817794495,1.2624607050208125,0.09084182342806092,1.9339776039123535,0.049636438488960266,0.000976290088146925,0.011228859424591064,0.019597485661506653,0.08798913657665253,-0.0940205443768937,1.4621868776629003,2.525814069484235,0.9897171854972839,0.09388208389282227,-0.10791730135679245, 265, 202, 144, 234
1730928570391,9i,8.215718239331043,0.9s : 0.3s,-17.089828964006117,0.04374680218435834,1.245396593043471,0.13223718695787626,1.7966127395629883,0.02161918580532074,0.006539100781083107,0.10378307104110718,0.048073992133140564,0.06636745482683182,-0.0919480290788164,1.4607588568715135,2.5072039724058968,0.9897531270980835,0.09181851893663406,-0.10935164242982864, 265, 202, 144, 234
1730928570401,9i,8.215718239331043,0.9s : 0.3s,-17.089828964006117,0.04322964125816502,1.2188043229564922,0.16953323153468486,1.723673939704895,0.036180950701236725,-0.007366361562162638,0.1307407021522522,0.09832888841629028,0.0444951131939888,-0.08999438012317638,1.4594748295762887,2.4896859100942663,0.9897883534431458,0.08987294882535934,-0.11064214259386063, 265, 202, 144, 234
1730928570411,9i,8.215718239331043,0.9s : 0.3s,-17.089828964006117,0.04292904116230263,1.189863997039987,0.19091069821230752,1.6724305152893066,0.029791763052344322,-0.029067929834127426,0.09406620264053345,0.1661204993724823,-0.001556888222694397,-0.08826647820594476,1.4583061489254183,2.4727286076537456,0.989811360836029,0.08815190941095352,-0.11181609332561493, 265, 202, 144, 234
1730928570421,9i,8.215718239331043,0.9s : 0.3s,-17.089828964006117,0.04318981514591451,1.161461008309524,0.22613406249517326,1.63176691532135,0.02451275661587715,-0.039411645382642746,0.06692057847976685,0.2155303955078125,-0.01431429386138916,-0.08674811289383508,1.4571353554606723,2.4561930849261775,0.9898114800453186,0.08663935214281082,-0.11298991739749908, 265, 202, 144, 234
1730928570431,9i,8.215718239331043,0.9s : 0.3s,-17.089828964006117,0.04400934580302805,1.1228754851855394,0.22429274377137395,1.538299322128296,0.03456086292862892,-0.053304024040699005,0.030244529247283936,0.22199296951293945,0.010565266013145447,-0.08539220245942948,1.456061797122791,2.4402781027575036,0.9898055195808411,0.08528846502304077,-0.11406583338975906, 265, 202, 144, 234
1730928570441,9i,8.215718239331043,0.9s : 0.3s,-17.089828964006117,0.04564440496381176,1.0788709291878686,0.2419481949844993,1.452955722808838,0.025933774188160896,-0.08890046924352646,-0.029974639415740967,0.2400842308998108,0.00011009722948074341,-0.08435653439763026,1.4551037461964107,2.4253380679854892,0.9897828102111816,0.08425652235746384,-0.11502417922019958, 265, 202, 144, 234
1730928570451,9i,8.215718239331043,0.9s : 0.3s,-17.089828964006117,0.04834831443256601,1.0455248280011735,0.29086324883539866,1.4379522800445557,0.04224217310547829,-0.12583611905574799,-0.07655113935470581,0.2796154022216797,-0.023591935634613037,-0.0837637225307741,1.4542051710155466,2.4108621728545123,0.9897285103797913,0.08366580307483673,-0.1159193217754364, 265, 202, 144, 234
1730928570461,9i,8.215718239331043,0.9s : 0.3s,-17.089828964006117,0.05210499827796698,1.0214815496999785,0.3335503222567909,1.4292194843292236,0.06502533704042435,-0.1855357438325882,-0.11198979616165161,0.31364506483078003,-0.018462836742401123,-0.08363864488884439,1.4535258373722204,2.396412130748695,0.9896600246429443,0.08354116231203079,-0.1165928766131401, 265, 202, 144, 234
1730928570471,9i,8.215718239331043,0.9s : 0.3s,-17.089828964006117,0.057021259176267595,0.9990561646323534,0.382568924565412,1.3914918899536133,0.04494430497288704,-0.2741084694862366,-0.15075618028640747,0.3499864935874939,-0.0337788462638855,-0.08425616585443466,1.4528682761580083,2.3820727723063144,0.9895316958427429,0.08415651321411133,-0.11723752319812775, 265, 202, 144, 234
1730928570481,9i,8.215718239331043,0.9s : 0.3s,-17.089828964006117,0.06286409445709991,0.9733226569539778,0.3895557383313992,1.3300453424453735,0.031112290918827057,-0.32832443714141846,-0.15008336305618286,0.35790959000587463,-0.03360629081726074,-0.08566125909502825,1.4520472716073574,2.3681556154221064,0.9893167018890381,0.08555653691291809,-0.11803576350212097, 265, 202, 144, 234
1730928570491,9i,8.215718239331043,0.9s : 0.3s,-17.089828964006117,0.06932460080933349,0.9455055894658378,0.37722350605224436,1.263895034790039,0.03317464515566826,-0.39397215843200684,-0.1538044810295105,0.34323471784591675,-0.028838925063610077,-0.08769418963300984,1.4511865073837384,2.3547854890428686,0.989039957523346,0.08758183568716049,-0.11886627972126007, 265, 202, 144, 234
1730928570501,9i,8.215718239331043,0.9s : 0.3s,-17.089828964006117,0.07653278239704754,0.9235650098722085,0.4083392622006108,1.2297563552856445,0.04571346938610077,-0.4592047929763794,-0.1938808560371399,0.35197335481643677,-0.0725666880607605,-0.09045641241739388,1.450473857174059,2.341930000472415,0.9887111186981201,0.09033310413360596,-0.11954161524772644, 265, 202, 144, 234
1730928570511,9i,8.215718239331043,0.9s : 0.3s,-17.089828964006117,0.08467230474534963,0.91795868738015,0.46197977142016244,1.2224081754684448,0.06185941770672798,-0.5678492188453674,-0.21504640579223633,0.3914394676685333,-0.11813338100910187,-0.0940659562115749,1.4498043925121349,2.329030447336223,0.9883008003234863,0.0939272940158844,-0.12016335874795914, 265, 202, 144, 234
1730928570521,9i,8.215718239331043,0.9s : 0.3s,-17.089828964006117,0.09356596356341361,0.9330178126362362,0.4808758971055759,1.3074455261230469,0.07984498888254166,-0.6473777890205383,-0.2141520380973816,0.41646823287010193,-0.10924625396728516,-0.09859921911840822,1.4492657213737483,2.3157961843308628,0.9878031015396118,0.0984395369887352,-0.12064284086227417, 265, 202, 144, 234
1730928570531,9i,8.215718239331043,0.9s : 0.3s,-17.089828964006117,0.10321948244176253,0.969771368543321,0.5115998232795197,1.4077889919281006,0.04860930144786835,-0.7253154516220093,-0.21263515949249268,0.4445560574531555,-0.13744300603866577,-0.10375616799308611,1.4484429558058687,2.3014089321471376,0.9871864914894104,0.10357010364532471,-0.12139195948839188, 265, 202, 144, 234
1730928570541,9i,8.215718239331043,0.9s : 0.3s,-17.089828964006117,0.1135442537571134,1.0306452846860816,0.5303553499843021,1.5466327667236328,0.05541425570845604,-0.8275876641273499,-0.21178168058395386,0.4580514430999756,-0.16313856840133667,-0.10962704762302264,1.4472825854654683,2.28569360689566,0.9864245653152466,0.10940759629011154,-0.12246035784482956, 265, 202, 144, 234
1730928570551,9i,8.215718239331043,0.9s : 0.3s,-17.089828964006117,0.12447704554858603,1.104193098537103,0.5526726476634745,1.6564819812774658,0.06202369183301926,-0.9439504742622375,-0.2560819387435913,0.4561173915863037,-0.1783984899520874,-0.11644163068937888,1.4459491059852447,2.2685826935855316,0.985497772693634,0.11617867648601532,-0.12367992103099823, 265, 202, 144, 234
1730928570561,9i,8.215718239331043,0.9s : 0.3s,-17.089828964006117,0.136030570265359,1.179648032623675,0.5812952913091368,1.7398746013641357,0.06389522552490234,-1.0339972972869873,-0.26691734790802,0.4745936989784241,-0.20351944863796234,-0.12414402415329254,1.4443803700618993,2.250280507403226,0.9843854904174805,0.12382539361715317,-0.12510919570922852, 265, 202, 144, 234
1730928570571,9i,8.215718239331043,0.9s : 0.3s,-17.089828964006117,0.1478021651251628,1.2417592166771896,0.5549353251080563,1.7405991554260254,0.0440826378762722,-1.1238094568252563,-0.24093502759933472,0.4696516990661621,-0.17126239836215973,-0.13261956197187386,1.4425340403390357,2.2314502449737104,0.9830767512321472,0.13223114609718323,-0.1267877072095871, 265, 202, 144, 234
1730928570581,9i,8.215718239331043,0.9s : 0.3s,-17.089828964006117,0.15956551260782373,1.2980398736900187,0.521595351852749,1.7531570196151733,0.019277513027191162,-1.221680998802185,-0.21953243017196655,0.44758880138397217,-0.1533997654914856,-0.14201458935487643,1.4402580513413563,2.212487595866078,0.9815104603767395,0.14153771102428436,-0.12885743379592896, 265, 202, 144, 234
1730928570591,9i,8.215718239331043,0.9s : 0.3s,-17.089828964006117,0.17152535841718908,1.3695295059459358,0.561870374200063,1.8794385194778442,0.001441791420802474,-1.3136780261993408,-0.2217922806739807,0.4813879132270813,-0.18647299706935883,-0.15220990692414124,1.4374664631737026,2.1926542247479013,0.9796656370162964,0.15162286162376404,-0.13139823079109192, 265, 202, 144, 234
1730928570601,9i,8.215718239331043,0.9s : 0.3s,-17.089828964006117,0.18410030966440213,1.4467661400260405,0.6266503895383388,1.9809437990188599,-0.06580187380313873,-1.4021415710449219,-0.22633779048919678,0.5422318577766418,-0.21782223880290985,-0.1630488506046736,1.4338407875357306,2.1714315803307795,0.9774972796440125,0.1623273640871048,-0.13471700251102448, 265, 202, 144, 234
1730928570611,9i,8.215718239331043,0.9s : 0.3s,-17.089828964006117,0.19705825819822362,1.5160969202093413,0.6207774148891222,2.001765251159668,-0.10279451310634613,-1.5021368265151978,-0.21691203117370605,0.5447382926940918,-0.20389693975448608,-0.17466953942477187,1.4292709087783269,2.149283065768729,0.9749380350112915,0.17378272116184235,-0.13890716433525085, 265, 202, 144, 234
1730928570621,9i,8.215718239331043,0.9s : 0.3s,-17.089828964006117,0.21000658818698625,1.570502925364628,0.5749848315818706,1.954077124595642,-0.12492480129003525,-1.6132030487060547,-0.22664684057235718,0.4963613748550415,-0.18128472566604614,-0.1872255537447686,1.4241424668659284,2.127135940575736,0.9719775319099426,0.18613365292549133,-0.1435750424861908, 265, 202, 144, 234
1730928570631,9i,8.215718239331043,0.9s : 0.3s,-17.089828964006117,0.22294517336913333,1.627067314043159,0.5739151117825013,1.9633287191390991,-0.14212989807128906,-1.7440837621688843,-0.2364128828048706,0.49044710397720337,-0.18151898682117462,-0.20091963359447743,1.4185215305991217,2.104897640361578,0.9685449004173279,0.19957055151462555,-0.148635596036911, 265, 202, 144, 234
1730928570641,9i,8.215718239331043,0.9s : 0.3s,-17.089828964006117,0.23629652844659663,1.7004744117587702,0.6412597263290537,2.0627598762512207,-0.18180100619792938,-1.8779453039169312,-0.22851401567459106,0.563051700592041,-0.2048613280057907,-0.21571690635761873,1.4121232791278833,2.0817405946226586,0.964552104473114,0.21404777467250824,-0.15434592962265015, 265, 202, 144, 234
1730928570651,9i,8.215718239331043,0.9s : 0.3s,-17.089828964006117,0.2503155095062936,1.7844408242194798,0.7030128320803924,2.1778197288513184,-0.22426536679267883,-1.9840061664581299,-0.19645476341247559,0.6386839747428894,-0.21843843162059784,-0.23135524862711596,1.4045917037261235,2.0570546779135106,0.9599433541297913,0.22929687798023224,-0.1610325425863266, 265, 202, 144, 234
1730928570661,9i,8.215718239331043,0.9s : 0.3s,-17.089828964006117,0.26458147794955467,1.857513244010871,0.6733694130752643,2.1704113483428955,-0.2694211006164551,-2.0929555892944336,-0.1728808879852295,0.6241185665130615,-0.18443042039871216,-0.24771545703445041,1.39605001936157,2.031318301397579,0.9547106027603149,0.24518980085849762,-0.16855129599571228, 265, 202, 144, 234
1730928570671,9i,8.215718239331043,0.9s : 0.3s,-17.089828964006117,0.2787564308317394,1.9151689147366213,0.6169244593409784,2.090197801589966,-0.3135091960430145,-2.218379259109497,-0.1706950068473816,0.5765166878700256,-0.13815756142139435,-0.2651725143631473,1.3866173678303637,2.0056913494116193,0.9487254023551941,0.2620757520198822,-0.1767382174730301, 265, 202, 144, 234
1730928570681,9i,8.215718239331043,0.9s : 0.3s,-17.089828964006117,0.292816976342302,1.9661211490224924,0.6120960185237276,2.0378503799438477,-0.35939520597457886,-2.3333287239074707,-0.14841300249099731,0.5788623094558716,-0.13248978555202484,-0.283612720911773,1.3763668702887522,1.9802115400471807,0.941961407661438,0.2798258662223816,-0.1854882836341858, 265, 202, 144, 234
1730928570691,9i,8.215718239331043,0.9s : 0.3s,-17.089828964006117,0.30688868417311854,2.022201857369325,0.6505803017372715,2.0253257751464844,-0.3898250460624695,-2.472799777984619,-0.12936168909072876,0.6242213249206543,-0.12987694144248962,-0.30316102007930873,1.3651790507519248,1.95443937544483,0.9342931509017944,0.29853856563568115,-0.19486072659492493, 265, 202, 144, 234
1730928570701,9i,8.215718239331043,0.9s : 0.3s,-17.089828964006117,0.32106971620371133,2.083518682487583,0.6743984264407585,2.042175054550171,-0.448740690946579,-2.588500499725342,-0.0963674783706665,0.6554223299026489,-0.1262858510017395,-0.32363188120063247,1.3528193728456228,1.9279742415124868,0.9256521463394165,0.318011999130249,-0.20502839982509613, 265, 202, 144, 234
1730928570711,9i,8.215718239331043,0.9s : 0.3s,-17.089828964006117,0.33524908496005396,2.145373507172889,0.6771756690127158,2.050635814666748,-0.49229082465171814,-2.691985607147217,-0.03481447696685791,0.664992094039917,-0.1230461448431015,-0.3448218601366057,1.3391341956947624,1.9005745236247702,0.9159942269325256,0.33802902698516846,-0.21608056128025055, 265, 202, 144, 234
1730928570721,9i,8.215718239331043,0.9s : 0.3s,-17.089828964006117,0.3493775658909486,2.2060251757859928,0.6745301385237448,2.015151262283325,-0.5552540421485901,-2.8165905475616455,0.006592154502868652,0.6666178107261658,-0.10280148684978485,-0.3667401847170014,1.324115798210885,1.8724795405418178,0.9052424430847168,0.3585743010044098,-0.22794818878173828, 265, 202, 144, 234
1730928570731,9i,8.215718239331043,0.9s : 0.3s,-17.089828964006117,0.3634181265229194,2.2586632974452607,0.6582456026225285,1.9335517883300781,-0.6118438243865967,-2.9267029762268066,0.054921090602874756,0.6503786444664001,-0.08531451225280762,-0.3895834559016393,1.3078034620949963,1.8441189567807679,0.8932600021362305,0.3798031210899353,-0.24049128592014313, 265, 202, 144, 234
1730928570741,9i,8.215718239331043,0.9s : 0.3s,-17.089828964006117,0.3773357866442686,2.306920680812398,0.6546903466297582,1.8252811431884766,-0.6602664589881897,-3.057258367538452,0.09950709342956543,0.6422901153564453,-0.07862058281898499,-0.41335679452367985,1.2903514015481417,1.8156822913386128,0.8800004124641418,0.4016856551170349,-0.25347188115119934, 265, 202, 144, 234
1730928570751,9i,8.215718239331043,0.9s : 0.3s,-17.089828964006117,0.3910559734713504,2.364709953432219,0.7027593821427305,1.7761874198913574,-0.727798342704773,-3.2107300758361816,0.13311916589736938,0.6854650974273682,-0.07929462194442749,-0.4382970210667301,1.271540358372243,1.7869886964617376,0.8652328848838806,0.4243980646133423,-0.26694270968437195, 265, 202, 144, 234
1730928570761,9i,8.215718239331043,0.9s : 0.3s,-17.089828964006117,0.4048824724949289,2.4329266540022174,0.7741610328008681,1.8313658237457275,-0.7912629246711731,-3.31762957572937,0.2030717134475708,0.7433786392211914,-0.07399582862854004,-0.4639433822020421,1.2508082137335133,1.7568977215309896,0.8488997220993042,0.44747811555862427,-0.2813051640987396, 265, 202, 144, 234
1730928570771,9i,8.215718239331043,0.9s : 0.3s,-17.089828964006117,0.4187998781549292,2.5074388505896343,0.8181472064695349,1.8966857194900513,-0.8399681448936462,-3.4198503494262695,0.289508581161499,0.7614901661872864,-0.07538142800331116,-0.48977574115352185,1.2278462261152288,1.7246922998745764,0.8310510516166687,0.4704280197620392,-0.2967347502708435, 265, 202, 144, 234
1730928570781,9i,8.215718239331043,0.9s : 0.3s,-17.089828964006117,0.4328619825476786,2.5768444038035536,0.858011271005496,1.940312385559082,-0.9073609113693237,-3.4770588874816895,0.3487876057624817,0.7817463874816895,-0.05833637714385986,-0.51545062795623,1.2025785405493354,1.6904189566252905,0.811750054359436,0.4929269850254059,-0.3131847381591797, 265, 202, 144, 234
1730928570791,9i,8.215718239331043,0.9s : 0.3s,-17.089828964006117,0.44674714197016524,2.6323539467004373,0.8567996526546688,1.8904922008514404,-0.9657387137413025,-3.5300674438476562,0.4129093885421753,0.7506327629089355,-0.01272544264793396,-0.5408737865444355,1.1751213063357429,1.6545932106908403,0.7910242080688477,0.5148852467536926,-0.3304142951965332, 265, 202, 144, 234
1730928570801,9i,8.215718239331043,0.9s : 0.3s,-17.089828964006117,0.46022338557086323,2.6730033735439784,0.8107434342426783,1.719103455543518,-1.023414134979248,-3.617494821548462,0.4601280093193054,0.6667341589927673,0.03244522213935852,-0.5665705026965924,1.1460794267187095,1.618343947871375,0.7687842845916748,0.5367415547370911,-0.3476766049861908, 265, 202, 144, 234
1730928570811,9i,8.215718239331043,0.9s : 0.3s,-17.089828964006117,0.47304658397439997,2.716450984568895,0.8229380991399495,1.6357837915420532,-1.120843768119812,-3.7144222259521484,0.5093218088150024,0.6452592015266418,0.03819650411605835,-0.5926578610004675,1.1152159733895888,1.5816173903615731,0.7448590993881226,0.5585675835609436,-0.3649483323097229, 265, 202, 144, 234
1730928570821,9i,8.215718239331043,0.9s : 0.3s,-17.089828964006117,0.48588871256484245,2.7651759341319746,0.9006606539190769,1.6635149717330933,-1.177622675895691,-3.7822153568267822,0.5709391832351685,0.6965072154998779,-0.009785771369934082,-0.6186128825447575,1.0817205225629178,1.5430452519137188,0.719176173210144,0.57990562915802,-0.38274672627449036, 265, 202, 144, 234
1730928570831,9i,8.215718239331043,0.9s : 0.3s,-17.089828964006117,0.4991661651802611,2.8149364218544406,0.9657634922747081,1.7112516164779663,-1.2022912502288818,-3.8374581336975098,0.623935341835022,0.735184371471405,-0.053923577070236206,-0.6437365715832305,1.0454497782647159,1.5018119125712683,0.6919978260993958,0.6001883745193481,-0.40113937854766846, 265, 202, 144, 234
1730928570841,9i,8.215718239331043,0.9s : 0.3s,-17.089828964006117,0.5129208120825289,2.8510493594851334,1.0134614072148778,1.5916625261306763,-1.326236367225647,-3.860333204269409,0.6891303658485413,0.739207923412323,-0.07599347829818726,-0.6680804412898793,1.0067764617227302,1.458613970397377,0.6634239554405212,0.6194802522659302,-0.4196578860282898, 265, 202, 144, 234
1730928570851,9i,8.215718239331043,0.9s : 0.3s,-17.089828964006117,0.5269001936575715,2.890520473497039,1.0590083719321055,1.5489044189453125,-1.4444752931594849,-3.9168643951416016,0.7849235534667969,0.7081412076950073,-0.0626879334449768,-0.6917254165354584,0.9648096921569523,1.4140786175749063,0.6330146789550781,0.6378669738769531,-0.43865489959716797, 265, 202, 144, 234
1730928570861,9i,8.215718239331043,0.9s : 0.3s,-17.089828964006117,0.5405385632329578,2.913130717489516,0.9733159760928098,1.2961575984954834,-1.4767723083496094,-3.976994037628174,0.8194018006324768,0.5252527594566345,-0.0058495402336120605,-0.7154140003865542,0.9207634817146179,1.3686263053806436,0.600886344909668,0.6559299826622009,-0.4568275809288025, 265, 202, 144, 234
1730928570871,9i,8.215718239331043,0.9s : 0.3s,-17.089828964006117,0.5541310430007227,2.9294656155316847,0.943426471227261,1.1096720695495605,-1.5219714641571045,-4.023562431335449,0.8200127482414246,0.4661773443222046,0.017643213272094727,-0.7392452106431937,0.8751871911825349,1.3226155709805,0.5672858357429504,0.6737303137779236,-0.4735759198665619, 265, 202, 144, 234
1730928570881,9i,8.215718239331043,0.9s : 0.3s,-17.089828964006117,0.5676122989550079,2.9462071479453003,1.0415420085027665,1.1191277503967285,-1.5724164247512817,-4.019688129425049,0.8675891757011414,0.5747052431106567,-0.04257535934448242,-0.762211749912512,0.8271164860241623,1.2749389504266093,0.5323437452316284,0.6905229091644287,-0.48968178033828735, 265, 202, 144, 234
1730928570891,9i,8.215718239331043,0.9s : 0.3s,-17.089828964006117,0.5812285508211447,2.949344089176708,1.0736237035282694,0.9922462105751038,-1.618135690689087,-3.9953975677490234,0.9081015586853027,0.5681245923042297,-0.07248353958129883,-0.7835963682343384,0.776501876727412,1.2253382555567707,0.4964241683483124,0.7058315873146057,-0.505336344242096, 265, 202, 144, 234
1730928570901,9i,8.215718239331043,0.9s : 0.3s,-17.089828964006117,0.5949527066728065,2.9501648465870276,1.0188091856309534,0.7151608467102051,-1.6877084970474243,-4.031808376312256,0.90749192237854,0.46263617277145386,-0.019958436489105225,-0.8046986089715195,0.7241794055898241,1.1751173944728934,0.45934465527534485,0.7206217050552368,-0.5193330645561218, 265, 202, 144, 234
1730928570911,9i,8.215718239331043,0.9s : 0.3s,-17.089828964006117,0.6087984289557045,2.9493844772254536,0.9984250829095369,0.5129027962684631,-1.735316514968872,-4.041215896606445,0.9089962244033813,0.41144466400146484,-0.03594160079956055,-0.8258375760875156,0.6699392691868209,1.1241306609957704,0.42095986008644104,0.7351158857345581,-0.5314107537269592, 265, 202, 144, 234
1730928570921,9i,8.215718239331043,0.9s : 0.3s,-17.089828964006117,0.622786919333417,2.959690529756676,1.0154576260489523,0.3322972059249878,-1.7657581567764282,-4.108104228973389,0.9280962347984314,0.4085666537284851,-0.05352437496185303,-0.8470284746824744,0.6135900674711943,1.0718451238664848,0.3813062608242035,0.7493159174919128,-0.5414158701896667, 265, 202, 144, 234
1730928570931,9i,8.215718239331043,0.9s : 0.3s,-17.089828964006117,0.6367948962690851,2.9796658375182052,1.0596575795744192,0.44398218393325806,-1.7838835716247559,-4.130277156829834,0.9486929774284363,0.46560537815093994,-0.07789385318756104,-0.8666234338631359,0.5537298307441576,1.0161446705710486,0.3404459059238434,0.7621473073959351,-0.550661563873291, 265, 202, 144, 234
1730928570941,9i,8.215718239331043,0.9s : 0.3s,-17.089828964006117,0.6514934831778366,3.000277105176115,1.1042906287052028,0.6539736390113831,-1.7877342700958252,-4.125051498413086,0.9604053497314453,0.530277669429779,-0.12603551149368286,-0.8824600286033971,0.48974966282409566,0.9560595694811205,0.2988262474536896,0.7723039388656616,-0.5605795383453369, 265, 202, 144, 234
1730928570951,9i,8.215718239331043,0.9s : 0.3s,-17.089828964006117,0.6667873325123886,3.015158585000474,1.0993220280465028,0.8037961721420288,-1.7906655073165894,-4.100531101226807,0.9584563374519348,0.5266369581222534,-0.11191016435623169,-0.8939159180126516,0.4224367425249122,0.8923454216835894,0.2567994296550751,0.7795305252075195,-0.5713021755218506, 265, 202, 144, 234
1730928570961,9i,8.215718239331043,0.9s : 0.3s,-17.089828964006117,0.6824437268472656,3.036057656313571,1.065397049843964,0.7986207008361816,-1.803967833518982,-4.152411460876465,0.9536722898483276,0.4694226384162903,-0.0722663402557373,-0.9021088748772514,0.35273613854568475,0.8262083499947421,0.21417440474033356,0.7846360802650452,-0.5817865133285522, 265, 202, 144, 234
1730928570971,9i,8.215718239331043,0.9s : 0.3s,-17.089828964006117,0.6984080088214664,3.0614392369696053,1.0748849511869343,0.8713074326515198,-1.8486402034759521,-4.178351402282715,0.9727608561515808,0.4566236138343811,-0.02467489242553711,-0.9072895589711363,0.28086982321105164,0.7580106096327643,0.17071761190891266,0.7878373265266418,-0.5917497277259827, 265, 202, 144, 234
1730928570981,9i,8.215718239331043,0.9s : 0.3s,-17.089828964006117,0.714525451262592,3.083503469538343,1.1108382003441908,0.983254075050354,-1.878159999847412,-4.1661858558654785,1.0117995738983154,0.45635247230529785,-0.0443345308303833,-0.9083746739544911,0.2074239055168393,0.6884551513321608,0.12665869295597076,0.7885051369667053,-0.6018446683883667, 265, 202, 144, 234
1730928570991,9i,8.215718239331043,0.9s : 0.3s,-17.089828964006117,0.7309762003167346,3.099684904988376,1.0860691840989167,1.1024125814437866,-1.8858736753463745,-4.139195919036865,0.9913210272789001,0.43903738260269165,-0.06383627653121948,-0.9051007481347743,0.13403229090938992,0.6191952635687991,0.08253157138824463,0.7864874005317688,-0.6120671033859253, 265, 202, 144, 234
1730928571001,9i,8.215718239331043,0.9s : 0.3s,-17.089828964006117,0.7472104613324931,3.112544862690557,1.0241982655649768,1.1905403137207031,-1.8743541240692139,-4.128927230834961,0.9418744444847107,0.3987581729888916,-0.053352952003479004,-0.8977660443810006,0.061781573192132164,0.5510725376578973,0.03848756104707718,0.7819362878799438,-0.622169017791748, 265, 202, 144, 234
1730928571011,9i,8.215718239331043,0.9s : 0.3s,-17.089828964006117,0.763296989151912,3.1264498393189912,1.0128109427278336,1.3228933811187744,-1.8710683584213257,-4.120248794555664,0.9326046109199524,0.3946935534477234,-0.01586329936981201,-0.8863278437331373,-0.008475174730041309,0.484882020414517,-0.005358460824936628,0.7747552394866943,-0.6322385668754578, 265, 202, 144, 234
1730928571021,9i,8.215718239331043,0.9s : 0.3s,-17.089828964006117,0.7796214546269775,3.1410732681078977,1.0419786588389415,1.4311023950576782,-1.8893916606903076,-4.104208469390869,0.9668843746185303,0.3876575231552124,0.02399533987045288,-0.8707673545214287,-0.07614315161272903,0.4213990835228801,-0.04900706186890602,0.7648234963417053,-0.6423731446266174, 265, 202, 144, 234
1730928571031,9i,8.215718239331043,0.9s : 0.3s,-17.089828964006117,0.7961698876377696,3.1585676357530525,1.047420768669679,1.5560266971588135,-1.896375060081482,-4.0984787940979,0.9752625226974487,0.3804551959037781,0.034743666648864746,-0.8515404249740954,-0.1407200068305599,0.3612638107576219,-0.09240418672561646,0.7522961497306824,-0.652312695980072, 265, 202, 144, 234
1730928571041,9i,8.215718239331043,0.9s : 0.3s,-17.089828964006117,0.812932649353491,3.1798364004256374,1.0364160349525722,1.6873283386230469,-1.9252792596817017,-4.086760520935059,0.9608739614486694,0.3859317898750305,0.04400092363357544,-0.8286105252409717,-0.2017189591446228,0.3050383419152642,-0.13541916012763977,0.7369929552078247,-0.6621955633163452, 265, 202, 144, 234
1730928571051,9i,8.215718239331043,0.9s : 0.3s,-17.089828964006117,0.8298020712442827,3.2072070036830507,1.0186958777034927,1.7971158027648926,-2.0069854259490967,-4.074142932891846,0.9502696990966797,0.3654255270957947,0.03453946113586426,-0.8022764130994157,-0.25937025822914006,0.2528302846012425,-0.17826640605926514,0.7189401984214783,-0.6718228459358215, 265, 202, 144, 234
1730928571061,9i,8.215718239331043,0.9s : 0.3s,-17.089828964006117,0.8463546278627888,3.2270239340593663,0.9996330141157126,1.849609375,-2.042287588119507,-4.034201145172119,0.9448550343513489,0.32509636878967285,0.02876591682434082,-0.773247713152473,-0.3135301712812443,0.20505421885052189,-0.22071856260299683,0.6984631419181824,-0.6807588338851929, 265, 202, 144, 234
1730928571071,9i,8.215718239331043,0.9s : 0.3s,-17.089828964006117,0.8621621145673265,3.2274119414465114,0.9580781688134812,1.8309738636016846,-2.066300868988037,-3.952043056488037,0.9175266027450562,0.2542915940284729,0.10674500465393066,-0.7426399140855491,-0.3639735821718605,0.16156013184856102,-0.2622530460357666,0.6762350797653198,-0.6884253621101379, 265, 202, 144, 234
1730928571081,9i,8.215718239331043,0.9s : 0.3s,-17.089828964006117,0.8771872852354361,3.214914450484208,0.9348837244628748,1.8156088590621948,-2.1065940856933594,-3.8551909923553467,0.8988276720046997,0.21264195442199707,0.144567608833313,-0.7110006839198966,-0.410872540759964,0.12241027883754127,-0.30263617634773254,0.6525923013687134,-0.6946470737457275, 265, 202, 144, 234
1730928571091,9i,8.215718239331043,0.9s : 0.3s,-17.089828964006117,0.8919060569265082,3.198781812292328,0.9302193250723702,1.8397167921066284,-2.142503023147583,-3.7776873111724854,0.8940490484237671,0.23384034633636475,0.1063154935836792,-0.6784008122102206,-0.4546486790389025,0.08730790837433439,-0.34190961718559265,0.6275487542152405,-0.699485719203949, 265, 202, 144, 234
1730928571101,9i,8.215718239331043,0.9s : 0.3s,-17.089828964006117,0.9064998029720559,3.173288789212795,0.9262769538903539,1.8066452741622925,-2.1810519695281982,-3.681978225708008,0.8954126834869385,0.22410458326339722,0.07747423648834229,-0.6450942719291096,-0.4955688620295817,0.05587228314881572,-0.37997063994407654,0.601273775100708,-0.7029168009757996, 265, 202, 144, 234
1730928571111,9i,8.215718239331043,0.9s : 0.3s,-17.089828964006117,0.9206789045366276,3.134246991831749,0.9129037256105546,1.7075042724609375,-2.191800117492676,-3.5885961055755615,0.8979899883270264,0.15434539318084717,0.05643308162689209,-0.6118698065583538,-0.5341476049853254,0.02747215226581252,-0.4167429208755493,0.5743990540504456,-0.7045502066612244, 265, 202, 144, 234
1730928571121,9i,8.215718239331043,0.9s : 0.3s,-17.089828964006117,0.9343939833758116,3.0884008620820165,0.9027348395921156,1.6761829853057861,-2.181644916534424,-3.4921822547912598,0.8958040475845337,0.09750324487686157,0.054391324520111084,-0.5789920317826346,-0.5704571426894234,0.0017279316757964822,-0.45200201869010925,0.5471805334091187,-0.7044768929481506, 265, 202, 144, 234
1730928571131,9i,8.215718239331043,0.9s : 0.3s,-17.089828964006117,0.9481640645104338,3.0394744511131577,0.9143324112767549,1.6539008617401123,-2.200000286102295,-3.384852170944214,0.908454418182373,0.08587026596069336,0.057798147201538086,-0.5460416134861492,-0.604571479907216,-0.021161497086777406,-0.4857553243637085,0.5193085074424744,-0.7031076550483704, 265, 202, 144, 234
1730928571141,9i,8.215718239331043,0.9s : 0.3s,-17.089828964006117,0.9617161128323886,2.9852661263273643,0.9594127279850299,1.5740970373153687,-2.224673271179199,-3.2796640396118164,0.953423798084259,0.052248984575271606,0.09341245889663696,-0.5134760327325353,-0.6370742296307529,-0.041636259094904544,-0.5181361436843872,0.4912079870700836,-0.7001782655715942, 265, 202, 144, 234
1730928571151,9i,8.215718239331043,0.9s : 0.3s,-17.089828964006117,0.9748726138839773,2.9203007863711594,0.9943647491919237,1.4163893461227417,-2.226318359375,-3.1788277626037598,0.9852969646453857,0.0009376704692840576,0.13397860527038574,-0.48195155315888955,-0.6683573389141615,-0.06052505201568763,-0.5491091012954712,0.46350932121276855,-0.6954410672187805, 265, 202, 144, 234
1730928571161,9i,8.215718239331043,0.9s : 0.3s,-17.089828964006117,0.9878866576770673,2.85052910091327,0.9845273597554016,1.3420904874801636,-2.228370189666748,-3.0530288219451904,0.9776335954666138,-0.0012696683406829834,0.11629730463027954,-0.4516326049293013,-0.698400963576791,-0.07781951067685947,-0.5785245895385742,0.4364350140094757,-0.6890818476676941, 265, 202, 144, 234
1730928571171,9i,8.215718239331043,0.9s : 0.3s,-17.089828964006117,1.0007545610606448,2.7740710756587985,0.9985579070089824,1.2575446367263794,-2.2059946060180664,-2.925218105316162,0.9922140836715698,-0.032232463359832764,0.10765767097473145,-0.4221801239987628,-0.7272215015336536,-0.09339737858106471,-0.6064260005950928,0.4097501337528229,-0.6814340353012085, 265, 202, 144, 234
1730928571181,9i,8.215718239331043,0.9s : 0.3s,-17.089828964006117,1.013159914341045,2.680170830454058,1.0183835491816147,1.1800686120986938,-2.1366543769836426,-2.7435474395751953,0.9959643483161926,-0.11025440692901611,0.18167012929916382,-0.39412133296932694,-0.7544684338939412,-0.107274457749062,-0.6323930025100708,0.38399702310562134,-0.6727743744850159, 265, 202, 144, 234
1730928571191,9i,8.215718239331043,0.9s : 0.3s,-17.089828964006117,1.0250499434865539,2.5767033830852686,1.021735727199799,1.1306549310684204,-2.0948853492736816,-2.54586124420166,0.981286883354187,-0.14760220050811768,0.2433794140815735,-0.3674223823438935,-0.7800393547330162,-0.11913269035387068,-0.6563661098480225,0.3592110574245453,-0.6634387373924255, 265, 202, 144, 234
1730928571201,9i,8.215718239331043,0.9s : 0.3s,-17.089828964006117,1.0364589691645139,2.4612357863568155,1.0607669172008154,1.075364589691162,-2.023547410964966,-2.335716724395752,0.9958780407905579,-0.19622355699539185,0.3081390857696533,-0.3422878106250445,-0.8041110879195341,-0.12901486972808243,-0.6784340143203735,0.33564305305480957,-0.6535066366195679, 265, 202, 144, 234
1730928571211,9i,8.215718239331043,0.9s : 0.3s,-17.089828964006117,1.047013614071989,2.327552672132602,1.138988582261383,0.977891206741333,-1.9181625843048096,-2.103487491607666,1.005138874053955,-0.3132575750350952,0.43458086252212524,-0.3190230260250927,-0.826385233001216,-0.1371219761074138,-0.6983760595321655,0.3136390447616577,-0.6433517336845398, 265, 202, 144, 234
1730928571221,9i,8.215718239331043,0.9s : 0.3s,-17.089828964006117,1.0564011773274848,2.1856073169775185,1.1963645406968815,0.8913559913635254,-1.825576663017273,-1.884175181388855,0.9832579493522644,-0.4279114603996277,0.5304561257362366,-0.29793052426396344,-0.8471967622767357,-0.1438819193287815,-0.7164121270179749,0.2935425341129303,-0.6329190135002136, 265, 202, 144, 234
1730928571231,9i,8.215718239331043,0.9s : 0.3s,-17.089828964006117,1.0646474461766806,2.0280070414088245,1.2348430420403222,0.8450478911399841,-1.6670058965682983,-1.632155179977417,0.9602621793746948,-0.5061254501342773,0.5887027382850647,-0.27898700830630435,-0.8661552522790685,-0.14909073694647948,-0.7323873043060303,0.2753819525241852,-0.6227146983146667, 265, 202, 144, 234
1730928571241,9i,8.215718239331043,0.9s : 0.3s,-17.089828964006117,1.071718872268433,1.8646540927870812,1.283376756463841,0.8504592776298523,-1.5067484378814697,-1.3914947509765625,0.9332724213600159,-0.5959267616271973,0.6487910151481628,-0.2619840786024916,-0.8829142773951021,-0.1524203455306404,-0.7462300658226013,0.25899744033813477,-0.6132381558418274, 265, 202, 144, 234
1730928571251,9i,8.215718239331043,0.9s : 0.3s,-17.089828964006117,1.077617120345321,1.6828165307097342,1.357907072511968,0.7461720108985901,-1.3072270154953003,-1.1343119144439697,0.9147437214851379,-0.6936759948730469,0.7252373099327087,-0.24719595835524144,-0.8974728773306075,-0.15427847410706708,-0.7579900622367859,0.24468612670898438,-0.6046319603919983, 265, 202, 144, 234
1730928571261,9i,8.215718239331043,0.9s : 0.3s,-17.089828964006117,1.0825262952211088,1.489441932581922,1.429281071915535,0.7117956280708313,-1.0983930826187134,-0.8556914329528809,0.9025371074676514,-0.768541693687439,0.7985078692436218,-0.2348517151256674,-0.9095680481874138,-0.15464707935340333,-0.7675730586051941,0.23269876837730408,-0.5972293615341187, 265, 202, 144, 234
1730928571271,9i,8.215718239331043,0.9s : 0.3s,-17.089828964006117,1.0868933004236292,1.2834050561260724,1.492782428671243,0.6768754720687866,-0.8570518493652344,-0.5630124807357788,0.9234530329704285,-0.8217487335205078,0.8368768692016602,-0.2249784997265552,-0.9190926188652455,-0.15344939123466442,-0.7750154137611389,0.2230854034423828,-0.591256320476532, 265, 202, 144, 234
1730928571281,9i,8.215718239331043,0.9s : 0.3s,-17.089828964006117,1.091022259989943,1.055134624908347,1.549428062711467,0.6149681806564331,-0.5615169405937195,-0.21374419331550598,0.9226785898208618,-0.8594792485237122,0.9003815650939941,-0.2180293211976303,-0.9255019918654965,-0.15055623400598522,-0.7800087928771973,0.21630601584911346,-0.5871950387954712, 265, 202, 144, 234
1730928571291,9i,8.215718239331043,0.9s : 0.3s,-17.089828964006117,1.0949542537919408,0.8228569433752811,1.6181862931845563,0.5817428827285767,-0.26931625604629517,0.12893564999103546,0.9034909009933472,-0.9227629899978638,0.9750587344169617,-0.2141294518532402,-0.9286434098380824,-0.14596009144852307,-0.7825191020965576,0.21249684691429138,-0.5852425694465637, 265, 202, 144, 234
1730928571301,9i,8.215718239331043,0.9s : 0.3s,-17.089828964006117,1.0989250008509823,0.6156349161085547,1.7110173192501985,0.6222594976425171,0.04016708582639694,0.48418986797332764,0.9160769581794739,-0.9871583580970764,1.055415391921997,-0.21297738442626585,-0.9283573546211701,-0.1391333883817299,-0.782547116279602,0.21137094497680664,-0.5856126546859741, 265, 202, 144, 234
1730928571311,9i,8.215718239331043,0.9s : 0.3s,-17.089828964006117,1.1031602578735076,0.47173382164281874,1.8123009487892086,0.5586304664611816,0.3702627122402191,0.8610873222351074,0.9365226626396179,-1.0630887746810913,1.1301337480545044,-0.21474464658813644,-0.9244216041913148,-0.13014339077742063,-0.7799368500709534,0.21309794485569,-0.5884621143341064, 265, 202, 144, 234
1730928571321,9i,8.215718239331043,0.9s : 0.3s,-17.089828964006117,1.1078200503128113,0.4920300150843867,1.925875425251604,0.48512521386146545,0.7335335612297058,1.2657642364501953,0.9516117572784424,-1.1508104801177979,1.216168761253357,-0.2200253225497109,-0.9165566310133674,-0.11931613630490748,-0.7743807435035706,0.21825432777404785,-0.5938849449157715, 265, 202, 144, 234
1730928571331,9i,8.215718239331043,0.9s : 0.3s,-17.089828964006117,1.1133886742943568,0.6927747173929668,2.014785212208753,0.433450847864151,1.1073552370071411,1.6781067848205566,0.9989709854125977,-1.205932855606079,1.2677311897277832,-0.22879784075770102,-0.9044553920800616,-0.10627542508606376,-0.7656029462814331,0.2268068641424179,-0.6020055413246155, 265, 202, 144, 234
1730928571341,9i,8.215718239331043,0.9s : 0.3s,-17.089828964006117,1.1204167590699519,0.9874193506604647,2.1178278524417387,0.36847132444381714,1.5093538761138916,2.1196937561035156,1.0703459978103638,-1.258238673210144,1.3252885341644287,-0.2411130636681146,-0.8878101853646988,-0.09089240043593498,-0.7532529234886169,0.23878364264965057,-0.6128557920455933, 265, 202, 144, 234
1730928571351,9i,8.215718239331043,0.9s : 0.3s,-17.089828964006117,1.1293797452008205,1.327364578950518,2.225441102228001,0.2823968827724457,1.9073203802108765,2.5823452472686768,1.146451473236084,-1.3123575448989868,1.3841801881790161,-0.2571057577129445,-0.866271221328728,-0.07280143702920373,-0.7368748784065247,0.25428250432014465,-0.6263830661773682, 265, 202, 144, 234
1730928571361,9i,8.215718239331043,0.9s : 0.3s,-17.089828964006117,1.1409165413116649,1.7008305037943428,2.3153897964182333,0.19402629137039185,2.355658531188965,3.062619209289551,1.259881854057312,-1.347425103187561,1.3993474245071411,-0.2767880402773471,-0.839409159446182,-0.05170784786836555,-0.71592116355896,0.27326735854148865,-0.6424810886383057, 265, 202, 144, 234
1730928571371,9i,8.215718239331043,0.9s : 0.3s,-17.089828964006117,1.155738146103134,2.1019682434587135,2.419230042137617,0.13429157435894012,2.807090997695923,3.5738425254821777,1.401193618774414,-1.362160086631775,1.426131248474121,-0.3000367937568667,-0.8065613385467372,-0.02697613811301479,-0.689660906791687,0.29555535316467285,-0.6610708832740784, 265, 202, 144, 234
1730928571381,9i,8.215718239331043,0.9s : 0.3s,-17.089828964006117,1.1747582066375162,2.528309464827009,2.5561827420315084,0.09105582535266876,3.2797906398773193,4.112067222595215,1.6101596355438232,-1.3721445798873901,1.4348084926605225,-0.3264275989813814,-0.7671006609137149,0.002376332776255702,-0.6574007272720337,0.320661336183548,-0.681909441947937, 265, 202, 144, 234
1730928571391,9i,8.215718239331043,0.9s : 0.3s,-17.089828964006117,1.198939223353159,2.9827408797098784,2.758926961639799,0.043827056884765625,3.790001392364502,4.691505432128906,1.8768949508666992,-1.402718424797058,1.4564766883850098,-0.3557139560240469,-0.720129810833637,0.03720862571521846,-0.6181973814964294,0.34825971722602844,-0.7046610116958618, 265, 202, 144, 234
1730928571401,9i,8.215718239331043,0.9s : 0.3s,-17.089828964006117,1.2293619709367745,3.4772625324076696,3.056800086917321,-0.03380595147609711,4.359913349151611,5.35549783706665,2.2149386405944824,-1.4728024005889893,1.5062956809997559,-0.3876840085702468,-0.6643457108418135,0.07871728243562685,-0.570788562297821,0.37804532051086426,-0.7288910150527954, 265, 202, 144, 234
1730928571411,9i,8.215718239331043,0.9s : 0.3s,-17.089828964006117,1.2673377015165754,4.027257348654431,3.4171535326077107,-0.1695326268672943,5.01056432723999,6.129110813140869,2.6247353553771973,-1.5300660133361816,1.5641613006591797,-0.4223643143164505,-0.5978956238491039,0.1285423333432937,-0.5134376287460327,0.4099181294441223,-0.7538891434669495, 265, 202, 144, 234
1730928571421,9i,8.215718239331043,0.9s : 0.3s,-17.089828964006117,1.3143747292370929,4.633385700101097,3.883372159597193,-0.48988771438598633,5.677648544311523,6.993624687194824,3.1067614555358887,-1.5998588800430298,1.693831205368042,-0.45972353714364833,-0.5190601700668788,0.1881520081086085,-0.44456052780151367,0.44370037317276,-0.778136134147644, 265, 202, 144, 234
1730928571431,9i,8.215718239331043,0.9s : 0.3s,-17.089828964006117,1.3721506585274736,5.321873109367525,4.501676648793581,-1.0704067945480347,6.491264343261719,7.986151695251465,3.6634249687194824,-1.7538056373596191,1.941282033920288,-0.5005872141089945,-0.42534206900295146,0.259423655560633,-0.36200276017189026,0.4799407720565796,-0.7991312742233276, 265, 202, 144, 234
1730928571441,9i,8.215718239331043,0.9s : 0.3s,-17.089828964006117,1.4420784722475195,6.100174456594871,5.141538699551829,-1.7772539854049683,7.360676288604736,9.091068267822266,4.236799716949463,-1.9146149158477783,2.1952672004699707,-0.5446992963782439,-0.313201156847915,0.34534386945379836,-0.2635175585746765,0.5181609392166138,-0.8136754035949707, 265, 202, 144, 234
1730928571451,9i,8.215718239331043,0.9s : 0.3s,-17.089828964006117,1.5258964911448447,6.970979412045627,5.821869552268716,-2.502986192703247,8.309808731079102,10.280617713928223,4.936039447784424,-2.0121471881866455,2.34114146232605,-0.5890342238269056,-0.1782776363510421,0.45051704775718043,-0.14744988083839417,0.5555582642555237,-0.8182991743087769, 265, 202, 144, 234
1730928571461,9i,8.215718239331043,0.9s : 0.3s,-17.089828964006117,1.6261347891906421,7.868870115109021,6.6468921069976705,-3.3174936771392822,9.077917098999023,11.327964782714844,5.856706619262695,-2.001923084259033,2.4233171939849854,-0.6286756339090301,-0.01786914481459059,0.5783150033009785,-0.014451920054852962,0.5880740880966187,-0.8086778521537781, 265, 202, 144, 234
1730928571471,9i,8.215718239331043,0.9s : 0.3s,-17.089828964006117,1.7470225147966232,8.66245715147056,7.805796815915247,-3.7974905967712402,9.412471771240234,11.977797508239746,7.163401126861572,-1.7999274730682373,2.5251553058624268,-0.6558503975918061,0.16432076534742354,0.7271064431505512,0.12964379787445068,0.6098334193229675,-0.781853973865509, 265, 202, 144, 234
1730928571481,9i,8.215718239331043,0.9s : 0.3s,-17.089828964006117,1.8933988328396985,9.28765112909793,9.269621889534175,-4.390448570251465,9.266769409179688,12.352980613708496,8.802090644836426,-1.299504280090332,2.6000728607177734,-0.6636767144756438,0.35758153804735643,0.8893219201506088,0.27571412920951843,0.6160172820091248,-0.7379053831100464, 265, 202, 144, 234
1730928571491,9i,8.215718239331043,0.9s : 0.3s,-17.089828964006117,2.067244844247881,9.786768973029087,10.604728322098332,-5.796253681182861,8.940147399902344,12.50891399383545,10.289141654968262,-0.3308066725730896,2.546447277069092,-0.6539205739119461,0.5527214175399471,1.0588360708842175,0.4166993498802185,0.6083028316497803,-0.6755214333534241, 265, 202, 144, 234
1730928571501,9i,8.215718239331043,0.9s : 0.3s,-17.089828964006117,2.2661593604836168,10.186268295137175,11.55734546087467,-8.504569053649902,8.013343811035156,12.295966148376465,11.28469467163086,1.0498788356781006,2.263990879058838,-0.6350880618323551,0.7447673474858858,1.2361998504996992,0.5456427931785583,0.5932484269142151,-0.5918869972229004, 265, 202, 144, 234
1730928571511,9i,8.215718239331043,0.9s : 0.3s,-17.089828964006117,2.4874093034928233,10.598112224483186,12.574074783395046,-12.121137619018555,6.000263690948486,12.160792350769043,12.040658950805664,2.9193572998046875,2.1464486122131348,-0.6127867836870996,0.9296321539561322,1.4311525048658502,0.655583918094635,0.575149416923523,-0.4892982840538025, 265, 202, 144, 234
1730928571521,9i,8.215718239331043,0.9s : 0.3s,-17.089828964006117,2.7285178554669898,11.211423381990476,13.867552682742142,-16.041337966918945,3.4043807983398438,12.057998657226562,12.43576431274414,5.619002342224121,2.4673054218292236,-0.583392209504415,1.1018593448604652,1.6536307809680735,0.7445032596588135,0.5508582592010498,-0.37718716263771057, 265, 202, 144, 234
1730928571531,9i,8.215718239331043,0.9s : 0.3s,-17.089828964006117,2.9823827317887437,11.943081509866264,14.997329427808463,-17.855680465698242,1.2942540645599365,12.082978248596191,11.65456771850586,8.91862964630127,3.0901434421539307,-0.5374627125273681,1.2542603649343387,1.89582180437687,0.8163341879844666,0.5119580626487732,-0.2673897445201874, 265, 202, 144, 234
1730928571541,9i,8.215718239331043,0.9s : 0.3s,-17.089828964006117,3.237001646507015,12.285257392280958,15.519817919485307,-16.12868881225586,-1.0943470001220703,12.321181297302246,9.622160911560059,11.77144718170166,3.1163759231567383,-0.46284367572811436,1.3643939735077635,2.119570611259062,0.8757940530776978,0.4464944005012512,-0.1833774596452713, 265, 202, 144, 234
1730928571551,9i,8.215718239331043,0.9s : 0.3s,-17.089828964006117,3.483490595338735,12.205127630539648,15.462106574701385,-13.650065422058105,-2.360027313232422,12.222403526306152,7.316018581390381,13.268630981445312,3.0815651416778564,-0.3675326008107294,1.4211115158816727,2.3054417552907434,0.9227814078330994,0.3593139052391052,-0.13916729390621185, 265, 202, 144, 234
1730928571561,9i,8.215718239331043,0.9s : 0.3s,-17.089828964006117,3.712151899727983,11.873660165685525,14.408436497562134,-12.159570693969727,-2.9499669075012207,11.41193675994873,4.40642786026001,13.298017501831055,3.368852376937866,-0.26815766390824364,1.441258251231663,2.4539772138773337,0.9561817049980164,0.26495540142059326,-0.1245594322681427, 265, 202, 144, 234
1730928571571,9i,8.215718239331043,0.9s : 0.3s,-17.089828964006117,3.91669211480843,11.807205869858654,11.98262590014944,-13.679766654968262,-3.9996769428253174,10.5645751953125,2.2186455726623535,11.276514053344727,3.3913369178771973,-0.1755426638220746,1.4391936911844687,2.599953332083617,0.9761176109313965,0.17464248836040497,-0.12920643389225006, 265, 202, 144, 234
1730928571581,9i,8.215718239331043,0.9s : 0.3s,-17.089828964006117,4.094573087478934,13.022479923674043,7.8845719580552105,-19.252025604248047,-11.58828067779541,11.390299797058105,1.6864005327224731,7.338164329528809,2.3396308422088623,-0.09240231280445832,1.3969728299461666,2.7702867217889025,0.9807289242744446,0.0922708809375763,-0.1722116619348526, 265, 202, 144, 234
1730928571591,9i,8.215718239331043,0.9s : 0.3s,-17.089828964006117,4.244348303724007,11.860791091095104,4.271160167927338,4.027224540710449,-10.504947662353516,18.909469604492188,3.4027340412139893,1.8970333337783813,-1.750849723815918,0.03876666849893367,1.3362957041727728,2.859635138926864,0.9718995690345764,-0.03875695914030075,-0.23218268156051636, 265, 202, 144, 234
1730928571601,9i,8.215718239331043,0.9s : 0.3s,-17.089828964006117,4.393491533344968,12.539659108967664,9.590846246829486,-26.898662567138672,-5.517111301422119,1.4431633949279785,8.283059120178223,-4.574906826019287,1.5638065338134766,0.08869225319237739,1.2781713279238043,3.035759087402362,0.9537264108657837,-0.08857601881027222,-0.28733277320861816, 265, 202, 144, 234
1730928571611,9i,8.215718239331043,0.9s : 0.3s,-17.089828964006117,4.57535780930778,12.973542629212723,13.7637024484947,-16.619857788085938,-10.645368576049805,7.929968357086182,9.377303123474121,0.503309428691864,10.062423706054688,0.044706110209719804,1.1915746095034871,-3.0026151643735584,0.9280248284339905,-0.04469121992588043,-0.3698276877403259, 265, 202, 144, 234
1730928571621,9i,8.215718239331043,0.9s : 0.3s,-17.089828964006117,4.75876183704972,12.444101038776733,8.445013503956558,-14.051629066467285,-9.228148460388184,3.9530749320983887,7.834853172302246,2.9095559120178223,1.2115334272384644,0.06348345596328263,1.0788501081352608,-2.8731740413700586,0.8796396851539612,-0.06344082206487656,-0.4713906943798065, 265, 202, 144, 234
1730928571631,9i,8.215718239331043,0.9s : 0.3s,-17.089828964006117,4.944167557244837,13.013376987196771,12.119555159836208,-21.389434814453125,-9.662322044372559,-2.539454698562622,3.8906655311584473,5.865804672241211,9.866036415100098,-0.044396835577190395,0.9934476430143043,-2.6763784169851026,0.8370870351791382,0.0443822517991066,-0.5452664494514465, 265, 202, 144, 234
1730928571641,9i,8.215718239331043,0.9s : 0.3s,-17.089828964006117,5.136231735810824,11.386885815508018,12.377746946420615,-2.2541260719299316,-16.601789474487305,1.7052428722381592,4.353385925292969,9.966282844543457,5.910148620605469,-0.10342090179885759,0.8544432769063345,-2.6077109118267923,0.7501755952835083,0.10323663800954819,-0.6531299352645874, 265, 202, 144, 234
1730928571651,9i,8.215718239331043,0.9s : 0.3s,-17.089828964006117,5.318463949020875,11.332347523350183,7.547300100452192,-9.333332061767578,-14.175249099731445,0.5367337465286255,5.1718220710754395,5.205286502838135,1.7660655975341797,-0.14077453406886498,0.7085677983472713,-2.545681008985954,0.6443095207214355,0.14031003415584564,-0.7517834305763245, 265, 202, 144, 234
1730928571661,9i,8.215718239331043,0.9s : 0.3s,-17.089828964006117,5.475022259617293,10.714791269573562,7.879588280914113,-4.456587791442871,-14.7431058883667,1.0743845701217651,0.340711772441864,5.036779880523682,6.050014495849609,-0.18708814327295212,0.5695187108154629,-2.5052549813041165,0.5298172831535339,0.18599864840507507,-0.8274648785591125, 265, 202, 144, 234
1730928571671,9i,8.215718239331043,0.9s : 0.3s,-17.089828964006117,5.610444054273255,10.306092261787818,5.0425051077417615,-5.539130210876465,-13.507420539855957,-0.7039005160331726,1.3932228088378906,3.4007740020751953,3.452611207962036,-0.23064491895557002,0.4318831031704933,-2.471365591619616,0.4074973464012146,0.22860541939735413,-0.8841297626495361, 265, 202, 144, 234
1730928571681,9i,8.215718239331043,0.9s : 0.3s,-17.089828964006117,5.730287985687585,9.75365751983113,5.0976437523670945,-2.8018717765808105,-13.172208786010742,-1.0591317415237427,1.2929829359054565,2.5345773696899414,4.2296671867370605,-0.26850303138716813,0.29312906267201605,-2.45839130788844,0.2785959243774414,0.26528841257095337,-0.9230418801307678, 265, 202, 144, 234
1730928571691,9i,8.215718239331043,0.9s : 0.3s,-17.089828964006117,5.835141471035854,9.367247263616628,4.688783900465277,-2.1455047130584717,-12.990937232971191,-1.0061479806900024,0.782156765460968,2.0921082496643066,4.122621536254883,-0.2947715422669928,0.15881820727420762,-2.4559748523630938,0.1513300985097885,0.2905212640762329,-0.9448262453079224, 265, 202, 144, 234
1730928571701,9i,8.215718239331043,0.9s : 0.3s,-17.089828964006117,5.927420207907348,9.011579872646076,4.855209110318252,-1.3299078941345215,-12.509868621826172,-1.5686116218566895,0.40071818232536316,1.5968462228775024,4.5675554275512695,-0.31305806340711406,0.027389290191000084,-2.4680179323320393,0.026054808869957924,0.30796951055526733,-0.9510393738746643, 265, 202, 144, 234
1730928571711,9i,8.215718239331043,0.9s : 0.3s,-17.089828964006117,6.007482037054636,8.700961559390217,4.412856718045232,-0.1919947862625122,-12.227381706237793,-1.722704291343689,0.039826929569244385,1.271185278892517,4.225613117218018,-0.3194562727733048,-0.10170322602474688,-2.4854587011719427,-0.09639131277799606,0.3140503764152527,-0.9445004463195801, 265, 202, 144, 234
1730928571721,9i,8.215718239331043,0.9s : 0.3s,-17.089828964006117,6.077526469294412,8.407932343364946,3.699750746185073,-0.24453096091747284,-11.581633567810059,-2.0033063888549805,0.19580547511577606,0.9521321058273315,3.569770336151123,-0.3187567339238622,-0.22711635669908714,-2.5052903952320262,-0.21382616460323334,0.3133861720561981,-0.9252391457557678, 265, 202, 144, 234
1730928571731,9i,8.215718239331043,0.9s : 0.3s,-17.089828964006117,6.137080076850421,8.123940394314,3.259991489848522,0.2206934541463852,-11.14112377166748,-1.8340083360671997,-0.10215017199516296,0.587526798248291,3.204983949661255,-0.3126693010575267,-0.3464323584440158,-2.52492606225237,-0.3230817914009094,0.30759960412979126,-0.8949863910675049, 265, 202, 144, 234
1730928571741,9i,8.215718239331043,0.9s : 0.3s,-17.089828964006117,6.186368277814569,7.85450845023132,2.2783050727204586,-0.2264840453863144,-10.640559196472168,-1.9962774515151978,0.06289419531822205,0.10972145199775696,2.274792194366455,-0.3053565119788081,-0.461056810372332,-2.543517291600074,-0.42431390285491943,0.3006332218647003,-0.8541529774665833, 265, 202, 144, 234
1730928571751,9i,8.215718239331043,0.9s : 0.3s,-17.089828964006117,6.228190239144207,7.559155795683508,2.002278067201882,-0.4130440652370453,-10.068900108337402,-1.928807258605957,0.27465713024139404,-0.09755310416221619,1.9809503555297852,-0.29766937728020704,-0.56958064052537,-2.564637581293879,-0.515562891960144,0.2932928800582886,-0.8050926327705383, 265, 202, 144, 234
1730928571761,9i,8.215718239331043,0.9s : 0.3s,-17.089828964006117,6.264605670242369,7.24362375436298,1.5125304519436529,-0.29352033138275146,-9.563959121704102,-1.6334689855575562,0.4843832850456238,0.016579866409301758,1.4327757358551025,-0.28570750197563843,-0.6702507818738046,-2.588630199636471,-0.5960013270378113,0.2818363308906555,-0.7518980503082275, 265, 202, 144, 234
1730928571771,9i,8.215718239331043,0.9s : 0.3s,-17.089828964006117,6.297962642330872,6.847196992385887,1.2116748435075921,0.5843656659126282,-8.56989860534668,-2.455193519592285,0.7620943188667297,0.3751027584075928,0.8640984296798706,-0.26562905790327856,-0.7626420324113633,-2.6097409402184,-0.6666048169136047,0.2625163197517395,-0.6976554989814758, 265, 202, 144, 234
1730928571781,9i,8.215718239331043,0.9s : 0.3s,-17.089828964006117,6.330093633692919,6.403747883726397,1.3025293111182443,1.3431261777877808,-7.530388355255127,-3.057784080505371,0.9656645655632019,0.4924420416355133,0.7222017645835876,-0.23769524067398076,-0.8453788337473226,-2.6234861554978557,-0.7271848917007446,0.23546329140663147,-0.6447938680648804, 265, 202, 144, 234
1730928571791,9i,8.215718239331043,0.9s : 0.3s,-17.089828964006117,6.362685911205882,6.092376481199493,1.5120150157594976,1.8158705234527588,-7.384366512298584,-3.0440292358398438,1.2549136877059937,0.4135429263114929,0.7350940704345703,-0.20383245621763643,-0.9212327197008786,-2.6305868683714593,-0.7798618078231812,0.20242393016815186,-0.592317521572113, 265, 202, 144, 234
1730928571801,9i,8.215718239331043,0.9s : 0.3s,-17.089828964006117,6.395521113521052,5.885801485048144,1.6396397602131003,1.8681509494781494,-7.364686012268066,-2.968142032623291,1.5549862384796143,0.3034692406654358,0.42230647802352905,-0.16861154526473845,-0.9956312507515296,-2.6327576362581784,-0.8272029161453247,0.1678137481212616,-0.5362590551376343, 265, 202, 144, 234
1730928571811,9i,8.215718239331043,0.9s : 0.3s,-17.089828964006117,6.429728139856266,5.714722039284971,1.7888328533979516,1.708016037940979,-7.162540435791016,-3.063495635986328,1.6934235095977783,0.1998601108789444,0.5406438112258911,-0.1335135557553191,-1.0680992628506156,-2.632549303378152,-0.8684875965118408,0.13311724364757538,-0.47750288248062134, 265, 202, 144, 234
1730928571821,9i,8.215718239331043,0.9s : 0.3s,-17.089828964006117,6.465678539678035,5.567065410975259,1.888421779083836,1.7332673072814941,-6.962947845458984,-3.1081483364105225,1.754132628440857,0.24361571669578552,0.6555966138839722,-0.09838564709989352,-1.1386655920351718,-2.631488693446433,-0.9036840796470642,0.09822700172662735,-0.41678130626678467, 265, 202, 144, 234
1730928571831,9i,8.215718239331043,0.9s : 0.3s,-17.089828964006117,6.5032287846618475,5.350115708448545,1.9184476528264764,1.923201084136963,-6.1805315017700195,-3.3624637126922607,1.7810574769973755,0.40447548031806946,0.5870904922485352,-0.0617809355143686,-1.2047460639290895,-2.626823581778752,-0.9319667816162109,0.06174164265394211,-0.3572472631931305, 265, 202, 144, 234
1730928571841,9i,8.215718239331043,0.9s : 0.3s,-17.089828964006117,6.542389844552471,5.099327254801224,1.942309459952874,2.694319009780884,-5.021395206451416,-4.1011857986450195,1.6906776428222656,0.5326386094093323,0.7940222024917603,-0.02325648143243324,-1.2623005455072773,-2.6165252949099536,-0.9525336623191833,0.023254385218024254,-0.30354365706443787, 265, 202, 144, 234
1730928571851,9i,8.215718239331043,0.9s : 0.3s,-17.089828964006117,6.582908024252246,4.9388408523554,1.9731157254014795,3.670708179473877,-4.664971828460693,-3.945632219314575,1.7247180938720703,0.6592594385147095,0.695636510848999,0.015720581269410425,-1.314359023692584,-2.594873695193488,-0.9671801924705505,-0.015719933435320854,-0.25360462069511414, 265, 202, 144, 234
1730928571861,9i,8.215718239331043,0.9s : 0.3s,-17.089828964006117,6.626286422457374,4.847880608935491,2.2706360600531257,4.176480770111084,-4.806211471557617,-3.1991991996765137,2.0158958435058594,0.7216704487800598,0.7557405829429626,0.05525558033093062,-1.364444437615217,-2.563834249884964,-0.9772910475730896,-0.05522746592760086,-0.20457784831523895, 265, 202, 144, 234
1730928571871,9i,8.215718239331043,0.9s : 0.3s,-17.089828964006117,6.672097241856449,4.834326954018932,2.343697604493969,4.505453109741211,-4.817556381225586,-2.95647931098938,2.064842939376831,0.557657778263092,0.9583109617233276,0.09310094933376706,-1.4152654073612057,-2.5261439683445515,-0.9836509227752686,-0.09296651184558868,-0.15423378348350525, 265, 202, 144, 234
1730928571881,9i,8.215718239331043,0.9s : 0.3s,-17.089828964006117,6.717297602654277,4.756351166615186,2.0272503034144274,4.381851673126221,-4.531863689422607,-2.9372973442077637,1.7805545330047607,0.3021177351474762,0.9209203124046326,0.12809015098198887,-1.4667235254749367,-2.4852632783187123,-0.9864411950111389,-0.12774017453193665,-0.10303395986557007, 265, 202, 144, 234
1730928571891,9i,8.215718239331043,0.9s : 0.3s,-17.089828964006117,6.759662704885833,4.61768832115613,1.6786591147467382,4.052245616912842,-4.153898239135742,-2.847367286682129,1.306044340133667,0.22466784715652466,1.030373215675354,0.1601816018418473,-1.5157189816407817,-2.4451057589731753,-0.985701322555542,-0.1594974845647812,-0.054344773292541504, 265, 202, 144, 234
1730928571901,9i,8.215718239331043,0.9s : 0.3s,-17.089828964006117,6.7986753171360235,4.495756188974643,1.4743829825379526,4.221804141998291,-3.9163026809692383,-2.6541366577148438,1.0636143684387207,0.23805508017539978,0.992904543876648,0.18883650357273318,-1.562997832252969,-2.4044754097195558,-0.9821934103965759,-0.18771621584892273,-0.007659784983843565, 265, 202, 144, 234
1730928571911,9i,8.215718239331043,0.9s : 0.3s,-17.089828964006117,6.834484718780634,4.386498159157252,1.305796439184694,4.326816558837891,-3.6733055114746094,-2.5346410274505615,1.066314935684204,0.22451141476631165,0.7194938659667969,0.21349518719442917,-1.6095463778463257,-2.359983149291122,-0.9765625596046448,-0.2118770182132721,0.037860799580812454, 265, 202, 144, 234
1730928571921,9i,8.215718239331043,0.9s : 0.3s,-17.089828964006117,6.867784423181939,4.240639215541601,1.2572406170747632,4.100785732269287,-3.3634347915649414,-2.4614920616149902,0.9719364047050476,0.2820585370063782,0.7459467649459839,0.23560222928854152,-1.6544180781476452,-2.3155460233985954,-0.9689761400222778,-0.23342862725257874,0.08121687173843384, 265, 202, 144, 234
1730928571931,9i,8.215718239331043,0.9s : 0.3s,-17.089828964006117,6.89904729704468,4.113720180928996,1.249331045987051,4.351907730102539,-3.050992965698242,-2.192917823791504,0.852306067943573,0.27310729026794434,0.871673583984375,0.25434082769708694,-1.697435878741091,-2.2699700285833857,-0.9600788354873657,-0.2516075074672699,0.12223811447620392, 265, 202, 144, 234
1730928571941,9i,8.215718239331043,0.9s : 0.3s,-17.089828964006117,6.927405796058818,3.9924150039731225,1.0367391132089088,4.46389627456665,-2.7970030307769775,-1.8934890031814575,0.7435054779052734,0.11529362201690674,0.7132565975189209,0.2679164861514475,-1.739159467201397,-2.221486189991247,-0.9506893157958984,-0.2647228240966797,0.16159075498580933, 265, 202, 144, 234
1730928571951,9i,8.215718239331043,0.9s : 0.3s,-17.089828964006117,6.952487582368104,3.8384730455844926,0.8852859592676326,4.2956390380859375,-2.510639190673828,-1.647491693496704,0.559897780418396,0.05183166265487671,0.6837829947471619,0.2770257332799512,-1.7786532535289574,-2.173295820975494,-0.9411693215370178,-0.27349600195884705,0.19849546253681183, 265, 202, 144, 234
1730928571961,9i,8.215718239331043,0.9s : 0.3s,-17.089828964006117,6.975175916467327,3.6565602937237123,0.9227608472398314,4.0809855461120605,-2.26277494430542,-1.370774269104004,0.45849740505218506,0.086819589138031,0.7960716485977173,0.282327646590488,-1.8151218325587575,-2.1273864555157953,-0.9318858981132507,-0.27859190106391907,0.23232486844062805, 265, 202, 144, 234
1730928571971,9i,8.215718239331043,0.9s : 0.3s,-17.089828964006117,6.996245454767867,3.4781665666619452,0.9205314970381172,3.945141315460205,-2.079334259033203,-1.1462364196777344,0.45132577419281006,0.12384390830993652,0.7926827669143677,0.28398712455895203,-1.8490588706206534,-2.0836100359417395,-0.923020601272583,-0.2801852822303772,0.26368311047554016, 265, 202, 144, 234
1730928571981,9i,8.215718239331043,0.9s : 0.3s,-17.089828964006117,7.015703941458994,3.263401576952966,0.8664897216840313,3.597980260848999,-1.7791147232055664,-1.0311784744262695,0.3601471185684204,0.14876773953437805,0.7739293575286865,0.28337372947463496,-1.8798249144059167,-2.042654988469084,-0.9146360754966736,-0.2795964181423187,0.2920037508010864, 265, 202, 144, 234
1730928571991,9i,8.215718239331043,0.9s : 0.3s,-17.089828964006117,7.033926859720939,3.0417605044487757,0.8927459120865376,3.32761812210083,-1.5369460582733154,-0.9367976784706116,0.2754904627799988,0.22426575422286987,0.8190269470214844,0.28179820693656166,-1.9066690875418895,-2.0053672286926405,-0.9068837761878967,-0.2780833840370178,0.31659308075904846, 265, 202, 144, 234
1730928572001,9i,8.215718239331043,0.9s : 0.3s,-17.089828964006117,7.051111976069444,2.85457715487439,0.808948601926821,3.265143632888794,-1.351354956626892,-0.8217954039573669,0.2814789414405823,0.2772113084793091,0.7059187889099121,0.2787628917016274,-1.9309401895751936,-1.9699825965780677,-0.8997192978858948,-0.27516651153564453,0.338804692029953, 265, 202, 144, 234
1730928572011,9i,8.215718239331043,0.9s : 0.3s,-17.089828964006117,7.067433022991084,2.6843863347077996,0.806134552913917,3.1978402137756348,-1.0841509103775024,-0.6868756413459778,0.24049097299575806,0.30587223172187805,0.7060164213180542,0.2741206674532929,-1.9524091336437288,-1.935915721341813,-0.8934143781661987,-0.2707005441188812,0.3585129380226135, 265, 202, 144, 234
1730928572021,9i,8.215718239331043,0.9s : 0.3s,-17.089828964006117,7.082875867265,2.531242482682385,0.8265896816968537,3.132981777191162,-0.8641687631607056,-0.5001923441886902,0.16050225496292114,0.28167247772216797,0.7603618502616882,0.26750200096092863,-1.970842248031526,-1.903123976812388,-0.8882855176925659,-0.2643231153488159,0.3756091892719269, 265, 202, 144, 234
1730928572031,9i,8.215718239331043,0.9s : 0.3s,-17.089828964006117,7.096885850010471,2.3718049669960912,0.7519385080628853,2.9471616744995117,-0.6687684059143066,-0.2800477147102356,0.10338371992111206,0.13221678137779236,0.7329679727554321,0.2589725433081119,-1.9864153002402465,-1.8725283230671752,-0.8843589425086975,-0.2560874819755554,0.3902924060821533, 265, 202, 144, 234
1730928572041,9i,8.215718239331043,0.9s : 0.3s,-17.089828964006117,7.109000393773624,2.195723752466344,0.6782631567374995,2.6684939861297607,-0.519010066986084,-0.04278101027011871,0.031449854373931885,0.0006365329027175903,0.6775333285331726,0.24887947330342278,-1.9991494951767892,-1.8453292716053569,-0.8816236257553101,-0.24631811678409576,0.40257519483566284, 265, 202, 144, 234
1730928572051,9i,8.215718239331043,0.9s : 0.3s,-17.089828964006117,7.119230804160958,2.001636812586331,0.6240820152475363,2.334385633468628,-0.3545157015323639,0.08204827457666397,-0.03479468822479248,-0.014005005359649658,0.6229538917541504,0.23811660276289634,-2.0091370302273055,-1.822097654074444,-0.8799086213111877,-0.2358727902173996,0.41246160864830017, 265, 202, 144, 234
1730928572061,9i,8.215718239331043,0.9s : 0.3s,-17.089828964006117,7.128034719251923,1.8280801116312633,0.6634137141621766,2.174543619155884,-0.14606213569641113,0.1927119642496109,-0.09899741411209106,0.03327508270740509,0.6551412343978882,0.22730486942218198,-2.016261705174055,-1.8018745999664076,-0.8791975975036621,-0.22535254061222076,0.4197944402694702, 265, 202, 144, 234
