timestamp,club,max_speed,tempo,w.rotation,l.speed,t.spped,acc,rotation.x,rotation.y,rotation.z,userAcceleration.x,userAcceleration.y,userAcceleration.z,pitch,roll,yaw,gravity.x,gravity.y,gravity.z,impactIndex,minDownIndex,StartIndex,endIndex
1730927003473,6i,9.042456477175897,1.0s : 0.3s,-19.315655798882432,0.00048066402639334135,0.04690604028851416,0.08472612771024715,0.27986809611320496,-0.005374248139560223,0.04326460883021355,-0.007529616355895996,0.06610456109046936,-0.05245959013700485,-0.2624755961236586,1.4666444125389861,0.23672439660836964,0.960517168045044,0.25947216153144836,-0.10040301084518433, 279, 208, 149, 248
1730927003483,6i,9.042456477175897,1.0s : 0.3s,-19.315655798882432,0.0014294791457211868,0.059562412696970914,0.04429056564298321,0.15823379158973694,-0.01627776212990284,0.030803143978118896,0.002154529094696045,0.024244755506515503,-0.03700275719165802,-0.2618804661489014,1.465930801679729,0.23448169707768546,0.960598886013031,0.2588973641395569,-0.10110458731651306, 279, 208, 149, 248
1730927003493,6i,9.042456477175897,1.0s : 0.3s,-19.315655798882432,0.002284468581957385,0.05505164780728009,0.03151352766739849,0.05056019872426987,-0.021398622542619705,0.02447630651295185,-0.0006098747253417969,-0.014565765857696533,-0.027938663959503174,-0.26150900794669735,1.4654644123541478,0.23347936413551496,0.9606471061706543,0.25853854417800903,-0.10156267881393433, 279, 208, 149, 248
1730927003503,6i,9.042456477175897,1.0s : 0.3s,-19.315655798882432,0.0030123874408779774,0.0392917487272593,0.0369856580730288,-0.012262174859642982,-0.030903443694114685,0.021017659455537796,-0.006176471710205078,-0.031862348318099976,-0.01773642748594284,-0.26128070559555094,1.4651592967878837,0.23332611878934717,0.9606746435165405,0.2583180069923401,-0.10186199843883514, 279, 208, 149, 248
1730927003513,6i,9.042456477175897,1.0s : 0.3s,-19.315655798882432,0.003640817489217631,0.03404396570776117,0.04147357692424257,-0.05585306137800217,-0.04054470732808113,0.015391997992992401,-0.003835439682006836,-0.032182008028030396,-0.02587789297103882,-0.261137755005766,1.464886325486836,0.2337020977319362,0.9606835246086121,0.2581799030303955,-0.10212813317775726, 279, 208, 149, 248
1730927003523,6i,9.042456477175897,1.0s : 0.3s,-19.315655798882432,0.004213723205177226,0.026360218062183215,0.04381029246428148,-0.07530931383371353,-0.05244956910610199,0.01008831150829792,-0.0008141398429870605,-0.02509540319442749,-0.03590124845504761,-0.26108365310179876,1.4646002706209116,0.23439830891498675,0.9606682062149048,0.2581276297569275,-0.10240442305803299, 279, 208, 149, 248
1730927003533,6i,9.042456477175897,1.0s : 0.3s,-19.315655798882432,0.004775103669810508,0.03662642442673914,0.04404270882042418,-0.10276824235916138,-0.06492732465267181,0.009822828695178032,0.002337515354156494,-0.013219296932220459,-0.04194694757461548,-0.26142619664932487,1.4640378386756652,0.2352565912705188,0.9605225920677185,0.25845855474472046,-0.1029352992773056, 279, 208, 149, 248
1730927003543,6i,9.042456477175897,1.0s : 0.3s,-19.315655798882432,0.005334366623293894,0.058954176140269286,0.048281808773232966,-0.15962804853916168,-0.0772005021572113,0.014615984633564949,0.00815880298614502,-0.016589075326919556,-0.044602349400520325,-0.26180280630714353,1.4634236855979499,0.23653485782046862,0.9603623747825623,0.25882235169410706,-0.10351475328207016, 279, 208, 149, 248
1730927003553,6i,9.042456477175897,1.0s : 0.3s,-19.315655798882432,0.00587859092081896,0.0886626917851115,0.04574604162953145,-0.22238372266292572,-0.09117628633975983,0.011544061824679375,0.014131426811218262,-0.024774819612503052,-0.03576606512069702,-0.2621260376510418,1.4628407638254086,0.23844171047242288,0.9602184891700745,0.25913456082344055,-0.10406551510095596, 279, 208, 149, 248
1730927003563,6i,9.042456477175897,1.0s : 0.3s,-19.315655798882432,0.00640148298568386,0.12247386910287203,0.043050304742892294,-0.28362444043159485,-0.10524629056453705,0.005740501917898655,0.014701366424560547,-0.028146803379058838,-0.029068127274513245,-0.2623786382651916,1.4623891503785553,0.24103485618995107,0.9601064324378967,0.2593785226345062,-0.10449208319187164, 279, 208, 149, 248
1730927003573,6i,9.042456477175897,1.0s : 0.3s,-19.315655798882432,0.006921625104863184,0.1522336870603128,0.042891421080171514,-0.3115696609020233,-0.11261104792356491,0.0030733123421669006,0.011814534664154053,-0.024743080139160156,-0.03298288583755493,-0.2626145899194814,1.4619778594986095,0.24407415844588876,0.9600024819374084,0.25960639119148254,-0.10488030314445496, 279, 208, 149, 248
1730927003583,6i,9.042456477175897,1.0s : 0.3s,-19.315655798882432,0.0074833511544106415,0.1763176980102512,0.0435673217570592,-0.3271177113056183,-0.11558207124471664,0.001438930630683899,0.005846261978149414,-0.0048566460609436035,-0.042899250984191895,-0.2628155665376702,1.4616203000356107,0.24735864273518907,0.9599130153656006,0.2598004639148712,-0.10521786659955978, 279, 208, 149, 248
1730927003593,6i,9.042456477175897,1.0s : 0.3s,-19.315655798882432,0.00810670250181488,0.19305244753733367,0.04673935997122894,-0.32568293809890747,-0.11703291535377502,-0.00558552285656333,0.0059092044830322266,0.014855802059173584,-0.04391986131668091,-0.26307040976524226,1.4612135300897526,0.25068975939204186,0.9598042368888855,0.2600465416908264,-0.10560107231140137, 279, 208, 149, 248
1730927003603,6i,9.042456477175897,1.0s : 0.3s,-19.315655798882432,0.008808644096170501,0.20456474777771447,0.05447932779912744,-0.3216567635536194,-0.12432332336902618,-0.01258084736764431,-0.0027546286582946777,0.0308610200881958,-0.044810786843299866,-0.2634035858367739,1.4607010252875146,0.2539692446595886,0.9596638679504395,0.2603682577610016,-0.106083445250988, 279, 208, 149, 248
1730927003613,6i,9.042456477175897,1.0s : 0.3s,-19.315655798882432,0.009598446146189307,0.2086093763283453,0.059830815327825554,-0.31075966358184814,-0.12230907380580902,-0.02895343117415905,-0.0038979649543762207,0.04271531105041504,-0.04171252250671387,-0.2638479595569079,1.4600509544971212,0.25714407834654734,0.9594796299934387,0.26079726219177246,-0.10669446736574173, 279, 208, 149, 248
1730927003623,6i,9.042456477175897,1.0s : 0.3s,-19.315655798882432,0.010426182828097073,0.21898488640131616,0.05716180653377681,-0.2676563858985901,-0.27141332626342773,-0.07271129637956619,0.005179762840270996,0.04679909348487854,-0.03241121768951416,-0.2640117846882224,1.4590349065227317,0.2602178142763593,0.959328293800354,0.26095542311668396,-0.10766453295946121, 279, 208, 149, 248
1730927003633,6i,9.042456477175897,1.0s : 0.3s,-19.315655798882432,0.011289760496581785,0.2655141670649721,0.0606174825704853,-0.266945481300354,-0.5614902973175049,0.13917189836502075,0.01704961061477661,0.05236482620239258,-0.025332093238830566,-0.2647585964889615,1.458583656745462,0.26320549403816224,0.9590856432914734,0.26167628169059753,-0.10807555913925171, 279, 208, 149, 248
1730927003643,6i,9.042456477175897,1.0s : 0.3s,-19.315655798882432,0.012115503269800442,0.2769947368222009,0.06990027413632806,-0.27487850189208984,-0.34518277645111084,0.1478082537651062,-0.044178307056427,0.050619423389434814,-0.019287288188934326,-0.2653022865261104,1.458007700585452,0.26601073333408376,0.958881676197052,0.2622009813785553,-0.10861189663410187, 279, 208, 149, 248
1730927003653,6i,9.042456477175897,1.0s : 0.3s,-19.315655798882432,0.012952923484055627,0.24083124354938948,0.05788106320940127,-0.23560617864131927,-0.0965694934129715,-0.005110049154609442,0.018837392330169678,0.0536055862903595,-0.011036813259124756,-0.26567069312308655,1.4572370913146033,0.26845988327039016,0.9587016701698303,0.2625564932823181,-0.10933983325958252, 279, 208, 149, 248
1730927003663,6i,9.042456477175897,1.0s : 0.3s,-19.315655798882432,0.013782786415429795,0.20926705342375188,0.04676643004737504,-0.1896011382341385,-0.09348582476377487,-0.023327667266130447,0.01274406909942627,0.044318437576293945,-0.00778227299451828,-0.26602874391482734,1.4567438402351103,0.27059534092701837,0.9585540890693665,0.2629019618034363,-0.10980198532342911, 279, 208, 149, 248
1730927003673,6i,9.042456477175897,1.0s : 0.3s,-19.315655798882432,0.014591758310250023,0.18857025046683307,0.040219955467037646,-0.19175682961940765,-0.09540121257305145,-0.021038182079792023,-0.019665181636810303,0.03262209892272949,-0.012912169098854065,-0.2664800746546196,1.456286993760141,0.2724960572257654,0.9583860039710999,0.2633374035358429,-0.1102263405919075, 279, 208, 149, 248
1730927003683,6i,9.042456477175897,1.0s : 0.3s,-19.315655798882432,0.015362302192810354,0.18667718344363038,0.018895462272172665,-0.24363388121128082,-0.09437748789787292,-0.017620813101530075,0.0029761195182800293,0.015938669443130493,-0.00970257818698883,-0.2668970925973323,1.4559181316899972,0.27474883793214194,0.9582361578941345,0.263739675283432,-0.11056724935770035, 279, 208, 149, 248
1730927003693,6i,9.042456477175897,1.0s : 0.3s,-19.315655798882432,0.01603631025487963,0.18489637915525114,0.01858762731051628,-0.2473846822977066,-0.08371081948280334,-0.02083425037562847,-0.013745427131652832,-0.012108206748962402,0.003155067563056946,-0.26738876615196927,1.4556854270250252,0.2772836489633821,0.9580812454223633,0.264213889837265,-0.11077529937028885, 279, 208, 149, 248
1730927003703,6i,9.042456477175897,1.0s : 0.3s,-19.315655798882432,0.016593618841804908,0.17210088628503795,0.02853666052819587,-0.20724870264530182,-0.06672944128513336,-0.01985873468220234,-0.016735613346099854,-0.018537312746047974,0.013806819915771484,-0.26785297444172573,1.455542064491229,0.2796352205734859,0.9579434990882874,0.264661580324173,-0.11089854687452316, 279, 208, 149, 248
1730927003713,6i,9.042456477175897,1.0s : 0.3s,-19.315655798882432,0.017083043012273754,0.14964093328017095,0.0261295217033637,-0.13189803063869476,-0.058936409652233124,-0.029555439949035645,-0.025813281536102295,-0.0011018812656402588,0.003900289535522461,-0.26830161773592426,1.4553563286782405,0.2813464687824429,0.9578048586845398,0.26509419083595276,-0.11106278747320175, 279, 208, 149, 248
1730927003723,6i,9.042456477175897,1.0s : 0.3s,-19.315655798882432,0.017553855822391034,0.12385637446287341,0.03210894217853823,-0.07865184545516968,-0.050635866820812225,-0.02645791321992874,-0.02248561382293701,0.022871464490890503,-0.0015091225504875183,-0.2687111648298717,1.4550805525031014,0.28237769617507924,0.9576662182807922,0.2654890716075897,-0.11131437122821808, 279, 208, 149, 248
1730927003733,6i,9.042456477175897,1.0s : 0.3s,-19.315655798882432,0.017988510434513227,0.09881973675597881,0.023644915623228013,-0.045948367565870285,-0.035673122853040695,-0.027297310531139374,-0.012858390808105469,0.0181768536567688,0.00795900821685791,-0.26905412758919367,1.4548065473972187,0.282993145188551,0.957545280456543,0.2658196985721588,-0.11156623810529709, 279, 208, 149, 248
1730927003743,6i,9.042456477175897,1.0s : 0.3s,-19.315655798882432,0.01834968118098202,0.0722437746445097,0.023808275109512396,-0.0011689108796417713,-0.01837482489645481,-0.028746336698532104,-0.004693388938903809,0.0053789615631103516,0.022712834179401398,-0.26936627877831887,1.454574869451929,0.2832005928238992,0.9574368000030518,0.2661206126213074,-0.11177843809127808, 279, 208, 149, 248
1730927003753,6i,9.042456477175897,1.0s : 0.3s,-19.315655798882432,0.018634903542173765,0.04898076828151958,0.030763026222007547,0.029410168528556824,-0.01357052568346262,-0.027814794331789017,-0.00925135612487793,0.006137639284133911,0.02868981659412384,-0.26963978938497907,1.4543635611259123,0.2829908613721985,0.9573407769203186,0.2663842737674713,-0.11197227984666824, 279, 208, 149, 248
1730927003763,6i,9.042456477175897,1.0s : 0.3s,-19.315655798882432,0.018862080696422368,0.03805273163064663,0.028536482693024487,0.01584509387612343,-0.015475750900804996,-0.029603108763694763,-0.010237812995910645,0.008485734462738037,0.025248967111110687,-0.2700215869814276,1.453992508537194,0.28267440531352944,0.9571980237960815,0.2667522430419922,-0.11231563240289688, 279, 208, 149, 248
1730927003773,6i,9.042456477175897,1.0s : 0.3s,-19.315655798882432,0.019022935498132075,0.07441925832110632,0.025130760190350987,0.02991364151239395,-0.09824852645397186,-0.2576242983341217,0.0015081167221069336,-0.003880620002746582,0.02478349208831787,-0.27001278144332364,1.4537298328200245,0.28265583500564984,0.9571710824966431,0.2667437493801117,-0.11256735771894455, 279, 208, 149, 248
1730927003783,6i,9.042456477175897,1.0s : 0.3s,-19.315655798882432,0.01895874445156811,0.15531951780917097,0.04635474750834224,0.01497969962656498,-0.11152571439743042,-0.5112403631210327,0.01731318235397339,-0.024068176746368408,0.035633400082588196,-0.27037713440492067,1.4544822955934442,0.28308875683934104,0.9571587443351746,0.2670948803424835,-0.1118357852101326, 279, 208, 149, 248
1730927003793,6i,9.042456477175897,1.0s : 0.3s,-19.315655798882432,0.018552425092085326,0.13614584902620278,0.08127712322234498,0.0011886523570865393,-0.01361535582691431,-0.13822638988494873,-0.06187474727630615,-0.03763660788536072,0.036891356110572815,-0.27052311870078627,1.4546458708686973,0.28347989155145825,0.9571382999420166,0.26723557710647583,-0.11167469620704651, 279, 208, 149, 248
1730927003803,6i,9.042456477175897,1.0s : 0.3s,-19.315655798882432,0.01812821624434931,0.08880657938792161,0.0401282421374493,0.05013968423008919,0.04539736360311508,0.02429301291704178,-0.025744140148162842,-0.019537627696990967,0.023786470293998718,-0.2711227819983229,1.4548630604861639,0.28325027669738484,0.9570033550262451,0.26781338453292847,-0.11144828051328659, 279, 208, 149, 248
1730927003813,6i,9.042456477175897,1.0s : 0.3s,-19.315655798882432,0.017749236201772555,0.0785274166507235,0.016634942629696822,0.14518630504608154,0.05766574665904045,-0.005669145844876766,-0.016090095043182373,-0.0031432509422302246,0.0028195977210998535,-0.2711477545331894,1.4551027878337954,0.28225788330111373,0.9570233225822449,0.26783743500709534,-0.11121807992458344, 279, 208, 149, 248
1730927003823,6i,9.042456477175897,1.0s : 0.3s,-19.315655798882432,0.017460624358361133,0.07613146755335927,0.03135054912483086,0.20363016426563263,0.06153478845953941,0.004331822507083416,-0.025136172771453857,0.017057448625564575,-0.00775068998336792,-0.2710231207506601,1.4554692936651727,0.280522700851366,0.9570972323417664,0.2677173614501953,-0.11087115854024887, 279, 208, 149, 248
1730927003833,6i,9.042456477175897,1.0s : 0.3s,-19.315655798882432,0.017251549258498516,0.08906431067285482,0.0191733328180804,0.22393850982189178,0.044082075357437134,0.04682179540395737,-0.004316926002502441,0.017080068588256836,-0.007566511631011963,-0.27073042350601384,1.455812345697346,0.27842946462491047,0.9572129845619202,0.26743531227111816,-0.11055180430412292, 279, 208, 149, 248
1730927003843,6i,9.042456477175897,1.0s : 0.3s,-19.315655798882432,0.01706608659060009,0.10426209690717794,0.011960178089526449,0.22380481660366058,-0.01073803286999464,0.12887725234031677,-0.010690510272979736,-0.0013389885425567627,0.005192875862121582,-0.2704471278973753,1.4560573147878288,0.2761992912461272,0.9573152661323547,0.26716235280036926,-0.11032598465681076, 279, 208, 149, 248
1730927003853,6i,9.042456477175897,1.0s : 0.3s,-19.315655798882432,0.016879616752042498,0.13074305552673549,0.015492217274614995,0.24764582514762878,-0.05436358228325844,0.20017196238040924,-0.0056937336921691895,-0.007388412952423096,0.01236937940120697,-0.26999520582781805,1.4562897566439477,0.2738664051358549,0.9574608206748962,0.2667268216609955,-0.11011724919080734, 279, 208, 149, 248
1730927003863,6i,9.042456477175897,1.0s : 0.3s,-19.315655798882432,0.01670936985136125,0.17434530666798367,0.01341624849966984,0.3092955946922302,-0.0932404100894928,0.28565889596939087,-0.007084667682647705,0.0026709437370300293,0.011075615882873535,-0.2692313089086869,1.4566930980095192,0.27112528207152187,0.9577071666717529,0.2659905254840851,-0.10975421220064163, 279, 208, 149, 248
1730927003873,6i,9.042456477175897,1.0s : 0.3s,-19.315655798882432,0.016588690240086097,0.2291432075269172,0.022439806660076965,0.3787745535373688,-0.13666492700576782,0.3608871400356293,-0.014081001281738281,0.016911804676055908,0.004388757050037384,-0.2683245501821475,1.4569483669777554,0.26766022675274276,0.957974374294281,0.26511630415916443,-0.10953708738088608, 279, 208, 149, 248
1730927003883,6i,9.042456477175897,1.0s : 0.3s,-19.315655798882432,0.01655431580934493,0.2852150664320793,0.03396365735058598,0.41989803314208984,-0.17163783311843872,0.43019378185272217,-0.01533055305480957,0.028730064630508423,-0.009648188948631287,-0.267382746450164,1.4570404040886955,0.26356657093114116,0.958232045173645,0.2642080783843994,-0.1094772070646286, 279, 208, 149, 248
1730927003893,6i,9.042456477175897,1.0s : 0.3s,-19.315655798882432,0.01661348884019164,0.33565548475104157,0.03852257548644669,0.4174107611179352,-0.2242535948753357,0.4908634424209595,-0.01705843210220337,0.03185737133026123,-0.013345658779144287,-0.2665451487711034,1.4568805621918308,0.2592297593090262,0.9584341049194336,0.2634001672267914,-0.10965549200773239, 279, 208, 149, 248
1730927003903,6i,9.042456477175897,1.0s : 0.3s,-19.315655798882432,0.01673799885694519,0.38011664328061373,0.03216687095359852,0.398669570684433,-0.27394604682922363,0.5459253787994385,-0.02075803279876709,0.020824819803237915,-0.013043716549873352,-0.26569161017024884,1.4567195404436157,0.2549825231177207,0.9586395621299744,0.2625766694545746,-0.10983537882566452, 279, 208, 149, 248
1730927003913,6i,9.042456477175897,1.0s : 0.3s,-19.315655798882432,0.01689341580660423,0.4225146003235706,0.022990653414917354,0.3985908627510071,-0.3158659338951111,0.5965559482574463,-0.017924070358276367,0.002313375473022461,-0.0142107754945755,-0.2648878084868977,1.4566568283651706,0.2508991200815971,0.9588421583175659,0.26180100440979004,-0.10991951078176498, 279, 208, 149, 248
1730927003923,6i,9.042456477175897,1.0s : 0.3s,-19.315655798882432,0.017071279652460743,0.46378476189234097,0.025060934096336314,0.40735986828804016,-0.35652920603752136,0.6417244672775269,-0.02028590440750122,-0.0022655129432678223,-0.014539599418640137,-0.2641302646942055,1.4566413904711755,0.24674321374029964,0.9590370655059814,0.26106980443000793,-0.10995686054229736, 279, 208, 149, 248
1730927003933,6i,9.042456477175897,1.0s : 0.3s,-19.315655798882432,0.017302437761377295,0.4964471273183204,0.03513223719000679,0.4119848608970642,-0.38969555497169495,0.6419731974601746,-0.023492097854614258,0.00772896409034729,-0.024953126907348633,-0.2634664716569248,1.4566214860268485,0.24252743048142522,0.9592068195343018,0.2604289650917053,-0.10999566316604614, 279, 208, 149, 248
1730927003943,6i,9.042456477175897,1.0s : 0.3s,-19.315655798882432,0.017637357259359526,0.511246549218728,0.04273948659047777,0.3976978063583374,-0.37088724970817566,0.6063441038131714,-0.014124810695648193,0.020670443773269653,-0.034639373421669006,-0.2627058742005436,1.45651456142748,0.23836679473674172,0.9593916535377502,0.25969454646110535,-0.11012078821659088, 279, 208, 149, 248
1730927003953,6i,9.042456477175897,1.0s : 0.3s,-19.315655798882432,0.018009342106024978,0.5110637510354474,0.031998559151278194,0.3598124384880066,-0.3540494740009308,0.5687181353569031,-0.002348661422729492,0.015913188457489014,-0.027661561965942383,-0.2618964628872127,1.4564552493942933,0.23454546946721883,0.9595934748649597,0.2589128017425537,-0.1102016270160675, 279, 208, 149, 248
1730927003963,6i,9.042456477175897,1.0s : 0.3s,-19.315655798882432,0.018389900601729292,0.4979616333649763,0.02255425226310118,0.3251221179962158,-0.33547472953796387,0.5183191299438477,-0.010289192199707031,0.004282087087631226,-0.019608430564403534,-0.2611580846447735,1.4564498144547322,0.2311503248688022,0.9597825407981873,0.258199542760849,-0.11022862046957016, 279, 208, 149, 248
1730927003973,6i,9.042456477175897,1.0s : 0.3s,-19.315655798882432,0.01878104972345814,0.4793825497351764,0.027407766519979667,0.317110538482666,-0.3092743158340454,0.47584113478660583,-0.018681228160858154,0.0015355348587036133,-0.01999598741531372,-0.2604632441957588,1.456493308644894,0.22805137005883477,0.9599654078483582,0.2575281858444214,-0.11020731925964355, 279, 208, 149, 248
1730927003983,6i,9.042456477175897,1.0s : 0.3s,-19.315655798882432,0.01919057213203519,0.4629952677151211,0.02671656964017167,0.36801978945732117,-0.28353404998779297,0.4334166944026947,-0.016023337841033936,0.009505391120910645,-0.01914876699447632,-0.2597635333610287,1.4565064158067196,0.22469904807887617,0.9601456522941589,0.25685203075408936,-0.11021526157855988, 279, 208, 149, 248
1730927003993,6i,9.042456477175897,1.0s : 0.3s,-19.315655798882432,0.019660396535481635,0.4515651588111302,0.0419808336385385,0.43677207827568054,-0.2649416923522949,0.38991567492485046,-0.010857045650482178,0.029206514358520508,-0.028133511543273926,-0.25901945141138416,1.4563673736087328,0.2207705244338618,0.9603199362754822,0.2561328411102295,-0.11037055402994156, 279, 208, 149, 248
1730927004003,6i,9.042456477175897,1.0s : 0.3s,-19.315655798882432,0.020415382249805818,0.4443664911741355,0.06503203015509221,0.47457003593444824,-0.25645896792411804,0.3444933295249939,-0.010261595249176025,0.04516059160232544,-0.04565507173538208,-0.2582528946472641,1.4559823208869198,0.2162724936210439,0.9604721665382385,0.25539177656173706,-0.11076278239488602, 279, 208, 149, 248
1730927004013,6i,9.042456477175897,1.0s : 0.3s,-19.315655798882432,0.021344760116933228,0.43277068787948664,0.06867633730013979,0.4842016398906708,-0.23947592079639435,0.30154672265052795,-0.005575001239776611,0.04197210073471069,-0.05407126247882843,-0.25754216883412434,1.4554410387186751,0.21156940870081795,0.9605921506881714,0.2547045648097992,-0.11130352318286896, 279, 208, 149, 248
1730927004023,6i,9.042456477175897,1.0s : 0.3s,-19.315655798882432,0.02227098314659751,0.4220445972395449,0.04283486027806966,0.4823041558265686,-0.23216021060943604,0.27468207478523254,-0.003094017505645752,0.022339999675750732,-0.036416709423065186,-0.2568102023636306,1.454796110351223,0.2068617631027016,0.9607051014900208,0.25399667024612427,-0.11194455623626709, 279, 208, 149, 248
1730927004033,6i,9.042456477175897,1.0s : 0.3s,-19.315655798882432,0.023161614314396402,0.4108762782290688,0.03421473579916224,0.48332881927490234,-0.21296055614948273,0.24471142888069153,-0.0003345608711242676,0.003700047731399536,-0.034012436866760254,-0.25598342487243503,1.4540501312509475,0.20221210434904136,0.960829496383667,0.25319692492485046,-0.11268561333417892, 279, 208, 149, 248
1730927004043,6i,9.042456477175897,1.0s : 0.3s,-19.315655798882432,0.024001476963376334,0.4058325285486294,0.03518215499893698,0.5069606304168701,-0.19452108442783356,0.21376949548721313,0.006863594055175781,-0.0057830810546875,-0.034018099308013916,-0.2551236923466638,1.4532567134652454,0.19744668622948447,0.9609555602073669,0.2523651123046875,-0.11347339302301407, 279, 208, 149, 248
1730927004053,6i,9.042456477175897,1.0s : 0.3s,-19.315655798882432,0.024826609484979188,0.399515033565248,0.03838052884915782,0.5090722441673279,-0.1816539317369461,0.18992795050144196,-0.0005714893341064453,0.00683632493019104,-0.03776245564222336,-0.2542087522087885,1.4523543692911722,0.1925331154374615,0.9610816240310669,0.2514796555042267,-0.11436769366264343, 279, 208, 149, 248
1730927004063,6i,9.042456477175897,1.0s : 0.3s,-19.315655798882432,0.025668356498400775,0.3865470738220732,0.052844547977290685,0.48881518840789795,-0.16361075639724731,0.16100867092609406,0.0013804435729980469,0.013950377702713013,-0.05095122754573822,-0.25329091068674997,1.4514356390446153,0.18773968847992684,0.9612048864364624,0.2505912184715271,-0.11527805030345917, 279, 208, 149, 248
1730927004073,6i,9.042456477175897,1.0s : 0.3s,-19.315655798882432,0.026476391528672046,0.3746678954643719,0.03563130549502489,0.4824618101119995,-0.14894743263721466,0.14054618775844574,0.0029146671295166016,-0.0032748132944107056,-0.03536057472229004,-0.2523432934048186,1.4505166698657133,0.18313257121704987,0.9613339304924011,0.2496737241744995,-0.11618977040052414, 279, 208, 149, 248
1730927004083,6i,9.042456477175897,1.0s : 0.3s,-19.315655798882432,0.027235149777072143,0.37326616268645474,0.03402122511188986,0.5176549553871155,-0.13602817058563232,0.11798734217882156,-0.001807868480682373,-0.014804184436798096,-0.03057795763015747,-0.25134422052155275,1.4495093569130382,0.1783975505571906,0.9614635705947876,0.2487061619758606,-0.11718820035457611, 279, 208, 149, 248
1730927004093,6i,9.042456477175897,1.0s : 0.3s,-19.315655798882432,0.027985611251721186,0.37562083989743966,0.03897337088950806,0.5646693706512451,-0.12080385535955429,0.10477693378925323,-0.0009552836418151855,0.001138150691986084,-0.0389450341463089,-0.2502290680599073,1.4483596168204045,0.17321726969085455,0.9616029858589172,0.2476259022951126,-0.11832736432552338, 279, 208, 149, 248
1730927004103,6i,9.042456477175897,1.0s : 0.3s,-19.315655798882432,0.02875800747537985,0.3798177905881203,0.04791310853099042,0.5781084895133972,-0.1154748722910881,0.08415208756923676,-0.002312004566192627,0.012666508555412292,-0.04615062475204468,-0.2490397914732522,1.4470520432214018,0.1677165590918939,0.9617388844490051,0.246473491191864,-0.11962088197469711, 279, 208, 149, 248
1730927004113,6i,9.042456477175897,1.0s : 0.3s,-19.315655798882432,0.029543217371650082,0.3786433801093184,0.048211500233802364,0.5374592542648315,-0.1202542707324028,0.07232525199651718,-0.0042961835861206055,0.003810778260231018,-0.04786825180053711,-0.24781774316639726,1.4455926488802255,0.1623342780617327,0.9618614912033081,0.24528895318508148,-0.12106183916330338, 279, 208, 149, 248
1730927004123,6i,9.042456477175897,1.0s : 0.3s,-19.315655798882432,0.030311859931372507,0.3598446511633355,0.0467070968464703,0.4581306278705597,-0.10483083873987198,0.06481114774942398,-0.0002868771553039551,-0.012398883700370789,-0.045030415058135986,-0.24661094067886838,1.4442197099480762,0.15760676558930156,0.9619872570037842,0.2441188395023346,-0.1224195808172226, 279, 208, 149, 248
1730927004133,6i,9.042456477175897,1.0s : 0.3s,-19.315655798882432,0.031017265530327166,0.33931381607478306,0.04204508448681189,0.42388731241226196,-0.0909205749630928,0.05302475765347481,-0.0006299614906311035,-0.030468136072158813,-0.028966963291168213,-0.24544964053252072,1.4429923704662844,0.15349410494437102,0.9621167182922363,0.24299252033233643,-0.12363620847463608, 279, 208, 149, 248
1730927004143,6i,9.042456477175897,1.0s : 0.3s,-19.315655798882432,0.03166737407103525,0.32425886408645643,0.041492775232063614,0.4228649139404297,-0.08456946909427643,0.041278887540102005,-0.013437867164611816,-0.03108750283718109,-0.02397167682647705,-0.24429507359495498,1.4417867719984467,0.14953558336017544,0.9622445702552795,0.2418723851442337,-0.12483205646276474, 279, 208, 149, 248
1730927004153,6i,9.042456477175897,1.0s : 0.3s,-19.315655798882432,0.032302074692716655,0.3233684668784995,0.04173738726124659,0.46608030796051025,-0.07695122808218002,0.032517820596694946,-0.014212071895599365,-0.019467338919639587,-0.034074172377586365,-0.2431073162300688,1.4404628614909019,0.1453366609791756,0.9623625874519348,0.240719735622406,-0.12614311277866364, 279, 208, 149, 248
1730927004163,6i,9.042456477175897,1.0s : 0.3s,-19.315655798882432,0.03297502168241069,0.3299051055384544,0.04913961609566055,0.5168811678886414,-0.060184236615896225,0.020350102335214615,-0.007290184497833252,0.005334332585334778,-0.04830217361450195,-0.24193784525460055,1.4390335854685932,0.1406004295271553,0.9624598622322083,0.23958447575569153,-0.12755538523197174, 279, 208, 149, 248
1730927004173,6i,9.042456477175897,1.0s : 0.3s,-19.315655798882432,0.03369808688531281,0.3323711489290999,0.0500693617707873,0.5139712691307068,-0.05490162968635559,0.026263419538736343,-0.009900271892547607,0.02684682607650757,-0.04108738899230957,-0.2406831900698422,1.437555552930972,0.1355376384763706,0.9625674486160278,0.23836618661880493,-0.12901762127876282, 279, 208, 149, 248
1730927004183,6i,9.042456477175897,1.0s : 0.3s,-19.315655798882432,0.03445003988471255,0.3313476098579308,0.04369813185951026,0.4767969846725464,-0.06033021956682205,0.02738487720489502,-0.007838904857635498,0.02778276801109314,-0.0328054279088974,-0.23940536552432698,1.436047951797273,0.13070711529190984,0.962672770023346,0.2371249943971634,-0.13050943613052368, 279, 208, 149, 248
1730927004193,6i,9.042456477175897,1.0s : 0.3s,-19.315655798882432,0.035181188171843986,0.3127671503284581,0.02346688401507166,0.3951430022716522,-0.06435146182775497,0.03185722231864929,-0.002558112144470215,0.015724852681159973,-0.01723019778728485,-0.23818407164488598,1.434555224291732,0.12648779384806016,0.9627630710601807,0.23593835532665253,-0.13198554515838623, 279, 208, 149, 248
1730927004203,6i,9.042456477175897,1.0s : 0.3s,-19.315655798882432,0.03576621498815688,0.2899162373933358,0.004653486846151942,0.3460891842842102,-0.05831433832645416,0.033558182418346405,-0.0032036900520324707,-0.0025814175605773926,-0.0021743029356002808,-0.23704925070124058,1.4331714502808752,0.12294361183763554,0.9628440737724304,0.2348354160785675,-0.1333543062210083, 279, 208, 149, 248
1730927004213,6i,9.042456477175897,1.0s : 0.3s,-19.315655798882432,0.03624995032339932,0.27461903852318265,0.002557348677303754,0.3513971269130707,-0.04749835282564163,0.03383428975939751,-0.0001965165138244629,-0.0007096230983734131,0.002449050545692444,-0.23598715032662154,1.431891841376484,0.11956245260446692,0.9629191756248474,0.2338028848171234,-0.13462072610855103, 279, 208, 149, 248
1730927004223,6i,9.042456477175897,1.0s : 0.3s,-19.315655798882432,0.03675479181875485,0.26570472488609465,0.032362760698630616,0.36056503653526306,-0.040656425058841705,0.04214920848608017,-0.014622926712036133,0.022083431482315063,-0.01859678328037262,-0.23495517880290429,1.4306313516828444,0.11605096187975354,0.9629872441291809,0.23279939591884613,-0.13586801290512085, 279, 208, 149, 248
1730927004233,6i,9.042456477175897,1.0s : 0.3s,-19.315655798882432,0.037343941824994155,0.26353741479802706,0.04902112197068293,0.36629030108451843,-0.03681286424398422,0.05727609619498253,-0.017326951026916504,0.034199655055999756,-0.0305488258600235,-0.2339190292930678,1.4293559464656924,0.11241835886201933,0.9630515575408936,0.23179158568382263,-0.1371300369501114, 279, 208, 149, 248
1730927004243,6i,9.042456477175897,1.0s : 0.3s,-19.315655798882432,0.037929097538954404,0.26198582110111274,0.029188589909986733,0.3666099011898041,-0.04130588471889496,0.045772574841976166,-0.0036449432373046875,0.026142388582229614,-0.012460485100746155,-0.232884474774546,1.4281167085902424,0.10877970793298503,0.9631176590919495,0.2307850867509842,-0.13835740089416504, 279, 208, 149, 248
1730927004253,6i,9.042456477175897,1.0s : 0.3s,-19.315655798882432,0.03850159778280808,0.26007855102530064,0.024947707840333313,0.36377671360969543,-0.03864818066358566,0.03876130282878876,-0.007661700248718262,0.022083133459091187,-0.00871904194355011,-0.2319597863568872,1.4268460154847482,0.10512665082372585,0.9631518721580505,0.2298852652311325,-0.13961167633533478, 279, 208, 149, 248
1730927004263,6i,9.042456477175897,1.0s : 0.3s,-19.315655798882432,0.039078549463602986,0.25665297744364973,0.03162867079111321,0.35645434260368347,-0.035177282989025116,0.03096117079257965,-0.01168745756149292,0.02611429989337921,-0.01348404586315155,-0.23109461224136907,1.4256444162444961,0.10152277514063372,0.9631797075271606,0.2290431708097458,-0.14079758524894714, 279, 208, 149, 248
1730927004273,6i,9.042456477175897,1.0s : 0.3s,-19.315655798882432,0.03965764062259653,0.2505488641882713,0.029359434288016698,0.3439256250858307,-0.03805709257721901,0.02538261190056801,-0.010704278945922852,0.023046031594276428,-0.01470629870891571,-0.23031213479967033,1.4244531817358168,0.09796566596360642,0.9631882905960083,0.2282814234495163,-0.14197096228599548, 279, 208, 149, 248
1730927004283,6i,9.042456477175897,1.0s : 0.3s,-19.315655798882432,0.04024304499343428,0.23712491641191616,0.03161542393622609,0.30301201343536377,-0.039003316313028336,0.02682950720191002,-0.013316810131072998,0.02415613830089569,-0.015449225902557373,-0.22957954004999073,1.4233171414909984,0.09470457177552537,0.9631916284561157,0.227568119764328,-0.1430896371603012, 279, 208, 149, 248
1730927004293,6i,9.042456477175897,1.0s : 0.3s,-19.315655798882432,0.04080015683148812,0.22001598335093067,0.016745002411649945,0.2647722065448761,-0.03493897616863251,0.026406532153487206,-0.007719814777374268,0.01399049162864685,-0.005006566643714905,-0.22890914395640163,1.4222890360959577,0.09185941933961358,0.963194727897644,0.22691525518894196,-0.14410236477851868, 279, 208, 149, 248
1730927004303,6i,9.042456477175897,1.0s : 0.3s,-19.315655798882432,0.04129215297298844,0.2068479015436137,0.009734397086048854,0.2590450942516327,-0.03115994855761528,0.028506966307759285,-0.002804994583129883,0.003641188144683838,0.008580923080444336,-0.22825512474228546,1.4213697707130384,0.08926315039894539,0.9632083773612976,0.22627824544906616,-0.14500978589057922, 279, 208, 149, 248
1730927004313,6i,9.042456477175897,1.0s : 0.3s,-19.315655798882432,0.041737710298076325,0.19876308537038487,0.01488136062586684,0.26418155431747437,-0.035994477570056915,0.02796994149684906,-0.0018385052680969238,0.012779265642166138,0.007400348782539368,-0.22759917990341896,1.4204322793442092,0.08664885110860969,0.9632184505462646,0.22563926875591278,-0.14593490958213806, 279, 208, 149, 248
1730927004323,6i,9.042456477175897,1.0s : 0.3s,-19.315655798882432,0.04216590458888398,0.19196831890526764,0.02547524574291133,0.2547496557235718,-0.03624561429023743,0.029377952218055725,0.0019853711128234863,0.0253894180059433,0.0006510764360427856,-0.22693483237508286,1.4194627061060003,0.08406214213985666,0.9632245302200317,0.22499200701713562,-0.14689132571220398, 279, 208, 149, 248
1730927004333,6i,9.042456477175897,1.0s : 0.3s,-19.315655798882432,0.042560816857977135,0.18696428922595815,0.02489388205378607,0.24984267354011536,-0.03634996339678764,0.020750142633914948,0.005889296531677246,0.022928312420845032,0.007701560854911804,-0.226297397236151,1.4185178888358532,0.08154741187409106,0.9632269740104675,0.22437086701393127,-0.14782308042049408, 279, 208, 149, 248
1730927004343,6i,9.042456477175897,1.0s : 0.3s,-19.315655798882432,0.04291869932583933,0.18302303481211565,0.014955451120591282,0.2453126460313797,-0.03573903441429138,0.021886780858039856,0.00016415119171142578,0.012969955801963806,0.0074443817138671875,-0.22572799255565731,1.4175852891311722,0.07906218779810106,0.9632147550582886,0.2238159477710724,-0.14874078333377838, 279, 208, 149, 248
1730927004353,6i,9.042456477175897,1.0s : 0.3s,-19.315655798882432,0.043261215751942556,0.1781204497308293,0.013223011181602918,0.23684817552566528,-0.03207598626613617,0.02429244853556156,-0.004317760467529297,0.012442439794540405,-0.0011792629957199097,-0.2251419947387452,1.4166898071417475,0.07664461763681393,0.9632105231285095,0.223244771361351,-0.14962336421012878, 279, 208, 149, 248
1730927004363,6i,9.042456477175897,1.0s : 0.3s,-19.315655798882432,0.04357864277907138,0.16745083047709453,0.007242557740232587,0.20827379822731018,-0.036146361380815506,0.022022368386387825,0.0005496740341186523,0.00722116231918335,-8.553266525268555e-05,-0.2245657135118269,1.4158441467188505,0.07441011139552299,0.9632106423377991,0.22268299758434296,-0.1504576951265335, 279, 208, 149, 248
1730927004373,6i,9.042456477175897,1.0s : 0.3s,-19.315655798882432,0.04385841784521867,0.15232694656722276,0.011060200455338657,0.16943039000034332,-0.03890189155936241,0.01868479698896408,-0.0025791525840759277,-0.010481327772140503,-0.0024120062589645386,-0.22408282458303114,1.4150449942284236,0.0725381406483005,0.9631960391998291,0.22221221029758453,-0.15124402940273285, 279, 208, 149, 248
1730927004383,6i,9.042456477175897,1.0s : 0.3s,-19.315655798882432,0.044085115726492936,0.13812981455723172,0.026701636354251268,0.15123620629310608,-0.038212135434150696,0.01681765355169773,-0.006919264793395996,-0.02578406035900116,-0.0005323439836502075,-0.2236741855102496,1.414296325471198,0.07097784768226241,0.963172435760498,0.22181376814842224,-0.15197929739952087, 279, 208, 149, 248
1730927004393,6i,9.042456477175897,1.0s : 0.3s,-19.315655798882432,0.04425177867726498,0.1331146622802257,0.028342313853729355,0.1690591424703598,-0.03409745916724205,0.014351500198245049,-0.0029717087745666504,-0.027997761964797974,0.003252848982810974,-0.22328413437300076,1.413564710558698,0.06938006862377925,0.9631463289260864,0.22143341600894928,-0.15269745886325836, 279, 208, 149, 248
1730927004403,6i,9.042456477175897,1.0s : 0.3s,-19.315655798882432,0.04438795780712031,0.13195898517139332,0.01262285667491227,0.17782653868198395,-0.031132828444242477,0.015183737501502037,-0.0003273487091064453,-0.012603968381881714,-0.0006077289581298828,-0.22286405702055595,1.4128352998354987,0.06762309337770735,0.9631263613700867,0.22102375328540802,-0.1534145474433899, 279, 208, 149, 248
1730927004413,6i,9.042456477175897,1.0s : 0.3s,-19.315655798882432,0.04453156307310721,0.12738155182302432,0.010546453697676634,0.15974673628807068,-0.036979492753744125,0.019312869757413864,-0.0031160712242126465,0.0010318756103515625,-0.01002262532711029,-0.22279144874684764,1.412410393042903,0.06597497655004467,0.9630768895149231,0.22095294296741486,-0.1538262814283371, 279, 208, 149, 248
1730927004423,6i,9.042456477175897,1.0s : 0.3s,-19.315655798882432,0.04464576817143343,0.11895826982816872,0.00796957379739812,0.1409994214773178,-0.042689308524131775,0.01935681141912937,0.0009957551956176758,-0.007198721170425415,0.003271237015724182,-0.22264130033714144,1.4119527809705434,0.06456883674918787,0.9630391597747803,0.22080649435520172,-0.15427224338054657, 279, 208, 149, 248
1730927004433,6i,9.042456477175897,1.0s : 0.3s,-19.315655798882432,0.044699401391134985,0.11643693453221671,0.023252253652576285,0.1446404904127121,-0.04059562087059021,0.025695335119962692,0.004182338714599609,-0.0181216299533844,0.013956427574157715,-0.22245109240744587,1.4113058676751071,0.06318719188988814,0.9629807472229004,0.22062097489833832,-0.1549018919467926, 279, 208, 149, 248
1730927004443,6i,9.042456477175897,1.0s : 0.3s,-19.315655798882432,0.04472468298029416,0.11576914526086247,0.01259668806479472,0.155800461769104,-0.04028429836034775,0.03205283358693123,-0.0037646889686584473,-0.007611945271492004,0.009303867816925049,-0.22207941482116664,1.4106683166130911,0.06173214572493976,0.9629626870155334,0.2202584445476532,-0.15552887320518494, 279, 208, 149, 248
1730927004453,6i,9.042456477175897,1.0s : 0.3s,-19.315655798882432,0.0447504352026252,0.11509313250456717,0.007433282235592607,0.1549782156944275,-0.03707398846745491,0.034361694008111954,-0.007054328918457031,0.0013341456651687622,0.0019261837005615234,-0.22138660820111974,1.4099568544854155,0.06021125238373263,0.9630021452903748,0.21958260238170624,-0.1562383472919464, 279, 208, 149, 248
1730927004463,6i,9.042456477175897,1.0s : 0.3s,-19.315655798882432,0.04477121905381864,0.11438063854256063,0.010330658221328105,0.15331879258155823,-0.03612590208649635,0.03548794239759445,-0.006877422332763672,-0.007626533508300781,-0.00112229585647583,-0.22045211812418378,1.4092904263368258,0.05872252597810022,0.9630998969078064,0.2186708152294159,-0.15691301226615906, 279, 208, 149, 248
1730927004473,6i,9.042456477175897,1.0s : 0.3s,-19.315655798882432,0.04478469616653942,0.11468256683283228,0.0253162874977926,0.16857418417930603,-0.029992198571562767,0.03958435356616974,-0.0154685378074646,-0.019481301307678223,-0.004702940583229065,-0.21946579250881262,1.408719048002959,0.057189717198350705,0.9632225036621094,0.2177082598209381,-0.15749801695346832, 279, 208, 149, 248
1730927004483,6i,9.042456477175897,1.0s : 0.3s,-19.315655798882432,0.04481110968943646,0.11649509061226998,0.03117133175682281,0.18729513883590698,-0.023279700428247452,0.042762838304042816,-0.01866602897644043,-0.021528571844100952,-0.012639299035072327,-0.2186399267267656,1.4081332471287946,0.05548004753801435,0.9633072018623352,0.21690213680267334,-0.15809130668640137, 279, 208, 149, 248
1730927004493,6i,9.042456477175897,1.0s : 0.3s,-19.315655798882432,0.04486523064701719,0.12446396289325329,0.0319370084623903,0.20790095627307892,-0.02472761645913124,0.04372600093483925,-0.020214974880218506,-0.01743859052658081,-0.01752777397632599,-0.21796719959886626,1.4073716870144517,0.053515916265599726,0.9633302688598633,0.2162453681230545,-0.1588485836982727, 279, 208, 149, 248
1730927004503,6i,9.042456477175897,1.0s : 0.3s,-19.315655798882432,0.04495078793045249,0.12773372353743645,0.030823372902607605,0.20643222332000732,-0.02442668005824089,0.04781688004732132,-0.018791913986206055,-0.01276320219039917,-0.02083374559879303,-0.2171482146687576,1.4068259922581423,0.05151641474592107,0.9634178876876831,0.21544568240642548,-0.15940310060977936, 279, 208, 149, 248
1730927004513,6i,9.042456477175897,1.0s : 0.3s,-19.315655798882432,0.04505037963940478,0.12901369079284153,0.03385181469327801,0.20411060750484467,-0.019429035484790802,0.045213475823402405,-0.017997920513153076,-0.021849289536476135,-0.01856417953968048,-0.21618681993518563,1.4065009200058067,0.049588748357082164,0.9635698795318604,0.21450677514076233,-0.1597500741481781, 279, 208, 149, 248
1730927004523,6i,9.042456477175897,1.0s : 0.3s,-19.315655798882432,0.045143093165019896,0.13165164716943542,0.039313747008177635,0.2128780037164688,-0.015272642485797405,0.044186025857925415,-0.01757979393005371,-0.03186336159706116,-0.014874398708343506,-0.21541015918164821,1.4061046151841776,0.0476052919825141,0.9636704325675964,0.21374812722206116,-0.1601591855287552, 279, 208, 149, 248
1730927004533,6i,9.042456477175897,1.0s : 0.3s,-19.315655798882432,0.045251375815829775,0.13268879927377678,0.0370851867970886,0.2054634988307953,-0.01366133987903595,0.05237904563546181,-0.01525181531906128,-0.025814175605773926,-0.02182479202747345,-0.2147160918256868,1.405615275137395,0.04557411297157878,0.963738203048706,0.21307004988193512,-0.16065509617328644, 279, 208, 149, 248
1730927004543,6i,9.042456477175897,1.0s : 0.3s,-19.315655798882432,0.04536174331868884,0.13177277369080295,0.029310482060218142,0.1750829517841339,-0.02425273135304451,0.054289594292640686,-0.008168280124664307,-0.023279890418052673,-0.01582498848438263,-0.21385588108441808,1.4050417225432579,0.04373891449724305,0.9638263583183289,0.21222950518131256,-0.16123801469802856, 279, 208, 149, 248
1730927004553,6i,9.042456477175897,1.0s : 0.3s,-19.315655798882432,0.045451794491516234,0.1290061026767011,0.035753818367619365,0.1639380156993866,-0.025385329499840736,0.0392560176551342,0.0033521652221679688,-0.03290341794490814,-0.013581737875938416,-0.21297661148860647,1.4043768479172223,0.04214312263562036,0.9639023542404175,0.21137018501758575,-0.16190961003303528, 279, 208, 149, 248
1730927004563,6i,9.042456477175897,1.0s : 0.3s,-19.315655798882432,0.04552125042683853,0.12864418502469302,0.03316097821145552,0.17904506623744965,-0.03293699026107788,0.042882710695266724,0.00024878978729248047,-0.031720370054244995,-0.009664714336395264,-0.21212539309074238,1.4035101448692249,0.04044798699315307,0.96393883228302,0.2105381339788437,-0.16277489066123962, 279, 208, 149, 248
1730927004573,6i,9.042456477175897,1.0s : 0.3s,-19.315655798882432,0.04559413752619808,0.1421030059892919,0.011613711996781097,0.25153499841690063,-0.03663496673107147,0.04762899503111839,-0.00464242696762085,-0.008764147758483887,-0.006042838096618652,-0.21119739866372078,1.4024775929052846,0.03831220298469819,0.9639624953269958,0.2096308469772339,-0.16380278766155243, 279, 208, 149, 248
1730927004583,6i,9.042456477175897,1.0s : 0.3s,-19.315655798882432,0.04568590061004416,0.15618336210731862,0.01002975419554596,0.27402830123901367,-0.042305901646614075,0.05003409460186958,-0.001512765884399414,0.005636543035507202,-0.008157014846801758,-0.21021802628507166,1.4012399432676965,0.035661959699683526,0.9639608860015869,0.2086731344461441,-0.16503027081489563, 279, 208, 149, 248
1730927004593,6i,9.042456477175897,1.0s : 0.3s,-19.315655798882432,0.04581592439201497,0.156370288827176,0.021232442872601873,0.22546103596687317,-0.044368255883455276,0.053214844316244125,0.0005022287368774414,0.010664433240890503,-0.018353044986724854,-0.2090869045218497,1.4000182665824203,0.03311852607574508,0.9639905691146851,0.2075667828321457,-0.16624779999256134, 279, 208, 149, 248
1730927004603,6i,9.042456477175897,1.0s : 0.3s,-19.315655798882432,0.04595146180815688,0.1402118620585666,0.012980688797495938,0.13814157247543335,-0.048508670181035995,0.05445054918527603,0.002423882484436035,-0.004408508539199829,-0.011966124176979065,-0.2079299573113759,1.3989751827967627,0.03134700487563796,0.9640526175498962,0.20643489062786102,-0.1672941893339157, 279, 208, 149, 248
1730927004613,6i,9.042456477175897,1.0s : 0.3s,-19.315655798882432,0.04602643698674691,0.11937724261182468,0.0343369146137161,0.08833447098731995,-0.048099029809236526,0.047181084752082825,0.0052880048751831055,-0.03318697214126587,0.007048800587654114,-0.20699469838892703,1.3979622504651987,0.030284307535664565,0.9640722870826721,0.2055196911096573,-0.1683037132024765, 279, 208, 149, 248
1730927004623,6i,9.042456477175897,1.0s : 0.3s,-19.315655798882432,0.04604094494217595,0.11024491047610673,0.03184165356800799,0.11973367631435394,-0.03584795817732811,0.04516720026731491,0.009968340396881104,-0.02805490791797638,0.011289164423942566,-0.20616326788296283,1.3971714301842426,0.029341424329799998,0.9641070365905762,0.20470593869686127,-0.16909557580947876, 279, 208, 149, 248
1730927004633,6i,9.042456477175897,1.0s : 0.3s,-19.315655798882432,0.04605516989647812,0.11229366237207646,0.015358899792921219,0.175766721367836,-0.037620510905981064,0.053382888436317444,0.007755935192108154,0.012689709663391113,0.0038356930017471313,-0.2050683587426872,1.396411865984548,0.027884828496973466,0.9641983509063721,0.2036340832710266,-0.16986659169197083, 279, 208, 149, 248
1730927004643,6i,9.042456477175897,1.0s : 0.3s,-19.315655798882432,0.04620674401733737,0.11717922598262744,0.044853974984487475,0.18583959341049194,-0.04099127650260925,0.06089726462960243,0.004539549350738525,0.04128333926200867,-0.016939818859100342,-0.20385424298290025,1.3955946002985056,0.026111763247161038,0.9643020033836365,0.20244525372982025,-0.17069751024246216, 279, 208, 149, 248
1730927004653,6i,9.042456477175897,1.0s : 0.3s,-19.315655798882432,0.04647205972118618,0.11703845009363617,0.04190583757234222,0.15671485662460327,-0.0406007245182991,0.060501620173454285,0.01250910758972168,0.03274215757846832,-0.022968947887420654,-0.20294681576188878,1.3948702036936713,0.024489115946767996,0.9643585085868835,0.20155653357505798,-0.17142808437347412, 279, 208, 149, 248
1730927004663,6i,9.042456477175897,1.0s : 0.3s,-19.315655798882432,0.04673811503493716,0.1135593993714766,0.013534183663452697,0.12987259030342102,-0.04101670905947685,0.05343545228242874,0.0016075372695922852,0.005351409316062927,-0.01232689619064331,-0.20230934918240812,1.3941746222155722,0.023155949297618286,0.9643653631210327,0.200932115316391,-0.17212137579917908, 279, 208, 149, 248
1730927004673,6i,9.042456477175897,1.0s : 0.3s,-19.315655798882432,0.04699408049666788,0.11338223163431985,0.013557130630806208,0.1515461951494217,-0.04249005764722824,0.05476130545139313,-0.01128321886062622,-0.0044146329164505005,-0.006082415580749512,-0.201733511521132,1.393321670214955,0.021829950881698482,0.964331865310669,0.2003679871559143,-0.17296425998210907, 279, 208, 149, 248
1730927004683,6i,9.042456477175897,1.0s : 0.3s,-19.315655798882432,0.047261274033181075,0.11577004829707721,0.01672752103094392,0.17965267598628998,-0.046245913952589035,0.055000193417072296,-0.008569538593292236,0.007875680923461914,-0.012014433741569519,-0.20090096770052787,1.3924781900618959,0.020233966404268982,0.9643494486808777,0.1995522528886795,-0.17380711436271667, 279, 208, 149, 248
1730927004693,6i,9.042456477175897,1.0s : 0.3s,-19.315655798882432,0.04757265014459227,0.11605339402559238,0.031900012813239745,0.15908201038837433,-0.050310030579566956,0.05908665060997009,-0.009960651397705078,0.017169490456581116,-0.024972081184387207,-0.19970089124355161,1.3918448684328255,0.01864404534485068,0.9644741415977478,0.19837617874145508,-0.17446033656597137, 279, 208, 149, 248
1730927004703,6i,9.042456477175897,1.0s : 0.3s,-19.315655798882432,0.0479144752266381,0.11071909481987877,0.02856872267810487,0.11573533713817596,-0.05023067072033882,0.061076030135154724,-0.014984607696533203,0.006039783358573914,-0.023561716079711914,-0.1986018205088108,1.3913404265068376,0.017435220727683363,0.9646000862121582,0.1972988247871399,-0.17498566210269928, 279, 208, 149, 248
1730927004713,6i,9.042456477175897,1.0s : 0.3s,-19.315655798882432,0.04824396453778322,0.1015407699894165,0.024450013743325942,0.10110060125589371,-0.03375524282455444,0.055940888822078705,-0.01681208610534668,-0.013552367687225342,-0.011466920375823975,-0.19805693544549685,1.3908913908489648,0.016511220066608094,0.9646270275115967,0.19676461815834045,-0.17543798685073853, 279, 208, 149, 248
1730927004723,6i,9.042456477175897,1.0s : 0.3s,-19.315655798882432,0.04855464024481887,0.1011484873039774,0.023756979333121164,0.12944887578487396,-0.03276561573147774,0.058226678520441055,-0.019226908683776855,-0.012637093663215637,-0.005918100476264954,-0.1978393713658004,1.3902404815915024,0.01545034485245405,0.9645547270774841,0.19655130803585052,-0.17607352137565613, 279, 208, 149, 248
1730927004733,6i,9.042456477175897,1.0s : 0.3s,-19.315655798882432,0.04888601421440089,0.10363926290549022,0.02621726375991968,0.16302096843719482,-0.034260980784893036,0.05639608949422836,-0.018541276454925537,0.012485593557357788,-0.0136994868516922,-0.19741234075190714,1.389432864441003,0.014054829292792599,0.9644947648048401,0.1961325854063034,-0.17686758935451508, 279, 208, 149, 248
1730927004743,6i,9.042456477175897,1.0s : 0.3s,-19.315655798882432,0.049247145419456365,0.10822315664910336,0.030497539156259613,0.17164455354213715,-0.03746715933084488,0.061585791409015656,-0.008100271224975586,0.022502705454826355,-0.018923893570899963,-0.19664243149604202,1.3886603593133733,0.012428787870088854,0.9645060300827026,0.19537757337093353,-0.177639901638031, 279, 208, 149, 248
1730927004753,6i,9.042456477175897,1.0s : 0.3s,-19.315655798882432,0.04962087951916636,0.10933596559427614,0.02185865948793218,0.16158698499202728,-0.04319166764616966,0.060500387102365494,-0.009005427360534668,0.0079842209815979,-0.01824706792831421,-0.19576313717446683,1.3879118101327526,0.010860815471104885,0.9645412564277649,0.1945151537656784,-0.17839299142360687, 279, 208, 149, 248
1730927004763,6i,9.042456477175897,1.0s : 0.3s,-19.315655798882432,0.049988017574917415,0.10923274537527261,0.019125632179033587,0.14171314239501953,-0.04950788617134094,0.06033766642212868,-0.012281477451324463,-0.00503675639629364,-0.013769030570983887,-0.19506848902508667,1.387059718598131,0.009433295831534039,0.9645214676856995,0.19383372366428375,-0.1792394518852234, 279, 208, 149, 248
1730927004773,6i,9.042456477175897,1.0s : 0.3s,-19.315655798882432,0.05034033275975747,0.10904680663334654,0.02057649554458456,0.13852933049201965,-0.0472191646695137,0.06586212664842606,-0.012844443321228027,-0.01101703941822052,-0.011706292629241943,-0.1944452195690488,1.3860514143427716,0.008091266354744144,0.9644587635993958,0.19322223961353302,-0.18023404479026794, 279, 208, 149, 248
1730927004783,6i,9.042456477175897,1.0s : 0.3s,-19.315655798882432,0.05067871162425464,0.10982109409478742,0.017820948514876773,0.15385209023952484,-0.04042411223053932,0.07115702331066132,-0.012042522430419922,-0.00822383165359497,-0.010243654251098633,-0.1936357033808123,1.3850709351057788,0.006736474035993685,0.9644351005554199,0.19242791831493378,-0.18120841681957245, 279, 208, 149, 248
1730927004793,6i,9.042456477175897,1.0s : 0.3s,-19.315655798882432,0.051015461685035166,0.11955774257656099,0.017693317005706897,0.19481578469276428,-0.04084000736474991,0.07379455119371414,-0.014020800590515137,0.0007995367050170898,-0.010762497782707214,-0.19252627335290093,1.3842258369283709,0.005098261149430108,0.9644906520843506,0.19133910536766052,-0.18206286430358887, 279, 208, 149, 248
1730927004803,6i,9.042456477175897,1.0s : 0.3s,-19.315655798882432,0.051359728570293965,0.13372219255747655,0.01903121688856442,0.237837553024292,-0.03669559583067894,0.06719497591257095,-0.009247303009033203,0.010861039161682129,-0.012598112225532532,-0.19138550822567418,1.3834023925163768,0.003073982032519678,0.9645544290542603,0.19021928310394287,-0.18289758265018463, 279, 208, 149, 248
1730927004813,6i,9.042456477175897,1.0s : 0.3s,-19.315655798882432,0.05171251129093826,0.149987176060876,0.021710684340864487,0.2716391980648041,-0.04265237972140312,0.06026296690106392,-0.004179120063781738,0.017146706581115723,-0.012644335627555847,-0.1905161262469406,1.382422381837172,0.00061323587958379,0.9645366668701172,0.1893657147884369,-0.18387363851070404, 279, 208, 149, 248
1730927004823,6i,9.042456477175897,1.0s : 0.3s,-19.315655798882432,0.052065645705421666,0.17120313085345054,0.020684594241953798,0.3225702941417694,-0.04871586337685585,0.05371691659092903,-0.0025360584259033203,0.01852622628211975,-0.008843064308166504,-0.18973287648786596,1.38124697701239,-0.00226507947704844,0.964465320110321,0.18859657645225525,-0.18503513932228088, 279, 208, 149, 248
1730927004833,6i,9.042456477175897,1.0s : 0.3s,-19.315655798882432,0.0524194274434022,0.19352734223856488,0.018719881640692583,0.35897383093833923,-0.043351635336875916,0.06208350136876106,0.001025855541229248,0.013436377048492432,-0.012994050979614258,-0.18868522498252538,1.3800046834376791,-0.005598223656103848,0.9644282460212708,0.18756762146949768,-0.18627052009105682, 279, 208, 149, 248
1730927004843,6i,9.042456477175897,1.0s : 0.3s,-19.315655798882432,0.05276797718428122,0.2172012937435561,0.017360913843618053,0.3966972231864929,-0.05130942910909653,0.07086181640625,0.0047269463539123535,0.0034727752208709717,-0.016340047121047974,-0.18734901348401392,1.378729445726145,-0.009286491932397207,0.9644348621368408,0.18625494837760925,-0.18754789233207703, 279, 208, 149, 248
1730927004853,6i,9.042456477175897,1.0s : 0.3s,-19.315655798882432,0.05310353773769359,0.23534584062587538,0.02252132696670447,0.40213286876678467,-0.051639437675476074,0.08288069069385529,0.006676375865936279,-0.00978115200996399,-0.019156336784362793,-0.18579016702996326,1.3774035579030566,-0.01315273490724527,0.9644692540168762,0.1847231537103653,-0.18888205289840698, 279, 208, 149, 248
1730927004863,6i,9.042456477175897,1.0s : 0.3s,-19.315655798882432,0.0534239800553888,0.25020605443478733,0.032131349596384036,0.4163954555988312,-0.04103633016347885,0.07350397109985352,0.00900280475616455,-0.020229101181030273,-0.02328425645828247,-0.18424893896285718,1.3761396993331958,-0.017090886125855503,0.9645079374313354,0.18320824205875397,-0.19015569984912872, 279, 208, 149, 248
1730927004873,6i,9.042456477175897,1.0s : 0.3s,-19.315655798882432,0.053715418107453006,0.27124106383631247,0.02727431634319316,0.4740621745586395,-0.02643616870045662,0.06072286143898964,-0.0016897320747375488,-0.024251893162727356,-0.012364417314529419,-0.18284653989872898,1.3749628643798406,-0.02137154294590747,0.9645346403121948,0.18182939291000366,-0.19134046137332916, 279, 208, 149, 248
1730927004883,6i,9.042456477175897,1.0s : 0.3s,-19.315655798882432,0.05399217074422528,0.3132616756176043,0.024376215002881067,0.6107936501502991,-0.01849595457315445,0.06498605012893677,-0.014036297798156738,-0.01735439896583557,-0.009798318147659302,-0.1812014115536864,1.3737706528092224,-0.02662801779095946,0.9645978808403015,0.18021143972873688,-0.19254854321479797, 279, 208, 149, 248
1730927004893,6i,9.042456477175897,1.0s : 0.3s,-19.315655798882432,0.05431678889701337,0.3701030146261902,0.034559670827955795,0.7476950287818909,-0.006777334958314896,0.06662143021821976,-0.010236203670501709,0.006214573979377747,-0.032418668270111084,-0.1792065668733082,1.3724269010711685,-0.03327677992243096,0.9646887183189392,0.17824889719486237,-0.193914994597435, 279, 208, 149, 248
1730927004903,6i,9.042456477175897,1.0s : 0.3s,-19.315655798882432,0.054919753444866576,0.43910206133951185,0.057983586464486946,0.8928671479225159,0.0034039297606796026,0.0677466168999672,-0.005540668964385986,0.02266232669353485,-0.05308310687541962,-0.17694423873754206,1.370979059052862,-0.041280942300888135,0.9647996425628662,0.17602235078811646,-0.19539102911949158, 279, 208, 149, 248
1730927004913,6i,9.042456477175897,1.0s : 0.3s,-19.315655798882432,0.05575223315221661,0.5106817499571934,0.0658377608500545,1.0075401067733765,0.04040584713220596,0.07807745039463043,-0.0071305036544799805,0.027418822050094604,-0.05943042039871216,-0.1742985617628239,1.3695401883826153,-0.050639404831044926,0.9649704694747925,0.1734173744916916,-0.19687145948410034, 279, 208, 149, 248
1730927004923,6i,9.042456477175897,1.0s : 0.3s,-19.315655798882432,0.0567213738378738,0.5822396530209879,0.06856170816712807,1.1149991750717163,0.06399452686309814,0.05473031476140022,-0.011912703514099121,0.022727206349372864,-0.06357884407043457,-0.1715331575093025,1.3682930320048026,-0.06105897334586967,0.9651902318000793,0.17069320380687714,-0.198170468211174, 279, 208, 149, 248
1730927004933,6i,9.042456477175897,1.0s : 0.3s,-19.315655798882432,0.05770437752156116,0.6562119110616315,0.05083571501801597,1.2334963083267212,0.0573100820183754,0.04838999733328819,-0.024296879768371582,0.027086511254310608,-0.03550003468990326,-0.1686737012806659,1.3669530316738212,-0.07260740888977406,0.965397834777832,0.1678750216960907,-0.19956162571907043, 279, 208, 149, 248
1730927004943,6i,9.042456477175897,1.0s : 0.3s,-19.315655798882432,0.058670509720146556,0.7306161697797998,0.049529201275298675,1.344927430152893,0.06712063401937485,0.055387452244758606,-0.014660835266113281,0.04446345567703247,-0.01616176962852478,-0.16553525672294758,1.3654294783533694,-0.08532876770231045,0.9656036496162415,0.16478028893470764,-0.2011386752128601, 279, 208, 149, 248
1730927004953,6i,9.042456477175897,1.0s : 0.3s,-19.315655798882432,0.059604291404533216,0.7874356902065429,0.052768954575730755,1.3688029050827026,0.0810130164027214,0.03167419880628586,0.01375114917755127,0.048095330595970154,-0.01680201292037964,-0.1622870730723417,1.3639927427726903,-0.09875535271659168,0.9658325910568237,0.16157564520835876,-0.20263464748859406, 279, 208, 149, 248
1730927004963,6i,9.042456477175897,1.0s : 0.3s,-19.315655798882432,0.06051074490684307,0.8229590680003439,0.053074668947883735,1.347246527671814,0.0961616113781929,0.009939607232809067,0.00553518533706665,0.051250189542770386,-0.01263725757598877,-0.15930744445739,1.3627052327401983,-0.11221275656451518,0.9660376310348511,0.15863445401191711,-0.2039765566587448, 279, 208, 149, 248
1730927004973,6i,9.042456477175897,1.0s : 0.3s,-19.315655798882432,0.06137887639615912,0.8385177377412157,0.06475143317691152,1.2992873191833496,0.1190502792596817,-0.0031970664858818054,-0.003997385501861572,0.0646248608827591,0.0006295740604400635,-0.15653360617310533,1.3617175678624134,-0.12533226589810723,0.9662625193595886,0.1558951437473297,-0.20502112805843353, 279, 208, 149, 248
1730927004983,6i,9.042456477175897,1.0s : 0.3s,-19.315655798882432,0.06209585661437822,0.8380423615535315,0.07901792240628842,1.2369459867477417,0.1282091587781906,-0.00680724810808897,0.0023595094680786133,0.07643325626850128,0.01990532875061035,-0.15394087593752187,1.361026147516731,-0.1378688733712402,0.9665125012397766,0.15333358943462372,-0.20577263832092285, 279, 208, 149, 248
1730927004993,6i,9.042456477175897,1.0s : 0.3s,-19.315655798882432,0.0627058679006727,0.8291364508999386,0.10635923465899343,1.199738621711731,0.1142442524433136,-0.018060237169265747,-0.0014987587928771973,0.10103632509708405,0.03319188952445984,-0.15152646798869535,1.3603831904442838,-0.14995279382871204,0.966739296913147,0.15094728767871857,-0.20647075772285461, 279, 208, 149, 248
1730927005003,6i,9.042456477175897,1.0s : 0.3s,-19.315655798882432,0.06333961106966841,0.8163962383572805,0.149389867677362,1.164818286895752,0.1388220191001892,-0.017562758177518845,0.0008656978607177734,0.14328710734844208,0.042253851890563965,-0.14924321403192883,1.3598750865442477,-0.16166020815256005,0.9669687151908875,0.14868980646133423,-0.20703354477882385, 279, 208, 149, 248
1730927005013,6i,9.042456477175897,1.0s : 0.3s,-19.315655798882432,0.06418562199767376,0.8025085557913025,0.17697399942593833,1.1367608308792114,0.16233259439468384,-0.061862312257289886,0.002678990364074707,0.1737733781337738,0.0333980917930603,-0.1471920869988424,1.3597098637935878,-0.17314825872468367,0.9672306180000305,0.1466611623764038,-0.2072567492723465, 279, 208, 149, 248
1730927005023,6i,9.042456477175897,1.0s : 0.3s,-19.315655798882432,0.06536110963933124,0.7903775989099386,0.20259214139898168,1.1222805976867676,0.16422344744205475,-0.09504663199186325,-0.038539886474609375,0.19428062438964844,0.042582765221595764,-0.14561942475282166,1.3596818668066715,-0.18446369604975824,0.9674490690231323,0.14510533213615417,-0.20733189582824707, 279, 208, 149, 248
1730927005033,6i,9.042456477175897,1.0s : 0.3s,-19.315655798882432,0.06693623792670221,0.7813798818604221,0.23318676066167787,1.1146574020385742,0.17544697225093842,-0.1378224492073059,-0.0714377760887146,0.21503546833992004,0.055067747831344604,-0.14439827510291287,1.35973242139131,-0.19576638139840316,0.9676321148872375,0.14389699697494507,-0.2073199599981308, 279, 208, 149, 248
1730927005043,6i,9.042456477175897,1.0s : 0.3s,-19.315655798882432,0.06896061694811297,0.7802365998001077,0.2591406670281464,1.1236780881881714,0.1794465035200119,-0.1888321042060852,-0.06183350086212158,0.24414891004562378,0.06100666522979736,-0.14365853478327087,1.3598624237663068,-0.20714973353726499,0.9677630066871643,0.14316491782665253,-0.20721642673015594, 279, 208, 149, 248
1730927005053,6i,9.042456477175897,1.0s : 0.3s,-19.315655798882432,0.07160592033990217,0.7795194976254803,0.3029078522340211,1.1213243007659912,0.2011076807975769,-0.2248617559671402,-0.08351856470108032,0.28331923484802246,0.06714184582233429,-0.1433491359296495,1.360107326491291,-0.21871855388322908,0.9678568840026855,0.14285869896411896,-0.2069886326789856, 279, 208, 149, 248
1730927005063,6i,9.042456477175897,1.0s : 0.3s,-19.315655798882432,0.07501387707091639,0.7791193375768626,0.3293206656037365,1.1158411502838135,0.2108473926782608,-0.28667986392974854,-0.10274481773376465,0.30750030279159546,0.0577855259180069,-0.14349204705161123,1.3604997810266812,-0.23029365084003767,0.9679180383682251,0.14300014078617096,-0.2066045105457306, 279, 208, 149, 248
1730927005073,6i,9.042456477175897,1.0s : 0.3s,-19.315655798882432,0.07910499615815435,0.7841042303884979,0.33575574947712994,1.1287132501602173,0.22481000423431396,-0.35040515661239624,-0.11723941564559937,0.3088694214820862,0.059887588024139404,-0.1442980800998006,1.3609673709284145,-0.242026084461751,0.9679016470909119,0.1437978446483612,-0.2061278522014618, 279, 208, 149, 248
1730927005083,6i,9.042456477175897,1.0s : 0.3s,-19.315655798882432,0.08384587229343048,0.8057885800089704,0.35162622693820994,1.1952946186065674,0.24387983977794647,-0.41846758127212524,-0.1461595892906189,0.31343770027160645,0.06352311372756958,-0.14563364510294582,1.3615366624560439,-0.2542489595369645,0.9678300619125366,0.14511939883232117,-0.20553670823574066, 279, 208, 149, 248
1730927005093,6i,9.042456477175897,1.0s : 0.3s,-19.315655798882432,0.08923686248676686,0.8487030965067004,0.36657134191911445,1.302401065826416,0.2728254199028015,-0.5108693838119507,-0.1569320559501648,0.32630181312561035,0.057218924164772034,-0.14759157721363828,1.3621557816750358,-0.2675830498374184,0.9676772356033325,0.14705632627010345,-0.20487821102142334, 279, 208, 149, 248
1730927005103,6i,9.042456477175897,1.0s : 0.3s,-19.315655798882432,0.09534278032001432,0.9087342972137162,0.38872466995046406,1.4239245653152466,0.303009957075119,-0.5889194011688232,-0.1706221103668213,0.34698542952537537,0.03995092213153839,-0.1501602306225324,1.362873493503939,-0.28220903829285093,0.9674512147903442,0.14959655702114105,-0.20410500466823578, 279, 208, 149, 248
1730927005113,6i,9.042456477175897,1.0s : 0.3s,-19.315655798882432,0.10237989801214628,0.969975327420288,0.43842990106954954,1.4897074699401855,0.34294021129608154,-0.6580564975738525,-0.1973738670349121,0.39126914739608765,0.013144925236701965,-0.1532601684539309,1.363716375983113,-0.2980182322805486,0.9671644568443298,0.15266089141368866,-0.20319315791130066, 279, 208, 149, 248
1730927005123,6i,9.042456477175897,1.0s : 0.3s,-19.315655798882432,0.11017347812473535,1.0216733131357436,0.4576960931277827,1.4986720085144043,0.3612060546875,-0.7375878095626831,-0.21641850471496582,0.40236756205558777,0.02736949920654297,-0.15702325352485644,1.364725681948752,-0.31423735523230334,0.9667999744415283,0.15637877583503723,-0.20209793746471405, 279, 208, 149, 248
1730927005133,6i,9.042456477175897,1.0s : 0.3s,-19.315655798882432,0.1184268969691631,1.0753387691899783,0.4540366207847196,1.5511600971221924,0.3892802596092224,-0.8146790266036987,-0.2237270474433899,0.39147287607192993,0.05333337187767029,-0.1615049775772683,1.3658295401957838,-0.3309639250057055,0.9663265943527222,0.16080377995967865,-0.20088593661785126, 279, 208, 149, 248
1730927005143,6i,9.042456477175897,1.0s : 0.3s,-19.315655798882432,0.12706016019666208,1.1409939098132629,0.4614937158612871,1.6510765552520752,0.4154186546802521,-0.9161803126335144,-0.2285340428352356,0.39599311351776123,0.06275424361228943,-0.16674443791199806,1.3669700603947164,-0.3485944049429456,0.9657167196273804,0.16597282886505127,-0.1996103972196579, 279, 208, 149, 248
1730927005153,6i,9.042456477175897,1.0s : 0.3s,-19.315655798882432,0.13617127303024948,1.216860010022664,0.48558556168860817,1.7671571969985962,0.44406381249427795,-1.0034700632095337,-0.23855161666870117,0.4193766713142395,0.054860472679138184,-0.17271299201165546,1.3680605532811225,-0.3675663772530927,0.9649462103843689,0.1718556135892868,-0.19835415482521057, 279, 208, 149, 248
1730927005163,6i,9.042456477175897,1.0s : 0.3s,-19.315655798882432,0.14594544071916565,1.2857927826447337,0.5271207931207945,1.796755075454712,0.453879714012146,-1.1101406812667847,-0.2599402070045471,0.4567357897758484,0.040985822677612305,-0.17946463065476825,1.3690370144529866,-0.3875146081595847,0.9639807343482971,0.17850282788276672,-0.1971748322248459, 279, 208, 149, 248
1730927005173,6i,9.042456477175897,1.0s : 0.3s,-19.315655798882432,0.15622873427200965,1.338197288752723,0.5303149919706637,1.7527931928634644,0.46621617674827576,-1.2174675464630127,-0.27149122953414917,0.45415687561035156,0.03560948371887207,-0.18733301592757218,1.3699800965974405,-0.40758515207512674,0.9627600908279419,0.18623924255371094,-0.19597938656806946, 279, 208, 149, 248
1730927005183,6i,9.042456477175897,1.0s : 0.3s,-19.315655798882432,0.16686269312613886,1.3830748440290803,0.5331873048824056,1.7395647764205933,0.4765702784061432,-1.303654432296753,-0.29234492778778076,0.44334492087364197,0.047628000378608704,-0.19623292584518873,1.3708878215699876,-0.42753312481207695,0.9612748622894287,0.19497594237327576,-0.1947685033082962, 279, 208, 149, 248
1730927005193,6i,9.042456477175897,1.0s : 0.3s,-19.315655798882432,0.17763562545303593,1.4342781848426032,0.5307804152942073,1.7662638425827026,0.5180889964103699,-1.4186335802078247,-0.2989252209663391,0.43177592754364014,0.07707859575748444,-0.20607786928172092,1.3717995716916085,-0.44779768642107626,0.9595239162445068,0.20462234318256378,-0.19350312650203705, 279, 208, 149, 248
1730927005203,6i,9.042456477175897,1.0s : 0.3s,-19.315655798882432,0.1885347530532154,1.502200964064414,0.5363407891262875,1.8598036766052246,0.5389814972877502,-1.5513561964035034,-0.3005226254463196,0.4344884157180786,0.0925603061914444,-0.21706879577860755,1.3726680087270187,-0.46897889306976903,0.9574286937713623,0.2153681367635727,-0.1922154724597931, 279, 208, 149, 248
1730927005213,6i,9.042456477175897,1.0s : 0.3s,-19.315655798882432,0.20002130100259613,1.5686568149685776,0.5950088771633842,1.8866795301437378,0.5415366291999817,-1.6668720245361328,-0.3222140073776245,0.4951673150062561,0.07087332010269165,-0.22915349312189526,1.3731759431029922,-0.4911204417935627,0.9549043774604797,0.2271532267332077,-0.19120416045188904, 279, 208, 149, 248
1730927005223,6i,9.042456477175897,1.0s : 0.3s,-19.315655798882432,0.21212327107213172,1.6219083986825744,0.618924049525985,1.8474980592727661,0.5137417316436768,-1.77181077003479,-0.2918274402618408,0.5418410897254944,0.06566549837589264,-0.2423542062168827,1.3732340734588255,-0.5134621788661676,0.951892077922821,0.23998869955539703,-0.19054344296455383, 279, 208, 149, 248
1730927005233,6i,9.042456477175897,1.0s : 0.3s,-19.315655798882432,0.22435466981384503,1.668784762637276,0.5896819882301696,1.8195990324020386,0.49771735072135925,-1.8746120929718018,-0.24844300746917725,0.5250283479690552,0.1017160415649414,-0.2566495214350686,1.3727994470769855,-0.5356796175476545,0.9483484029769897,0.25384125113487244,-0.1902628242969513, 279, 208, 149, 248
1730927005243,6i,9.042456477175897,1.0s : 0.3s,-19.315655798882432,0.23658962883284615,1.7241951298815676,0.5647579069652668,1.8571066856384277,0.49148422479629517,-1.9957520961761475,-0.2169293761253357,0.5060269832611084,0.12581665813922882,-0.2719716686123291,1.3718290008279896,-0.5582275598837688,0.9442394971847534,0.2686311602592468,-0.19039186835289001, 279, 208, 149, 248
1730927005253,6i,9.042456477175897,1.0s : 0.3s,-19.315655798882432,0.2488133236638292,1.7958717059927107,0.5588323737722733,1.9455095529556274,0.5122238993644714,-2.1308677196502686,-0.1857355833053589,0.5131427049636841,0.12033486366271973,-0.28847983157104257,1.3703043776348052,-0.5818849125841764,0.9394739270210266,0.28449520468711853,-0.19092200696468353, 279, 208, 149, 248
1730927005263,6i,9.042456477175897,1.0s : 0.3s,-19.315655798882432,0.26108186925392585,1.872640883580589,0.5784607132403518,2.021016836166382,0.49533337354660034,-2.2451465129852295,-0.18017518520355225,0.5410717129707336,0.09692832827568054,-0.3059329471255805,1.3680547085448982,-0.6068218997704709,0.9340357184410095,0.30118292570114136,-0.19200590252876282, 279, 208, 149, 248
1730927005273,6i,9.042456477175897,1.0s : 0.3s,-19.315655798882432,0.27342500658329977,1.939991725242216,0.5895818870392733,2.014479160308838,0.4744725525379181,-2.3476202487945557,-0.1492830514907837,0.5650628805160522,0.07762289047241211,-0.3243369548480843,1.364929974320427,-0.6325742453744199,0.9278475046157837,0.31868037581443787,-0.1937575489282608, 279, 208, 149, 248
1730927005283,6i,9.042456477175897,1.0s : 0.3s,-19.315655798882432,0.2857058537412176,1.9950068857630903,0.5555693911024199,1.955704927444458,0.47514820098876953,-2.450058937072754,-0.09712952375411987,0.5370484590530396,0.1039334237575531,-0.34371835819757723,1.3612130674349296,-0.6583642074376732,0.9209058284759521,0.33699026703834534,-0.19588294625282288, 279, 208, 149, 248
1730927005293,6i,9.042456477175897,1.0s : 0.3s,-19.315655798882432,0.2975596230650291,2.045549137196481,0.5272485152987056,1.9445667266845703,0.4861050844192505,-2.532115936279297,-0.07394999265670776,0.5039531588554382,0.13621163368225098,-0.3640020246467601,1.3570508051862216,-0.684235227794326,0.9132139086723328,0.3560168743133545,-0.19822336733341217, 279, 208, 149, 248
1730927005303,6i,9.042456477175897,1.0s : 0.3s,-19.315655798882432,0.30932433598788617,2.100065696317273,0.5349854719846119,1.9662635326385498,0.506247341632843,-2.6307239532470703,-0.05193924903869629,0.5155291557312012,0.13319706916809082,-0.38501043471725455,1.3523433806014022,-0.7106617576304516,0.904768168926239,0.37556880712509155,-0.20085452497005463, 279, 208, 149, 248
1730927005313,6i,9.042456477175897,1.0s : 0.3s,-19.315655798882432,0.32099543414459913,2.1638941141440826,0.5408350959736961,2.0159354209899902,0.5223131775856018,-2.7498629093170166,-0.01119154691696167,0.5258944034576416,0.1257474720478058,-0.4068697006685623,1.3468848315659536,-0.7381143960815936,0.8954384326934814,0.3957365155220032,-0.20391832292079926, 279, 208, 149, 248
1730927005323,6i,9.042456477175897,1.0s : 0.3s,-19.315655798882432,0.33257692382631676,2.2323693344949547,0.5431781173460358,2.064608097076416,0.5261960625648499,-2.8604893684387207,0.01097404956817627,0.52991783618927,0.11878183484077454,-0.429618338563768,1.3405292489797977,-0.7667569450696617,0.8851289749145508,0.41652384400367737,-0.20749644935131073, 279, 208, 149, 248
1730927005333,6i,9.042456477175897,1.0s : 0.3s,-19.315655798882432,0.3440992265840893,2.291926756413003,0.5611524275116808,2.0448384284973145,0.5063849091529846,-2.950446605682373,0.0352742075920105,0.5493986010551453,0.10866901278495789,-0.4531325113389764,1.3330183637092714,-0.7964486649352109,0.873783528804779,0.4377840459346771,-0.21177268028259277, 279, 208, 149, 248
1730927005343,6i,9.042456477175897,1.0s : 0.3s,-19.315655798882432,0.3554374929819398,2.331483853396456,0.5668901046456096,1.9163990020751953,0.45696520805358887,-3.0361647605895996,0.09268045425415039,0.5488728880882263,0.10729993879795074,-0.4774368151221195,1.324584518545034,-0.825972116465737,0.8613905310630798,0.4595041275024414,-0.21647658944129944, 279, 208, 149, 248
1730927005353,6i,9.042456477175897,1.0s : 0.3s,-19.315655798882432,0.3665700586250819,2.364075771693648,0.5511714166513206,1.814374327659607,0.4308962821960449,-3.13399600982666,0.15947121381759644,0.5104705095291138,0.1333368718624115,-0.5027347517525168,1.3152989181122356,-0.855091404975739,0.847822368144989,0.48182371258735657,-0.22145633399486542, 279, 208, 149, 248
1730927005363,6i,9.042456477175897,1.0s : 0.3s,-19.315655798882432,0.3774831602877599,2.4064048566811667,0.5547800913499388,1.834314227104187,0.4161311686038971,-3.2326998710632324,0.19288396835327148,0.5006380677223206,0.1412028670310974,-0.5288075469003362,1.3049191669956197,-0.8847143386099288,0.833071231842041,0.5045041441917419,-0.2268657386302948, 279, 208, 149, 248
1730927005373,6i,9.042456477175897,1.0s : 0.3s,-19.315655798882432,0.3879172777345336,2.4604974787286,0.6007404906629619,1.8902614116668701,0.3953112065792084,-3.3405776023864746,0.22565412521362305,0.5438942909240723,0.1189468502998352,-0.55547739056844,1.2928493166697586,-0.915922190100407,0.817039966583252,0.5273489952087402,-0.2331283688545227, 279, 208, 149, 248
1730927005383,6i,9.042456477175897,1.0s : 0.3s,-19.315655798882432,0.39836080268146573,2.5225782569367023,0.6680116993327242,1.9706166982650757,0.36805880069732666,-3.4346492290496826,0.2648913860321045,0.6034186482429504,0.10935318470001221,-0.5825936033900793,1.278701591050769,-0.9492799507942844,0.7996686100959778,0.5501915216445923,-0.2404567301273346, 279, 208, 149, 248
1730927005393,6i,9.042456477175897,1.0s : 0.3s,-19.315655798882432,0.409116864960102,2.5755691145491175,0.7228472709498294,1.9565364122390747,0.30693328380584717,-3.504239320755005,0.295864999294281,0.6496435403823853,0.1137336790561676,-0.609916633592263,1.262339592073843,-0.984432908245448,0.7810088396072388,0.5727991461753845,-0.24885030090808868, 279, 208, 149, 248
1730927005403,6i,9.042456477175897,1.0s : 0.3s,-19.315655798882432,0.4201252876076167,2.609106088001947,0.7579183033214905,1.8412082195281982,0.23224225640296936,-3.555626153945923,0.35459357500076294,0.6597965359687805,0.11563771963119507,-0.6375249061864212,1.2440381438323984,-1.0203365620999738,0.7610527873039246,0.5952083468437195,-0.2579258978366852, 279, 208, 149, 248
1730927005413,6i,9.042456477175897,1.0s : 0.3s,-19.315655798882432,0.4309632975168927,2.631445114165685,0.7523532244007534,1.6534364223480225,0.1859986037015915,-3.6508195400238037,0.419017493724823,0.6069825887680054,0.14843130111694336,-0.665799147696893,1.2244298708404011,-1.0560476459260368,0.7397196888923645,0.6176878213882446,-0.26697686314582825, 279, 208, 149, 248
1730927005423,6i,9.042456477175897,1.0s : 0.3s,-19.315655798882432,0.4414158883122535,2.6615713250239574,0.7257967496632978,1.594045877456665,0.13521185517311096,-3.757169485092163,0.44219911098480225,0.5522484183311462,0.16205725073814392,-0.6951696907767367,1.2031568154441679,-1.0922427929140932,0.7166295647621155,0.6405157446861267,-0.2760098874568939, 279, 208, 149, 248
1730927005433,6i,9.042456477175897,1.0s : 0.3s,-19.315655798882432,0.4519120524533174,2.70564709394276,0.7562124696413254,1.673667073249817,0.08965723216533661,-3.8411600589752197,0.4526185393333435,0.5846244692802429,0.15877023339271545,-0.7244660896541645,1.1790615835652547,-1.1308270056955319,0.6921262741088867,0.6627357006072998,-0.28590643405914307, 279, 208, 149, 248
1730927005443,6i,9.042456477175897,1.0s : 0.3s,-19.315655798882432,0.4628374931722092,2.7610969917972303,0.8331645078545634,1.7420016527175903,0.03854718059301376,-3.943002462387085,0.514772891998291,0.6447973847389221,0.11579421162605286,-0.7535444721647004,1.151427268191996,-1.1728022073996414,0.666074275970459,0.6842279434204102,-0.29694658517837524, 279, 208, 149, 248
1730927005453,6i,9.042456477175897,1.0s : 0.3s,-19.315655798882432,0.47441912261047803,2.81602288810722,0.898461048130995,1.7964420318603516,-0.021495116874575615,-4.0056843757629395,0.5687881708145142,0.6913761496543884,0.07557308673858643,-0.7821669576501447,1.1197446388934071,-1.218528054587618,0.6384414434432983,0.7048183083534241,-0.30923089385032654, 279, 208, 149, 248
1730927005463,6i,9.042456477175897,1.0s : 0.3s,-19.315655798882432,0.4867125430972371,2.8517207647478613,0.9508454754073482,1.747554898262024,-0.12185927480459213,-4.012462615966797,0.6208469271659851,0.7162522673606873,0.075092613697052,-0.8099072215951489,1.084303168387626,-1.267126570714776,0.6095607876777649,0.7242231965065002,-0.3223918378353119, 279, 208, 149, 248
1730927005473,6i,9.042456477175897,1.0s : 0.3s,-19.315655798882432,0.49917584333618437,2.874055024754138,0.9741323747642109,1.597975492477417,-0.19268879294395447,-4.060905933380127,0.7139831185340881,0.6535831689834595,0.10950356721878052,-0.8371204478291231,1.045806765845069,-1.31738074640793,0.5794281363487244,0.7427180409431458,-0.3356083333492279, 279, 208, 149, 248
1730927005483,6i,9.042456477175897,1.0s : 0.3s,-19.315655798882432,0.5112118943942947,2.8992108199515694,0.9576899423253195,1.581079125404358,-0.2393772006034851,-4.113856315612793,0.7742031216621399,0.5477760434150696,0.1331200897693634,-0.8639139311807282,1.0040977241899913,-1.3699862079887604,0.5479403138160706,0.7603903412818909,-0.348665714263916, 279, 208, 149, 248
1730927005493,6i,9.042456477175897,1.0s : 0.3s,-19.315655798882432,0.5229372628001152,2.9345295749087144,0.9365424273885055,1.7524760961532593,-0.2766350507736206,-4.133385181427002,0.7698327898979187,0.5142306089401245,0.14154884219169617,-0.8889634462113657,0.9573056877255647,-1.427470946230644,0.5152929425239563,0.776418924331665,-0.36283186078071594, 279, 208, 149, 248
1730927005503,6i,9.042456477175897,1.0s : 0.3s,-19.315655798882432,0.5349287965564674,2.9695852146151087,0.9896355516249141,1.8550500869750977,-0.3423812985420227,-4.14102029800415,0.8069368600845337,0.5635013580322266,0.10342943668365479,-0.9113552925019375,0.9047509029955874,-1.4906246669845316,0.48172900080680847,0.7903348207473755,-0.37856072187423706, 279, 208, 149, 248
1730927005513,6i,9.042456477175897,1.0s : 0.3s,-19.315655798882432,0.547342519072342,2.994459282016459,1.0399045389158925,1.8314127922058105,-0.4249560236930847,-4.145846843719482,0.863007664680481,0.57281094789505,0.09223252534866333,-0.9313359551275961,0.8472063314120937,-1.5580403520776382,0.44723400473594666,0.8024179339408875,-0.39510422945022583, 279, 208, 149, 248
1730927005523,6i,9.042456477175897,1.0s : 0.3s,-19.315655798882432,0.5597389522306363,2.9967818628928686,1.0301322091779914,1.6804978847503662,-0.4976091682910919,-4.132351398468018,0.8975102305412292,0.49407684803009033,0.10740494728088379,-0.9494801411043758,0.7861558174864669,-1.627843897539378,0.4119226932525635,0.8131129741668701,-0.4112989604473114, 279, 208, 149, 248
1730927005533,6i,9.042456477175897,1.0s : 0.3s,-19.315655798882432,0.5723445132767307,2.9967721558893294,0.9954288731542382,1.5624052286148071,-0.5265748500823975,-4.1594367027282715,0.9112262725830078,0.38883161544799805,0.09672278165817261,-0.9661190311893516,0.7223655351358508,-1.6995906403196617,0.3758678138256073,0.8226855993270874,-0.4265109598636627, 279, 208, 149, 248
1730927005543,6i,9.042456477175897,1.0s : 0.3s,-19.315655798882432,0.5848213603990176,3.0008264261150086,0.9525959696671314,1.555362582206726,-0.5724813938140869,-4.18287992477417,0.8836147785186768,0.3449101448059082,0.08775532245635986,-0.980643821271083,0.655013859831658,-1.7743782189054165,0.3389957547187805,0.8308558464050293,-0.44131672382354736, 279, 208, 149, 248
1730927005553,6i,9.042456477175897,1.0s : 0.3s,-19.315655798882432,0.5973899072246182,3.012247233611419,0.9464079330523375,1.598258376121521,-0.6283089518547058,-4.19581413269043,0.8666172027587891,0.37594330310821533,0.057699501514434814,-0.9921833011989893,0.5835940701156194,-1.8528228202321388,0.30133625864982605,0.8372219204902649,-0.4563506245613098, 279, 208, 149, 248
1730927005563,6i,9.042456477175897,1.0s : 0.3s,-19.315655798882432,0.6103102889844202,3.02055489950017,0.9862867461992517,1.6011148691177368,-0.6769739389419556,-4.187352657318115,0.8948894739151001,0.4134613275527954,0.031370460987091064,-1.0002472875996888,0.508808690607189,-1.9341144267196941,0.2631000280380249,0.8416045904159546,-0.47167810797691345, 279, 208, 149, 248
1730927005573,6i,9.042456477175897,1.0s : 0.3s,-19.315655798882432,0.6234120056055593,3.0236990456291943,0.9971139128035452,1.5712711811065674,-0.723102331161499,-4.186651229858398,0.9119813442230225,0.40296077728271484,0.012198150157928467,-1.0051014531268923,0.43206094826184127,-2.0168443129641997,0.22444748878479004,0.8442163467407227,-0.48674651980400085, 279, 208, 149, 248
1730927005583,6i,9.042456477175897,1.0s : 0.3s,-19.315655798882432,0.6368225821211547,3.0238272257166754,0.9799186304502082,1.513251543045044,-0.7907218933105469,-4.178874969482422,0.9010365605354309,0.384954571723938,0.013550519943237305,-1.0068704672034632,0.35420057500854357,-2.1001072119819613,0.18538923561573029,0.8451632261276245,-0.5013282299041748, 279, 208, 149, 248
1730927005593,6i,9.042456477175897,1.0s : 0.3s,-19.315655798882432,0.6505260527108551,3.022502736851975,0.9693970075151133,1.4541281461715698,-0.8673735857009888,-4.16588020324707,0.8908920884132385,0.38183605670928955,0.01559072732925415,-1.005711728288868,0.27597453560292967,-2.1828456226690425,0.14591211080551147,0.8445432782173157,-0.5152245163917542, 279, 208, 149, 248
1730927005603,6i,9.042456477175897,1.0s : 0.3s,-19.315655798882432,0.6645151348330806,3.019476318766809,0.9728644805675855,1.37270188331604,-0.9418297410011292,-4.161306858062744,0.8962134122848511,0.37709885835647583,0.0326077938079834,-1.0017477798101462,0.19812760263875437,-2.2644122992706204,0.10606016218662262,0.8424140214920044,-0.5282894968986511, 279, 208, 149, 248
1730927005613,6i,9.042456477175897,1.0s : 0.3s,-19.315655798882432,0.6787338794889515,3.007594384814219,0.9569002524573936,1.3184443712234497,-0.9884466528892517,-4.138207912445068,0.8875764012336731,0.3532758355140686,0.055339038372039795,-0.9950505972127727,0.12150337523596831,-2.344026039391659,0.06599113345146179,0.8387865424156189,-0.5404464602470398, 279, 208, 149, 248
1730927005623,6i,9.042456477175897,1.0s : 0.3s,-19.315655798882432,0.6928049647306725,3.0056798715948463,0.935042291750654,1.3261038064956665,-1.0205217599868774,-4.137770175933838,0.87382572889328,0.3297455906867981,0.04472726583480835,-0.9853719359220918,0.04693406291805617,-2.4211834964656256,0.025924043729901314,0.8334776759147644,-0.5519446730613708, 279, 208, 149, 248
1730927005633,6i,9.042456477175897,1.0s : 0.3s,-19.315655798882432,0.7067312247827031,3.0055215651178715,0.9153109996394356,1.3974113464355469,-1.069459080696106,-4.126106262207031,0.8516392111778259,0.33435219526290894,0.026711225509643555,-0.972276036072121,-0.02527133732745248,-2.4955419394977825,-0.014236877672374249,0.8261702060699463,-0.5632407665252686, 279, 208, 149, 248
1730927005643,6i,9.042456477175897,1.0s : 0.3s,-19.315655798882432,0.7208434289936044,3.00490803841602,0.9097949372787748,1.433415174484253,-1.1157333850860596,-4.094562530517578,0.828779935836792,0.37423622608184814,-0.02824699878692627,-0.9556373807594979,-0.09408144159923934,-2.5660162098175676,-0.05421324819326401,0.8166817426681519,-0.5745362639427185, 279, 208, 149, 248
1730927005653,6i,9.042456477175897,1.0s : 0.3s,-19.315655798882432,0.7352467488399062,3.004436023762899,0.9178429327798937,1.3962106704711914,-1.1794779300689697,-4.093562602996826,0.8362129330635071,0.3775184750556946,-0.02575618028640747,-0.9363822033997223,-0.15941487410471483,-2.6324275217347943,-0.0940864235162735,0.8054190874099731,-0.5851904153823853, 279, 208, 149, 248
1730927005663,6i,9.042456477175897,1.0s : 0.3s,-19.315655798882432,0.7496880201729056,3.004530477989631,0.9036066593564677,1.3825761079788208,-1.2193880081176758,-4.095438003540039,0.8415752053260803,0.3277627229690552,-0.028770923614501953,-0.9150590831824104,-0.22143573122951984,-2.6949660634083017,-0.13391835987567902,0.7925986051559448,-0.594855785369873, 279, 208, 149, 248
1730927005673,6i,9.042456477175897,1.0s : 0.3s,-19.315655798882432,0.7641812649203342,3.0170349256065325,0.8970029910923167,1.501826286315918,-1.2607078552246094,-4.104443550109863,0.8355982303619385,0.3241409659385681,-0.03636753559112549,-0.890944131834404,-0.2796369786429897,-2.7532992400669376,-0.17351938784122467,0.7776656746864319,-0.6042575240135193, 279, 208, 149, 248
1730927005683,6i,9.042456477175897,1.0s : 0.3s,-19.315655798882432,0.778936807848888,3.031079620418576,0.911885197516398,1.5847147703170776,-1.3211406469345093,-4.081777572631836,0.8359878063201904,0.3632563352584839,-0.026529908180236816,-0.863883163101651,-0.33388701842907687,-2.80707833195534,-0.21284937858581543,0.7603703737258911,-0.6136220693588257, 279, 208, 149, 248
1730927005693,6i,9.042456477175897,1.0s : 0.3s,-19.315655798882432,0.7941874701596765,3.0459192791666965,0.9537436887850893,1.6397387981414795,-1.4015644788742065,-4.060914039611816,0.8630836009979248,0.4049214720726013,-0.027428507804870605,-0.8343285802331326,-0.384346638913985,-2.85613642997674,-0.2518469989299774,0.7408456802368164,-0.6226722002029419, 279, 208, 149, 248
1730927005703,6i,9.042456477175897,1.0s : 0.3s,-19.315655798882432,0.8098547436771747,3.057131913468853,0.9639523862037521,1.5902010202407837,-1.4502733945846558,-4.06488037109375,0.878806471824646,0.39385831356048584,-0.04217839241027832,-0.8034325842021353,-0.43168818331818387,-2.9013639483365243,-0.2904733717441559,0.7197433710098267,-0.6305510997772217, 279, 208, 149, 248
1730927005713,6i,9.042456477175897,1.0s : 0.3s,-19.315655798882432,0.8256896326966398,3.055870675638742,0.9240307351758096,1.520615816116333,-1.497645378112793,-4.009881973266602,0.8548266291618347,0.3478068709373474,-0.046201884746551514,-0.7717487132452301,-0.4760326510857832,-2.943151776924727,-0.32842889428138733,0.6973896026611328,-0.6370103359222412, 279, 208, 149, 248
1730927005723,6i,9.042456477175897,1.0s : 0.3s,-19.315655798882432,0.841544401926003,3.0537420851021633,0.9047453950356236,1.5670113563537598,-1.5248687267303467,-3.969921112060547,0.8420858979225159,0.33025240898132324,0.01972097158432007,-0.7392862688562242,-0.5173400508274709,-2.981283581817265,-0.3654623329639435,0.6737606525421143,-0.6422490477561951, 279, 208, 149, 248
1730927005733,6i,9.042456477175897,1.0s : 0.3s,-19.315655798882432,0.8575721482027819,3.0540021937073063,0.9244879409520409,1.6487455368041992,-1.5623594522476196,-3.956549882888794,0.8586826324462891,0.34143996238708496,0.02758336067199707,-0.7051771889415193,-0.5554546650257259,-3.015629711965747,-0.4015597999095917,0.6481687426567078,-0.6470139026641846, 279, 208, 149, 248
1730927005743,6i,9.042456477175897,1.0s : 0.3s,-19.315655798882432,0.8738102010678073,3.0627171049006674,0.9186048498507355,1.7280488014221191,-1.6051641702651978,-3.951706647872925,0.8382058143615723,0.3737562894821167,0.03939694166183472,-0.6695633988654158,-0.5910852404506097,-3.0468302684319264,-0.43694546818733215,0.6206437349319458,-0.6510607600212097, 279, 208, 149, 248
1730927005753,6i,9.042456477175897,1.0s : 0.3s,-19.315655798882432,0.8902498077856537,3.0620951419692948,0.912378819000485,1.7207022905349731,-1.6360331773757935,-3.895256996154785,0.8272216320037842,0.38288944959640503,0.03918099403381348,-0.6329446803410818,-0.6243627793549839,-3.0749670307006842,-0.4713408350944519,0.5915215611457825,-0.6541712284088135, 279, 208, 149, 248
1730927005763,6i,9.042456477175897,1.0s : 0.3s,-19.315655798882432,0.9068095916080618,3.0406568426753995,0.9062521562402439,1.668209195137024,-1.6744197607040405,-3.786719560623169,0.8390627503395081,0.34183627367019653,0.020362555980682373,-0.5963809374597935,-0.6554772290020096,-3.1002694069822105,-0.5043153762817383,0.5616518259048462,-0.6559063792228699, 279, 208, 149, 248
1730927005773,6i,9.042456477175897,1.0s : 0.3s,-19.315655798882432,0.9229706851873734,3.0091082378253873,0.8759826260180836,1.5707006454467773,-1.716742992401123,-3.7111923694610596,0.8315751552581787,0.2739465832710266,0.02795696258544922,-0.5604109950258346,-0.6850824417654663,-3.1233267954390542,-0.5359513163566589,0.5315343737602234,-0.6559171676635742, 279, 208, 149, 248
1730927005783,6i,9.042456477175897,1.0s : 0.3s,-19.315655798882432,0.9384160148449551,2.966787254757133,0.8279333385671135,1.501965045928955,-1.7351264953613281,-3.611550807952881,0.8010202646255493,0.2073267698287964,0.029253363609313965,-0.5251434541903919,-0.7132910685441664,3.138644106861694,-0.5661569237709045,0.5013371109962463,-0.654314398765564, 279, 208, 149, 248
1730927005793,6i,9.042456477175897,1.0s : 0.3s,-19.315655798882432,0.9532274758034428,2.9299068030753896,0.8243362515115222,1.4957964420318604,-1.7540830373764038,-3.5604248046875,0.8055670857429504,0.17237159609794617,0.02966409921646118,-0.4901299743009636,-0.740092256156225,3.119391469702584,-0.5949652194976807,0.47074055671691895,-0.6514749526977539, 279, 208, 149, 248
1730927005803,6i,9.042456477175897,1.0s : 0.3s,-19.315655798882432,0.9680374712001371,2.898047565741975,0.8468525627829273,1.5122065544128418,-1.7973790168762207,-3.4958300590515137,0.8294116854667664,0.17079171538352966,0.008106112480163574,-0.45502359889194344,-0.7657826077816046,3.1020173066218484,-0.6225786805152893,0.43948352336883545,-0.6474950909614563, 279, 208, 149, 248
1730927005813,6i,9.042456477175897,1.0s : 0.3s,-19.315655798882432,0.98288955341744,2.8585000597323553,0.867862562506466,1.4546836614608765,-1.7979248762130737,-3.415822982788086,0.8491821885108948,0.17610204219818115,-0.03260535001754761,-0.42020026801531185,-0.7904304420357431,3.0863018064482475,-0.648834228515625,0.4079433083534241,-0.6423366665840149, 279, 208, 149, 248
1730927005823,6i,9.042456477175897,1.0s : 0.3s,-19.315655798882432,0.9975831764018739,2.8119615470616677,0.9000312344203671,1.469916582107544,-1.7815072536468506,-3.3036887645721436,0.8871363997459412,0.14566779136657715,-0.042733192443847656,-0.3859694835045196,-0.8138882531912546,3.072266713951557,-0.6734827756881714,0.37645748257637024,-0.6361608505249023, 279, 208, 149, 248
1730927005833,6i,9.042456477175897,1.0s : 0.3s,-19.315655798882432,1.0120705075798004,2.7696507808973605,0.9056543886355796,1.5617741346359253,-1.7819186449050903,-3.203176498413086,0.900940477848053,0.09203088283538818,0.0068149566650390625,-0.35182823661127505,-0.8359044322552692,3.060451919517887,-0.6964573860168457,0.3446146249771118,-0.6294345259666443, 279, 208, 149, 248
1730927005843,6i,9.042456477175897,1.0s : 0.3s,-19.315655798882432,1.0263549120219122,2.718388115009238,0.9217263263480899,1.5560652017593384,-1.821552038192749,-3.050621509552002,0.9186693429946899,0.06817644834518433,0.031273484230041504,-0.3181287642087203,-0.8570518457017218,3.050854425172535,-0.7179857492446899,0.31278976798057556,-0.6218191385269165, 279, 208, 149, 248
1730927005853,6i,9.042456477175897,1.0s : 0.3s,-19.315655798882432,1.0405570476410833,2.6413605712644044,0.9539583607243197,1.4693962335586548,-1.8121299743652344,-2.8396589756011963,0.9506305456161499,0.038214534521102905,0.06984102725982666,-0.28580522200164893,-0.8775913720334931,3.0430811115572225,-0.7379992604255676,0.2819300889968872,-0.6130844354629517, 279, 208, 149, 248
1730927005863,6i,9.042456477175897,1.0s : 0.3s,-19.315655798882432,1.0543514645876226,2.5524606552079563,1.0157423334227973,1.4143556356430054,-1.7747881412506104,-2.6654834747314453,0.9988197088241577,-0.0881396234035492,0.16224390268325806,-0.2554599307774637,-0.8972782411356133,3.0365455512032935,-0.7562659978866577,0.2526904344558716,-0.6034975647926331, 279, 208, 149, 248
1730927005873,6i,9.042456477175897,1.0s : 0.3s,-19.315655798882432,1.0670250765602292,2.4220424570448778,1.0068152239347268,1.297722339630127,-1.6810996532440186,-2.3450913429260254,0.9449957609176636,-0.23364830017089844,0.2570376992225647,-0.22781657067249508,-0.9158976713863094,3.0310036043829434,-0.7726172208786011,0.22585104405879974,-0.5933414101600647, 279, 208, 149, 248
1730927005883,6i,9.042456477175897,1.0s : 0.3s,-19.315655798882432,1.0784545277231081,2.2775099810035617,1.0367716898190864,1.2329821586608887,-1.5781874656677246,-2.09651780128479,0.9229125380516052,-0.33493298292160034,0.33308839797973633,-0.20238537847728566,-0.9329833873676125,3.0276354685090863,-0.7870025038719177,0.20100659132003784,-0.5832868218421936, 279, 208, 149, 248
1730927005893,6i,9.042456477175897,1.0s : 0.3s,-19.315655798882432,1.0888133404380909,2.1125095839938597,1.0916513676358097,1.2282859086990356,-1.4293628931045532,-1.7737153768539429,0.9347543120384216,-0.416421502828598,0.3801712989807129,-0.17943729821884447,-0.9482680164446067,3.0262280756429196,-0.7993630170822144,0.17847593128681183,-0.5737290978431702, 279, 208, 149, 248
1730927005903,6i,9.042456477175897,1.0s : 0.3s,-19.315655798882432,1.0978236723038113,1.9262917807439763,1.1757815584690292,1.1546119451522827,-1.2448230981826782,-1.4606945514678955,0.9098680019378662,-0.558303952217102,0.4928480386734009,-0.15944252863434047,-0.9616059495784942,3.026529598359902,-0.8097092509269714,0.15876783430576324,-0.5649458169937134, 279, 208, 149, 248
1730927005913,6i,9.042456477175897,1.0s : 0.3s,-19.315655798882432,1.1054155769787757,1.7298581679073943,1.2923799461241565,1.1616188287734985,-1.0494548082351685,-1.1267691850662231,0.9207158088684082,-0.7130516171455383,0.5604335069656372,-0.14218007242262667,-0.9727270145331948,3.0287440644905836,-0.8180851936340332,0.14170151948928833,-0.5573664903640747, 279, 208, 149, 248
1730927005923,6i,9.042456477175897,1.0s : 0.3s,-19.315655798882432,1.1119837023059318,1.5205301187105709,1.362464299322721,1.093268871307373,-0.8582121133804321,-0.7767990231513977,0.9223945736885071,-0.7807824611663818,0.629186749458313,-0.12800982658982143,-0.9817395236501006,3.0328306923020176,-0.8246620297431946,0.12766051292419434,-0.5510312914848328, 279, 208, 149, 248
1730927005933,6i,9.042456477175897,1.0s : 0.3s,-19.315655798882432,1.1179123686767265,1.3018421382083745,1.4780933999998875,1.0394917726516724,-0.6302836537361145,-0.40774887800216675,0.9666224718093872,-0.8765658736228943,0.6942862272262573,-0.1171442732466573,-0.9884693041539812,3.038478204635225,-0.8294611573219299,0.11687653511762619,-0.5461996793746948, 279, 208, 149, 248
1730927005943,6i,9.042456477175897,1.0s : 0.3s,-19.315655798882432,1.1234903512616756,1.0664975955010294,1.631698952627188,0.8712734580039978,-0.39622530341148376,-0.010918702930212021,1.009193778038025,-0.9908143877983093,0.8137912750244141,-0.11022382841457865,-0.9927537683746841,3.045441700949442,-0.8324511647224426,0.11000077426433563,-0.5430698394775391, 279, 208, 149, 248
1730927005953,6i,9.042456477175897,1.0s : 0.3s,-19.315655798882432,1.1288403873201263,0.8328385483735933,1.8216156271801767,0.7606652975082397,-0.10756364464759827,0.4225998818874359,1.0427513122558594,-1.1411992311477661,0.9636480212211609,-0.10750115149028723,-0.9944126712711218,3.0534195263144825,-0.8335989713668823,0.10729421675205231,-0.5418493151664734, 279, 208, 149, 248
1730927005963,6i,9.042456477175897,1.0s : 0.3s,-19.315655798882432,1.1342853319202404,0.6392167101426293,2.0102273173791745,0.6648980379104614,0.26729702949523926,0.8837421536445618,1.0874919891357422,-1.2798519134521484,1.1046963930130005,-0.10909338860040685,-0.9926011331888281,3.0629714537830033,-0.8324718475341797,0.10887712240219116,-0.5432644486427307, 279, 208, 149, 248
1730927005973,6i,9.042456477175897,1.0s : 0.3s,-19.315655798882432,1.140357747798136,0.5929062619124246,2.113266679776318,0.5857816338539124,0.6375928521156311,1.3956462144851685,1.113463044166565,-1.3412988185882568,1.1945767402648926,-0.11512774349824202,-0.9867833012138355,3.074543286927699,-0.8287339806556702,0.11487358808517456,-0.5477262139320374, 279, 208, 149, 248
1730927005983,6i,9.042456477175897,1.0s : 0.3s,-19.315655798882432,1.1473259192765546,0.7647227861472382,2.1538042761388154,0.5619620680809021,1.0266462564468384,1.8973439931869507,1.0908700227737427,-1.3719004392623901,1.2517046928405762,-0.12558722958625398,-0.9767892178710795,3.088669230429057,-0.8221779465675354,0.12525735795497894,-0.5552782416343689, 279, 208, 149, 248
1730927005993,6i,9.042456477175897,1.0s : 0.3s,-19.315655798882432,1.1556459431786053,1.0656857633150838,2.2441789796772773,0.5354212522506714,1.442161202430725,2.379784107208252,1.1548938751220703,-1.4463427066802979,1.2691147327423096,-0.14016051366480622,-0.9622353220555413,3.1053832796753302,-0.8124256134033203,0.13970205187797546,-0.566081166267395, 279, 208, 149, 248
1730927006003,6i,9.042456477175897,1.0s : 0.3s,-19.315655798882432,1.1660506586728883,1.431482778771674,2.3368329565197272,0.563686192035675,1.881069540977478,2.879709243774414,1.2513856887817383,-1.4794204235076904,1.3061919212341309,-0.15842698424046994,-0.9426896167481034,3.125284587714925,-0.799008309841156,0.15776509046554565,-0.5802549719810486, 279, 208, 149, 248
1730927006013,6i,9.042456477175897,1.0s : 0.3s,-19.315655798882432,1.1793226704558581,1.8320575389537213,2.4211756951716192,0.5547717809677124,2.338249444961548,3.400506019592285,1.3656526803970337,-1.4760394096374512,1.3484777212142944,-0.1802145713694026,-0.9176040973938877,-3.1342916789266653,-0.7812867760658264,0.17924067378044128,-0.5978826284408569, 279, 208, 149, 248
1730927006023,6i,9.042456477175897,1.0s : 0.3s,-19.315655798882432,1.1961984604238716,2.2675897815880037,2.5300496515852595,0.553375244140625,2.8316261768341064,3.9810895919799805,1.5320556163787842,-1.490159511566162,1.3540241718292236,-0.20570326292658767,-0.8864482227037392,-3.1065590397259606,-0.7584960460662842,0.20425564050674438,-0.6188404560089111, 279, 208, 149, 248
1730927006033,6i,9.042456477175897,1.0s : 0.3s,-19.315655798882432,1.2192665428491838,2.7373451970012077,2.9329322758150638,0.5964136719703674,3.361618757247925,4.5955305099487305,2.0755882263183594,-1.5540869235992432,1.3707075119018555,-0.23470254615408556,-0.8483308462395917,-3.073696601256168,-0.7296105623245239,0.23255369067192078,-0.6431074738502502, 279, 208, 149, 248
1730927006043,6i,9.042456477175897,1.0s : 0.3s,-19.315655798882432,1.2471880464120237,3.253023018637067,2.937071763760526,0.6695461869239807,3.9685165882110596,5.290873050689697,2.0392603874206543,-1.5850573778152466,1.3983564376831055,-0.26667367291806954,-0.8019111277214995,-3.0342789986652394,-0.6932827234268188,0.2635241448879242,-0.6707563400268555, 279, 208, 149, 248
1730927006053,6i,9.042456477175897,1.0s : 0.3s,-19.315655798882432,1.281125532301991,3.8149205203238847,3.214961684785732,0.6485706567764282,4.646749019622803,6.03668737411499,2.360747814178467,-1.626583218574524,1.455017328262329,-0.3013986093510538,-0.7456148650718103,-2.9872082536695204,-0.6478418111801147,0.2968560457229614,-0.7015535831451416, 279, 208, 149, 248
1730927006063,6i,9.042456477175897,1.0s : 0.3s,-19.315655798882432,1.3219869660216272,4.432983001795884,3.5448435086411836,0.3880916237831116,5.4120073318481445,6.888585567474365,2.7071032524108887,-1.7157551050186157,1.5144939422607422,-0.3395681600829259,-0.6780493375823793,-2.9320117075004517,-0.5914567708969116,0.3330799341201782,-0.7343273758888245, 279, 208, 149, 248
1730927006073,6i,9.042456477175897,1.0s : 0.3s,-19.315655798882432,1.3707859832637361,5.11510045761812,3.945834744050595,-0.025292091071605682,6.352687358856201,7.750576019287109,3.103402614593506,-1.8361799716949463,1.6021695137023926,-0.3817134601998968,-0.5966864458313852,-2.8680539006566956,-0.5214630365371704,0.3725111484527588,-0.7676663994789124, 279, 208, 149, 248
1730927006083,6i,9.042456477175897,1.0s : 0.3s,-19.315655798882432,1.4293798906107034,5.886692559369588,4.501663961162261,-0.45543333888053894,7.3606486320495605,8.806706428527832,3.626518964767456,-1.9524906873703003,1.8168981075286865,-0.4268360190611423,-0.498527404165585,-2.792551227488493,-0.4352346956729889,0.4139927625656128,-0.7994877696037292, 279, 208, 149, 248
1730927006093,6i,9.042456477175897,1.0s : 0.3s,-19.315655798882432,1.5006713791472017,6.737035897194269,5.223728926051518,-0.9311162233352661,8.424290657043457,9.895164489746094,4.347904205322266,-1.9870398044586182,2.1058835983276367,-0.47283073359579136,-0.38019742274506024,-2.7019148849896393,-0.33038729429244995,0.4554082453250885,-0.8267088532447815, 279, 208, 149, 248
1730927006103,6i,9.042456477175897,1.0s : 0.3s,-19.315655798882432,1.5875281749284917,7.669739878727969,6.041629089193565,-1.5089290142059326,9.513313293457031,11.112092971801758,5.241323471069336,-1.9580199718475342,2.2794666290283203,-0.5164213352260247,-0.23837087432384982,-2.5924819469724003,-0.20532791316509247,0.4937713146209717,-0.8450031280517578, 279, 208, 149, 248
1730927006113,6i,9.042456477175897,1.0s : 0.3s,-19.315655798882432,1.6920019978653662,8.621774493035536,6.872963126302025,-2.086894989013672,10.43678092956543,12.198802947998047,6.197139739990234,-1.847048282623291,2.3284101486206055,-0.5522088861763814,-0.07174791372474375,-2.4617646268227347,-0.06103147566318512,0.5245690941810608,-0.8491774797439575, 279, 208, 149, 248
1730927006123,6i,9.042456477175897,1.0s : 0.3s,-19.315655798882432,1.8168346294189786,9.47810903768919,7.911880535043085,-3.270313262939453,10.826842308044434,12.916496276855469,7.366812229156494,-1.5802676677703857,2.4146811962127686,-0.5758124162234072,0.1151125730968379,-2.312263422963455,0.09633760899305344,0.544516384601593,-0.8331992626190186, 279, 208, 149, 248
1730927006133,6i,9.042456477175897,1.0s : 0.3s,-19.315655798882432,1.966568924718299,10.181416995566263,9.379697476418949,-5.089770793914795,10.646390914916992,13.306785583496094,8.918712615966797,-1.1756999492645264,2.655752182006836,-0.5884031139043123,0.313277858287881,-2.1481359545320236,0.25635161995887756,0.5550333857536316,-0.7913417816162109, 279, 208, 149, 248
1730927006143,6i,9.042456477175897,1.0s : 0.3s,-19.315655798882432,2.145627512782706,10.714435354781694,11.05407669001343,-7.315021991729736,9.981876373291016,13.290352821350098,10.616829872131348,-0.35998356342315674,3.0571141242980957,-0.5910692366249077,0.5155267595694205,-1.9707965402986405,0.4093545973300934,0.5572491884231567,-0.7224279642105103, 279, 208, 149, 248
1730927006153,6i,9.042456477175897,1.0s : 0.3s,-19.315655798882432,2.354091897404243,11.05792515823551,12.422605364258747,-9.874378204345703,8.485445022583008,12.866007804870605,11.999722480773926,0.9670764207839966,3.0647263526916504,-0.5855809882543013,0.7128502914434232,-1.7828912256578413,0.5450316667556763,0.5526836514472961,-0.6304610967636108, 279, 208, 149, 248
1730927006163,6i,9.042456477175897,1.0s : 0.3s,-19.315655798882432,2.588875582815917,11.39539517846021,13.539481925766495,-13.222234725952148,6.10550594329834,12.688281059265137,13.004024505615234,2.6253087520599365,2.705673933029175,-0.572420336311573,0.899139204445391,-1.578138061162333,0.6580085754394531,0.541668176651001,-0.523087203502655, 279, 208, 149, 248
1730927006173,6i,9.042456477175897,1.0s : 0.3s,-19.315655798882432,2.8469735445014797,11.909350349533598,14.770128196764638,-16.511812210083008,3.5736258029937744,12.55611515045166,13.73237133026123,4.844974040985107,2.4708077907562256,-0.5498739301439456,1.0682294390658498,-1.3489632554604085,0.7471667528152466,0.5225797295570374,-0.4106728136539459, 279, 208, 149, 248
1730927006183,6i,9.042456477175897,1.0s : 0.3s,-19.315655798882432,3.1249714629858136,12.61623399557787,16.21503305893023,-18.845382690429688,1.0471657514572144,12.603100776672363,13.892309188842773,7.942571640014648,2.616600513458252,-0.5083997012329514,1.217958131031851,-1.0996512255370354,0.8197117447853088,0.48677995800971985,-0.3018573820590973, 279, 208, 149, 248
1730927006193,6i,9.042456477175897,1.0s : 0.3s,-19.315655798882432,3.4142407245167035,13.24907892233275,17.449551717161405,-19.459503173828125,-1.6652494668960571,12.422076225280762,12.684344291687012,11.639866828918457,2.8474137783050537,-0.4446825083176753,1.3283238163292896,-0.8520999010624245,0.8763394355773926,0.43017128109931946,-0.2167528122663498, 279, 208, 149, 248
1730927006203,6i,9.042456477175897,1.0s : 0.3s,-19.315655798882432,3.702363245852518,13.697531929965011,17.77975852868937,-18.406612396240234,-3.822031259536743,12.953218460083008,10.199148178100586,14.271409034729004,2.902425527572632,-0.3598742264853874,1.3911431256505091,-0.6209709051998018,0.9208778738975525,0.35215651988983154,-0.16724179685115814, 279, 208, 149, 248
1730927006213,6i,9.042456477175897,1.0s : 0.3s,-19.315655798882432,3.9781095148797725,13.840375862523661,16.71344073275571,-17.191556930541992,-4.443795204162598,12.345941543579102,7.19429349899292,14.688499450683594,3.439364194869995,-0.2630244247530968,1.4128898728143067,-0.41312633386002434,0.9535945653915405,0.26000213623046875,-0.1518428772687912, 279, 208, 149, 248
1730927006223,6i,9.042456477175897,1.0s : 0.3s,-19.315655798882432,4.234959557552079,13.726785242792994,15.56482371087067,-17.065444946289062,-5.077653408050537,10.167730331420898,4.369687080383301,14.210262298583984,4.6084723472595215,-0.1789360967375453,1.4064993930132488,-0.22481048064596645,0.9707822203636169,0.17798276245594025,-0.16094733774662018, 279, 208, 149, 248
1730927006233,6i,9.042456477175897,1.0s : 0.3s,-19.315655798882432,4.463573684024658,13.221654533509358,13.417860053906747,-15.140810012817383,-6.633417129516602,8.34565544128418,1.5879154205322266,12.446016311645508,4.755435943603516,-0.11857679777111445,1.3753929005528676,-0.039784000757448895,0.9740810394287109,0.11829911917448044,-0.19279888272285461, 279, 208, 149, 248
1730927006243,6i,9.042456477175897,1.0s : 0.3s,-19.315655798882432,4.659127910920243,11.021426526289202,9.577833232402826,-4.640538692474365,-3.572620391845703,7.654226303100586,0.4433589577674866,8.823665618896484,3.698817014694214,-0.07182769416124415,1.3216706305597945,0.07621852086599266,0.9666294455528259,0.0717659443616867,-0.24592098593711853, 279, 208, 149, 248
1730927006253,6i,9.042456477175897,1.0s : 0.3s,-19.315655798882432,4.821264404919676,10.444169240997056,4.400904172750937,-0.8577456474304199,-10.216649055480957,14.863167762756348,2.1695239543914795,3.764108419418335,-0.701862633228302,0.05180547851527795,1.2165847370056895,0.10433866694813264,0.9366618990898132,-0.051782310009002686,-0.346385657787323, 279, 208, 149, 248
1730927006263,6i,9.042456477175897,1.0s : 0.3s,-19.315655798882432,4.988900624247925,12.800700679496419,11.668989015745101,-33.122779846191406,-3.970808982849121,1.767259955406189,10.737100601196289,-0.8375784754753113,-4.49204158782959,0.05628056523985652,1.129522621666552,0.31497416403302336,0.9027767181396484,-0.056250859051942825,-0.42641526460647583, 279, 208, 149, 248
1730927006273,6i,9.042456477175897,1.0s : 0.3s,-19.315655798882432,5.180299961690531,13.19197508473039,14.63407506785382,-21.037588119506836,-8.372772216796875,0.0069457488134503365,11.589959144592285,-4.232512950897217,7.868597984313965,-0.08177068691505993,1.0782344722355799,0.5634879474718422,0.8781800866127014,0.08167959004640579,-0.47130462527275085, 279, 208, 149, 248
1730927006283,6i,9.042456477175897,1.0s : 0.3s,-19.315655798882432,5.352272542673137,12.5391343464122,13.789699959470763,-13.040382385253906,-13.309568405151367,-0.9677770733833313,1.389150619506836,0.4195478856563568,13.713134765625,-0.15991391949683464,0.9865971914262863,0.7120442362155854,0.8235111236572266,0.1592332273721695,-0.5444945096969604, 279, 208, 149, 248
1730927006293,6i,9.042456477175897,1.0s : 0.3s,-19.315655798882432,5.555049884572677,10.915439499597504,13.88317575210102,-4.421046257019043,-13.905008316040039,-2.8860368728637695,7.289299964904785,9.69489574432373,6.754085540771484,-0.23330104113142702,0.8600001203085134,0.7674272985275722,0.7373115420341492,0.23119038343429565,-0.6347618699073792, 279, 208, 149, 248
1730927006303,6i,9.042456477175897,1.0s : 0.3s,-19.315655798882432,5.764448708779035,10.319043435539829,12.934296908789067,-5.152385711669922,-14.202446937561035,-0.7128406763076782,4.727880954742432,10.96846866607666,4.963453769683838,-0.27489394390892746,0.7274823836191366,0.7773473017727172,0.6400236487388611,0.2714448571205139,-0.7188096642494202, 279, 208, 149, 248
1730927006313,6i,9.042456477175897,1.0s : 0.3s,-19.315655798882432,5.938291042367853,10.63648054286077,5.6900972137438925,-8.226778984069824,-15.37374210357666,-2.0433120727539062,1.219442367553711,3.3027265071868896,4.470141410827637,-0.3460778298013878,0.5920852160929277,0.8066035066991285,0.5250034332275391,0.3392108082771301,-0.7805814743041992, 279, 208, 149, 248
1730927006323,6i,9.042456477175897,1.0s : 0.3s,-19.315655798882432,6.103433749702285,10.70468258370494,8.888681970651248,-6.546576976776123,-15.14995288848877,-3.0085086822509766,3.2024333477020264,0.4791390299797058,8.27789306640625,-0.42254413328816465,0.4439435801734096,0.819979317857171,0.39172860980033875,0.4100821614265442,-0.8236390948295593, 279, 208, 149, 248
1730927006333,6i,9.042456477175897,1.0s : 0.3s,-19.315655798882432,6.257098731813021,10.352577314633901,7.898519260951339,-3.4010908603668213,-14.15717601776123,-3.9652724266052246,2.1179754734039307,2.6998746395111084,7.114173412322998,-0.4836652980038962,0.29064312770743606,0.804559242285904,0.2536980211734772,0.4650271534919739,-0.8481668829917908, 279, 208, 149, 248
1730927006343,6i,9.042456477175897,1.0s : 0.3s,-19.315655798882432,6.390281695634914,9.75391650015722,7.364520247658723,0.07542186975479126,-13.24899673461914,-3.5711703300476074,-0.23475949466228485,3.0163724422454834,6.714353561401367,-0.5058756331775675,0.1347614909184205,0.7657389107629068,0.11752620339393616,0.4845735728740692,-0.8668195009231567, 279, 208, 149, 248
1730927006353,6i,9.042456477175897,1.0s : 0.3s,-19.315655798882432,6.498280647619632,9.199471051086201,5.562266689435588,0.8397181630134583,-12.167342185974121,-3.2395336627960205,-1.119612455368042,2.227598190307617,4.972231388092041,-0.5027230028299671,-0.010745534437205021,0.7273115131922149,-0.00941584911197424,0.4818134307861328,-0.8762232661247253, 279, 208, 149, 248
1730927006363,6i,9.042456477175897,1.0s : 0.3s,-19.315655798882432,6.5843318753340805,8.74511827669992,4.7177693539791346,1.013219952583313,-11.424704551696777,-3.327256441116333,-1.1491655111312866,1.0613675117492676,4.450872421264648,-0.4904890567622602,-0.1456513471819401,0.6921448922430041,-0.12802565097808838,0.47105735540390015,-0.8727625012397766, 279, 208, 149, 248
1730927006373,6i,9.042456477175897,1.0s : 0.3s,-19.315655798882432,6.649548247996127,8.40009296607822,4.6646266015312134,0.8361271619796753,-10.994102478027344,-3.472490072250366,-1.7985118627548218,0.38780733942985535,4.2864556312561035,-0.47470016722836755,-0.2741328274291397,0.6573403288552948,-0.24077953398227692,0.45707178115844727,-0.8562187552452087, 279, 208, 149, 248
1730927006383,6i,9.042456477175897,1.0s : 0.3s,-19.315655798882432,6.695076777229097,8.067420176636887,3.9554482448522186,1.1506649255752563,-10.218257904052734,-4.182373523712158,-2.1740219593048096,0.18476608395576477,3.2992515563964844,-0.4544831060087334,-0.3973474945113199,0.6250400260451847,-0.3476913869380951,0.43899795413017273,-0.8284874558448792, 279, 208, 149, 248
1730927006393,6i,9.042456477175897,1.0s : 0.3s,-19.315655798882432,6.729277421803045,7.75900879817567,3.003787418282003,1.8102580308914185,-9.647067070007324,-4.332955837249756,-1.4478496313095093,0.37175485491752625,2.6054306030273438,-0.42722566821826313,-0.5125977902395813,0.5989327115435713,-0.4463612139225006,0.41434744000434875,-0.7931442856788635, 279, 208, 149, 248
1730927006403,6i,9.042456477175897,1.0s : 0.3s,-19.315655798882432,6.7581674511704515,7.500769987909306,2.1123857620761806,2.370971918106079,-9.501700401306152,-3.650087833404541,-0.6187912225723267,0.4552476108074188,1.967745065689087,-0.39143346011063396,-0.6191146161362674,0.5787089795206632,-0.5364211797714233,0.3815138339996338,-0.7527944445610046, 279, 208, 149, 248
1730927006413,6i,9.042456477175897,1.0s : 0.3s,-19.315655798882432,6.7838678938505135,7.260415346291902,1.4169463762475867,2.2043635845184326,-9.155582427978516,-3.5431277751922607,-0.10304015874862671,0.4231593906879425,1.3483530282974243,-0.35111573618174724,-0.7176721732416869,0.5648337777374351,-0.6175103187561035,0.3439456820487976,-0.7073770761489868, 279, 208, 149, 248
1730927006423,6i,9.042456477175897,1.0s : 0.3s,-19.315655798882432,6.807180308903204,7.014656140816768,0.8921427977243718,2.292186975479126,-8.554022789001465,-3.892085552215576,0.28952115774154663,0.3730469048023224,0.7569229006767273,-0.3095621908904719,-0.8104511709529103,0.5522768972352112,-0.6901558637619019,0.3046416640281677,-0.656413197517395, 279, 208, 149, 248
1730927006433,6i,9.042456477175897,1.0s : 0.3s,-19.315655798882432,6.829687346768521,6.772010779085958,0.9420304574106706,2.746187686920166,-7.9515061378479,-4.100384712219238,0.4950602054595947,0.5545451641082764,0.5786332488059998,-0.2629268045735276,-0.8951188886623493,0.5447263584109684,-0.7534677386283875,0.25990787148475647,-0.60393226146698, 279, 208, 149, 248
1730927006443,6i,9.042456477175897,1.0s : 0.3s,-19.315655798882432,6.8533927611139305,6.558932332712677,1.2219212025066442,3.3954484462738037,-7.414138317108154,-4.245502471923828,0.8636041283607483,0.7817243933677673,0.3690342903137207,-0.2111590565005105,-0.9719956731714771,0.5444566206007108,-0.8076653480529785,0.20959335565567017,-0.5511327385902405, 279, 208, 149, 248
1730927006453,6i,9.042456477175897,1.0s : 0.3s,-19.315655798882432,6.881141666622051,6.392074866294757,1.7376066258916891,3.8598878383636475,-7.145872116088867,-4.081831455230713,1.512199878692627,0.7788722515106201,0.3548046350479126,-0.15650402194643132,-1.0431443839849068,0.5532243044027534,-0.8534322381019592,0.15586592257022858,-0.49735233187675476, 279, 208, 149, 248
1730927006463,6i,9.042456477175897,1.0s : 0.3s,-19.315655798882432,6.91402387450968,6.282905130060593,2.1485859514121435,4.224238872528076,-7.281693458557129,-3.4328770637512207,1.9974465370178223,0.6885726451873779,0.39050817489624023,-0.10279175024632463,-1.1121083630604613,0.5704784152903082,-0.8919013738632202,0.10261082649230957,-0.44043493270874023, 279, 208, 149, 248
1730927006473,6i,9.042456477175897,1.0s : 0.3s,-19.315655798882432,6.950120280659006,6.1318484415119645,2.1223153915497797,4.171770095825195,-7.164159774780273,-2.647315502166748,2.0041987895965576,0.6145929098129272,0.3311878442764282,-0.05100232156284567,-1.1788777391704741,0.5937636676624327,-0.9229761958122253,0.05098021402955055,-0.3814655542373657, 279, 208, 149, 248
1730927006483,6i,9.042456477175897,1.0s : 0.3s,-19.315655798882432,6.986323637205749,5.94146595900675,1.8008131328529329,3.9350852966308594,-6.45397424697876,-3.2489683628082275,1.6939013004302979,0.5806711316108704,0.1909119188785553,-0.0023366467626762485,-1.2425832276526745,0.6193526424957613,-0.9466172456741333,0.0023366445675492287,-0.3223511278629303, 279, 208, 149, 248
1730927006493,6i,9.042456477175897,1.0s : 0.3s,-19.315655798882432,7.023367897654493,5.743291370590398,1.8226021256050178,4.209290981292725,-5.63297700881958,-3.753873825073242,1.6222050189971924,0.7238833904266357,0.4078262150287628,0.04463795899124794,-1.3028686973711834,0.6472316028634522,-0.9633609652519226,-0.04462313652038574,-0.26446986198425293, 279, 208, 149, 248
1730927006503,6i,9.042456477175897,1.0s : 0.3s,-19.315655798882432,7.0626031528055,5.560785980124882,2.0215313003977524,4.502447605133057,-5.081420421600342,-3.789968729019165,1.656240701675415,0.9796729683876038,0.6194323301315308,0.09147958968095743,-1.3586868050625316,0.6805842085214748,-0.9735012650489807,-0.09135205298662186,-0.20964232087135315, 279, 208, 149, 248
1730927006513,6i,9.042456477175897,1.0s : 0.3s,-19.315655798882432,7.104886355843562,5.446051854579315,2.2498863888670746,5.178680896759033,-4.60996150970459,-3.7666170597076416,1.7812004089355469,1.1739224195480347,0.7149965167045593,0.13758234972137792,-1.4117855489749533,0.7212888976255217,-0.9780541062355042,-0.13714870810508728,-0.15684528648853302, 279, 208, 149, 248
1730927006523,6i,9.042456477175897,1.0s : 0.3s,-19.315655798882432,7.15065790867526,5.398955223034745,2.4604002681509525,5.671253204345703,-4.414089202880859,-3.597604990005493,1.9559844732284546,1.2840451002120972,0.7608695030212402,0.18129208678352696,-1.4646845377860358,0.7708626144820382,-0.9780791997909546,-0.18030063807964325,-0.10417702794075012, 279, 208, 149, 248
1730927006533,6i,9.042456477175897,1.0s : 0.3s,-19.315655798882432,7.198230680234028,5.397302207337072,2.3933527374339008,6.107798099517822,-4.289222240447998,-3.3249664306640625,1.9669687747955322,1.2277324199676514,0.5931646227836609,0.22046555594051567,-1.51969273974721,0.8282903359092866,-0.9745216965675354,-0.21868392825126648,-0.049844954162836075, 279, 208, 149, 248
1730927006543,6i,9.042456477175897,1.0s : 0.3s,-19.315655798882432,7.245773441559957,5.319782353740539,2.207828528806515,5.893641471862793,-3.8930373191833496,-3.170151948928833,1.8362218141555786,1.1274795532226562,0.48123395442962646,0.25412249811003884,-1.5752555448285959,0.889459365879546,-0.9678747057914734,-0.25139617919921875,0.004315992817282677, 279, 208, 149, 248
1730927006553,6i,9.042456477175897,1.0s : 0.3s,-19.315655798882432,7.292530464124142,5.2030637407331195,2.05347209622393,5.830468654632568,-3.3640432357788086,-3.144726037979126,1.6908304691314697,1.0063685178756714,0.5874201059341431,0.28392585299967743,-1.6277133117235418,0.9508016497293543,-0.9584085941314697,-0.2801264822483063,0.05460871011018753, 279, 208, 149, 248
1730927006563,6i,9.042456477175897,1.0s : 0.3s,-19.315655798882432,7.339118738858907,5.118580071997817,2.068950432473589,6.123982906341553,-3.0438504219055176,-2.8972487449645996,1.5433870553970337,1.0200326442718506,0.9263075590133667,0.3091114377559185,-1.678605863004374,1.0157552122412592,-0.9470734596252441,-0.3042123019695282,0.10250098258256912, 279, 208, 149, 248
1730927006573,6i,9.042456477175897,1.0s : 0.3s,-19.315655798882432,7.3843287943996065,5.0459138982602845,1.8893773716193192,6.248504161834717,-2.77242374420166,-2.7017416954040527,1.365960955619812,0.9987045526504517,0.8405276536941528,0.3284941278822167,-1.7292516354363672,1.0844110779588756,-0.9346711039543152,-0.3226180374622345,0.1493557095527649, 279, 208, 149, 248
