timestamp,club,max_speed,tempo,w.rotation,l.speed,t.spped,acc,rotation.x,rotation.y,rotation.z,userAcceleration.x,userAcceleration.y,userAcceleration.z,pitch,roll,yaw,gravity.x,gravity.y,gravity.z,impactIndex,minDownIndex,StartIndex,endIndex
1730928472940,9i,9.510605596243554,0.8s : 0.3s,-25.606830748198192,0.00018819935052014322,0.0543095667465901,0.033545111429771284,-0.05388498678803444,-0.03389937803149223,-0.00042067142203450203,-0.02870047092437744,0.017114952206611633,0.0029386868700385094,-0.22440303537192374,1.5630557121346917,0.22268695552664228,0.9748982191085815,0.22252440452575684,-0.007546462118625641, 253, 197, 143, 222
1730928472950,9i,9.510605596243554,0.8s : 0.3s,-25.606830748198192,0.0005284363693584343,0.04777634527521741,0.03833723293907443,-0.06379620730876923,-0.04125414043664932,-0.0011970489285886288,-0.03367173671722412,0.018328800797462463,-0.00011241529136896133,-0.2245509256587681,1.5629764934376098,0.22331648675205645,0.974864661693573,0.2226685881614685,-0.007623434532433748, 253, 197, 143, 222
1730928472960,9i,9.510605596243554,0.8s : 0.3s,-25.606830748198192,0.0008435667506173512,0.03873156060170952,0.0326276469476645,-0.09237884730100632,-0.04366536810994148,-0.005501516163349152,-0.031191587448120117,0.008667588233947754,-0.004064619541168213,-0.22492900832046675,1.5629290223158019,0.22415869685705803,0.9747799634933472,0.22303715348243713,-0.007669048849493265, 253, 197, 143, 222
1730928472970,9i,9.510605596243554,0.8s : 0.3s,-25.606830748198192,0.001149488673453662,0.040711391541227604,0.025771836260579765,-0.10851480811834335,-0.042609646916389465,-0.007311699911952019,-0.02534538507461548,0.0046535879373550415,0.0003783106803894043,-0.22527433381469758,1.5627691026308896,0.22524057560060623,0.9747016429901123,0.22337377071380615,-0.007824316620826721, 253, 197, 143, 222
1730928472980,9i,9.510605596243554,0.8s : 0.3s,-25.606830748198192,0.0014536833189795315,0.046766201474931955,0.024585732183645556,-0.09415771067142487,-0.04221736267209053,0.0028258885722607374,-0.01632136106491089,0.018336638808250427,-0.0013561258092522621,-0.22549774277239648,1.5625287492236442,0.22627817913470014,0.9746499061584473,0.22359153628349304,-0.008058177307248116, 253, 197, 143, 222
1730928472990,9i,9.510605596243554,0.8s : 0.3s,-25.606830748198192,0.0017426059763511299,0.04717137216498612,0.02984478606742564,-0.06848376989364624,-0.045051053166389465,0.011544877663254738,-0.0029798150062561035,0.028096869587898254,-0.00961238145828247,-0.22558152728362668,1.5622950249059764,0.2271219990421216,0.9746291041374207,0.22367319464683533,-0.008285815827548504, 253, 197, 143, 222
1730928473000,9i,9.510605596243554,0.8s : 0.3s,-25.606830748198192,0.0020072826168105818,0.04360040472885169,0.02809122479291324,-0.025847360491752625,-0.036097507923841476,0.008633510209619999,-0.0044814348220825195,0.022451311349868774,-0.016277968883514404,-0.22561264557387964,1.5620418621361498,0.22762619264923153,0.9746201038360596,0.2237035185098648,-0.008532495237886906, 253, 197, 143, 222
1730928473010,9i,9.510605596243554,0.8s : 0.3s,-25.606830748198192,0.0022520523019656995,0.03575939803108134,0.03543471694425002,0.04011594504117966,-0.013799923472106457,0.005432524252682924,-0.018008887767791748,0.020087018609046936,-0.022974133491516113,-0.22570575021719347,1.5618669563710708,0.2276074547164637,0.9745978713035583,0.22379426658153534,-0.008702777326107025, 253, 197, 143, 222
1730928473020,9i,9.510605596243554,0.8s : 0.3s,-25.606830748198192,0.002497215400848894,0.013853559932334987,0.04278124857586217,0.10840525478124619,-0.008264010772109032,0.010367361828684807,-0.019186317920684814,0.02754063904285431,-0.02652609348297119,-0.2258234875939135,1.5616910306229597,0.2268654409449186,0.9745699167251587,0.22390902042388916,-0.00887399259954691, 253, 197, 143, 222
1730928473030,9i,9.510605596243554,0.8s : 0.3s,-25.606830748198192,0.0027579608131429135,0.032621589455532674,0.029245206622195236,0.14955228567123413,-0.01273292861878872,0.013798411935567856,-0.001345217227935791,0.02104833722114563,-0.020259318873286247,-0.22589353246922533,1.561335526265311,0.22551763236570072,0.9745507836341858,0.22397728264331818,-0.00922030583024025, 253, 197, 143, 222
1730928473040,9i,9.510605596243554,0.8s : 0.3s,-25.606830748198192,0.003007755699320776,0.049704271050315676,0.00867629119625173,0.13494591414928436,-0.007324047386646271,0.017279163002967834,-0.001994192600250244,-0.006547018885612488,-0.005332707427442074,-0.22583859830191177,1.5608936267980864,0.22404093822011445,0.9745590090751648,0.22392374277114868,-0.009651080705225468, 253, 197, 143, 222
1730928473050,9i,9.510605596243554,0.8s : 0.3s,-25.606830748198192,0.003204385150419527,0.055268029185083174,0.03983276270825402,0.10638365149497986,0.0006907801143825054,0.02242295816540718,-0.01716029644012451,-0.034787654876708984,0.009054958820343018,-0.22569424417708187,1.5605978458188323,0.2228089253883174,0.9745884537696838,0.22378304600715637,-0.009939666837453842, 253, 197, 143, 222
1730928473060,9i,9.510605596243554,0.8s : 0.3s,-25.606830748198192,0.003304802269912273,0.055151457138017175,0.05832469142950329,0.07641696184873581,0.010837956331670284,0.03401276841759682,-0.031220674514770508,-0.04720744490623474,0.014088870026171207,-0.22552112390379406,1.5604745458387597,0.22188206619194228,0.9746258854866028,0.22361432015895844,-0.010060232132673264, 253, 197, 143, 222
1730928473070,9i,9.510605596243554,0.8s : 0.3s,-25.606830748198192,0.0034908443176377675,0.054592187322647624,0.058386754207476174,0.0669475570321083,0.015603860840201378,0.04169213026762009,-0.04053759574890137,-0.041074588894844055,0.0088653564453125,-0.225271900245549,1.5603863368507995,0.22115860300466772,0.9746808409690857,0.22337140142917633,-0.010146783664822578, 253, 197, 143, 222
1730928473080,9i,9.510605596243554,0.8s : 0.3s,-25.606830748198192,0.0038246520499849953,0.055248404633885084,0.055310794169425546,0.0806465893983841,0.025992318987846375,0.052869681268930435,-0.040591418743133545,-0.037026673555374146,0.006375431083142757,-0.22489177200155908,1.560343106941054,0.220391048834999,0.9747653007507324,0.22300085425376892,-0.010189807042479515, 253, 197, 143, 222
1730928473090,9i,9.510605596243554,0.8s : 0.3s,-25.606830748198192,0.004291216650706489,0.0590296245461356,0.055804099529446496,0.06922589242458344,0.11577502638101578,0.04084151238203049,-0.03974682092666626,-0.039169564843177795,-0.00018149521201848984,-0.22444465310112915,1.560527579767427,0.21954767701738853,0.9748665690422058,0.22256498038768768,-0.010011009871959686, 253, 197, 143, 222
1730928473100,9i,9.510605596243554,0.8s : 0.3s,-25.606830748198192,0.0047511447489621455,0.1931677935049011,0.030357559132746965,0.07167946547269821,0.7408684492111206,-0.5010640621185303,0.01583319902420044,-0.02452579140663147,-0.008329271338880062,-0.22448075164018813,1.5605739954286877,0.21838860950865358,0.9748590588569641,0.22260017693042755,-0.009965679608285427, 253, 197, 143, 222
1730928473110,9i,9.510605596243554,0.8s : 0.3s,-25.606830748198192,0.00531833013580643,0.3294573032446331,0.05176462258803374,0.21987426280975342,0.7863132953643799,-0.517651379108429,-0.049592018127441406,-0.007576167583465576,-0.012759685516357422,-0.22293448426032972,1.5594565116749017,0.2169007215753428,0.9751903414726257,0.22109243273735046,-0.011058952659368515, 253, 197, 143, 222
1730928473120,9i,9.510605596243554,0.8s : 0.3s,-25.606830748198192,0.005882570124277018,0.2926152954583033,0.02571999801785156,0.26893579959869385,0.2288217693567276,-0.07490964978933334,-0.012264072895050049,-0.00971829891204834,-0.0204123854637146,-0.2221270266531856,1.559451177710634,0.214854496354324,0.9753684401512146,0.22030489146709442,-0.011066175065934658, 253, 197, 143, 222
1730928473130,9i,9.510605596243554,0.8s : 0.3s,-25.606830748198192,0.006392940580217993,0.2260412155185968,0.036561643925658374,0.1955188512802124,0.06095580756664276,0.07998445630073547,0.02118825912475586,-0.026141434907913208,0.014298141933977604,-0.22155304420108476,1.5600034165027767,0.2126183808415513,0.9755006432533264,0.2197449654340744,-0.010528899729251862, 253, 197, 143, 222
1730928473140,9i,9.510605596243554,0.8s : 0.3s,-25.606830748198192,0.00682974917857634,0.1900475765272648,0.06078418173530062,0.21523210406303406,0.06411724537611008,0.06660313904285431,0.01839381456375122,-0.02903449535369873,0.05013364553451538,-0.22071788990279725,1.5602007053581814,0.21040565367509764,0.9756859540939331,0.21893015503883362,-0.01033838652074337, 253, 197, 143, 222
1730928473150,9i,9.510605596243554,0.8s : 0.3s,-25.606830748198192,0.007052107733088502,0.17954555899074287,0.06796078867927167,0.24152588844299316,0.04188087210059166,0.07903227210044861,0.043638646602630615,-0.03252379596233368,0.04070061445236206,-0.21977462272128376,1.5602687018741903,0.20807730421770276,0.9758927822113037,0.21800966560840607,-0.010274212807416916, 253, 197, 143, 222
1730928473160,9i,9.510605596243554,0.8s : 0.3s,-25.606830748198192,0.007303892937164698,0.17562603387272466,0.03696828219127596,0.2514365613460541,0.04724341258406639,0.08090820163488388,0.02308100461959839,-0.018992826342582703,0.021753014996647835,-0.21884025525260023,1.5601887687456288,0.2055626608281999,0.9760950207710266,0.2170976847410202,-0.010354372672736645, 253, 197, 143, 222
1730928473170,9i,9.510605596243554,0.8s : 0.3s,-25.606830748198192,0.007569751962277018,0.16155207098087204,0.014322185958058288,0.21414312720298767,0.024805614724755287,0.06203261762857437,-0.0021257996559143066,0.006501704454421997,-0.01258307695388794,-0.21806176958368903,1.5600381811791666,0.2031790680803891,0.9762623310089111,0.21633769571781158,-0.010503177531063557, 253, 197, 143, 222
1730928473180,9i,9.510605596243554,0.8s : 0.3s,-25.606830748198192,0.0077611533545834865,0.1575085816937448,0.051047267882189544,0.20990870893001556,0.027303127571940422,0.050259850919246674,-0.008786797523498535,0.030178949236869812,-0.04022246599197388,-0.21751930903119812,1.5598265799256725,0.20101488777871235,0.9763773679733276,0.21580804884433746,-0.01071104221045971, 253, 197, 143, 222
1730928473190,9i,9.510605596243554,0.8s : 0.3s,-25.606830748198192,0.007784680412435771,0.14368834339009984,0.04804106397395199,0.1695101410150528,0.025434741750359535,0.05576999858021736,0.0002320408821105957,0.03885391354560852,-0.028253555297851562,-0.21694859236681213,1.5596655491308145,0.19906115326842644,0.9764984846115112,0.21525074541568756,-0.010869636200368404, 253, 197, 143, 222
1730928473200,9i,9.510605596243554,0.8s : 0.3s,-25.606830748198192,0.007657713169561013,0.1278213686578564,0.03657684157881724,0.13264800608158112,0.019556613638997078,0.05009240284562111,0.017939329147338867,0.0309886634349823,-0.007466495037078857,-0.21640889407970457,1.5595684353163806,0.19752288404935778,0.976613461971283,0.21472367644309998,-0.010965771041810513, 253, 197, 143, 222
1730928473210,9i,9.510605596243554,0.8s : 0.3s,-25.606830748198192,0.007355913640737582,0.11004390287438937,0.042212142560434776,0.09886101633310318,0.006637086160480976,0.04537028819322586,0.03307628631591797,0.026169151067733765,0.0017319917678833008,-0.21590664676581778,1.5594629183155613,0.19636606457090375,0.9767200350761414,0.21423311531543732,-0.011070040985941887, 253, 197, 143, 222
1730928473220,9i,9.510605596243554,0.8s : 0.3s,-25.606830748198192,0.006845507113503808,0.09715026451353309,0.05407273667537128,0.09850042313337326,-0.00044079707004129887,0.03447343036532402,0.03593796491622925,0.04032208025455475,-0.002540349029004574,-0.215507884817839,1.5592763672506522,0.19536701742366042,0.976803183555603,0.21384359896183014,-0.011253231205046177, 253, 197, 143, 222
1730928473230,9i,9.510605596243554,0.8s : 0.3s,-25.606830748198192,0.00629006607664858,0.0871080467035772,0.051277117220196976,0.08986246585845947,0.003212172072380781,0.03706441819667816,0.03638225793838501,0.03586567938327789,0.004396259784698486,-0.2151495064512678,1.5590960685402233,0.19439258639496573,0.976877748966217,0.2134934961795807,-0.011430243961513042, 253, 197, 143, 222
1730928473240,9i,9.510605596243554,0.8s : 0.3s,-25.606830748198192,0.005771274255818387,0.08276207935324614,0.04408205983934266,0.03531426563858986,0.10938361287117004,0.024403752759099007,0.03775954246520996,0.011056870222091675,0.019879400730133057,-0.21481948934846645,1.559257773896808,0.19367783134897543,0.9769501090049744,0.2131710648536682,-0.011273090727627277, 253, 197, 143, 222
1730928473250,9i,9.510605596243554,0.8s : 0.3s,-25.606830748198192,0.005207243933937517,0.1717036030268551,0.08203845652720942,-0.04305950179696083,0.7189764976501465,-0.2865484356880188,0.07806700468063354,0.0071175843477249146,0.02419072389602661,-0.2148689362918878,1.559405322073355,0.19322121690819108,0.9769412279129028,0.21321937441825867,-0.011128823272883892, 253, 197, 143, 222
1730928473260,9i,9.510605596243554,0.8s : 0.3s,-25.606830748198192,0.00484783200415614,0.233792557575649,0.036253832305789296,0.06639588624238968,0.5614667534828186,-0.07047712057828903,0.0025222301483154297,0.022189736366271973,0.02855861186981201,-0.2149037848277357,1.558589008569861,0.19278266916783252,0.9769243001937866,0.2132534235715866,-0.011926218867301941, 253, 197, 143, 222
1730928473270,9i,9.510605596243554,0.8s : 0.3s,-25.606830748198192,0.004642072597670891,0.1951359992507781,0.03939536367731233,0.10593051463365555,0.13234730064868927,-0.02909019961953163,0.014537274837493896,0.03575117886066437,0.007906676270067692,-0.21487625361041046,1.5588459527765541,0.1920359984422493,0.9769331216812134,0.2132265269756317,-0.011675272136926651, 253, 197, 143, 222
1730928473280,9i,9.510605596243554,0.8s : 0.3s,-25.606830748198192,0.0046037743743047805,0.14327982991362265,0.05555778931026103,0.07333847880363464,0.01590191386640072,0.03020588308572769,0.03359729051589966,0.04180744290351868,0.014492333866655827,-0.21475280648847345,1.559055661326842,0.1912038951816119,0.9769619107246399,0.2131059169769287,-0.011470709927380085, 253, 197, 143, 222
1730928473290,9i,9.510605596243554,0.8s : 0.3s,-25.606830748198192,0.004773701408082119,0.10449143513758519,0.051963708049738,0.004663278814405203,0.02157408930361271,0.006311067845672369,0.042689621448516846,0.01978778839111328,0.022051453590393066,-0.21467595949162516,1.5591277808747643,0.19070416209013394,0.9769790172576904,0.2130308300256729,-0.011400441639125347, 253, 197, 143, 222
1730928473300,9i,9.510605596243554,0.8s : 0.3s,-25.606830748198192,0.0051538421745592165,0.07399093355116047,0.0410027683094995,-0.05622111260890961,0.02133786678314209,0.00550519535318017,0.0228193998336792,-0.011521980166435242,0.0320584774017334,-0.21467468024771294,1.559396035087191,0.19098302274049236,0.9769823551177979,0.21302959322929382,-0.011138366535305977, 253, 197, 143, 222
1730928473310,9i,9.510605596243554,0.8s : 0.3s,-25.606830748198192,0.005661964571667482,0.0702551368921348,0.030836825599601363,-0.09042688459157944,0.059686630964279175,-0.07190201431512833,0.012322068214416504,-0.010701194405555725,0.026164114475250244,-0.21477163942883795,1.5598221012973639,0.19178243856387436,0.976966381072998,0.2131243199110031,-0.01072188001126051, 253, 197, 143, 222
1730928473320,9i,9.510605596243554,0.8s : 0.3s,-25.606830748198192,0.0062313333432382515,0.08447671649298119,0.02221766772673882,-0.10077299922704697,0.12342246621847153,-0.15591834485530853,0.005168914794921875,0.007763013243675232,0.02016538381576538,-0.2147393212637169,1.560308460957133,0.19282699127205125,0.9769784212112427,0.21309274435043335,-0.010246794670820236, 253, 197, 143, 222
1730928473330,9i,9.510605596243554,0.8s : 0.3s,-25.606830748198192,0.006814283701160902,0.12056106659543989,0.02484795581351624,-0.10321751236915588,0.177524596452713,-0.24717262387275696,-0.008272409439086914,0.016605958342552185,0.01652967929840088,-0.214699742304433,1.5608280876710958,0.19401751492921981,0.9769919514656067,0.21305407583713531,-0.00973921176046133, 253, 197, 143, 222
1730928473340,9i,9.510605596243554,0.8s : 0.3s,-25.606830748198192,0.007370829626525126,0.16868037738087377,0.020111177781164672,-0.09158216416835785,0.24049636721611023,-0.33676669001579285,-0.013020634651184082,0.012820497155189514,0.008399845100939274,-0.21477917446984265,1.561293279451036,0.19519712334815728,0.9769794940948486,0.21313168108463287,-0.00928456149995327, 253, 197, 143, 222
1730928473350,9i,9.510605596243554,0.8s : 0.3s,-25.606830748198192,0.007873626364066081,0.2259603189203779,0.022969799111643936,-0.07215360552072525,0.31691789627075195,-0.4296359121799469,-0.018578946590423584,0.013491928577423096,0.0006342539563775063,-0.21491969761649374,1.561682369951042,0.19625750845878095,0.9769530892372131,0.21326898038387299,-0.008904154412448406, 253, 197, 143, 222
1730928473360,9i,9.510605596243554,0.8s : 0.3s,-25.606830748198192,0.008307146023062656,0.287841875327005,0.03714543659233509,-0.040357593446969986,0.3849124014377594,-0.5189639329910278,-0.02458590269088745,0.026648923754692078,-0.008071660995483398,-0.21510311418002698,1.562096658804028,0.19709662881339093,0.9769176244735718,0.213448166847229,-0.008499073795974255, 253, 197, 143, 222
1730928473370,9i,9.510605596243554,0.8s : 0.3s,-25.606830748198192,0.008668734687149132,0.35247746805752694,0.038879784196785346,-0.007709767669439316,0.4432622194290161,-0.6092275381088257,-0.014574646949768066,0.029678240418434143,-0.02045530080795288,-0.21518857766163513,1.5622772917580245,0.19762121800161675,0.9769009947776794,0.21353165805339813,-0.008322454988956451, 253, 197, 143, 222
1730928473380,9i,9.510605596243554,0.8s : 0.3s,-25.606830748198192,0.008951437727182055,0.4214720528661969,0.03255724290507592,0.0009372499771416187,0.5174397230148315,-0.6989659667015076,-0.014016389846801758,0.0149010568857193,-0.025327324867248535,-0.21530472409825582,1.5623441673430736,0.19795980499018095,0.9768766164779663,0.21364513039588928,-0.008256914094090462, 253, 197, 143, 222
1730928473390,9i,9.510605596243554,0.8s : 0.3s,-25.606830748198192,0.009146111088304095,0.49454802278126425,0.03777846503573406,-0.007969026453793049,0.5969247221946716,-0.7915908098220825,-0.024466216564178467,0.00942184031009674,-0.02720010280609131,-0.21546225866609356,1.5624334068754961,0.19834482132632378,0.9768436551094055,0.21379901468753815,-0.008169455453753471, 253, 197, 143, 222
1730928473400,9i,9.510605596243554,0.8s : 0.3s,-25.606830748198192,0.009187967109707835,0.5670838082033565,0.044838989006986685,0.005528139881789684,0.6667852997779846,-0.8719463348388672,-0.027998030185699463,0.01842765510082245,-0.029783666133880615,-0.21564649623947463,1.5625161373531509,0.19875104234627058,0.9768049120903015,0.21397899091243744,-0.008088314905762672, 253, 197, 143, 222
1730928473410,9i,9.510605596243554,0.8s : 0.3s,-25.606830748198192,0.009142878757179314,0.6164338641230144,0.042660905692151835,0.023489829152822495,0.6776398420333862,-0.8545262813568115,-0.015490293502807617,0.020020276308059692,-0.03433936834335327,-0.21576562459819817,1.5624466238882013,0.1989729782475793,0.9767788648605347,0.2140953689813614,-0.008156003430485725, 253, 197, 143, 222
1730928473420,9i,9.510605596243554,0.8s : 0.3s,-25.606830748198192,0.009061912097142886,0.6414167237841784,0.03773938336303294,0.0044716643169522285,0.6558712124824524,-0.8108155131340027,-0.009314477443695068,0.010822698473930359,-0.03493380546569824,-0.215887089301004,1.5623832024622337,0.19918638992096271,0.9767524600028992,0.2142140120267868,-0.008217734284698963, 253, 197, 143, 222
1730928473430,9i,9.510605596243554,0.8s : 0.3s,-25.606830748198192,0.008934572141181586,0.6513341158454999,0.04139525006540351,0.001461360021494329,0.6318085193634033,-0.7817487120628357,-0.019015610218048096,0.009848639369010925,-0.035425662994384766,-0.2160407331492729,1.5622616594748129,0.19950834081605817,0.976718544960022,0.21436408162117004,-0.008336170576512814, 253, 197, 143, 222
1730928473440,9i,9.510605596243554,0.8s : 0.3s,-25.606830748198192,0.008729478828231569,0.65010165356173,0.04769217356267194,0.019734373316168785,0.6078802347183228,-0.7332083582878113,-0.019176185131072998,0.010248735547065735,-0.04244738817214966,-0.21620906641003015,1.562060961563429,0.1997303244140419,0.9766805768013,0.21452850103378296,-0.00853187870234251, 253, 197, 143, 222
1730928473450,9i,9.510605596243554,0.8s : 0.3s,-25.606830748198192,0.008509295995624831,0.6369350435193475,0.044931036324744836,0.04240266606211662,0.5873560309410095,-0.6864368915557861,-0.007852554321289062,0.007344946265220642,-0.04362553358078003,-0.21627634386627995,1.5617828627200974,0.1996728174841757,0.9766638278961182,0.21459421515464783,-0.00880336295813322, 253, 197, 143, 222
1730928473460,9i,9.510605596243554,0.8s : 0.3s,-25.606830748198192,0.008268961047478412,0.6172287186306243,0.05023222887083549,0.0426093265414238,0.5613055229187012,-0.6396499276161194,-0.0052114129066467285,0.010023131966590881,-0.04894542694091797,-0.21626822708374657,1.561433647075907,0.19945592105330873,0.9766623973846436,0.2145862877368927,-0.009144444018602371, 253, 197, 143, 222
1730928473470,9i,9.510605596243554,0.8s : 0.3s,-25.606830748198192,0.008050153442176619,0.5929511685618211,0.04486589428326148,0.041546594351530075,0.5271480083465576,-0.5998180508613586,0.0005402565002441406,0.007985368371009827,-0.04414623975753784,-0.21624549570837584,1.5610037473307499,0.19924910378971522,0.9766631722450256,0.21456408500671387,-0.009564357809722424, 253, 197, 143, 222
1730928473480,9i,9.510605596243554,0.8s : 0.3s,-25.606830748198192,0.007842007261511278,0.5632199494670737,0.04058422428313724,0.032944586127996445,0.48983126878738403,-0.5485615134239197,0.009805798530578613,-0.015556097030639648,-0.036179184913635254,-0.2161644797871315,1.560439453007285,0.19902891433758388,0.9766750335693359,0.21448495984077454,-0.010115661658346653, 253, 197, 143, 222
1730928473490,9i,9.510605596243554,0.8s : 0.3s,-25.606830748198192,0.007608963713603055,0.5304279138103196,0.05144896215615086,-0.0036336665507405996,0.45444175601005554,-0.501806378364563,0.016760706901550293,-0.039695337414741516,-0.028113245964050293,-0.21597685389787757,1.559805458095885,0.19901995510237314,0.976708710193634,0.2143016904592514,-0.010735309682786465, 253, 197, 143, 222
1730928473500,9i,9.510605596243554,0.8s : 0.3s,-25.606830748198192,0.007319828196320932,0.4983333963111199,0.050975292469086685,-0.018995845690369606,0.42634060978889465,-0.4659637212753296,0.003711104393005371,-0.044163644313812256,-0.025184929370880127,-0.2157868328424178,1.5591824312131042,0.1993133996016594,0.9767425656318665,0.21411608159542084,-0.011344295926392078, 253, 197, 143, 222
1730928473510,9i,9.510605596243554,0.8s : 0.3s,-25.606830748198192,0.006964993464687094,0.463544969586782,0.05135706631055469,-0.025742430239915848,0.39267274737358093,-0.41342729330062866,-0.002725064754486084,-0.042864471673965454,-0.028155982494354248,-0.21555028175198507,1.5585068103620483,0.19961522864879927,0.9767853021621704,0.21388500928878784,-0.012004823423922062, 253, 197, 143, 222
1730928473520,9i,9.510605596243554,0.8s : 0.3s,-25.606830748198192,0.006578855148852157,0.426754398359105,0.050497376601807455,-0.03768511116504669,0.3555709421634674,-0.3627593219280243,0.0031393766403198242,-0.04405389726161957,-0.024482309818267822,-0.21517464277972098,1.5577774406318994,0.20004934458741033,0.9768564701080322,0.21351805329322815,-0.012718302197754383, 253, 197, 143, 222
1730928473530,9i,9.510605596243554,0.8s : 0.3s,-25.606830748198192,0.006117136639670512,0.3905811926785428,0.05725904014451721,-0.02705470286309719,0.3170991539955139,-0.3274776339530945,0.00130540132522583,-0.05023016035556793,-0.02745586633682251,-0.21474932924169293,1.5569020718239803,0.20047871613898097,0.9769356846809387,0.2131025195121765,-0.013574667274951935, 253, 197, 143, 222
1730928473540,9i,9.510605596243554,0.8s : 0.3s,-25.606830748198192,0.005587744676357925,0.35634368770137864,0.05993124073459297,-0.028464848175644875,0.29572540521621704,-0.28639063239097595,-0.008720993995666504,-0.05341510474681854,-0.025739550590515137,-0.21432340358821184,1.5559744397762223,0.20080172200507743,0.9770132899284363,0.21268635988235474,-0.014482241123914719, 253, 197, 143, 222
1730928473550,9i,9.510605596243554,0.8s : 0.3s,-25.606830748198192,0.005093626752405692,0.32267522082220534,0.04282407214053218,-0.011699182912707329,0.2747170627117157,-0.23998871445655823,-0.009446978569030762,-0.04016833007335663,-0.01145255472511053,-0.21379030833687446,1.5551123406832899,0.20105933145731056,0.9771137237548828,0.21216543018817902,-0.015326295047998428, 253, 197, 143, 222
1730928473560,9i,9.510605596243554,0.8s : 0.3s,-25.606830748198192,0.004694055326762828,0.288255300061144,0.025114459351533433,0.007255866192281246,0.2408411055803299,-0.19754858314990997,-0.0007177591323852539,-0.02205824851989746,-0.011985598132014275,-0.21315227939683737,1.5542078491362088,0.20108730263631247,0.9772345423698425,0.21154189109802246,-0.01621231995522976, 253, 197, 143, 222
1730928473570,9i,9.510605596243554,0.8s : 0.3s,-25.606830748198192,0.004417846560899289,0.25290964772452185,0.02259748792729309,0.0405576266348362,0.20369283854961395,-0.1543748825788498,0.005387604236602783,-0.01715238392353058,-0.01368999294936657,-0.21242623376633613,1.5531441612968344,0.20085523589627194,0.977370023727417,0.21083220839500427,-0.01725449040532112, 253, 197, 143, 222
1730928473580,9i,9.510605596243554,0.8s : 0.3s,-25.606830748198192,0.0042513247934689285,0.21936390572643474,0.024955077041710617,0.08365689963102341,0.18150071799755096,-0.10577645897865295,0.0047013163566589355,-0.02422936260700226,-0.0036866627633571625,-0.21153337080511325,1.5519990589927313,0.20023826502139855,0.9775374531745911,0.20995934307575226,-0.01837719790637493, 253, 197, 143, 222
1730928473590,9i,9.510605596243554,0.8s : 0.3s,-25.606830748198192,0.004180977284652453,0.18899940931157674,0.021634298722882687,0.10580188035964966,0.15785355865955353,-0.06333359330892563,-0.003553628921508789,-0.021261468529701233,-0.001834273338317871,-0.21048001181066917,1.5508266274630915,0.19924967844214614,0.9777358770370483,0.20892934501171112,-0.01952768675982952, 253, 197, 143, 222
1730928473600,9i,9.510605596243554,0.8s : 0.3s,-25.606830748198192,0.004205104232343789,0.16133267077537986,0.013149790384550025,0.11760793626308441,0.12464366108179092,-0.02951730415225029,-0.0016654133796691895,-0.013030752539634705,-0.0005855541676282883,-0.2093191470493093,1.5496171590964816,0.19809987941326349,0.9779533743858337,0.2077939510345459,-0.02071533538401127, 253, 197, 143, 222
1730928473610,9i,9.510605596243554,0.8s : 0.3s,-25.606830748198192,0.0043126915264650135,0.13842695827797102,0.020315133019229322,0.136073499917984,0.09414461255073547,-0.0013471180573105812,0.006001591682434082,-0.019406408071517944,-0.00027722306549549103,-0.2081156294579505,1.5483245802834213,0.19680177516445152,0.9781752824783325,0.2066165655851364,-0.02198500744998455, 253, 197, 143, 222
1730928473620,9i,9.510605596243554,0.8s : 0.3s,-25.606830748198192,0.004478148406493203,0.11979685891659995,0.030393399674210116,0.13623356819152832,0.0705639123916626,0.03322897106409073,0.0017365217208862305,-0.030332550406455994,0.0008243918418884277,-0.20682223025298527,1.5470176554587125,0.19539286445419257,0.9784119725227356,0.20535089075565338,-0.02326972223818302, 253, 197, 143, 222
1730928473630,9i,9.510605596243554,0.8s : 0.3s,-25.606830748198192,0.004678844392146679,0.10873796004369086,0.03384366484600336,0.12875965237617493,0.04494350776076317,0.054653435945510864,-0.004796028137207031,-0.0330052375793457,0.005748569965362549,-0.2054684532378398,1.5457191752599169,0.19403905042916675,0.9786579012870789,0.2040257751941681,-0.024547098204493523, 253, 197, 143, 222
1730928473640,9i,9.510605596243554,0.8s : 0.3s,-25.606830748198192,0.004917546629228931,0.1057611269149322,0.03261743455176908,0.159501850605011,0.023867784067988396,0.07660000771284103,-0.007818460464477539,-0.03163766860961914,0.001351531594991684,-0.2041028964171885,1.5444351299638324,0.19258648277617596,0.9789032936096191,0.20268875360488892,-0.02581104077398777, 253, 197, 143, 222
1730928473650,9i,9.510605596243554,0.8s : 0.3s,-25.606830748198192,0.005189910301443434,0.10243580015489885,0.029751934197459366,0.16764487326145172,0.00878235138952732,0.10187743604183197,-0.011387407779693604,-0.027477651834487915,-0.0006951130926609039,-0.2026597322115917,1.5431671523193713,0.19090051480364376,0.9791611433029175,0.20127533376216888,-0.02706030011177063, 253, 197, 143, 222
1730928473660,9i,9.510605596243554,0.8s : 0.3s,-25.606830748198192,0.005464384023815417,0.1132332393401443,0.021678886564528616,0.20731212198734283,-0.010679231025278568,0.12320668995380402,-0.009582817554473877,-0.01582251489162445,0.011304501444101334,-0.20113591526706692,1.541907505010756,0.1889934779016118,0.9794315099716187,0.19978247582912445,-0.028302496299147606, 253, 197, 143, 222
1730928473670,9i,9.510605596243554,0.8s : 0.3s,-25.606830748198192,0.005743044611296645,0.12840632412865177,0.009838276895069982,0.22123831510543823,-0.03262785077095032,0.14058522880077362,-0.008568525314331055,-0.004553645849227905,0.0016236919909715652,-0.19952416465975245,1.5406000264387083,0.18679726485233258,0.9797142744064331,0.1982029527425766,-0.029592741280794144, 253, 197, 143, 222
1730928473680,9i,9.510605596243554,0.8s : 0.3s,-25.606830748198192,0.006029640530563454,0.13957425073009397,0.014788714228842387,0.20759041607379913,-0.04667549207806587,0.14674592018127441,-0.009979665279388428,-0.010636672377586365,-0.002444084733724594,-0.1979000329125522,1.5393267211489299,0.1846287096308159,0.9799962043762207,0.19661079347133636,-0.030850278213620186, 253, 197, 143, 222
1730928473690,9i,9.510605596243554,0.8s : 0.3s,-25.606830748198192,0.0063165356912063,0.14259688694923933,0.026247307962774656,0.1757187694311142,-0.06034470349550247,0.15176092088222504,-0.01256018877029419,-0.022097527980804443,0.006546914577484131,-0.19629892283848324,1.5381501780059545,0.1826837029137446,0.9802727699279785,0.19504067301750183,-0.032013505697250366, 253, 197, 143, 222
1730928473700,9i,9.510605596243554,0.8s : 0.3s,-25.606830748198192,0.006590696108063175,0.14274867515414774,0.02347329400945412,0.1519244909286499,-0.0761345848441124,0.1544744074344635,-0.014613211154937744,-0.015560373663902283,0.00976341962814331,-0.19473690662645826,1.5370586058440596,0.181084070531419,0.9805404543876648,0.19350841641426086,-0.033093757927417755, 253, 197, 143, 222
1730928473710,9i,9.510605596243554,0.8s : 0.3s,-25.606830748198192,0.006849807281271979,0.1420373486592831,0.014215139141974179,0.13974826037883759,-0.08310052752494812,0.14312806725502014,-0.01420128345489502,-0.000507161021232605,-0.00036948174238204956,-0.19320473249793751,1.535996346846438,0.17964998866915388,0.9807997941970825,0.1920049786567688,-0.034145597368478775, 253, 197, 143, 222
1730928473720,9i,9.510605596243554,0.8s : 0.3s,-25.606830748198192,0.007086917206546871,0.14163308437771696,0.014053641661781685,0.14951327443122864,-0.08786625415086746,0.12917816638946533,-0.008567571640014648,0.010083049535751343,-0.004736419767141342,-0.19182052869637378,1.5348733022035175,0.1782542787794834,0.9810255765914917,0.19064635038375854,-0.03525657206773758, 253, 197, 143, 222
1730928473730,9i,9.510605596243554,0.8s : 0.3s,-25.606830748198192,0.007298134558222537,0.14017410685943066,0.024287600031166194,0.1336357742547989,-0.0860837996006012,0.11994951963424683,-0.01188504695892334,0.017273277044296265,-0.012258347123861313,-0.1905271556904265,1.533730956861669,0.1768363689346032,0.9812302589416504,0.18937653303146362,-0.03638632595539093, 253, 197, 143, 222
1730928473740,9i,9.510605596243554,0.8s : 0.3s,-25.606830748198192,0.007468672236231607,0.13860651813977992,0.02761770243390871,0.1342805176973343,-0.07504446059465408,0.11304287612438202,-0.01586216688156128,0.021083280444145203,-0.008162379264831543,-0.18930442189822352,1.5327067783350237,0.1755471081619495,0.9814231991767883,0.18817578256130219,-0.037400055676698685, 253, 197, 143, 222
1730928473750,9i,9.510605596243554,0.8s : 0.3s,-25.606830748198192,0.0075919243607850346,0.13759226858805604,0.03541836053513983,0.13829605281352997,-0.08169357478618622,0.11371971666812897,-0.018476903438568115,0.026670143008232117,-0.014204498380422592,-0.1881992515435482,1.5318128922427767,0.17421005362171402,0.9815965294837952,0.18709024786949158,-0.038285400718450546, 253, 197, 143, 222
1730928473760,9i,9.510605596243554,0.8s : 0.3s,-25.606830748198192,0.007684584760797982,0.1369953386864121,0.03777490859091446,0.14321863651275635,-0.09165938943624496,0.10940379649400711,-0.012729465961456299,0.027463361620903015,-0.022597968578338623,-0.1870501860943504,1.530750143250034,0.17282819025469315,0.9817695021629333,0.18596135079860687,-0.0393371507525444, 253, 197, 143, 222
1730928473770,9i,9.510605596243554,0.8s : 0.3s,-25.606830748198192,0.007782374287266343,0.13484585290364948,0.023694772523534555,0.12355571240186691,-0.0897705927491188,0.10017441213130951,-0.00922846794128418,0.013181313872337341,-0.017393406480550766,-0.18588540406752702,1.5297631286688689,0.17154630083900602,0.9819459319114685,0.18481676280498505,-0.04031500965356827, 253, 197, 143, 222
1730928473780,9i,9.510605596243554,0.8s : 0.3s,-25.606830748198192,0.007892397362388746,0.13148353783793099,0.010330753370796423,0.11089877039194107,-0.09971749782562256,0.09357216954231262,-0.007885634899139404,-0.0029657334089279175,-0.005978766828775406,-0.18484856951410017,1.5288223259085931,0.17044004142825345,0.9820985198020935,0.183797687292099,-0.04124683141708374, 253, 197, 143, 222
1730928473790,9i,9.510605596243554,0.8s : 0.3s,-25.606830748198192,0.00800510235721838,0.12280876281425186,0.008315218410957502,0.10236866772174835,-0.09031084924936295,0.07725052535533905,-0.007407188415527344,-0.0037301480770111084,-0.0006020069122314453,-0.18405843099402278,1.5277818959848666,0.1694348434821661,0.9821998476982117,0.1830209493637085,-0.0422748439013958, 253, 197, 143, 222
1730928473800,9i,9.510605596243554,0.8s : 0.3s,-25.606830748198192,0.008094270510528708,0.12263665774053865,0.015248187773136558,0.1420111507177353,-0.08617203682661057,0.07637647539377213,-0.011018753051757812,0.01032555103302002,0.002115964889526367,-0.1834197173607079,1.526728740058944,0.1682597006926274,0.9822713732719421,0.18239298462867737,-0.0433143712580204, 253, 197, 143, 222
1730928473810,9i,9.510605596243554,0.8s : 0.3s,-25.606830748198192,0.00816961726049369,0.1256949334178283,0.013383079145396812,0.16719000041484833,-0.09435557574033737,0.0862426832318306,-0.0011332035064697266,0.012832283973693848,-0.003627002239227295,-0.18277910948384615,1.5255126468557503,0.16668416738058725,0.982334554195404,0.18176308274269104,-0.04451415687799454, 253, 197, 143, 222
1730928473820,9i,9.510605596243554,0.8s : 0.3s,-25.606830748198192,0.008239006605084448,0.12655167726382063,0.012299043190627017,0.15700900554656982,-0.09556731581687927,0.08285354822874069,0.010676980018615723,-0.003369450569152832,0.0050907135009765625,-0.18213979128386965,1.5243014445681116,0.16507237105214656,0.9823957085609436,0.1811343878507614,-0.045709315687417984, 253, 197, 143, 222
1730928473830,9i,9.510605596243554,0.8s : 0.3s,-25.606830748198192,0.008307897393816108,0.12642643355563596,0.0158487888042167,0.14890088140964508,-0.08771537989377975,0.07432607561349869,0.002094089984893799,-0.013177543878555298,0.008552849292755127,-0.1816089245003786,1.5230496113995984,0.16357762905556147,0.9824336767196655,0.18061226606369019,-0.04694366082549095, 253, 197, 143, 222
1730928473840,9i,9.510605596243554,0.8s : 0.3s,-25.606830748198192,0.008378117255751744,0.12913705192428035,0.008036697573401691,0.18181169033050537,-0.08909516036510468,0.07284482568502426,-0.006308794021606445,-0.004922762513160706,0.0007443353533744812,-0.18111275796670342,1.5217142298632338,0.16191049616530392,0.982459545135498,0.18012423813343048,-0.04825993627309799, 253, 197, 143, 222
1730928473850,9i,9.510605596243554,0.8s : 0.3s,-25.606830748198192,0.008444002814625182,0.1445711257143891,0.008031900031770876,0.2459035962820053,-0.08861526101827621,0.08054175972938538,-0.0028123855590820312,0.005930125713348389,-0.004629850387573242,-0.18041076432901165,1.5203415974975931,0.1597932395290888,0.9825183153152466,0.1794336885213852,-0.0496148057281971, 253, 197, 143, 222
1730928473860,9i,9.510605596243554,0.8s : 0.3s,-25.606830748198192,0.008511952325214624,0.16855361423618934,0.014890530215872909,0.3157109022140503,-0.08802537620067596,0.08762097358703613,0.0002129673957824707,0.009931325912475586,-0.01109284907579422,-0.17946126084210026,1.5190080212883625,0.1569986528088826,0.9826211333274841,0.1784995049238205,-0.050933826714754105, 253, 197, 143, 222
1730928473870,9i,9.510605596243554,0.8s : 0.3s,-25.606830748198192,0.008583337148292758,0.19926101485623532,0.015162099390660575,0.3901323974132538,-0.0812075063586235,0.09032195061445236,-0.0017783641815185547,0.00981035828590393,-0.011422939598560333,-0.17842121415058892,1.5176457901842768,0.15348106477996168,0.9827356338500977,0.17747607827186584,-0.052282169461250305, 253, 197, 143, 222
1730928473880,9i,9.510605596243554,0.8s : 0.3s,-25.606830748198192,0.008664417149957651,0.23207788848401437,0.009354731402552642,0.44605159759521484,-0.07232666015625,0.10197700560092926,-0.004465222358703613,0.0009798109531402588,-0.008161664009094238,-0.17740911491146916,1.5163089590252061,0.14933624264538845,0.9828436970710754,0.17647995054721832,-0.05360562354326248, 253, 197, 143, 222
1730928473890,9i,9.510605596243554,0.8s : 0.3s,-25.606830748198192,0.008769333524666552,0.263684305017706,0.01713113484750011,0.4864763915538788,-0.07290363311767578,0.11171887814998627,0.003650665283203125,-0.015618309378623962,-0.00601804256439209,-0.17625858523222945,1.5148690690405422,0.14466146158890184,0.9829675555229187,0.17534735798835754,-0.055032070726156235, 253, 197, 143, 222
1730928473900,9i,9.510605596243554,0.8s : 0.3s,-25.606830748198192,0.008935487714561431,0.28861743386111216,0.03619805196019528,0.4966416656970978,-0.07266794890165329,0.12538117170333862,0.014022409915924072,-0.03332807123661041,-0.0017060637474060059,-0.17481159012846004,1.5134309810608255,0.1397812817971215,0.9831396341323853,0.173922598361969,-0.05646009370684624, 253, 197, 143, 222
1730928473910,9i,9.510605596243554,0.8s : 0.3s,-25.606830748198192,0.009175622796397555,0.30439127452795695,0.043763306484816564,0.48788079619407654,-0.06318216025829315,0.130332350730896,0.0105743408203125,-0.04226875305175781,0.004094243049621582,-0.173245837604421,1.5118930591337885,0.13482990185438137,0.9833223223686218,0.1723805069923401,-0.05798798054456711, 253, 197, 143, 222
1730928473920,9i,9.510605596243554,0.8s : 0.3s,-25.606830748198192,0.009515511848209575,0.31587191280783544,0.04819417905704153,0.48623791337013245,-0.060201019048690796,0.1455637663602829,0.004727423191070557,-0.04795317351818085,-0.0009074769914150238,-0.17158132983858346,1.510464136622769,0.1300074230612495,0.9835233688354492,0.17074067890644073,-0.0594102218747139, 253, 197, 143, 222
1730928473930,9i,9.510605596243554,0.8s : 0.3s,-25.606830748198192,0.00997177266540757,0.3254479934095259,0.05338131265701618,0.4904143810272217,-0.06422039866447449,0.15602177381515503,0.011800050735473633,-0.05151395499706268,-0.007525674998760223,-0.1697598024549015,1.5090055012352763,0.1251444773992472,0.9837444424629211,0.16894561052322388,-0.06086386367678642, 253, 197, 143, 222
1730928473940,9i,9.510605596243554,0.8s : 0.3s,-25.606830748198192,0.010523677657959533,0.33453246568193495,0.0541373257720589,0.5007568001747131,-0.06269147247076035,0.1631137728691101,0.009067893028259277,-0.051967114210128784,-0.012167267501354218,-0.16785126382963608,1.5075399566525731,0.12023194706337242,0.9839741587638855,0.16706420481204987,-0.06232578307390213, 253, 197, 143, 222
1730928473950,9i,9.510605596243554,0.8s : 0.3s,-25.606830748198192,0.011122597778822442,0.33888701680603345,0.04375091194525142,0.500589907169342,-0.04631023854017258,0.16688382625579834,-0.009283602237701416,-0.0414130836725235,-0.010626077651977539,-0.1658912423926909,1.5061810124072414,0.11526966460217061,0.9842135310173035,0.16513140499591827,-0.06368391960859299, 253, 197, 143, 222
1730928473960,9i,9.510605596243554,0.8s : 0.3s,-25.606830748198192,0.011735530824281956,0.3442158536531858,0.03236565790968042,0.5065692663192749,-0.04829509183764458,0.17713886499404907,-0.01730191707611084,-0.02548135817050934,-0.009943835437297821,-0.16384779555295761,1.50489005800052,0.1102802397990246,0.9844650626182556,0.16311566531658173,-0.0649765208363533, 253, 197, 143, 222
1730928473970,9i,9.510605596243554,0.8s : 0.3s,-25.606830748198192,0.012353721342633748,0.34482606918723485,0.02783403592883646,0.48612964153289795,-0.05539725720882416,0.1839381605386734,-0.012784183025360107,-0.021688759326934814,-0.011869959533214569,-0.16172080669687297,1.5035841763188755,0.10538395620519583,0.9847233891487122,0.1610167920589447,-0.06628522276878357, 253, 197, 143, 222
1730928473980,9i,9.510605596243554,0.8s : 0.3s,-25.606830748198192,0.012974309588568723,0.3446153037226165,0.02656657408442616,0.469760000705719,-0.0611206591129303,0.19461344182491302,-0.008560717105865479,-0.022096186876296997,-0.012010641396045685,-0.15952121495520263,1.5022638933229775,0.1006718767076063,0.9849861860275269,0.15884551405906677,-0.06760937720537186, 253, 197, 143, 222
1730928473990,9i,9.510605596243554,0.8s : 0.3s,-25.606830748198192,0.013599232480190127,0.3433685432364154,0.027898610001049293,0.4488929212093353,-0.07159393280744553,0.20199215412139893,-0.00826406478881836,-0.021420180797576904,-0.01584971696138382,-0.1572141655560871,1.5008736646021004,0.09617305608496256,0.9852541089057922,0.15656733512878418,-0.06900408864021301, 253, 197, 143, 222
1730928474000,9i,9.510605596243554,0.8s : 0.3s,-25.606830748198192,0.014222187595605763,0.33206355246026076,0.0299498933498582,0.4080754518508911,-0.05887201800942421,0.19948264956474304,-0.01580965518951416,-0.023732900619506836,-0.009154252707958221,-0.15490590980001429,1.4995707791971427,0.09196103189919028,0.9855210185050964,0.15428712964057922,-0.0703132152557373, 253, 197, 143, 222
1730928474010,9i,9.510605596243554,0.8s : 0.3s,-25.606830748198192,0.014832457793063466,0.31116238893936193,0.03412471202442628,0.33468952775001526,-0.06803829967975616,0.1998518705368042,-0.021182894706726074,-0.026547878980636597,0.003315277397632599,-0.15264354542176437,1.4983853696090157,0.08834906212532176,0.9857826232910156,0.15205146372318268,-0.07150648534297943, 253, 197, 143, 222
1730928474020,9i,9.510605596243554,0.8s : 0.3s,-25.606830748198192,0.015418560542704617,0.2814165160164082,0.03202290381091056,0.2527028024196625,-0.07568370550870895,0.18720026314258575,-0.011169135570526123,-0.026719987392425537,0.013665981590747833,-0.15050228088249154,1.4972431941601763,0.08554725242724927,0.9860227704048157,0.14993475377559662,-0.07265613228082657, 253, 197, 143, 222
1730928474030,9i,9.510605596243554,0.8s : 0.3s,-25.606830748198192,0.01594397354049851,0.2539968544909487,0.028661595987162614,0.2150973379611969,-0.0756610706448555,0.17963995039463043,-0.011524736881256104,-0.011333391070365906,0.023669004440307617,-0.14850588132118744,1.4961737322366189,0.08336634693932424,0.9862411022186279,0.1479606181383133,-0.07373277842998505, 253, 197, 143, 222
1730928474040,9i,9.510605596243554,0.8s : 0.3s,-25.606830748198192,0.016384461811874505,0.23868907682624818,0.020577236703430448,0.23084700107574463,-0.081898994743824,0.18342803418636322,-0.009825646877288818,0.012261301279067993,0.013286828994750977,-0.14652666257501634,1.4950729095480717,0.08128781078230214,0.9864493608474731,0.1460029035806656,-0.07484041899442673, 253, 197, 143, 222
1730928474050,9i,9.510605596243554,0.8s : 0.3s,-25.606830748198192,0.016735217408885842,0.22976094290542518,0.02630025550744595,0.24486681818962097,-0.07194476574659348,0.17962604761123657,-0.00472259521484375,0.025829792022705078,0.001490764319896698,-0.14451839531725347,1.4939673310478687,0.07901137324975945,0.9866564273834229,0.1440158635377884,-0.07595332711935043, 253, 197, 143, 222
1730928474060,9i,9.510605596243554,0.8s : 0.3s,-25.606830748198192,0.01678870412532347,0.22024309931614283,0.051837262668476776,0.24224893748760223,-0.04496028646826744,0.16319596767425537,-0.023813724517822266,0.04362933337688446,0.014713585376739502,-0.14262958547460772,1.4930673142561144,0.07667611426152604,0.9868570566177368,0.14214648306369781,-0.07686228305101395, 253, 197, 143, 222
1730928474070,9i,9.510605596243554,0.8s : 0.3s,-25.606830748198192,0.01644484911246257,0.21639833234723402,0.0656252503198447,0.25270625948905945,-0.05388076230883598,0.15014077723026276,-0.025524258613586426,0.055287912487983704,0.024462878704071045,-0.14087159148302836,1.492253150408323,0.0743133040327093,0.9870417714118958,0.14040613174438477,-0.07768520712852478, 253, 197, 143, 222
1730928474080,9i,9.510605596243554,0.8s : 0.3s,-25.606830748198192,0.01593688095730258,0.21099769891928793,0.052791665655753224,0.23651021718978882,-0.05950189381837845,0.15443645417690277,0.0034680962562561035,0.04474365711212158,0.0278017520904541,-0.13916156379512046,1.4913476019786478,0.07194455158982357,0.987208902835846,0.1387128382921219,-0.07859793305397034, 253, 197, 143, 222
1730928474090,9i,9.510605596243554,0.8s : 0.3s,-25.606830748198192,0.01539594981238646,0.19503429839351502,0.042944605262828374,0.1766451597213745,-0.04578382149338722,0.15065959095954895,0.003675222396850586,0.025695905089378357,0.03421187400817871,-0.13744090431465256,1.4905616296716413,0.06997796697468103,0.9873833060264587,0.13700860738754272,-0.07939284294843674, 253, 197, 143, 222
1730928474100,9i,9.510605596243554,0.8s : 0.3s,-25.606830748198192,0.014833321323971114,0.17581922497575425,0.049337301034311484,0.1434163749217987,-0.03591734170913696,0.12927787005901337,-0.020088016986846924,0.020266041159629822,0.040248334407806396,-0.13592918240851554,1.489966402811104,0.06848501361120296,0.9875411987304688,0.13551098108291626,-0.07999717444181442, 253, 197, 143, 222
1730928474110,9i,9.510605596243554,0.8s : 0.3s,-25.606830748198192,0.014256669381426909,0.16023180455821381,0.04815694167613034,0.12758652865886688,-0.04029220715165138,0.12969344854354858,-0.01989591121673584,0.023909389972686768,0.036763906478881836,-0.13453139266967304,1.4894157318630485,0.06724144968243416,0.9876847863197327,0.1341259479522705,-0.08055628836154938, 253, 197, 143, 222
1730928474120,9i,9.510605596243554,0.8s : 0.3s,-25.606830748198192,0.013672503940776138,0.14635173945964972,0.042857408277617734,0.11778237670660019,-0.03448225557804108,0.11862961947917938,-0.003979086875915527,0.01908046007156372,0.03816884011030197,-0.1331837143793064,1.488873292573046,0.06610001913004576,0.9878202676773071,0.13279032707214355,-0.0811067596077919, 253, 197, 143, 222
1730928474130,9i,9.510605596243554,0.8s : 0.3s,-25.606830748198192,0.013082516571895767,0.13282861139173402,0.047862626062176034,0.10745823383331299,-0.01793030835688114,0.10549554228782654,-0.012391448020935059,0.02103477716445923,0.0411682054400444,-0.1319664023173611,1.4884608719361898,0.06506406829819071,0.9879471659660339,0.13158370554447174,-0.08152738958597183, 253, 197, 143, 222
1730928474140,9i,9.510605596243554,0.8s : 0.3s,-25.606830748198192,0.012430139726703301,0.1274408926297049,0.05855174449975989,0.13571517169475555,-0.003827006323263049,0.09404315054416656,-0.016238152980804443,0.04566939175128937,0.03284715861082077,-0.13086661275987566,1.4882153736665995,0.06395393393927047,0.9880707263946533,0.1304933875799179,-0.08178181201219559, 253, 197, 143, 222
1730928474150,9i,9.510605596243554,0.8s : 0.3s,-25.606830748198192,0.011751020640455603,0.12686717275288587,0.05521533711751047,0.15596318244934082,-0.013068352825939655,0.09591308981180191,-0.006833672523498535,0.05119326710700989,0.019526489078998566,-0.1298045300537177,1.487964153180054,0.0625442995988186,0.9881875514984131,0.1294403225183487,-0.08204144239425659, 253, 197, 143, 222
1730928474160,9i,9.510605596243554,0.8s : 0.3s,-25.606830748198192,0.011095826981505942,0.12516962723898095,0.02943738363764823,0.14140313863754272,-0.015729116275906563,0.08896463364362717,0.007669329643249512,0.026751652359962463,0.009596355259418488,-0.1291706376135018,1.4879985529714146,0.0611471767458944,0.9882718920707703,0.12881173193454742,-0.08201421797275543, 253, 197, 143, 222
1730928474170,9i,9.510605596243554,0.8s : 0.3s,-25.606830748198192,0.010526323601510804,0.11377471209701591,0.013365056572613495,0.10403087735176086,-0.008824472315609455,0.07780149579048157,0.0021612048149108887,0.002103835344314575,0.013020284473896027,-0.128606269537069,1.4882301159253892,0.060057473397060704,0.9883631467819214,0.1282520443201065,-0.08179134875535965, 253, 197, 143, 222
1730928474180,9i,9.510605596243554,0.8s : 0.3s,-25.606830748198192,0.010032924833901141,0.10139569164427568,0.022323602106420475,0.07761365175247192,0.0008976634126156569,0.07707791775465012,-0.010219335556030273,-0.0025999248027801514,0.019676096737384796,-0.12810263855850346,1.4886338635173226,0.059301550897484775,0.98846036195755,0.12775255739688873,-0.08139758557081223, 253, 197, 143, 222
1730928474190,9i,9.510605596243554,0.8s : 0.3s,-25.606830748198192,0.009617178539957673,0.08894162486169466,0.021491478079251974,0.05484269559383392,0.0017113923095166683,0.07361777126789093,-0.013289153575897217,-0.002139270305633545,0.01675426959991455,-0.12765356114059231,1.4890937780723772,0.05874710410419154,0.988554835319519,0.12730714678764343,-0.080947645008564, 253, 197, 143, 222
1730928474200,9i,9.510605596243554,0.8s : 0.3s,-25.606830748198192,0.009266042254570735,0.08073613572781109,0.009834933028301726,0.06776168197393417,-0.004978734999895096,0.06171290948987007,-0.007074832916259766,0.0030841678380966187,0.006095945835113525,-0.12718709174590054,1.4894460032259869,0.0583036305628048,0.9886424541473389,0.12684446573257446,-0.08060427010059357, 253, 197, 143, 222
1730928474210,9i,9.510605596243554,0.8s : 0.3s,-25.606830748198192,0.008932861335944826,0.08825721722224503,0.029768763322260725,0.14873602986335754,-0.007426046766340733,0.06612719595432281,0.0008864402770996094,0.02623938024044037,-0.01403169333934784,-0.12673329868205718,1.4897298047818741,0.0573541548358516,0.9887223243713379,0.12639431655406952,-0.0803283229470253, 253, 197, 143, 222
1730928474220,9i,9.510605596243554,0.8s : 0.3s,-25.606830748198192,0.008582797826445335,0.11042739766900016,0.052155659360111545,0.23176993429660797,-0.010596539825201035,0.08399701118469238,0.0024760961532592773,0.038726240396499634,-0.034847669303417206,-0.1263435545517451,1.489844840618652,0.055527434713864586,0.9887807369232178,0.12600769102573395,-0.08021857589483261, 253, 197, 143, 222
1730928474230,9i,9.510605596243554,0.8s : 0.3s,-25.606830748198192,0.008278139015600088,0.13400507830293484,0.03849653896114379,0.2719232141971588,-0.013595525175333023,0.08397509902715683,0.0005474090576171875,0.01336418092250824,-0.036098234355449677,-0.12565339431209005,1.4896044283946057,0.05306532774326451,0.9888478517532349,0.12532299757003784,-0.08046332001686096, 253, 197, 143, 222
1730928474240,9i,9.510605596243554,0.8s : 0.3s,-25.606830748198192,0.008074987197435605,0.16148885490473758,0.03162234991387956,0.3287862241268158,-0.012217073701322079,0.08190183341503143,-0.008261263370513916,-0.01981966942548752,-0.02321433275938034,-0.12475734840594911,1.489222290134602,0.05013961292305416,0.9889284372329712,0.1244339719414711,-0.08085030317306519, 253, 197, 143, 222
1730928474250,9i,9.510605596243554,0.8s : 0.3s,-25.606830748198192,0.007992126362532746,0.19774085227844726,0.03951613562583503,0.41480594873428345,-0.007207267917692661,0.0838925763964653,-0.012688040733337402,-0.022924214601516724,-0.029580719769001007,-0.12368803969809411,1.4887430648018847,0.046535686446301065,0.989021897315979,0.12337290495634079,-0.08133509010076523, 253, 197, 143, 222
1730928474260,9i,9.510605596243554,0.8s : 0.3s,-25.606830748198192,0.008137511329135028,0.25629695616136955,0.054940436755245896,0.5836889147758484,0.01066973339766264,0.08006294816732407,-0.013361454010009766,-0.009340815246105194,-0.05246591567993164,-0.12248566296032205,1.488274082028178,0.041636898822614565,0.9891306757926941,0.12217961996793747,-0.0818110778927803, 253, 197, 143, 222
1730928474270,9i,9.510605596243554,0.8s : 0.3s,-25.606830748198192,0.008479607043315242,0.3440283010036569,0.07254595940352312,0.8160638809204102,0.017821475863456726,0.08392999321222305,-0.02046525478363037,0.005470670759677887,-0.06938415765762329,-0.12112230392498224,1.487667087892492,0.03470681510752643,0.9892459511756897,0.1208263635635376,-0.08242521435022354, 253, 197, 143, 222
1730928474280,9i,9.510605596243554,0.8s : 0.3s,-25.606830748198192,0.00891685508127612,0.44838529936768506,0.06757254096707013,1.0286973714828491,0.03162836655974388,0.08646558970212936,-0.005238592624664307,0.009734757244586945,-0.06666213274002075,-0.11948617805481285,1.4867984803913357,0.025507004243409275,0.9893696308135986,0.11920206248760223,-0.08330092579126358, 253, 197, 143, 222
1730928474290,9i,9.510605596243554,0.8s : 0.3s,-25.606830748198192,0.009418039831175708,0.5560161332870264,0.04808481610527572,1.1981408596038818,0.04761394485831261,0.10262615233659744,0.010213017463684082,-0.003618292510509491,-0.046848177909851074,-0.11761305703927932,1.4858685110368222,0.014343384614670841,0.9895125031471252,0.11734209209680557,-0.08423976600170135, 253, 197, 143, 222
1730928474300,9i,9.510605596243554,0.8s : 0.3s,-25.606830748198192,0.00999173007327631,0.6432526389514523,0.05213009285449585,1.2567270994186401,0.05294026806950569,0.10446400195360184,0.013662993907928467,-0.033013276755809784,-0.03796041011810303,-0.11549956767403421,1.4849418768299845,0.002060840697258457,0.9896788597106934,0.11524294316768646,-0.0851777195930481, 253, 197, 143, 222
1730928474310,9i,9.510605596243554,0.8s : 0.3s,-25.606830748198192,0.010617288992912357,0.7108762159465917,0.05722212087927237,1.289840579032898,0.06359850615262985,0.09365296363830566,0.019711732864379883,-0.03990659862756729,-0.03596223145723343,-0.11342242514862713,1.4840690999807886,-0.010670742758096497,0.989840567111969,0.11317939311265945,-0.08606201410293579, 253, 197, 143, 222
1730928474320,9i,9.510605596243554,0.8s : 0.3s,-25.606830748198192,0.01123674249423791,0.7627139039241557,0.06396583128339563,1.312096118927002,0.07744481414556503,0.08592420071363449,0.03874427080154419,-0.008893437683582306,-0.05011402815580368,-0.11138808700646216,1.483325453710355,-0.02359849363952502,0.9900034666061401,0.11115789413452148,-0.08681799471378326, 253, 197, 143, 222
1730928474330,9i,9.510605596243554,0.8s : 0.3s,-25.606830748198192,0.011650361967686282,0.8056206533587054,0.09772720458684854,1.346997857093811,0.06274700164794922,0.06656169146299362,0.0653771162033081,0.03846096992492676,-0.06162136793136597,-0.1094472834718964,1.482560598646338,-0.03685455934657097,0.9901497960090637,0.10922890901565552,-0.08759403228759766, 253, 197, 143, 222
1730928474340,9i,9.510605596243554,0.8s : 0.3s,-25.606830748198192,0.011880898928382087,0.843521397469012,0.1591384548054401,1.3874707221984863,0.05679111182689667,0.045764267444610596,0.0762026309967041,0.11809870600700378,-0.0746384784579277,-0.10768001122576282,1.4817007098106785,-0.05048969804541885,0.9902647733688354,0.10747203975915909,-0.0884624496102333, 253, 197, 143, 222
1730928474350,9i,9.510605596243554,0.8s : 0.3s,-25.606830748198192,0.012023058344280309,0.8763432672712512,0.21978920334040533,1.419560194015503,0.036789972335100174,0.039323680102825165,0.08961981534957886,0.19301238656044006,-0.054970912635326385,-0.10599893091847994,1.4806702321136638,-0.06454859077781949,0.9903516173362732,0.10580054670572281,-0.08949898183345795, 253, 197, 143, 222
1730928474360,9i,9.510605596243554,0.8s : 0.3s,-25.606830748198192,0.012664235741238875,0.8910736272794093,0.2284131175692897,1.3788189888000488,0.021079985424876213,0.03749408945441246,0.08601278066635132,0.20466400682926178,-0.0537307932972908,-0.10433264021988402,1.4794803198197213,-0.07854073969753778,0.9904187917709351,0.10414346307516098,-0.09069331735372543, 253, 197, 143, 222
1730928474370,9i,9.510605596243554,0.8s : 0.3s,-25.606830748198192,0.014361702883980748,0.8940543242601319,0.22703965947099108,1.3540140390396118,0.03519686684012413,0.020760247483849525,0.0510903000831604,0.20815452933311462,-0.07488978654146194,-0.10277161470529618,1.478334771824311,-0.09219824991051837,0.9904749393463135,0.10259079933166504,-0.09184272587299347, 253, 197, 143, 222
1730928474380,9i,9.510605596243554,0.8s : 0.3s,-25.606830748198192,0.017071579135437564,0.8913167688834122,0.2371594284393124,1.3055658340454102,0.05771922320127487,-0.006692947819828987,-0.002596914768218994,0.2260427474975586,-0.07171141356229782,-0.10146285661506527,1.4774645870938206,-0.10552323203571948,0.990527331829071,0.10128885507583618,-0.0927170068025589, 253, 197, 143, 222
1730928474390,9i,9.510605596243554,0.8s : 0.3s,-25.606830748198192,0.020518122366974364,0.8733583783280371,0.25844956719782475,1.2385791540145874,0.06724761426448822,-0.04949943348765373,-0.04413062334060669,0.24941925704479218,-0.051368288695812225,-0.1005426087129361,1.47679239902206,-0.11827938050522083,0.9905571341514587,0.1003732979297638,-0.09339151531457901, 253, 197, 143, 222
1730928474400,9i,9.510605596243554,0.8s : 0.3s,-25.606830748198192,0.024563005743893994,0.8633137063790176,0.2800923201004351,1.2487905025482178,0.08381380885839462,-0.09372495114803314,-0.06447064876556396,0.27020424604415894,-0.035845622420310974,-0.10006467331429905,1.4762840934867347,-0.13077808601571717,0.9905571341514587,0.09989776462316513,-0.09389951825141907, 253, 197, 143, 222
1730928474410,9i,9.510605596243554,0.8s : 0.3s,-25.606830748198192,0.02931543136416843,0.8625780658927664,0.31922137079297425,1.269695520401001,0.08648549020290375,-0.16567963361740112,-0.09587454795837402,0.3012004494667053,-0.044594213366508484,-0.10016637742062785,1.4759187976044392,-0.1434749193268315,0.9905127286911011,0.09999895840883255,-0.09426040202379227, 253, 197, 143, 222
1730928474420,9i,9.510605596243554,0.8s : 0.3s,-25.606830748198192,0.03511338979305618,0.8772391215065944,0.3909187469672754,1.3452755212783813,0.0791788399219513,-0.24036505818367004,-0.12057226896286011,0.3643462061882019,-0.0743749737739563,-0.10094360248943775,1.4753830618189092,-0.1567341906968018,0.9903844594955444,0.10077226161956787,-0.09478361159563065, 253, 197, 143, 222
1730928474430,9i,9.510605596243554,0.8s : 0.3s,-25.606830748198192,0.04197017491831041,0.8993117297335511,0.43391820820718174,1.39080810546875,0.09072284400463104,-0.3051679730415344,-0.14864903688430786,0.397707462310791,-0.08953909575939178,-0.10234912185695144,1.474796032367461,-0.1707036927815529,0.9901865720748901,0.10217052698135376,-0.09535130113363266, 253, 197, 143, 222
1730928474440,9i,9.510605596243554,0.8s : 0.3s,-25.606830748198192,0.04964600718439948,0.9197894301402393,0.4537601907364265,1.396104335784912,0.10427834093570709,-0.39186397194862366,-0.19754892587661743,0.40042537450790405,-0.08082234859466553,-0.10446432273271206,1.4743084238063249,-0.1850050543255088,0.9899227619171143,0.10427442938089371,-0.0958130955696106, 253, 197, 143, 222
1730928474450,9i,9.510605596243554,0.8s : 0.3s,-25.606830748198192,0.058136571355891314,0.9540024602107611,0.48659792712011785,1.4712984561920166,0.11160096526145935,-0.4813961684703827,-0.22506797313690186,0.42167747020721436,-0.09115953743457794,-0.10742930697664876,1.4738223737114526,-0.19969739871605371,0.989564061164856,0.1072227880358696,-0.09626388549804688, 253, 197, 143, 222
1730928474460,9i,9.510605596243554,0.8s : 0.3s,-25.606830748198192,0.06759555214944957,1.0081415689842124,0.532810451451952,1.5941846370697021,0.11440820246934891,-0.5803672075271606,-0.23062735795974731,0.46307307481765747,-0.1275199055671692,-0.1112070059883122,1.473225369600297,-0.21559034480301678,0.9890961647033691,0.11097793281078339,-0.09681448340415955, 253, 197, 143, 222
1730928474470,9i,9.510605596243554,0.8s : 0.3s,-25.606830748198192,0.07809824893413181,1.0725392869875288,0.5850515702795243,1.6910804510116577,0.11909931153059006,-0.6945127248764038,-0.24675536155700684,0.5113218426704407,-0.14123421907424927,-0.11593670142677197,1.4724282306672654,-0.23267724705616374,0.9884852170944214,0.11567715555429459,-0.09755025804042816, 253, 197, 143, 222
1730928474480,9i,9.510605596243554,0.8s : 0.3s,-25.606830748198192,0.08936666227228778,1.138064111858784,0.5970029264883542,1.7485756874084473,0.15636439621448517,-0.8126004934310913,-0.27286869287490845,0.5190010070800781,-0.11221909523010254,-0.12174147232767564,1.4716873081355806,-0.25068746204224546,0.9877278804779053,0.12144097685813904,-0.0982145220041275, 253, 197, 143, 222
1730928474490,9i,9.510605596243554,0.8s : 0.3s,-25.606830748198192,0.10129640394613658,1.1999733405888695,0.616513043171009,1.7765401601791382,0.15781466662883759,-0.9394943118095398,-0.29939746856689453,0.5262993574142456,-0.11601066589355469,-0.12870361857454707,1.4709581498749622,-0.26926122089921356,0.9867908358573914,0.12834858894348145,-0.09884804487228394, 253, 197, 143, 222
1730928474500,9i,9.510605596243554,0.8s : 0.3s,-25.606830748198192,0.11388937012826077,1.2574663330119487,0.6410311726501035,1.7842862606048584,0.1569371521472931,-1.0739392042160034,-0.30243343114852905,0.5507708191871643,-0.12691134214401245,-0.13692790005930996,1.4700335204956316,-0.2881284008052656,0.9856153130531311,0.13650041818618774,-0.09965085238218307, 253, 197, 143, 222
1730928474510,9i,9.510605596243554,0.8s : 0.3s,-25.606830748198192,0.12709724339417955,1.3253292154894234,0.6628073725961127,1.855225920677185,0.17106619477272034,-1.2150983810424805,-0.320567786693573,0.5642222166061401,-0.13491922616958618,-0.1465065423836427,1.4689154778037596,-0.3075327255156024,0.9841574430465698,0.1459829956293106,-0.10061515867710114, 253, 197, 143, 222
1730928474520,9i,9.510605596243554,0.8s : 0.3s,-25.606830748198192,0.1410482220595868,1.4084023946799662,0.7073803778384458,1.9650784730911255,0.1692906767129898,-1.3643776178359985,-0.343237042427063,0.5951665639877319,-0.16838079690933228,-0.15735902721652256,1.4675175073292153,-0.3280822045453922,0.9823821187019348,0.1567104160785675,-0.10182154923677444, 253, 197, 143, 222
1730928474530,9i,9.510605596243554,0.8s : 0.3s,-25.606830748198192,0.15582560550477983,1.4980510155647009,0.7492377478095702,2.050234317779541,0.13567349314689636,-1.516768217086792,-0.3461914658546448,0.6353041529655457,-0.19467230141162872,-0.16961575342762597,1.4655338500665618,-0.3498566570887917,0.9801943898200989,0.1688036322593689,-0.10356046259403229, 253, 197, 143, 222
1730928474540,9i,9.510605596243554,0.8s : 0.3s,-25.606830748198192,0.17111557986772452,1.5863455435311944,0.739322878562452,2.103864908218384,0.1032031700015068,-1.6577810049057007,-0.34414011240005493,0.6258841156959534,-0.1908794790506363,-0.18318321887724753,1.4627251594755022,-0.37260482975742504,0.977532684803009,0.18216045200824738,-0.10605631023645401, 253, 197, 143, 222
1730928474550,9i,9.510605596243554,0.8s : 0.3s,-25.606830748198192,0.18676461295234473,1.6734507669455767,0.7415831335619312,2.126579523086548,0.09160741418600082,-1.8319809436798096,-0.3615794777870178,0.6143285632133484,-0.20446574687957764,-0.19821574247127696,1.459253040271932,-0.3959467277271189,0.9743268489837646,0.19692032039165497,-0.10913259536027908, 253, 197, 143, 222
1730928474560,9i,9.510605596243554,0.8s : 0.3s,-25.606830748198192,0.20294180464493103,1.7594411144390296,0.781720722704342,2.160576343536377,0.052735649049282074,-1.981768250465393,-0.3763357400894165,0.6518833041191101,-0.21096648275852203,-0.21473838848197171,1.4550768671781493,-0.41992022992812694,0.9704979658126831,0.21309183537960052,-0.11280949413776398, 253, 197, 143, 222
1730928474570,9i,9.510605596243554,0.8s : 0.3s,-25.606830748198192,0.21955043464943716,1.8455836942683357,0.7868759402314355,2.1831066608428955,-0.005160539876669645,-2.1476387977600098,-0.33464449644088745,0.680164635181427,-0.21109920740127563,-0.23266505421726993,1.4498435604467532,-0.4445393843919601,0.9659464359283447,0.23057158291339874,-0.11740699410438538, 253, 197, 143, 222
1730928474580,9i,9.510605596243554,0.8s : 0.3s,-25.606830748198192,0.2365323601079865,1.9316710505018928,0.7975907296137966,2.2085468769073486,-0.060393430292606354,-2.301182508468628,-0.3092162013053894,0.7081670761108398,-0.19757455587387085,-0.25202746031329887,1.4434587765549494,-0.4698343046443024,0.9605682492256165,0.2493678778409958,-0.12298183888196945, 253, 197, 143, 222
1730928474590,9i,9.510605596243554,0.8s : 0.3s,-25.606830748198192,0.25387715738515326,2.0182443395712846,0.8149636705606768,2.233229637145996,-0.12114688754081726,-2.4541194438934326,-0.27877867221832275,0.7393976449966431,-0.1993473321199417,-0.27271367751578884,1.4358279974510646,-0.49583239557467745,0.9542855024337769,0.26934581995010376,-0.1295861452817917, 253, 197, 143, 222
1730928474600,9i,9.510605596243554,0.8s : 0.3s,-25.606830748198192,0.2714633261002347,2.1038737963396916,0.8184192115209171,2.2638185024261475,-0.19183330237865448,-2.587475061416626,-0.22317051887512207,0.7606088519096375,-0.20366418361663818,-0.29456660262844636,1.426746105891852,-0.5226875841434713,0.9470171332359314,0.2903251349925995,-0.13736949861049652, 253, 197, 143, 222
1730928474610,9i,9.510605596243554,0.8s : 0.3s,-25.606830748198192,0.28914209848873906,2.1931904692142865,0.8182073379314384,2.304046869277954,-0.23850302398204803,-2.739713430404663,-0.18137353658676147,0.7724382281303406,-0.19976504147052765,-0.31751050232585476,1.4161793530323898,-0.550534494786816,0.9386827349662781,0.31220248341560364,-0.14630401134490967, 253, 197, 143, 222
1730928474620,9i,9.510605596243554,0.8s : 0.3s,-25.606830748198192,0.3068306018563439,2.279807009410099,0.8133354458746199,2.3023972511291504,-0.3247031569480896,-2.8894765377044678,-0.1497310996055603,0.7798172235488892,-0.1760120540857315,-0.3416109596455767,1.4040652214309466,-0.5793310696316466,0.9291502833366394,0.33500540256500244,-0.15636992454528809, 253, 197, 143, 222
1730928474630,9i,9.510605596243554,0.8s : 0.3s,-25.606830748198192,0.3245327861537816,2.367788379882176,0.8298363487603897,2.32529354095459,-0.42982226610183716,-3.031825542449951,-0.07756561040878296,0.804444432258606,-0.18836426734924316,-0.36677964753646713,1.3899514633899896,-0.6090734231709481,0.9182639718055725,0.358611136674881,-0.16789767146110535, 253, 197, 143, 222
1730928474640,9i,9.510605596243554,0.8s : 0.3s,-25.606830748198192,0.342241445160356,2.4565122957765504,0.8498465401631441,2.335622787475586,-0.5155986547470093,-3.180565118789673,-0.005795776844024658,0.8264879584312439,-0.19779586791992188,-0.39289325272193143,1.37373986864935,-0.640019905443567,0.9059271216392517,0.38286280632019043,-0.18086595833301544, 253, 197, 143, 222
1730928474650,9i,9.510605596243554,0.8s : 0.3s,-25.606830748198192,0.3600066329633721,2.547792752621134,0.8702696555207543,2.3384532928466797,-0.597360372543335,-3.344649314880371,0.0349542498588562,0.8509705066680908,-0.178876131772995,-0.42008066547508277,1.3554737022983865,-0.6722009635347538,0.8919715881347656,0.40783411264419556,-0.19508600234985352, 253, 197, 143, 222
1730928474660,9i,9.510605596243554,0.8s : 0.3s,-25.606830748198192,0.37789207770350614,2.6431814570781267,0.9065205031177569,2.3833041191101074,-0.6950778961181641,-3.4854555130004883,0.10651308298110962,0.8806369304656982,-0.1868501603603363,-0.4480977872644329,1.3347950749242827,-0.7059760167376267,0.8762904405593872,0.43325191736221313,-0.2107326090335846, 253, 197, 143, 222
1730928474670,9i,9.510605596243554,0.8s : 0.3s,-25.606830748198192,0.3957974172728056,2.733589398771164,0.9338099926372575,2.389115571975708,-0.7876994013786316,-3.605195999145508,0.20288807153701782,0.8879912495613098,-0.20569169521331787,-0.4766390638675726,1.311478834500732,-0.7415849232743968,0.8588338494300842,0.458795428276062,-0.22784076631069183, 253, 197, 143, 222
1730928474680,9i,9.510605596243554,0.8s : 0.3s,-25.606830748198192,0.41356925312032333,2.817059301703053,0.9494127475760008,2.3868751525878906,-0.8515782356262207,-3.712522268295288,0.2925170660018921,0.8816059827804565,-0.1964413970708847,-0.5054756260041265,1.285626673798951,-0.7788012396379738,0.8396087884902954,0.4842236340045929,-0.24613957107067108, 253, 197, 143, 222
1730928474690,9i,9.510605596243554,0.8s : 0.3s,-25.606830748198192,0.431394266103802,2.883075785695545,1.0232182603852886,2.290513038635254,-1.0599017143249512,-3.7739975452423096,0.4018860459327698,0.9171891212463379,-0.2103029489517212,-0.5344353999460665,1.2570880590499667,-0.8170816484295552,0.8185577988624573,0.5093552470207214,-0.2655574679374695, 253, 197, 143, 222
1730928474700,9i,9.510605596243554,0.8s : 0.3s,-25.606830748198192,0.44940965637516167,2.9616956965181664,1.1105566747407725,2.3013198375701904,-1.1864750385284424,-3.922179698944092,0.5247258543968201,0.9649877548217773,-0.16369953751564026,-0.5633851590187453,1.2247774005584116,-0.8573670068302635,0.7953426837921143,0.534051239490509,-0.286739706993103, 253, 197, 143, 222
1730928474710,9i,9.510605596243554,0.8s : 0.3s,-25.606830748198192,0.46690089707224763,3.0236152423269336,1.0396688544500332,2.198428153991699,-1.2933694124221802,-3.9897572994232178,0.5783007740974426,0.8563690781593323,-0.11450564861297607,-0.5924320510081355,1.1894164473587299,-0.8993523835537451,0.7699812054634094,0.5583802461624146,-0.3087729513645172, 253, 197, 143, 222
1730928474720,9i,9.510605596243554,0.8s : 0.3s,-25.606830748198192,0.4839613330575485,3.0741743577255396,1.056877149668204,2.067336320877075,-1.4127435684204102,-4.065245151519775,0.6426318287849426,0.8312041163444519,-0.1145135760307312,-0.6212285796415152,1.1513295998841258,-0.9423539845967847,0.7426679134368896,0.5820346474647522,-0.3311801850795746, 253, 197, 143, 222
1730928474730,9i,9.510605596243554,0.8s : 0.3s,-25.606830748198192,0.501056118559242,3.1123367998362004,1.1363356091485368,1.9125080108642578,-1.5132980346679688,-4.123852252960205,0.7259730696678162,0.8654761910438538,-0.1231774389743805,-0.6498210927946638,1.1105065053222822,-0.9864009892924552,0.7133275270462036,0.6050439476966858,-0.3536747694015503, 253, 197, 143, 222
1730928474740,9i,9.510605596243554,0.8s : 0.3s,-25.606830748198192,0.518226139788659,3.151231923552362,1.1709517356271928,1.8798024654388428,-1.6000747680664062,-4.170024394989014,0.7912313342094421,0.8593674302101135,-0.08104667067527771,-0.6778223098183332,1.0667852915192924,-1.03209779947056,0.6820810437202454,0.6270982027053833,-0.37618276476860046, 253, 197, 143, 222
1730928474750,9i,9.510605596243554,0.8s : 0.3s,-25.606830748198192,0.5356389541059208,3.193226796732848,1.2099062273395953,1.8856042623519897,-1.6882102489471436,-4.212582588195801,0.8484207391738892,0.8584944009780884,-0.08392074704170227,-0.704582920348686,1.0194091548919912,-1.0805545732016568,0.6489699482917786,0.6477161049842834,-0.3991265296936035, 253, 197, 143, 222
1730928474760,9i,9.510605596243554,0.8s : 0.3s,-25.606830748198192,0.5535407935164133,3.2313568925995253,1.2630666969580466,1.8692405223846436,-1.7685297727584839,-4.234982013702393,0.9052568078041077,0.8777949213981628,-0.07296347618103027,-0.7297109188111148,0.9682548391686976,-1.132117161837821,0.6141065955162048,0.6666541695594788,-0.422428160905838, 253, 197, 143, 222
1730928474770,9i,9.510605596243554,0.8s : 0.3s,-25.606830748198192,0.5715231000460019,3.2594628204330784,1.245809999420465,1.7535821199417114,-1.8324304819107056,-4.266870975494385,0.9471979737281799,0.8078314065933228,-0.04761272668838501,-0.7533857691513206,0.9138545192830417,-1.185950810463685,0.5775670409202576,0.6841121912002563,-0.44542908668518066, 253, 197, 143, 222
1730928474780,9i,9.510605596243554,0.8s : 0.3s,-25.606830748198192,0.5897283252422543,3.28171777044332,1.1849727571481579,1.6088933944702148,-1.8842697143554688,-4.318560600280762,0.9695047736167908,0.6812628507614136,-0.010092437267303467,-0.7759654174755793,0.856719039139224,-1.2416176580045832,0.539375901222229,0.700405478477478,-0.4674464166164398, 253, 197, 143, 222
1730928474790,9i,9.510605596243554,0.8s : 0.3s,-25.606830748198192,0.6081083537406372,3.3096798765265802,1.1812403385364159,1.5522397756576538,-1.941440463066101,-4.382486820220947,0.9868083000183105,0.6486853361129761,-0.027302950620651245,-0.7973343720138277,0.796392687353543,-1.2997831499959596,0.49939775466918945,0.7154963612556458,-0.48853546380996704, 253, 197, 143, 222
1730928474800,9i,9.510605596243554,0.8s : 0.3s,-25.606830748198192,0.6263104489835603,3.3459602853609294,1.2445084107051818,1.62949800491333,-1.9826505184173584,-4.424942493438721,1.0312671661376953,0.6949383020401001,-0.04847651720046997,-0.8163873639608094,0.7321202303720221,-1.361552014660143,0.457792192697525,0.728676438331604,-0.5093693733215332, 253, 197, 143, 222
1730928474810,9i,9.510605596243554,0.8s : 0.3s,-25.606830748198192,0.6447942761780652,3.3796449432368205,1.2922908029480773,1.707464337348938,-2.0391321182250977,-4.4156951904296875,1.0736889839172363,0.7170305848121643,-0.05544930696487427,-0.8321193209090039,0.663915344249412,-1.4271724759511148,0.41489744186401367,0.739359974861145,-0.5302896499633789, 253, 197, 143, 222
1730928474820,9i,9.510605596243554,0.8s : 0.3s,-25.606830748198192,0.6634649411128308,3.4082410918908135,1.3295907509554021,1.6459953784942627,-2.1473283767700195,-4.419088363647461,1.1457346677780151,0.6721832752227783,-0.05721259117126465,-0.8442825208998083,0.5921526092173371,-1.49554915041663,0.37076008319854736,0.7474946975708008,-0.5511704087257385, 253, 197, 143, 222
1730928474830,9i,9.510605596243554,0.8s : 0.3s,-25.606830748198192,0.6816320417521696,3.4170262244220377,1.3204497721581347,1.3955308198928833,-2.202868938446045,-4.419880390167236,1.204758644104004,0.5405001044273376,0.0019614696502685547,-0.8546800634262728,0.5184812810079541,-1.5646056125920556,0.3253163993358612,0.7543609142303467,-0.5701833367347717, 253, 197, 143, 222
1730928474840,9i,9.510605596243554,0.8s : 0.3s,-25.606830748198192,0.7000749930003504,3.4239040652381587,1.2606986392820947,1.2368319034576416,-2.2736973762512207,-4.439276695251465,1.1582132577896118,0.4946776032447815,0.056543588638305664,-0.8635353353844987,0.443503132847385,-1.63409204668123,0.2788136601448059,0.7601444125175476,-0.5868931412696838, 253, 197, 143, 222
1730928474850,9i,9.510605596243554,0.8s : 0.3s,-25.606830748198192,0.7188994788216156,3.4258509533307704,1.2862852584677147,1.3146958351135254,-2.2925281524658203,-4.393277168273926,1.1592944860458374,0.5571109056472778,-0.013910412788391113,-0.8692699354153338,0.36699969058256976,-1.7045583283345394,0.2315746396780014,0.7638579607009888,-0.6024071574211121, 253, 197, 143, 222
1730928474860,9i,9.510605596243554,0.8s : 0.3s,-25.606830748198192,0.7380699264389636,3.425788057266509,1.3002375173468914,1.3190256357192993,-2.304399013519287,-4.364151954650879,1.1650547981262207,0.5767292976379395,-0.025460481643676758,-0.8708623462624774,0.28983102704306807,-1.7754373656608424,0.1840967983007431,0.7648847103118896,-0.6173005700111389, 253, 197, 143, 222
1730928474870,9i,9.510605596243554,0.8s : 0.3s,-25.606830748198192,0.7572587608405708,3.4255757577103614,1.2404028891662053,1.290114402770996,-2.339488983154297,-4.3525800704956055,1.1305572986602783,0.5102522969245911,0.009061753749847412,-0.8690553635910131,0.21274499339421776,-1.8458856177703606,0.13630355894565582,0.7637194991111755,-0.6309945583343506, 253, 197, 143, 222
1730928474880,9i,9.510605596243554,0.8s : 0.3s,-25.606830748198192,0.7761269376996359,3.4262991326241012,1.2112022513164966,1.260987401008606,-2.354705572128296,-4.369057655334473,1.1201545000076294,0.4606664180755615,-0.0071582794189453125,-0.8641216236709837,0.1360509992563969,-1.9156691447309537,0.08806680887937546,0.7605252265930176,-0.6433085203170776, 253, 197, 143, 222
1730928474890,9i,9.510605596243554,0.8s : 0.3s,-25.606830748198192,0.7953278868630401,3.4348474627030146,1.224107738152646,1.2643977403640747,-2.363858461380005,-4.399106025695801,1.1229603290557861,0.4872342348098755,0.0016292333602905273,-0.8558857294246445,0.0604076400827712,-1.9843155918611386,0.03957614675164223,0.7551518678665161,-0.6543542742729187, 253, 197, 143, 222
1730928474900,9i,9.510605596243554,0.8s : 0.3s,-25.606830748198192,0.8149785085528863,3.450059826131589,1.243304036794199,1.2921425104141235,-2.391028642654419,-4.4279608726501465,1.1258783340454102,0.5273000001907349,0.012554466724395752,-0.8441692033064633,-0.013978010452113812,-2.051714154126795,-0.009286025539040565,0.7474194169044495,-0.6642876863479614, 253, 197, 143, 222
1730928474910,9i,9.510605596243554,0.8s : 0.3s,-25.606830748198192,0.8351406364727951,3.473859808840658,1.2644622495505433,1.4050848484039307,-2.429287910461426,-4.4488396644592285,1.1347514390945435,0.5572190284729004,-0.026662826538085938,-0.8284195077860789,-0.08644270066826151,-2.116864866189042,-0.0583660826086998,0.7368637919425964,-0.6735170483589172, 253, 197, 143, 222
1730928474920,9i,9.510605596243554,0.8s : 0.3s,-25.606830748198192,0.855737657527461,3.489433779675584,1.2641622917960473,1.4488389492034912,-2.451911211013794,-4.4162445068359375,1.1449311971664429,0.5348635315895081,-0.034056663513183594,-0.8089009811258602,-0.15610079215741157,-2.17876248364796,-0.10731836408376694,0.7235289812088013,-0.6819007992744446, 253, 197, 143, 222
1730928474930,9i,9.510605596243554,0.8s : 0.3s,-25.606830748198192,0.87663399639813,3.49864889513304,1.2351646942363719,1.4680943489074707,-2.4579102993011475,-4.396294593811035,1.130951166152954,0.49623847007751465,0.018129050731658936,-0.7863173981613721,-0.22219959052526211,-2.2367864505187742,-0.15568584203720093,0.7077564597129822,-0.6890883445739746, 253, 197, 143, 222
1730928474940,9i,9.510605596243554,0.8s : 0.3s,-25.606830748198192,0.8976779248256787,3.5082046659568515,1.2185366389077423,1.5058952569961548,-2.4978132247924805,-4.3798370361328125,1.113534927368164,0.4921605587005615,0.05147320032119751,-0.7609397152030184,-0.28481965821563704,-2.2909754799097994,-0.2034856081008911,0.689602255821228,-0.6950124502182007, 253, 197, 143, 222
1730928474950,9i,9.510605596243554,0.8s : 0.3s,-25.606830748198192,0.9190478152638145,3.5212948867530476,1.2439723508191673,1.591482400894165,-2.5466201305389404,-4.3610711097717285,1.1310663223266602,0.5173342823982239,0.022834718227386475,-0.7325630593241658,-0.344093253929579,-2.3410216534147814,-0.2508021295070648,0.668777346611023,-0.6998822689056396, 253, 197, 143, 222
1730928474960,9i,9.510605596243554,0.8s : 0.3s,-25.606830748198192,0.9406303118176007,3.5243313228526807,1.2212550577228332,1.506312608718872,-2.571990966796875,-4.351517677307129,1.1251384019851685,0.4737290143966675,0.03329133987426758,-0.7023216094983933,-0.4001915670412183,-2.387376350211846,-0.29739508032798767,0.6459916234016418,-0.703029990196228, 253, 197, 143, 222
1730928474970,9i,9.510605596243554,0.8s : 0.3s,-25.606830748198192,0.961640546066472,3.5114729416351063,1.1745765062794775,1.3613638877868652,-2.5757198333740234,-4.2949371337890625,1.105804681777954,0.3916546106338501,0.05858874320983887,-0.671297083344743,-0.45336728591942627,-2.4305972497329953,-0.3429570198059082,0.622002124786377,-0.7039132714271545, 253, 197, 143, 222
1730928474980,9i,9.510605596243554,0.8s : 0.3s,-25.606830748198192,0.9820020755417855,3.4864782142939386,1.1717865835034897,1.2720513343811035,-2.5788824558258057,-4.225411891937256,1.122359037399292,0.3269308805465698,0.08068573474884033,-0.6400279015802294,-0.5035347970073205,-2.4706811083712896,-0.3870229423046112,0.5972177982330322,-0.7025269865989685, 253, 197, 143, 222
1730928474990,9i,9.510605596243554,0.8s : 0.3s,-25.606830748198192,1.0024528217318214,3.460448873848309,1.1862603082741794,1.2322386503219604,-2.6048290729522705,-4.169830322265625,1.1431176662445068,0.31228697299957275,0.0545194149017334,-0.6080750543496176,-0.551106933008836,-2.5076654453361864,-0.42976945638656616,0.5712886452674866,-0.6992335915565491, 253, 197, 143, 222
1730928475000,9i,9.510605596243554,0.8s : 0.3s,-25.606830748198192,1.0230075128489913,3.4327863073293874,1.2033092763178468,1.1971172094345093,-2.6160616874694824,-4.115524768829346,1.1650991439819336,0.2974611520767212,0.04487830400466919,-0.5754335027925478,-0.5961674022263189,-2.5416316381034405,-0.47105327248573303,0.5441985130310059,-0.6942311525344849, 253, 197, 143, 222
1730928475010,9i,9.510605596243554,0.8s : 0.3s,-25.606830748198192,1.0434911028860359,3.40167112527531,1.2311875385214488,1.2179410457611084,-2.600607395172119,-4.0464630126953125,1.2001352310180664,0.27358102798461914,0.02552652359008789,-0.5419079119667298,-0.6386837455351203,-2.572644436233291,-0.5107280611991882,0.5157715082168579,-0.6878492832183838, 253, 197, 143, 222
1730928475020,9i,9.510605596243554,0.8s : 0.3s,-25.606830748198192,1.0637823011767171,3.3599122303731,1.2430634392695417,1.1367319822311401,-2.6034440994262695,-3.9475996494293213,1.2201977968215942,0.23640984296798706,0.020843148231506348,-0.5081209306023176,-0.67891321602258,-2.6008685359432486,-0.5486129522323608,0.48653644323349,-0.679931104183197, 253, 197, 143, 222
1730928475030,9i,9.510605596243554,0.8s : 0.3s,-25.606830748198192,1.0837004601658549,3.3010720674481937,1.2554928164887458,1.0851283073425293,-2.559567928314209,-3.8097801208496094,1.2432305812835693,0.1670028269290924,0.052440345287323,-0.4746598958381247,-0.7168384909272607,-2.6264885133911573,-0.5843715667724609,0.45703595876693726,-0.6705431938171387, 253, 197, 143, 222
1730928475040,9i,9.510605596243554,0.8s : 0.3s,-25.606830748198192,1.102941324273444,3.225657133093526,1.2697482966475722,1.074823260307312,-2.487173318862915,-3.64986515045166,1.2604620456695557,0.06860986351966858,0.13707244396209717,-0.44172469678303267,-0.7522300589322998,-2.6493557559024725,-0.6176857948303223,0.42749926447868347,-0.6600824594497681, 253, 197, 143, 222
1730928475050,9i,9.510605596243554,0.8s : 0.3s,-25.606830748198192,1.12150888408975,3.1344068738679822,1.2871066370295723,1.1812611818313599,-2.378103017807007,-3.452953815460205,1.2697527408599854,0.010270118713378906,0.21039485931396484,-0.4089301326102354,-0.7845645333146963,-2.6687990809467346,-0.6482625007629395,0.39762789011001587,-0.6493442058563232, 253, 197, 143, 222
1730928475060,9i,9.510605596243554,0.8s : 0.3s,-25.606830748198192,1.139520375641916,3.031729163784007,1.3004095354207914,1.2828688621520996,-2.325420618057251,-3.2131333351135254,1.2772767543792725,-0.03563860058784485,0.2415759563446045,-0.37642019740082683,-0.8140554532128687,-2.6844332777173023,-0.6761722564697266,0.3675936758518219,-0.6384873390197754, 253, 197, 143, 222
1730928475070,9i,9.510605596243554,0.8s : 0.3s,-25.606830748198192,1.1567963669286792,2.9048795217165466,1.3303195656640348,1.2856433391571045,-2.2478036880493164,-2.914608955383301,1.2959566116333008,-0.1437346339225769,0.263793408870697,-0.3450282286828807,-0.841043605475475,-2.69636103720096,-0.7014134526252747,0.33822324872016907,-0.6273949146270752, 253, 197, 143, 222
1730928475080,9i,9.510605596243554,0.8s : 0.3s,-25.606830748198192,1.1725966604867453,2.757106089297244,1.40751058161601,1.2136375904083252,-2.1396217346191406,-2.6348862648010254,1.3156819343566895,-0.3723296821117401,0.3338228464126587,-0.315912822109735,-0.8660590462802426,-2.7057356641801262,-0.724083662033081,0.3106842637062073,-0.6157745122909546, 253, 197, 143, 222
1730928475090,9i,9.510605596243554,0.8s : 0.3s,-25.606830748198192,1.1864015218494963,2.587704934970521,1.4899351647497656,1.1286075115203857,-2.0198018550872803,-2.3220160007476807,1.2923426628112793,-0.568925142288208,0.47548019886016846,-0.2893617816602682,-0.8889383955238078,-2.712855807605489,-0.7441251873970032,0.2853406071662903,-0.6040353178977966, 253, 197, 143, 222
1730928475100,9i,9.510605596243554,0.8s : 0.3s,-25.606830748198192,1.1983484373131443,2.4081347942245275,1.5489445096806036,1.085038661956787,-1.8948746919631958,-2.0247175693511963,1.263160228729248,-0.6780612468719482,0.5864198803901672,-0.26553667984576956,-0.9099223472333883,-2.7179667635993328,-0.7617871165275574,0.2624271810054779,-0.5922942161560059, 253, 197, 143, 222
1730928475110,9i,9.510605596243554,0.8s : 0.3s,-25.606830748198192,1.2085723265997927,2.217901186696763,1.6752295758297149,1.081738829612732,-1.7177467346191406,-1.7215094566345215,1.2638401985168457,-0.8111692667007446,0.7423654794692993,-0.2440189719601115,-0.9287498335716309,-2.720777121506959,-0.7771459817886353,0.24160447716712952,-0.5810950994491577, 253, 197, 143, 222
1730928475120,9i,9.510605596243554,0.8s : 0.3s,-25.606830748198192,1.2168728378790903,2.004582854663368,1.8043312462371475,0.9933729767799377,-1.5147751569747925,-1.3648898601531982,1.2104451656341553,-0.9672106504440308,0.9246281981468201,-0.22543241044067958,-0.9451069749013413,-2.721601957308443,-0.7900505065917969,0.22352784872055054,-0.570837676525116, 253, 197, 143, 222
1730928475130,9i,9.510605596243554,0.8s : 0.3s,-25.606830748198192,1.2233016968437187,1.7703285715241899,1.8899625234585171,0.8774091005325317,-1.3070381879806519,-0.9835572838783264,1.1376888751983643,-1.0865843296051025,1.0473570823669434,-0.21044885893409704,-0.9590354101541068,-2.7207804997766374,-0.8005766868591309,0.2088988721370697,-0.561639130115509, 253, 197, 143, 222
1730928475140,9i,9.510605596243554,0.8s : 0.3s,-25.606830748198192,1.2283034821327892,1.51661911346923,1.9203711609440195,0.8243663907051086,-1.0469881296157837,-0.5589937567710876,1.0921533107757568,-1.16509211063385,1.0665771961212158,-0.1992914410993831,-0.9703209151623392,-2.718200993449729,-0.8087366819381714,0.19797484576702118,-0.5538511872291565, 253, 197, 143, 222
1730928475150,9i,9.510605596243554,0.8s : 0.3s,-25.606830748198192,1.2323462813721509,1.2444210172283179,1.9478315863645803,0.7627030611038208,-0.7278793454170227,-0.11441507935523987,1.0490825176239014,-1.2138577699661255,1.1045465469360352,-0.19204104567559196,-0.9782096621743275,-2.71333180433119,-0.8142499327659607,0.19086281955242157,-0.548241376876831, 253, 197, 143, 222
1730928475160,9i,9.510605596243554,0.8s : 0.3s,-25.606830748198192,1.2357262687883788,0.9570796924827987,2.031274402669393,0.6215131878852844,-0.37091538310050964,0.3368447721004486,1.0195266008377075,-1.289603590965271,1.193131923675537,-0.1891207157853556,-0.9825058413517149,-2.70684931022701,-0.8170579671859741,0.18799535930156708,-0.5450451374053955, 253, 197, 143, 222
1730928475170,9i,9.510605596243554,0.8s : 0.3s,-25.606830748198192,1.2390583884317572,0.6902329989708594,2.1178077249293783,0.5463535785675049,0.02147231437265873,0.8001899123191833,1.0365009307861328,-1.341567039489746,1.269241213798523,-0.19066640928928413,-0.9827391616801479,-2.6987564318274555,-0.8169423937797546,0.18951326608657837,-0.5446926355361938, 253, 197, 143, 222
1730928475180,9i,9.510605596243554,0.8s : 0.3s,-25.606830748198192,1.243087761482424,0.5386326452763105,2.196895501857347,0.5503813624382019,0.49768492579460144,1.2846391201019287,1.0863573551177979,-1.3747755289077759,1.3252055644989014,-0.19630060657714274,-0.9781685800637119,-2.688238828821306,-0.8135456442832947,0.19504232704639435,-0.54781574010849, 253, 197, 143, 222
1730928475190,9i,9.510605596243554,0.8s : 0.3s,-25.606830748198192,1.2483625343284719,0.6451675576212291,2.2999443894645286,0.5272505879402161,0.9912622570991516,1.793265461921692,1.143059492111206,-1.4274522066116333,1.3948259353637695,-0.2060214447406659,-0.9680468166716693,-2.6748806071768856,-0.8063592314720154,0.2045671045780182,-0.5549209713935852, 253, 197, 143, 222
1730928475200,9i,9.510605596243554,0.8s : 0.3s,-25.606830748198192,1.2556431494207545,0.9590032310253997,2.407577674742188,0.515738844871521,1.4809449911117554,2.3293397426605225,1.2438673973083496,-1.464107632637024,1.4510730504989624,-0.2199666078801767,-0.9522498003703668,-2.658427242405279,-0.7950912714004517,0.2181970328092575,-0.5658800005912781, 253, 197, 143, 222
1730928475210,9i,9.510605596243554,0.8s : 0.3s,-25.606830748198192,1.2658791657246895,1.3641779546053372,2.5458242849857515,0.5128763318061829,2.049419641494751,2.8608503341674805,1.3986709117889404,-1.4917210340499878,1.516479253768921,-0.2379324949185036,-0.9301153914574039,-2.6385325875481427,-0.7791032791137695,0.23569387197494507,-0.580901563167572, 253, 197, 143, 222
1730928475220,9i,9.510605596243554,0.8s : 0.3s,-25.606830748198192,1.280115248582796,1.8282304904253022,2.713664839532511,0.5188039541244507,2.6245996952056885,3.4796175956726074,1.5868024826049805,-1.4930896759033203,1.6176272630691528,-0.2597963250783912,-0.9007447286115334,-2.614330426374492,-0.7574875354766846,0.2568837106227875,-0.600186288356781, 253, 197, 143, 222
1730928475230,9i,9.510605596243554,0.8s : 0.3s,-25.606830748198192,1.2994701587119046,2.3399563922771276,2.901444702621596,0.4650464653968811,3.247849702835083,4.157838821411133,1.833483338356018,-1.492698311805725,1.6818358898162842,-0.28613787057575374,-0.8635805726433162,-2.5852583488233423,-0.7292659878730774,0.28224924206733704,-0.6233029365539551, 253, 197, 143, 222
1730928475240,9i,9.510605596243554,0.8s : 0.3s,-25.606830748198192,1.3247186665263748,2.9022363588851703,3.1445795337218083,0.44572654366493225,3.917741298675537,4.909847259521484,2.099423408508301,-1.5554921627044678,1.7496416568756104,-0.3168559880804036,-0.8173142386077645,-2.5500177840380727,-0.6930056810379028,0.3115805983543396,-0.6501237154006958, 253, 197, 143, 222
1730928475250,9i,9.510605596243554,0.8s : 0.3s,-25.606830748198192,1.356877859135576,3.5030956488813834,3.447357476325147,0.3780045211315155,4.619929790496826,5.667898178100586,2.448824405670166,-1.6423251628875732,1.786141276359558,-0.3514343658031554,-0.760729477646549,-2.5075157939116535,-0.6473107933998108,0.3442448675632477,-0.6800619959831238, 253, 197, 143, 222
1730928475260,9i,9.510605596243554,0.8s : 0.3s,-25.606830748198192,1.3972750290138318,4.1655640691021425,3.7971859776376053,0.30790531635284424,5.472434043884277,6.524747371673584,2.8522090911865234,-1.6672816276550293,1.8718163967132568,-0.3892898311848375,-0.6917662465348032,-2.456155714421898,-0.59017014503479,0.37953147292137146,-0.7124992609024048, 253, 197, 143, 222
1730928475270,9i,9.510605596243554,0.8s : 0.3s,-25.606830748198192,1.4472094098908472,4.892764764860079,4.256484735050197,-0.11277785897254944,6.446132183074951,7.436379432678223,3.30330228805542,-1.7356971502304077,2.0477333068847656,-0.43053076014854014,-0.607806400264943,-2.3947959857992025,-0.5189549326896667,0.41735318303108215,-0.7459906935691833, 253, 197, 143, 222
1730928475280,9i,9.510605596243554,0.8s : 0.3s,-25.606830748198192,1.508948267226818,5.713864023715933,4.925100436659873,-0.5863369107246399,7.586763858795166,8.488898277282715,3.92842960357666,-1.8180440664291382,2.3492064476013184,-0.47572436595935774,-0.5057152364889285,-2.321910334269504,-0.43064239621162415,0.45798251032829285,-0.7776883840560913, 253, 197, 143, 222
1730928475290,9i,9.510605596243554,0.8s : 0.3s,-25.606830748198192,1.5852738012596652,6.639088138181891,5.7529660936618825,-1.2547857761383057,8.806504249572754,9.685545921325684,4.748674392700195,-1.93418550491333,2.6087615489959717,-0.5225911066823027,-0.3809481395072384,-2.232828926937089,-0.32217612862586975,0.4991270899772644,-0.8044095635414124, 253, 197, 143, 222
1730928475300,9i,9.510605596243554,0.8s : 0.3s,-25.606830748198192,1.6788242794692831,7.628015597181267,6.602572332567175,-1.7291905879974365,9.815363883972168,10.987066268920898,5.691654205322266,-1.9510788917541504,2.7188830375671387,-0.5682175101857178,-0.23043314060223524,-2.122718194263156,-0.19250893592834473,0.538130521774292,-0.8205826878547668, 253, 197, 143, 222
1730928475310,9i,9.510605596243554,0.8s : 0.3s,-25.606830748198192,1.7925320253101276,8.557964639490182,7.629638440068417,-2.2598981857299805,10.448699951171875,11.921351432800293,6.829988479614258,-1.9334015846252441,2.797248363494873,-0.6042029160623139,-0.05506126723022208,-1.9896508008901417,-0.04529006406664848,0.5681062936782837,-0.821708083152771, 253, 197, 143, 222
1730928475320,9i,9.510605596243554,0.8s : 0.3s,-25.606830748198192,1.9293266027020253,9.379633797144837,8.803689896592214,-3.1741580963134766,10.922303199768066,12.473097801208496,8.100176811218262,-1.79723060131073,2.943136692047119,-0.6258730337728843,0.13901450003589003,-1.83890382530693,0.11230206489562988,0.5858050584793091,-0.8026336431503296, 253, 197, 143, 222
1730928475330,9i,9.510605596243554,0.8s : 0.3s,-25.606830748198192,2.0919111531048036,10.069071361469945,10.003836834589784,-4.692824363708496,11.0805025100708,12.72757339477539,9.418435096740723,-1.1143666505813599,3.182454824447632,-0.633061807667359,0.345710601625814,-1.67547844879952,0.27319997549057007,0.5916160345077515,-0.7585198283195496, 253, 197, 143, 222
1730928475340,9i,9.510605596243554,0.8s : 0.3s,-25.606830748198192,2.2824919993368384,10.625128855204142,11.361724553445969,-6.662011623382568,10.765002250671387,12.803666114807129,10.9257230758667,0.02840590476989746,3.117138624191284,-0.6282489767421205,0.5576427380853022,-1.5024144017669034,0.42814338207244873,0.5877289772033691,-0.6864896416664124, 253, 197, 143, 222
1730928475350,9i,9.510605596243554,0.8s : 0.3s,-25.606830748198192,2.5016521467337833,11.048586331097056,12.819961785197835,-9.051392555236816,9.702288627624512,12.73974323272705,12.436775207519531,1.5494894981384277,2.6976146697998047,-0.611047219201673,0.7672263719259493,-1.3193710989287597,0.5685349106788635,0.5737255215644836,-0.5895822644233704, 253, 197, 143, 222
1730928475360,9i,9.510605596243554,0.8s : 0.3s,-25.606830748198192,2.7473961162314486,11.397817428739641,14.209978504097082,-12.11347484588623,7.710673809051514,12.567500114440918,13.5057954788208,3.797410726547241,2.2575759887695312,-0.582311452932992,0.965260060267848,-1.1229373185782983,0.6866937875747681,0.5499559044837952,-0.4753948748111725, 253, 197, 143, 222
1730928475370,9i,9.510605596243554,0.8s : 0.3s,-25.606830748198192,3.0143229275019894,11.805173560814808,15.381668771484668,-15.944323539733887,5.025669574737549,11.929463386535645,13.713647842407227,6.660340785980225,2.042414665222168,-0.5440877843754601,1.144763075896436,-0.9067303294382083,0.7791197896003723,0.5176377892494202,-0.3535868525505066, 253, 197, 143, 222
1730928475380,9i,9.510605596243554,0.8s : 0.3s,-25.606830748198192,3.2931987063219634,12.439999968055135,16.047712264157838,-19.436365127563477,2.417508840560913,11.164719581604004,12.68366527557373,9.565342903137207,2.2711052894592285,-0.4957632638492745,1.301117092175745,-0.6692406225879259,0.8478139638900757,0.4757031500339508,-0.2343466579914093, 253, 197, 143, 222
1730928475390,9i,9.510605596243554,0.8s : 0.3s,-25.606830748198192,3.5724059784684354,12.976251915497636,16.60911367968229,-19.771480560302734,-1.13035249710083,11.193038940429688,10.475532531738281,12.619439125061035,2.6221425533294678,-0.4278092130942969,1.4160836694484646,-0.42688859752513014,0.8990094065666199,0.4148784577846527,-0.14020860195159912, 253, 197, 143, 222
1730928475400,9i,9.510605596243554,0.8s : 0.3s,-25.606830748198192,3.8398169198773253,12.862400604179864,16.990613771044245,-15.977045059204102,-2.8879611492156982,11.115167617797852,7.435934066772461,15.07210636138916,2.493882656097412,-0.33634456553691705,1.4727295511401939,-0.2184105076432932,0.9394320845603943,0.3300386965274811,-0.09242354333400726, 253, 197, 143, 222
1730928475410,9i,9.510605596243554,0.8s : 0.3s,-25.606830748198192,4.081048166910918,12.45087016639662,15.97756779027138,-13.497695922851562,-4.240792751312256,10.935755729675293,3.5415163040161133,15.415460586547852,2.259183406829834,-0.2329732963586558,1.4839503122420887,-0.0561150671739069,0.9693174362182617,0.2308715134859085,-0.08439363539218903, 253, 197, 143, 222
1730928475420,9i,9.510605596243554,0.8s : 0.3s,-25.606830748198192,4.289207929183098,12.283338664621365,12.854055503416898,-13.595267295837402,-4.882733345031738,11.105342864990234,0.8578479886054993,12.565430641174316,2.5692007541656494,-0.1320196672937523,1.4678972458642217,0.09266979603628349,0.9860547780990601,0.13163650035858154,-0.10182376205921173, 253, 197, 143, 222
1730928475430,9i,9.510605596243554,0.8s : 0.3s,-25.606830748198192,4.457556476806494,12.234812616850197,7.976003577997459,-11.676688194274902,-8.886359214782715,12.513492584228516,-0.6334027647972107,7.6983795166015625,1.9875580072402954,-0.034857969630367205,1.420179428273909,0.24033441457591437,0.9880783557891846,0.03485091030597687,-0.14995697140693665, 253, 197, 143, 222
1730928475440,9i,9.510605596243554,0.8s : 0.3s,-25.606830748198192,4.578785796473202,11.095108725837607,3.2521562404351587,-2.268287420272827,-2.8069567680358887,14.814817428588867,0.27020299434661865,1.0702612400054932,-3.0590932369232178,0.09771465754910257,1.3673322431068107,0.28764526505514587,0.9747008085250854,-0.09755923599004745,-0.20109930634498596, 253, 197, 143, 222
1730928475450,9i,9.510605596243554,0.8s : 0.3s,-25.606830748198192,4.690415058577605,11.759793068645898,7.750582111061211,-21.407697677612305,-3.7091758251190186,5.832633972167969,5.364414691925049,-4.959009170532227,2.588977813720703,0.15909260654133156,1.3170125983048921,0.451698419553115,0.95574551820755,-0.1584223359823227,-0.2478976994752884, 253, 197, 143, 222
1730928475460,9i,9.510605596243554,0.8s : 0.3s,-25.606830748198192,4.8387784411489525,12.634968904397407,14.542059892269453,-19.493989944458008,-9.421204566955566,7.296563625335693,11.870016098022461,-5.266574859619141,6.545029640197754,0.15196312431478842,1.2135914367100904,0.6861670941914911,0.926081120967865,-0.15137892961502075,-0.34562745690345764, 253, 197, 143, 222
1730928475470,9i,9.510605596243554,0.8s : 0.3s,-25.606830748198192,4.999720737880295,15.999226203176478,10.792653641790622,-39.073368072509766,-2.7914035320281982,-0.2910456359386444,9.084188461303711,-2.956373453140259,5.021827220916748,0.08437628925897549,1.1161322045777105,0.954221360726137,0.8952125906944275,-0.08427620679140091,-0.4375982880592346, 253, 197, 143, 222
1730928475480,9i,9.510605596243554,0.8s : 0.3s,-25.606830748198192,5.179670610805023,15.168535251944096,19.62015122849905,-17.9683780670166,-14.76218032836914,-6.193119525909424,1.8635139465332031,9.13333797454834,17.264408111572266,-0.10736210545914704,1.045533285598778,1.2253536730436967,0.8602105975151062,0.10715597122907639,-0.49855348467826843, 253, 197, 143, 222
1730928475490,9i,9.510605596243554,0.8s : 0.3s,-25.606830748198192,5.38056727231178,12.864516985673491,15.786128343669098,-6.77094030380249,-12.852869987487793,-3.310375452041626,5.944077491760254,14.523114204406738,1.7172491550445557,-0.18863499521430782,0.8964960139952538,1.2724706273952702,0.7672874927520752,0.18751828372478485,-0.6132757067680359, 253, 197, 143, 222
1730928475500,9i,9.510605596243554,0.8s : 0.3s,-25.606830748198192,5.549405264115506,11.024465742632946,6.970604886587403,-2.599919319152832,-13.933481216430664,-3.487077474594116,0.7165800929069519,5.920047283172607,3.6095547676086426,-0.2595223504148126,0.7675631177145135,1.2945440366624754,0.6711307168006897,0.2566189169883728,-0.6955073475837708, 253, 197, 143, 222
1730928475510,9i,9.510605596243554,0.8s : 0.3s,-25.606830748198192,5.687028352382246,10.541368745018307,3.6295621703132848,-5.2782979011535645,-14.57935619354248,-0.6675214171409607,1.141735315322876,2.003592014312744,2.80281662940979,-0.2874916143063358,0.6192835934032179,1.2976976759862446,0.5566291213035583,0.28354766964912415,-0.7808743715286255, 253, 197, 143, 222
1730928475520,9i,9.510605596243554,0.8s : 0.3s,-25.606830748198192,5.812679337987755,10.355363081096979,5.252931768746936,-6.415729522705078,-13.664552688598633,-2.545560598373413,2.971212863922119,0.5444603562355042,4.297528266906738,-0.3538701504349905,0.48579645530464516,1.3203435487646915,0.4379822611808777,0.3465307354927063,-0.8295106887817383, 253, 197, 143, 222
1730928475530,9i,9.510605596243554,0.8s : 0.3s,-25.606830748198192,5.913287423626176,10.005697630880974,3.853766151106948,-4.997246742248535,-12.927042007446289,-2.8045687675476074,-0.04562273621559143,1.414247989654541,3.584596872329712,-0.41600702276779705,0.3514999634279903,1.3191902088745893,0.314940482378006,0.40411126613616943,-0.8587820529937744, 253, 197, 143, 222
1730928475540,9i,9.510605596243554,0.8s : 0.3s,-25.606830748198192,5.998655303384579,9.502562892828733,3.5315804647368996,-1.1977936029434204,-13.072246551513672,-3.3811073303222656,0.33550870418548584,2.03610897064209,2.865964889526367,-0.4552031310290881,0.21287778698797669,1.2959355591678967,0.1897599846124649,0.43964478373527527,-0.877897322177887, 253, 197, 143, 222
1730928475550,9i,9.510605596243554,0.8s : 0.3s,-25.606830748198192,6.076140904992519,9.26526289958103,3.317171586772254,-0.6340904831886292,-13.259552955627441,-3.5124876499176025,1.0638911724090576,1.7484192848205566,2.610515832901001,-0.4670625823110604,0.06484450288953833,1.2587753096064351,0.057858750224113464,0.45026543736457825,-0.8910182118415833, 253, 197, 143, 222
1730928475560,9i,9.510605596243554,0.8s : 0.3s,-25.606830748198192,6.147716208608459,9.073735735597129,3.4830090993801948,-0.6769514083862305,-12.588679313659668,-4.087897777557373,1.071588158607483,1.07820725440979,3.1337709426879883,-0.4732759713208202,-0.08251105914514276,1.2151402621767915,-0.07335813343524933,0.45580461621284485,-0.8870517611503601, 253, 197, 143, 222
1730928475570,9i,9.510605596243554,0.8s : 0.3s,-25.606830748198192,6.2109144633714335,8.943263445748197,3.1336690219977243,-0.8462092280387878,-12.301207542419434,-4.3288164138793945,0.5869727730751038,0.5800102353096008,3.023066759109497,-0.47414763939628285,-0.22766380026372574,1.1678223083669033,-0.2008032649755478,0.4565802812576294,-0.8667252063751221, 253, 197, 143, 222
1730928475580,9i,9.510605596243554,0.8s : 0.3s,-25.606830748198192,6.2658934607102275,8.889521576735236,2.368680074278552,-0.36845409870147705,-12.538031578063965,-4.08992338180542,0.5356960892677307,0.5419376492500305,2.2427613735198975,-0.4675236365211217,-0.36836402113025724,1.1212945464499833,-0.3214474022388458,0.4506770372390747,-0.8328036069869995, 253, 197, 143, 222
1730928475590,9i,9.510605596243554,0.8s : 0.3s,-25.606830748198192,6.314098070131258,8.662027065433143,1.6923190075632928,-0.5253096222877502,-11.49005126953125,-3.9820587635040283,0.818433940410614,0.4084962010383606,1.423811912536621,-0.45473139890935255,-0.5028888871291085,1.0775058305779723,-0.4329816699028015,0.43922102451324463,-0.7871542572975159, 253, 197, 143, 222
1730928475600,9i,9.510605596243554,0.8s : 0.3s,-25.606830748198192,6.358257906519768,8.273660609823905,1.7294079016753605,-0.4712147116661072,-10.075793266296387,-4.553182125091553,1.0508986711502075,0.2990192770957947,1.3405413627624512,-0.43508274633546756,-0.6275577142669051,1.0346386320961027,-0.5324660539627075,0.42148545384407043,-0.734050452709198, 253, 197, 143, 222
1730928475610,9i,9.510605596243554,0.8s : 0.3s,-25.606830748198192,6.4005579609397625,7.819181096460637,1.8319266654459772,0.12030225992202759,-8.84773063659668,-5.2114763259887695,1.080726146697998,0.5876864194869995,1.3574280738830566,-0.40636113117288547,-0.7397963918079243,0.9912374953150573,-0.619239330291748,0.3952694237232208,-0.6784576773643494, 253, 197, 143, 222
1730928475620,9i,9.510605596243554,0.8s : 0.3s,-25.606830748198192,6.442733664671862,7.373568873681087,1.945302369841687,1.3828976154327393,-7.996963977813721,-5.413138389587402,1.199057698249817,0.9435058832168579,1.2067553997039795,-0.363160801803229,-0.8368599020341464,0.9564019713511067,-0.6941139101982117,0.3552306592464447,-0.626112699508667, 253, 197, 143, 222
1730928475630,9i,9.510605596243554,0.8s : 0.3s,-25.606830748198192,6.486389089274715,7.033476589690504,2.103836725618242,2.7140769958496094,-7.730685234069824,-5.158883094787598,1.633927822113037,0.8555664420127869,1.0121338367462158,-0.3091712610233442,-0.9213954706345268,0.9375120087865418,-0.7586836814880371,0.30426928400993347,-0.5760377645492554, 253, 197, 143, 222
1730928475640,9i,9.510605596243554,0.8s : 0.3s,-25.606830748198192,6.531878212965709,6.799245279427039,2.2795730590564256,3.2734084129333496,-7.695887565612793,-4.717046737670898,2.0819430351257324,0.5001506805419922,0.7821865677833557,-0.25135856219330655,-0.99966585472618,0.934016502589335,-0.8148532509803772,0.24872006475925446,-0.5235958695411682, 253, 197, 143, 222
1730928475650,9i,9.510605596243554,0.8s : 0.3s,-25.606830748198192,6.5778022820861475,6.543161589182085,2.2626372553488014,3.241492509841919,-7.201585292816162,-4.367159366607666,2.1781959533691406,0.22895847260951996,0.5679504871368408,-0.19570443396702417,-1.0733940359828633,0.9394028244114017,-0.8620491027832031,0.19445757567882538,-0.4680359959602356, 253, 197, 143, 222
1730928475660,9i,9.510605596243554,0.8s : 0.3s,-25.606830748198192,6.62377891015922,6.215788473163077,2.2366090784215173,2.9699501991271973,-6.2726922035217285,-4.428146839141846,2.158224582672119,0.18603076040744781,0.5566681027412415,-0.14283876013098215,-1.1395072792829897,0.9477831249409289,-0.8991761207580566,0.14235353469848633,-0.41378477215766907, 253, 197, 143, 222
1730928475670,9i,9.510605596243554,0.8s : 0.3s,-25.606830748198192,6.671597713953435,5.929091972934521,2.428025976174344,3.5384433269500732,-5.506457805633545,-4.652965545654297,2.25943660736084,0.3922080397605896,0.7977651357650757,-0.08848282674132513,-1.19689575296162,0.9591513727585952,-0.9272680282592773,0.08836741000413895,-0.3638204336166382, 253, 197, 143, 222
1730928475680,9i,9.510605596243554,0.8s : 0.3s,-25.606830748198192,6.722239041338481,5.769695669267132,2.615003746123083,4.844541072845459,-5.099681377410889,-4.554771900177002,2.3924989700317383,0.6485651731491089,0.8328003883361816,-0.03077613147602275,-1.2483873051982979,0.9830668450039491,-0.9480258822441101,0.030771274119615555,-0.31670239567756653, 253, 197, 143, 222
1730928475690,9i,9.510605596243554,0.8s : 0.3s,-25.606830748198192,6.7750423716090555,5.711152475835028,2.6304339227759854,5.676520347595215,-4.831272602081299,-4.376470565795898,2.3855514526367188,0.7554535865783691,0.8109357357025146,0.027445035489808683,-1.2979830744031382,1.0207012292604927,-0.962654173374176,-0.027441591024398804,-0.26934027671813965, 253, 197, 143, 222
1730928475700,9i,9.510605596243554,0.8s : 0.3s,-25.606830748198192,6.828766467926661,5.691633911977859,2.5314854193225482,5.835737228393555,-4.72698974609375,-4.221012115478516,2.248292922973633,0.6481420397758484,0.9661828279495239,0.08331236962050334,-1.3481837469674118,1.0661935458441318,-0.9719412326812744,-0.08321602642536163,-0.22001275420188904, 253, 197, 143, 222
1730928475710,9i,9.510605596243554,0.8s : 0.3s,-25.606830748198192,6.882028954725351,5.634665036077366,2.381506279794992,5.620143890380859,-4.604874610900879,-3.9955029487609863,2.142084836959839,0.5125805139541626,0.9057074189186096,0.13475320682055092,-1.400336732653641,1.1148826283157738,-0.9765729308128357,-0.13434575498104095,-0.16809749603271484, 253, 197, 143, 222
1730928475720,9i,9.510605596243554,0.8s : 0.3s,-25.606830748198192,6.93470445121061,5.510549429116995,2.3275949621461804,5.247801780700684,-4.189290523529053,-4.022896766662598,2.0252442359924316,0.5452322959899902,1.0093591213226318,0.18210150863922145,-1.452036804831127,1.1632870661051233,-0.9765383005142212,-0.18109673261642456,-0.11652153730392456, 253, 197, 143, 222
1730928475730,9i,9.510605596243554,0.8s : 0.3s,-25.606830748198192,6.9868462875556405,5.422990239197669,2.3049586611904003,5.461694240570068,-3.9730546474456787,-3.952460289001465,1.901697039604187,0.590860903263092,1.1607179641723633,0.22686591414556737,-1.5029077186696604,1.2136386470234937,-0.9721318483352661,-0.22492484748363495,-0.06609825044870377, 253, 197, 143, 222
1730928475740,9i,9.510605596243554,0.8s : 0.3s,-25.606830748198192,7.037317120255148,5.355791037493672,2.101796716579521,5.715611457824707,-3.794792890548706,-3.711085796356201,1.7923550605773926,0.5475074648857117,0.9514454007148743,0.2675618687279675,-1.5555448039261859,1.2696377209116816,-0.9643064141273499,-0.2643808424472809,-0.014708282425999641, 253, 197, 143, 222
1730928475750,9i,9.510605596243554,0.8s : 0.3s,-25.606830748198192,7.084910185705897,5.264964713571694,1.8518069371967152,5.800799369812012,-3.6045899391174316,-3.2993555068969727,1.5212721824645996,0.4775731563568115,0.9417238235473633,0.30190177581082855,-1.609516522454266,1.3301563946166135,-0.9540572166442871,-0.29733651876449585,0.036959756165742874, 253, 197, 143, 222
1730928475760,9i,9.510605596243554,0.8s : 0.3s,-25.606830748198192,7.128596234225918,5.140475367058142,1.590338739732748,5.762355804443359,-3.3439443111419678,-2.938157796859741,1.238415002822876,0.3559578061103821,0.9320942163467407,0.32909007287687414,-1.6638579882643334,1.3930662510470662,-0.9422420263290405,-0.323182076215744,0.08794062584638596, 253, 197, 143, 222
1730928475770,9i,9.510605596243554,0.8s : 0.3s,-25.606830748198192,7.167721828789864,4.943260300589635,1.344288612859133,5.476873874664307,-2.927777051925659,-2.5904927253723145,0.946631669998169,0.2983197271823883,0.9066452980041504,0.34961902174231524,-1.7161001836161522,1.4558873579234122,-0.929602861404419,-0.34253990650177,0.13603359460830688, 253, 197, 143, 222
1730928475780,9i,9.510605596243554,0.8s : 0.3s,-25.606830748198192,7.20319246744517,4.713432083042009,1.315371821274659,5.206933975219727,-2.5797278881073,-2.341298818588257,0.7757619619369507,0.38565030694007874,0.9897829294204712,0.36439511680897435,-1.7642769021438542,1.5160775699700064,-0.9169058799743652,-0.35638418793678284,0.17965081334114075, 253, 197, 143, 222
1730928475790,9i,9.510605596243554,0.8s : 0.3s,-25.606830748198192,7.236532496860018,4.535545220670588,1.3692699378976392,5.316168308258057,-2.367115020751953,-2.109668493270874,0.8080999255180359,0.4705404043197632,1.0002331733703613,0.37420175731529237,-1.8102335487226862,1.576082632968726,-0.9042457342147827,-0.3655296564102173,0.22074474394321442, 253, 197, 143, 222
1730928475800,9i,9.510605596243554,0.8s : 0.3s,-25.606830748198192,7.267889383911559,4.369674071087355,1.2774114339577471,5.296558380126953,-2.0659217834472656,-1.8871771097183228,0.7605588436126709,0.48087015748023987,0.9066940546035767,0.37950183696363154,-1.8547177628944358,1.6368884327672972,-0.8916625380516052,-0.37045779824256897,0.2601914405822754, 253, 197, 143, 222
1730928475810,9i,9.510605596243554,0.8s : 0.3s,-25.606830748198192,7.296875810011108,4.190283266916004,1.181629859965673,5.124285697937012,-1.734595775604248,-1.7081481218338013,0.5894851088523865,0.4427002966403961,0.9234570264816284,0.3809561000076178,-1.895610980594747,1.6961600703831852,-0.8797684907913208,-0.3718082010746002,0.2962544560432434, 253, 197, 143, 222
1730928475820,9i,9.510605596243554,0.8s : 0.3s,-25.606830748198192,7.323638483088982,4.015729798067536,1.1228662566872234,5.016258239746094,-1.4219905138015747,-1.527601718902588,0.524059534072876,0.36197447776794434,0.9247511625289917,0.37904272072623696,-1.9325444475987053,1.7534335929183995,-0.8688929677009583,-0.37003129720687866,0.3287890553474426, 253, 197, 143, 222
1730928475830,9i,9.510605596243554,0.8s : 0.3s,-25.606830748198192,7.348349777094433,3.837184768534265,1.0422995181128305,4.835391521453857,-1.1888484954833984,-1.3104671239852905,0.4895254373550415,0.30305948853492737,0.8688544631004333,0.373971708608174,-1.9657608487941762,1.8083060052486137,-0.859215259552002,-0.3653154969215393,0.3581812381744385, 253, 197, 143, 222
1730928475840,9i,9.510605596243554,0.8s : 0.3s,-25.606830748198192,7.370965421143657,3.6462162482364486,0.9704964371559266,4.608933448791504,-0.8998033404350281,-1.1027504205703735,0.40714895725250244,0.244644433259964,0.8463109135627747,0.3661600911678867,-1.9948032266004054,1.8599255579717002,-0.8510273694992065,-0.3580327332019806,0.38414281606674194, 253, 197, 143, 222
1730928475850,9i,9.510605596243554,0.8s : 0.3s,-25.606830748198192,7.391640840972612,3.442989380815544,0.9754279407763364,4.34865665435791,-0.6433641910552979,-0.8687542080879211,0.32825756072998047,0.16364890336990356,0.9038394093513489,0.3561268578141047,-2.0193452421105254,1.907770936453504,-0.8445388674736023,-0.34864673018455505,0.4064483940601349, 253, 197, 143, 222
1730928475860,9i,9.510605596243554,0.8s : 0.3s,-25.606830748198192,7.410702781449284,3.2315463445354835,0.9982080662811036,4.073012828826904,-0.41487956047058105,-0.6240283250808716,0.27260416746139526,0.12416359782218933,0.952202558517456,0.3441105970104223,-2.0395437960507548,1.9514800480578314,-0.8398342728614807,-0.33735954761505127,0.4252846837043762, 253, 197, 143, 222
1730928475870,9i,9.510605596243554,0.8s : 0.3s,-25.606830748198192,7.4281353396578185,3.011440404360169,0.9931742730592427,3.7526397705078125,-0.17553077638149261,-0.45665329694747925,0.18444323539733887,0.09039601683616638,0.9717018008232117,0.33086670855609235,-2.055510168923766,1.9908820978099437,-0.8368176817893982,-0.32486283779144287,0.44068247079849243, 253, 197, 143, 222
1730928475880,9i,9.510605596243554,0.8s : 0.3s,-25.606830748198192,7.444993474039363,2.792408634677355,1.008248225851701,3.454380750656128,0.06210522726178169,-0.3004884421825409,0.06965434551239014,0.03920823335647583,1.0050748586654663,0.3172063583776443,-2.067236778736428,2.0263148912520403,-0.8354167342185974,-0.31191352009773254,0.45253652334213257, 253, 197, 143, 222
1730928475890,9i,9.510605596243554,0.8s : 0.3s,-25.606830748198192,7.4597878798905,2.590118301329606,0.9724543630643958,3.2179746627807617,0.15745779871940613,-0.0817064717411995,0.009280979633331299,0.025850743055343628,0.9720664024353027,0.3028275728169886,-2.0756431459927818,2.057879725858169,-0.8354223370552063,-0.29822030663490295,0.4616648852825165, 253, 197, 143, 222
1730928475900,9i,9.510605596243554,0.8s : 0.3s,-25.606830748198192,7.472781475142423,2.415391924490784,0.8904207197452805,3.0414085388183594,0.261243611574173,0.05095437169075012,-0.00962609052658081,0.014542967081069946,0.8902499079704285,0.28761126913903623,-2.0818276661393704,2.086537400443154,-0.8364126682281494,-0.28366243839263916,0.46898791193962097, 253, 197, 143, 222
1730928475910,9i,9.510605596243554,0.8s : 0.3s,-25.606830748198192,7.4838492423763885,2.24745780465311,0.832804260397089,2.7934410572052,0.36422300338745117,0.14921599626541138,-0.08122527599334717,-0.026760756969451904,0.8284016251564026,0.2723393741194846,-2.085719394910607,2.1125140370747384,-0.8382542729377747,-0.2689853310585022,0.4743178188800812, 253, 197, 143, 222
1730928475920,9i,9.510605596243554,0.8s : 0.3s,-25.606830748198192,7.493054845872889,2.0895540680750755,0.8031389313949129,2.568983793258667,0.4167192280292511,0.2705530524253845,-0.14678281545639038,-0.045885950326919556,0.7882775068283081,0.25725048900187886,-2.087626169904517,2.1354468263307225,-0.8407813906669617,-0.25442248582839966,0.477866530418396, 253, 197, 143, 222
1730928475930,9i,9.510605596243554,0.8s : 0.3s,-25.606830748198192,7.5005467929700105,1.9456115752454306,0.7483464557969612,2.371070146560669,0.4950186312198639,0.3860691785812378,-0.1823003888130188,-0.05975157022476196,0.7233386039733887,0.24179206295306105,-2.087377268863933,2.1558279000360003,-0.8442193865776062,-0.23944294452667236,0.4795425832271576, 253, 197, 143, 222
1730928475940,9i,9.510605596243554,0.8s : 0.3s,-25.606830748198192,7.506571232424331,1.78988944850218,0.7171061032650059,2.058568239212036,0.5563634634017944,0.46239006519317627,-0.19921422004699707,-0.08573657274246216,0.6835232973098755,0.22695206853876104,-2.0857530736114094,2.173377496851788,-0.8479963541030884,-0.2250088006258011,0.47986799478530884, 253, 197, 143, 222
1730928475950,9i,9.510605596243554,0.8s : 0.3s,-25.606830748198192,7.511533242967983,1.6325402550791408,0.7021336318217367,1.77567458152771,0.5895149111747742,0.5245972275733948,-0.2026178240776062,-0.0771898478269577,0.6678168773651123,0.21317865898019742,-2.0830695475585412,2.1879830181428517,-0.8519018888473511,-0.21156767010688782,0.4790644645690918, 253, 197, 143, 222
1730928475960,9i,9.510605596243554,0.8s : 0.3s,-25.606830748198192,7.515685430044225,1.480082021937207,0.6553808316083849,1.514533281326294,0.6694891452789307,0.5232869386672974,-0.20618999004364014,-0.043615326285362244,0.6205702424049377,0.20053945210530177,-2.07916104417827,2.199925481321985,-0.8560355305671692,-0.19919800758361816,0.4769947826862335, 253, 197, 143, 222
1730928475970,9i,9.510605596243554,0.8s : 0.3s,-25.606830748198192,7.51921154200568,1.3435024292510802,0.597953649925362,1.3214225769042969,0.701999843120575,0.5172080993652344,-0.20644807815551758,0.0010123252868652344,0.5611833333969116,0.18911901558490285,-2.0741430566953607,2.209975794834705,-0.8603549003601074,-0.18799369037151337,0.47375959157943726, 253, 197, 143, 222
1730928475980,9i,9.510605596243554,0.8s : 0.3s,-25.606830748198192,7.52232200653739,1.2273068644371954,0.5367933190752437,1.1642694473266602,0.7680187821388245,0.49962034821510315,-0.1965145468711853,0.06446932256221771,0.4953511953353882,0.17866932085971038,-2.0683811179972422,2.2185809351593986,-0.864749550819397,-0.17772023379802704,0.46970653533935547, 253, 197, 143, 222
1730928475990,9i,9.510605596243554,0.8s : 0.3s,-25.606830748198192,7.5253124356459695,1.121417823340051,0.548067025863971,0.9469634294509888,0.8951641917228699,0.47182178497314453,-0.19339096546173096,0.11838668584823608,0.4989609122276306,0.1693353671649225,-2.061275628141432,2.2256755472556518,-0.8694906830787659,-0.1685272604227066,0.46431148052215576, 253, 197, 143, 222
1730928476000,9i,9.510605596243554,0.8s : 0.3s,-25.606830748198192,7.5282699903993935,1.03277605151159,0.5711934408503518,0.7256355881690979,1.0601485967636108,0.4320772886276245,-0.1963961124420166,0.10859057307243347,0.5252605080604553,0.16143027133365292,-2.052345474379247,2.2310696991465155,-0.874755859375,-0.1607300490140915,0.45713117718696594, 253, 197, 143, 222
1730928476010,9i,9.510605596243554,0.8s : 0.3s,-25.606830748198192,7.531089284856505,0.968490493838898,0.5321125782734679,0.5499969124794006,1.156783938407898,0.4323049783706665,-0.18029683828353882,0.06556792557239532,0.49632418155670166,0.1547006834903489,-2.041749352415244,2.234711986183866,-0.8804944753646851,-0.15408436954021454,0.44831734895706177, 253, 197, 143, 222
1730928476020,9i,9.510605596243554,0.8s : 0.3s,-25.606830748198192,7.533840861005016,0.9383966785583547,0.43289346053948835,0.5085618495941162,1.194748044013977,0.4657159149646759,-0.11834943294525146,0.04554253816604614,0.4139034152030945,0.14835068712251204,-2.03033886734347,2.23739551828462,-0.8864114880561829,-0.14780713617801666,0.43866658210754395, 253, 197, 143, 222
1730928476030,9i,9.510605596243554,0.8s : 0.3s,-25.606830748198192,7.536645969975055,0.9347320101353075,0.3417057015988845,0.4753459692001343,1.236611008644104,0.49275970458984375,-0.04775726795196533,0.029885023832321167,0.3370295464992523,0.14179483673534252,-2.018497493694398,2.2398297174468995,-0.8923980593681335,-0.14132016897201538,0.42855003476142883, 253, 197, 143, 222
1730928476040,9i,9.510605596243554,0.8s : 0.3s,-25.606830748198192,7.539734033766232,0.9339181966818686,0.3724437094232806,0.37550991773605347,1.3343645334243774,0.47149142622947693,-0.01441127061843872,0.013653188943862915,0.371914267539978,0.1356664241052199,-2.00590587343714,2.2415343889438812,-0.8984916806221008,-0.13525064289569855,0.41763678193092346, 253, 197, 143, 222
