timestamp,club,max_speed,tempo,w.rotation,l.speed,t.spped,acc,rotation.x,rotation.y,rotation.z,userAcceleration.x,userAcceleration.y,userAcceleration.z,pitch,roll,yaw,gravity.x,gravity.y,gravity.z
1732227172565,SW,4.060007450435054,1.0s : 0.3s,-7.505840593786175,0.00013887554626884974,0.05915070231998232,0.013850271570825154,0.08785010129213333,-0.02210642397403717,0.046180061995983124,-0.006905198097229004,0.0061049312353134155,0.010338185355067253,-0.22946989182672137,1.5979781499014454,2.9182251659196905,0.9734273552894592,0.2274613380432129,0.026466049253940582
1732227172575,SW,4.060007450435054,1.0s : 0.3s,-7.505840593786175,0.0002591834712157316,0.046776327591880565,0.007314385529100595,0.09267547726631165,-0.018822479993104935,0.05428272858262062,-0.006425142288208008,0.0027489066123962402,-0.0021590031683444977,-0.22884220682934753,1.5978646703143884,2.9173458178125347,0.973572850227356,0.22685006260871887,0.026359442621469498
1732227172585,SW,4.060007450435054,1.0s : 0.3s,-7.505840593786175,0.00037058540900211065,0.02884100403936861,0.006776898882397264,0.0792536810040474,-0.01911959983408451,0.059044595807790756,-0.004099488258361816,-0.0037060528993606567,-0.0039224643260240555,-0.22826308681786248,1.5978699346914125,2.9165454270258455,0.973703920841217,0.22628600895404816,0.026368120685219765
1732227172595,SW,4.060007450435054,1.0s : 0.3s,-7.505840593786175,0.000478343804800529,0.021534454736022494,0.013408354114934077,0.06766599416732788,-0.01940801925957203,0.06298606842756271,-0.009556770324707031,-0.008294150233268738,-0.004433866590261459,-0.2277255966911152,1.5980469746473351,2.9158971474145035,0.9738208055496216,0.22576242685317993,0.026543818414211273
1732227172605,SW,4.060007450435054,1.0s : 0.3s,-7.505840593786175,0.0005727125748111623,0.029837808567891515,0.014078828475667817,0.06459218263626099,-0.019641222432255745,0.06720831245183945,-0.011056005954742432,0.0015776902437210083,-0.008572574704885483,-0.22705275651222206,1.5984380567245313,2.9153759618384196,0.9739620089530945,0.22510690987110138,0.0269288532435894
1732227172615,SW,4.060007450435054,1.0s : 0.3s,-7.505840593786175,0.0006463832905633985,0.03863942686618377,0.011419909338381327,0.06575597822666168,-0.0123042156919837,0.06749646365642548,-0.0024239420890808105,0.010850891470909119,-0.0026071034371852875,-0.22630536273080615,1.598841363957896,2.91485773577947,0.9741190075874329,0.22437863051891327,0.027326369658112526
1732227172625,SW,4.060007450435054,1.0s : 0.3s,-7.505840593786175,0.0007009657424367601,0.04475990976000869,0.011818713570078458,0.06565611064434052,-0.016613122075796127,0.0649593397974968,0.0033689141273498535,0.01119038462638855,0.0017628669738769531,-0.22564385314187999,1.5990345976203015,2.9142732500594306,0.9742617011070251,0.22373394668102264,0.027518780902028084
1732227172635,SW,4.060007450435054,1.0s : 0.3s,-7.505840593786175,0.0007406926877494387,0.048532484044902124,0.012097421142224951,0.07228019088506699,-0.012830899097025394,0.06266635656356812,0.0004431009292602539,0.009341180324554443,-0.007674217224121094,-0.22511455574844053,1.5990384386288772,2.9136198290999507,0.9743798971176147,0.22321802377700806,0.02752586454153061
1732227172645,SW,4.060007450435054,1.0s : 0.3s,-7.505840593786175,0.0007653267796062413,0.050835171074261984,0.02351507762847163,0.06642962992191315,-0.006175881717354059,0.07067351788282394,-0.01017981767654419,0.012174651026725769,-0.01735246554017067,-0.2246340632109651,1.5989457441102644,2.9128985758193706,0.9744893908500671,0.22274963557720184,0.027438556775450706
1732227172665,SW,4.060007450435054,1.0s : 0.3s,-7.505840593786175,0.0007878858418667843,0.05086817219645149,0.024997480062537818,0.037558432668447495,-0.017023958265781403,0.0672849491238594,-0.015707314014434814,0.004571408033370972,-0.01890123076736927,-0.2234491723786587,1.5983824369258242,2.9118361384323346,0.9747679233551025,0.22159436345100403,0.026896879076957703
1732227172675,SW,4.060007450435054,1.0s : 0.3s,-7.505840593786175,0.0008074142715752141,0.051175889026086684,0.029674940452274895,0.04673568531870842,-0.021070098504424095,0.06260710209608078,-0.01488804817199707,0.01058003306388855,-0.023388266563415527,-0.22277979441073106,1.5980347965199637,2.911404017007389,0.9749252796173096,0.22094157338142395,0.02656204253435135
1732227172685,SW,4.060007450435054,1.0s : 0.3s,-7.505840593786175,0.0007968976212007113,0.05247799750371403,0.04759824619029197,0.06874537467956543,-0.020295029506087303,0.0637112483382225,-0.019791722297668457,0.03024102747440338,-0.03097355365753174,-0.22225567267288773,1.5975794727168318,2.9107650280919226,0.9750529527664185,0.2204303741455078,0.02612123265862465
1732227172655,SW,4.060007450435054,1.0s : 0.3s,-7.505840593786175,0.0008462815866590752,0.052589651465329464,0.027402822657101474,0.0459190271794796,-0.012941909953951836,0.06518927216529846,-0.014704585075378418,0.01201435923576355,-0.01975715160369873,-0.22407856955581298,1.5987008820884436,2.9122947457334964,0.9746198058128357,0.22220806777477264,0.02720339223742485
1732227172695,SW,4.060007450435054,1.0s : 0.3s,-7.505840593786175,0.0009654121652543889,0.05669991084684926,0.05838941911396047,0.08470916002988815,-0.017839862033724785,0.06638000160455704,-0.02241683006286621,0.04263763129711151,-0.03299761191010475,-0.2218109889040796,1.5972114516565212,2.909960363375367,0.9751601815223694,0.2199966013431549,0.02576497197151184
1732227172705,SW,4.060007450435054,1.0s : 0.3s,-7.505840593786175,0.0011845242689720178,0.06036561011829587,0.051602215048413363,0.0920184776186943,-0.017389876767992973,0.0648781806230545,-0.020267724990844727,0.03853987157344818,-0.027689099311828613,-0.22135042732439325,1.5968973009275307,2.9090460692549573,0.9752695560455322,0.219547301530838,0.025461267679929733
1732227172715,SW,4.060007450435054,1.0s : 0.3s,-7.505840593786175,0.0014691311665054206,0.05856270004351832,0.05052208205364062,0.12446244806051254,0.061360061168670654,-0.050231896340847015,-0.02150481939315796,0.04102201759815216,-0.020179633051156998,-0.2211678746650535,1.5966280931104642,2.9079369410672564,0.9753163456916809,0.21936920285224915,0.02519974857568741
1732227172725,SW,4.060007450435054,1.0s : 0.3s,-7.505840593786175,0.001607050039807117,0.1967934820860245,0.13696433619534393,0.21674349904060364,0.4148246943950653,-0.8388265371322632,0.12331664562225342,0.05887877941131592,-0.009247899055480957,-0.22088230509498877,1.5960879650627764,2.906528089918814,0.9753924608230591,0.21909058094024658,0.024674534797668457
1732227172735,SW,4.060007450435054,1.0s : 0.3s,-7.505840593786175,0.0018855580559219843,0.3140874591587618,0.1138579733773854,0.2404797226190567,0.4557550847530365,-0.7148745059967041,0.09657269716262817,0.06017470359802246,-0.004044417291879654,-0.21892897347907717,1.5949665270937212,2.9048325131878316,0.9758453965187073,0.21718429028987885,0.023590972647070885
1732227172745,SW,4.060007450435054,1.0s : 0.3s,-7.505840593786175,0.0023282042075999086,0.259021846317682,0.042383897590601814,0.17853060364723206,0.0825442224740982,-0.10941801965236664,-0.02165663242340088,0.03515005111694336,-0.009584307670593262,-0.2184759268876129,1.5944177546659122,2.902998792284752,0.9759565591812134,0.21674202382564545,0.02305777557194233
1732227172755,SW,4.060007450435054,1.0s : 0.3s,-7.505840593786175,0.002771724241366996,0.18462242193079367,0.025267458530766704,0.1630842685699463,-0.021855685859918594,0.07922539860010147,-0.011216044425964355,0.01902611553668976,-0.012274026870727539,-0.21847122543785336,1.593953008279688,2.9011485686938854,0.9759682416915894,0.21673743426799774,0.02260422706604004
1732227172765,SW,4.060007450435054,1.0s : 0.3s,-7.505840593786175,0.0032178369676886327,0.1427361573257874,0.03050135656358562,0.15237635374069214,-0.02716216817498207,0.04221334680914879,0.026086091995239258,0.015089273452758789,-0.004707694053649902,-0.2179555453221961,1.593233321732559,2.899523637742005,0.9760959148406982,0.2162339836359024,0.02190433442592621
1732227172775,SW,4.060007450435054,1.0s : 0.3s,-7.505840593786175,0.0036005771728044363,0.11360615669449332,0.015108621671913392,0.12416709214448929,-0.0331667959690094,0.05183082073926926,-0.006936430931091309,0.001946181058883667,-0.013280389830470085,-0.21766404455782037,1.5924944538124202,2.8980957022999436,0.9761748313903809,0.21594937145709991,0.021184490993618965
1732227172785,SW,4.060007450435054,1.0s : 0.3s,-7.505840593786175,0.003966110242075585,0.09264149452914526,0.017810996306869088,0.09489762037992477,-0.04543021321296692,0.0470854714512825,-0.0007114410400390625,0.009316250681877136,-0.015163538977503777,-0.21730452062009192,1.5917958074976677,2.8969206816999353,0.9762669801712036,0.21559831500053406,0.020504113286733627
1732227172795,SW,4.060007450435054,1.0s : 0.3s,-7.505840593786175,0.004317683059328025,0.07815631179490065,0.01973400741361387,0.07387275993824005,-0.04818098992109299,0.04532511904835701,0.0012215971946716309,0.013802021741867065,-0.014051439240574837,-0.2169922813087771,1.5911085465998982,2.8960558521840185,0.9763479828834534,0.21529342234134674,0.019834522157907486
1732227172805,SW,4.060007450435054,1.0s : 0.3s,-7.505840593786175,0.004653687403776807,0.07138655116080811,0.017813416703630233,0.06251717358827591,-0.04533553496003151,0.04118287190794945,0.001350104808807373,0.012208402156829834,-0.01290154829621315,-0.21665539337332965,1.5904607140086815,2.8953274579519643,0.9764329195022583,0.21496441960334778,0.0192034300416708
1732227172815,SW,4.060007450435054,1.0s : 0.3s,-7.505840593786175,0.004976317616589362,0.06257690043171041,0.01795624362687141,0.043068647384643555,-0.04664288088679314,0.03524721786379814,0.0039931535720825195,0.014246001839637756,-0.010175108909606934,-0.2163658398990803,1.5898862962773013,2.894769755808607,0.9765061140060425,0.21468162536621094,0.018643736839294434
1732227172825,SW,4.060007450435054,1.0s : 0.3s,-7.505840593786175,0.005287580886015627,0.052359676497875964,0.018796534655665876,0.0187329463660717,-0.0459965318441391,0.02901502326130867,0.005113542079925537,0.015989989042282104,-0.008454682305455208,-0.21615813759914457,1.5893424449193088,2.8944421906662092,0.976560652256012,0.2144787609577179,0.018113484606146812
1732227172835,SW,4.060007450435054,1.0s : 0.3s,-7.505840593786175,0.005583682489514936,0.04545609313735624,0.015635100144086023,-0.013178115710616112,-0.04822080582380295,0.01744651608169079,0.011872947216033936,0.009353399276733398,-0.004000425338745117,-0.21598528544360357,1.5888430608882786,2.8944079541135634,0.9766066670417786,0.2143099308013916,0.017626475542783737
1732227172845,SW,4.060007450435054,1.0s : 0.3s,-7.505840593786175,0.005861512500512879,0.041033948697366276,0.01819322460227547,-0.027021626010537148,-0.047881558537483215,0.011528007686138153,0.01791512966156006,0.003157690167427063,0.00026560015976428986,-0.21587662458544082,1.5884117694052866,2.894616884094105,0.976637601852417,0.21420378983020782,0.017205683514475822
1732227172855,SW,4.060007450435054,1.0s : 0.3s,-7.505840593786175,0.00611118886245687,0.035610829092055485,0.028471140003891744,-0.06093645095825195,-0.04570629075169563,0.01222868449985981,0.024870872497558594,-0.013433501124382019,0.003403903916478157,-0.21575665734027452,1.5879946597910133,2.8950276980672873,0.9766703844070435,0.2140866070985794,0.016798758879303932
1732227172865,SW,4.060007450435054,1.0s : 0.3s,-7.505840593786175,0.006312432734392827,0.018199453954802377,0.032772119388865456,-0.1050446555018425,0.0436917208135128,-0.11581273376941681,0.01228034496307373,-0.023603886365890503,0.01913273334503174,-0.21596793890706112,1.5879047181927897,2.8959016269285085,0.9766265153884888,0.2142929881811142,0.01671013981103897
1732227172875,SW,4.060007450435054,1.0s : 0.3s,-7.505840593786175,0.0066055877862325136,0.2047981714398476,0.1422854995714581,-0.07635042816400528,0.4460058808326721,-0.8624062538146973,0.13877880573272705,-0.012211740016937256,0.028921961784362793,-0.21592739224478777,1.5876929614689423,2.897264058731087,0.976638674736023,0.21425338089466095,0.016503477469086647
1732227172885,SW,4.060007450435054,1.0s : 0.3s,-7.505840593786175,0.007046280175102091,0.27672672935235376,0.13052015954004917,-0.07475332915782928,0.38093048334121704,-0.5437673330307007,0.1255626082420349,0.008335262537002563,0.03464198112487793,-0.2147001971750449,1.5867845839638828,2.8989921265552874,0.9769154191017151,0.21305452287197113,0.01562050636857748
1732227172895,SW,4.060007450435054,1.0s : 0.3s,-7.505840593786175,0.007396866781993011,0.2228452634398844,0.023797263968854707,-0.12922722101211548,0.03755233436822891,-0.12385900318622589,0.004186153411865234,0.009188979864120483,0.021548748016357422,-0.21481030307249768,1.5867236676687184,2.9005497052376543,0.9768929481506348,0.21316209435462952,0.01556062325835228
1732227172905,SW,4.060007450435054,1.0s : 0.3s,-7.505840593786175,0.0077085474622971785,0.15389182765578285,0.04861294220962797,-0.11209537833929062,-0.030066566541790962,0.03296149522066116,-0.04609334468841553,0.010245069861412048,0.011561153456568718,-0.21501001851362997,1.5868110033624347,2.9017597082740356,0.9768489599227905,0.21335721015930176,0.015645258128643036
1732227172915,SW,4.060007450435054,1.0s : 0.3s,-7.505840593786175,0.008008973254902192,0.11628908118129061,0.022777534947888714,-0.11893144249916077,-0.02734614908695221,-0.00036237435415387154,0.009593546390533447,0.012080341577529907,0.01675844006240368,-0.2148338951833475,1.5867696231180768,2.902936289829508,0.976887047290802,0.2131851464509964,0.015605433844029903
1732227172925,SW,4.060007450435054,1.0s : 0.3s,-7.505840593786175,0.008268669303629581,0.09340420887926551,0.026596193873161398,-0.12336920201778412,-0.03066546656191349,0.014269132167100906,-0.019983291625976562,-0.003513649106025696,0.01719534397125244,-0.214739689383955,1.5867438032483538,2.904202228668702,0.9769077301025391,0.213093101978302,0.015580534003674984
1732227172935,SW,4.060007450435054,1.0s : 0.3s,-7.505840593786175,0.008481436283020343,0.08799122145493453,0.007245833612509385,-0.10205219686031342,-0.023769479244947433,-0.03661428764462471,-0.0019182562828063965,0.0018303394317626953,0.006743311882019043,-0.21459565216672366,1.586664950455672,2.905356092063794,0.9769396185874939,0.2129523754119873,0.015503988601267338
1732227172945,SW,4.060007450435054,1.0s : 0.3s,-7.505840593786175,0.00868878258179143,0.08652471144357743,0.014537704091831015,-0.06088784709572792,0.012576056644320488,-0.09753912687301636,0.000716865062713623,0.014215067028999329,0.002960205078125,-0.21436694634337744,1.586553783363983,2.906257852207877,0.9769901037216187,0.21272890269756317,0.01539615262299776
1732227172955,SW,4.060007450435054,1.0s : 0.3s,-7.505840593786175,0.008887824329230952,0.08946242165314428,0.014748077160854125,-0.02423236332833767,0.0448375903069973,-0.16327525675296783,-0.003016829490661621,0.013360053300857544,-0.005469323135912418,-0.21403954882751308,1.5864189567466778,2.906786497130613,0.9770615696907043,0.21240898966789246,0.015265513211488724
1732227172965,SW,4.060007450435054,1.0s : 0.3s,-7.505840593786175,0.00907113022927133,0.11317137982473925,0.018623474681924688,-0.06964977830648422,0.07118410617113113,-0.23883363604545593,-0.0076642632484436035,0.0060294270515441895,-0.01586628146469593,-0.21371816886469266,1.5863143709626988,2.9074099830713647,0.9771313071250916,0.21209493279457092,0.015164384618401527
1732227172975,SW,4.060007450435054,1.0s : 0.3s,-7.505840593786175,0.009228648332320434,0.14781591212432452,0.021679807570995996,-0.08644713461399078,0.09827803820371628,-0.3185500204563141,-0.010345458984375,-0.006352052092552185,-0.017962098121643066,-0.21345953368672338,1.5861940416733158,2.9084594149483807,0.9771881103515625,0.21184217929840088,0.015047653578221798
1732227172985,SW,4.060007450435054,1.0s : 0.3s,-7.505840593786175,0.00937527157800085,0.1894705691951276,0.03275442405775013,-0.098841093480587,0.12403956055641174,-0.3986962139606476,-0.0018711090087890625,-0.0020189881324768066,-0.0326385498046875,-0.21321018918386242,1.58601886000996,2.909686567497426,0.9772435426712036,0.2115984857082367,0.014877271838486195
1732227172995,SW,4.060007450435054,1.0s : 0.3s,-7.505840593786175,0.00952492341069438,0.23770530128608622,0.04042879625176801,-0.09839501231908798,0.15008926391601562,-0.4920770525932312,0.0008127689361572266,0.011748969554901123,-0.03867542743682861,-0.21294014229224623,1.5856375223520207,2.911007295469615,0.9773062467575073,0.21133454144001007,0.014505458064377308
1732227173005,SW,4.060007450435054,1.0s : 0.3s,-7.505840593786175,0.009698079084013043,0.29074172963096384,0.04925734712039666,-0.10244208574295044,0.18846696615219116,-0.5806501507759094,0.00250089168548584,0.018399029970169067,-0.0456235408782959,-0.21272441168254522,1.585236457065422,2.912422084370216,0.9773575067520142,0.21112367510795593,0.014114150777459145
1732227173015,SW,4.060007450435054,1.0s : 0.3s,-7.505840593786175,0.00990628549444772,0.34886232837295883,0.05184396505132445,-0.10885391384363174,0.2300218641757965,-0.6766509413719177,0.005876123905181885,0.02561907470226288,-0.04468703269958496,-0.21254995294178305,1.5848085630727426,2.913933368918301,0.9774001240730286,0.21095314621925354,0.01369645819067955
1732227173025,SW,4.060007450435054,1.0s : 0.3s,-7.505840593786175,0.010155234608961674,0.4095459290616999,0.051453520419765614,-0.10672257840633392,0.2592204213142395,-0.7728609442710876,0.01797318458557129,0.030873239040374756,-0.037030696868896484,-0.2124198510387551,1.5843434291159126,2.915538028438819,0.9774339199066162,0.21082597970962524,0.013242207467556
1732227173035,SW,4.060007450435054,1.0s : 0.3s,-7.505840593786175,0.010493912308357414,0.45611137332915613,0.06287905918118965,-0.08128219842910767,0.2688480019569397,-0.7946538925170898,0.028852641582489014,0.041413262486457825,-0.03749990463256836,-0.21231447391230074,1.5836991981597972,2.917062377941999,0.977464497089386,0.21072296798229218,0.012612798251211643
1732227173045,SW,4.060007450435054,1.0s : 0.3s,-7.505840593786175,0.010950792638976945,0.48570976148292666,0.07449312030162512,-0.04474709555506706,0.2698555588722229,-0.7822619080543518,0.03281182050704956,0.05454714596271515,-0.038693904876708984,-0.21231850575310232,1.5829694296879577,2.9182496189301417,0.9774726033210754,0.21072690188884735,0.011899461969733238
1732227173055,SW,4.060007450435054,1.0s : 0.3s,-7.505840593786175,0.011479126568327587,0.50235062316385,0.07686399591229412,-0.020276106894016266,0.26914849877357483,-0.7620809674263,0.0335504412651062,0.05866730213165283,-0.036614060401916504,-0.21231824880102723,1.582184134900539,2.919130169753857,0.9774817824363708,0.21072666347026825,0.011131856590509415
1732227173065,SW,4.060007450435054,1.0s : 0.3s,-7.505840593786175,0.012033069576175214,0.5054658957072949,0.06947468211819328,-0.024413326755166054,0.263919472694397,-0.7293880581855774,0.03352445363998413,0.04991160333156586,-0.034809112548828125,-0.21223723744410317,1.5813521698802642,2.9198742636419732,0.9775076508522034,0.21064746379852295,0.010318800806999207
1732227173075,SW,4.060007450435054,1.0s : 0.3s,-7.505840593786175,0.012603393866219469,0.5050849817187262,0.06122074599836178,-0.061131928116083145,0.25025931000709534,-0.7018008828163147,0.038371920585632324,0.037977248430252075,-0.028867006301879883,-0.21203636246128038,1.5805178191693163,2.920845660161229,0.9775582551956177,0.21045109629631042,0.009503624401986599
1732227173085,SW,4.060007450435054,1.0s : 0.3s,-7.505840593786175,0.013179398378013258,0.5022119336088907,0.054694554071728685,-0.10858519375324249,0.23929926753044128,-0.6778637170791626,0.03621172904968262,0.02763594686985016,-0.030273079872131348,-0.21181362294471312,1.5796768059581354,2.922235796437296,0.9776128530502319,0.21023333072662354,0.008681898936629295
1732227173095,SW,4.060007450435054,1.0s : 0.3s,-7.505840593786175,0.013754282468633226,0.49150643854625925,0.04888861426053895,-0.1797129064798355,0.22429953515529633,-0.6411980986595154,0.036014556884765625,0.02406442165374756,-0.022670507431030273,-0.21148688974276353,1.578892004952916,2.9242296063322963,0.9776880145072937,0.20991389453411102,0.007915220223367214
1732227173105,SW,4.060007450435054,1.0s : 0.3s,-7.505840593786175,0.014315641826507046,0.4841649979427041,0.04074199856614743,-0.2565590739250183,0.1997145116329193,-0.6197211146354675,0.03654295206069946,0.011678963899612427,-0.013715863227844238,-0.21112312363193372,1.5781446599372964,2.9269939335220037,0.9777697324752808,0.20955821871757507,0.007185107097029686
1732227173115,SW,4.060007450435054,1.0s : 0.3s,-7.505840593786175,0.014864531926778822,0.4759068676201847,0.04012128990636844,-0.3020296096801758,0.17756740748882294,-0.5922322273254395,0.03483104705810547,0.01385563611984253,-0.014301657676696777,-0.21076968275131783,1.5773855571271913,2.930377849703506,0.977849006652832,0.20921261608600616,0.006443365477025509
1732227173125,SW,4.060007450435054,1.0s : 0.3s,-7.505840593786175,0.01540706071373276,0.4711447880868316,0.04276889625738261,-0.3391903340816498,0.17497305572032928,-0.5675979852676392,0.02969282865524292,0.024625420570373535,-0.01846897602081299,-0.21044499101304354,1.5766534483155337,2.9341538073141376,0.9779213070869446,0.20889508724212646,0.005727869458496571
1732227173135,SW,4.060007450435054,1.0s : 0.3s,-7.505840593786175,0.015932770243981598,0.4652144191840244,0.03393548607290845,-0.3720412254333496,0.16174831986427307,-0.5395463705062866,0.025378644466400146,0.014374852180480957,-0.017346620559692383,-0.21011395653231063,1.5760670618720056,2.938298823314927,0.9779936671257019,0.20857134461402893,0.0051547931507229805
1732227173145,SW,4.060007450435054,1.0s : 0.3s,-7.505840593786175,0.01643086892840965,0.46150580755317094,0.03234629311151363,-0.4012765884399414,0.15876264870166779,-0.515045166015625,0.023582100868225098,-0.004198744893074036,-0.02173793315887451,-0.20985245744749226,1.575548715267917,2.9427014226222936,0.978050708770752,0.20831559598445892,0.0046481117606163025
1732227173155,SW,4.060007450435054,1.0s : 0.3s,-7.505840593786175,0.016888717094410255,0.4588177475973544,0.04122493596456475,-0.4983330965042114,0.15659642219543457,-0.46999430656433105,0.026950418949127197,-0.02675768733024597,-0.016037344932556152,-0.20954701100648643,1.5752582789837644,2.9476919960179107,0.9781154990196228,0.20801684260368347,0.00436433358117938
1732227173165,SW,4.060007450435054,1.0s : 0.3s,-7.505840593786175,0.01721576659494485,0.4642317709229117,0.07346497600953715,-0.6549614071846008,0.12953084707260132,-0.4283819794654846,0.03482258319854736,-0.06455917656421661,-0.004074692726135254,-0.2091002150054826,1.5752425072568519,2.953993947433221,0.9782084226608276,0.20757979154586792,0.004349319729954004
1732227173175,SW,4.060007450435054,1.0s : 0.3s,-7.505840593786175,0.0173747924108525,0.49626530131281404,0.08710074148251468,-0.8316741585731506,0.11107568442821503,-0.39809972047805786,0.03753131628036499,-0.07856792211532593,0.002240776550024748,-0.2086178600679296,1.5754933212871125,2.9620134924298958,0.9783071875572205,0.20710793137550354,0.0045951372012495995
1732227173185,SW,4.060007450435054,1.0s : 0.3s,-7.505840593786175,0.01742487847811195,0.5491549703355056,0.0837240684995199,-0.9960082769393921,0.0871531292796135,-0.36250191926956177,0.03196626901626587,-0.07735440135002136,-0.0020430083386600018,-0.20811060469282514,1.5760190678865131,2.9717282571508203,0.9784098267555237,0.20661164820194244,0.005110027734190226
1732227173195,SW,4.060007450435054,1.0s : 0.3s,-7.505840593786175,0.01740762308413307,0.6182597671966019,0.0851453382870294,-1.1539361476898193,0.05626232922077179,-0.3391832709312439,0.024743616580963135,-0.08146905899047852,-0.0005239252932369709,-0.20762179590985894,1.5767584324633472,2.9830736352131435,0.9785064458847046,0.20613335072994232,0.005834028124809265
1732227173205,SW,4.060007450435054,1.0s : 0.3s,-7.505840593786175,0.017384251757303872,0.6934079182574657,0.07005655741582291,-1.2836028337478638,0.0346958264708519,-0.3141501247882843,0.01958465576171875,-0.0643017441034317,0.019739508628845215,-0.2072151615435125,1.5777092872354954,2.9959146502100236,0.9785841703414917,0.20573543012142181,0.006765021476894617
1732227173215,SW,4.060007450435054,1.0s : 0.3s,-7.505840593786175,0.01737761684653308,0.7595353025322893,0.03931977428910668,-1.3442678451538086,0.0042718760669231415,-0.2998742461204529,0.018982350826263428,-0.03122134506702423,0.014523863792419434,-0.20691961276767953,1.5787816965520964,3.0096884321199378,0.9786372780799866,0.20544619858264923,0.007814946584403515
1732227173225,SW,4.060007450435054,1.0s : 0.3s,-7.505840593786175,0.01739655286602176,0.8033868381885686,0.01984288992054452,-1.3292036056518555,-0.016255058348178864,-0.2787494659423828,0.014444947242736816,-0.009567409753799438,0.009672044776380062,-0.20677751991938736,1.5797788721088182,3.0236748810556917,0.9786580204963684,0.20530714094638824,0.008791076950728893
1732227173235,SW,4.060007450435054,1.0s : 0.3s,-7.505840593786175,0.01743153685304068,0.814543123559457,0.020517639426301245,-1.2324990034103394,-0.018008217215538025,-0.24622800946235657,0.006204485893249512,0.012935534119606018,0.014667986892163754,-0.2066566295942653,1.5807388205519224,3.0370641609325135,0.9786739349365234,0.2051888257265091,0.009730780497193336
1732227173245,SW,4.060007450435054,1.0s : 0.3s,-7.505840593786175,0.01748343528708121,0.7955881132584759,0.030829581173089413,-1.0971635580062866,-0.032302070409059525,-0.23052144050598145,-0.0007828474044799805,0.030684873461723328,0.0028790216892957687,-0.2066220134637459,1.5815588659638824,3.049216995946683,0.9786726832389832,0.20515494048595428,0.010533410124480724
1732227173255,SW,4.060007450435054,1.0s : 0.3s,-7.505840593786175,0.01756545184500037,0.7518591875700789,0.05412574170842706,-0.9480772018432617,-0.03100484237074852,-0.19932730495929718,-0.0017574429512023926,0.053811147809028625,-0.0055558690801262856,-0.2066749726018326,1.5821482473827684,3.059827688950052,0.9786555171012878,0.2052067667245865,0.011110097169876099
1732227173265,SW,4.060007450435054,1.0s : 0.3s,-7.505840593786175,0.01767363599227255,0.7062519035645994,0.04809877361578256,-0.8771824836730957,-0.045966215431690216,-0.17222118377685547,0.002207517623901367,0.0480378121137619,-0.0009937286376953125,-0.2067118055481786,1.5826163132542985,3.069297051990547,0.9786427021026611,0.2052428275346756,0.011568082496523857
1732227173275,SW,4.060007450435054,1.0s : 0.3s,-7.505840593786175,0.01779045220017384,0.6636086584379726,0.03337159132794039,-0.8275039196014404,-0.06598173081874847,-0.14450940489768982,0.0022739171981811523,0.03286731243133545,-0.005313396453857422,-0.20679309496623943,1.5829609642802744,3.078138562546859,0.9786220788955688,0.20532238483428955,0.011905170045793056
1732227173285,SW,4.060007450435054,1.0s : 0.3s,-7.505840593786175,0.017934455529412193,0.6190048633678691,0.040368206338906025,-0.7565229535102844,-0.08394040912389755,-0.11630771309137344,0.004185378551483154,0.035837069153785706,-0.0181046724319458,-0.2068768887751023,1.5831371672746073,3.086348664305415,0.9786026477813721,0.2054043859243393,0.0120773920789361
1732227173295,SW,4.060007450435054,1.0s : 0.3s,-7.505840593786175,0.018151064359870423,0.5737096434095169,0.06044891519208109,-0.6881806254386902,-0.08548983186483383,-0.09339893609285355,0.0048615336418151855,0.05637691915035248,-0.021262168884277344,-0.20696886100740383,1.5832298672604972,3.0775594498212024,0.9785826206207275,0.20549440383911133,0.012167873792350292
1732227173305,SW,4.060007450435054,1.0s : 0.3s,-7.505840593786175,0.018422501545063148,0.5280072009432151,0.06320189279120825,-0.6198579668998718,-0.09217289835214615,-0.06935369223356247,0.0028400421142578125,0.057444825768470764,-0.026201248168945312,-0.2070782317574593,1.5832876631900281,3.068075654684233,0.9785594940185547,0.20560143887996674,0.012224151752889156
1732227173315,SW,4.060007450435054,1.0s : 0.3s,-7.505840593786175,0.018696317440045195,0.48635199352196434,0.04502513602320349,-0.5726858973503113,-0.10599523782730103,-0.040441349148750305,-0.00016295909881591797,0.04315078258514404,-0.01285481546074152,-0.20716826605521665,1.5832618184434675,3.0581017982542282,0.9785412549972534,0.20568954944610596,0.012198629789054394
1732227173325,SW,4.060007450435054,1.0s : 0.3s,-7.505840593786175,0.018967086015569824,0.4520350272707442,0.03709257921194085,-0.5464910268783569,-0.11658112704753876,-0.015456639230251312,-0.0005812644958496094,0.0363132506608963,-0.007541179656982422,-0.20721667793686677,1.5831803773329531,3.0479170364858614,0.9785323739051819,0.2057369202375412,0.012118813581764698
1732227173335,SW,4.060007450435054,1.0s : 0.3s,-7.505840593786175,0.019225463940088547,0.4207404395651747,0.027305644817192103,-0.505976140499115,-0.126554936170578,-0.015713900327682495,-0.004534423351287842,0.02671635150909424,-0.0033576488494873047,-0.207293741803454,1.58303760720094,3.037510210684103,0.9785181879997253,0.20581233501434326,0.01197891402989626
1732227173345,SW,4.060007450435054,1.0s : 0.3s,-7.505840593786175,0.019472664712494363,0.38606466745700213,0.024236674724495807,-0.44021278619766235,-0.12345635145902634,-0.014907760545611382,-0.0037381649017333984,0.023440703749656677,-0.0048965224996209145,-0.20739776039332505,1.5827548100596567,3.0266388135997766,0.9785000681877136,0.20591412484645844,0.011701934039592743
1732227173355,SW,4.060007450435054,1.0s : 0.3s,-7.505840593786175,0.019707886372976394,0.34477470104393326,0.03078774722362878,-0.3550965487957001,-0.11085480451583862,-0.014327459037303925,-0.009339451789855957,0.028938740491867065,-0.004817605018615723,-0.2074863668887098,1.5823780738092499,3.015094190458,0.978486180305481,0.20600083470344543,0.011333086527884007
1732227173365,SW,4.060007450435054,1.0s : 0.3s,-7.505840593786175,0.019932765276342232,0.2989947833805847,0.03909280923664081,-0.2726546823978424,-0.09250535815954208,-0.008196595124900341,-0.013813793659210205,0.03629311919212341,-0.004498481750488281,-0.20756471825143794,1.5819897714243558,3.0027723016212216,0.9784744381904602,0.20607750117778778,0.010952956974506378
1732227173375,SW,4.060007450435054,1.0s : 0.3s,-7.505840593786175,0.020140284843171673,0.25957954982583203,0.03038076757956254,-0.23639176785945892,-0.08417072892189026,-0.006668207235634327,-0.013137340545654297,0.026957720518112183,0.004866479896008968,-0.20760841842974243,1.5816195663247221,2.9900054563066143,0.9784693121910095,0.20612026751041412,0.010590621270239353
1732227173385,SW,4.060007450435054,1.0s : 0.3s,-7.505840593786175,0.02032350944463244,0.22775508047415527,0.012832066211229473,-0.21457408368587494,-0.08257061243057251,-0.004673433024436235,-0.008130371570587158,0.00591692328453064,0.00797176267951727,-0.2076384949526303,1.5812218567461915,2.977151100421891,0.9784672260284424,0.20614969730377197,0.010201409459114075
1732227173395,SW,4.060007450435054,1.0s : 0.3s,-7.505840593786175,0.020486103839919653,0.19680372699065357,0.007210763149828791,-0.16871285438537598,-0.08329126238822937,-0.0026893778704106808,-0.00369185209274292,0.005674973130226135,0.0024819374084472656,-0.20765187604109686,1.5807662287897155,2.9640788039639743,0.9784691333770752,0.20616279542446136,0.009755563922226429
1732227173405,SW,4.060007450435054,1.0s : 0.3s,-7.505840593786175,0.020643087891939454,0.16441320201793597,0.01770505092850664,-0.113412044942379,-0.07660450786352158,-0.0022185975685715675,-0.003450334072113037,0.017275705933570862,-0.0017646551132202148,-0.20766332333370896,1.5802408885768517,2.9506485445045043,0.9784716963768005,0.20617398619651794,0.00924151111394167
1732227173415,SW,4.060007450435054,1.0s : 0.3s,-7.505840593786175,0.02079717447796635,0.1341381845510121,0.017982214414141048,-0.0740760862827301,-0.06911437213420868,0.004083506762981415,-0.002527892589569092,0.01709255576133728,-0.004981398582458496,-0.20764779221312152,1.5796764413648654,2.936839288065339,0.9784800410270691,0.20615878701210022,0.008689243346452713
1732227173425,SW,4.060007450435054,1.0s : 0.3s,-7.505840593786175,0.02094066375512063,0.11291892149484478,0.005312060792330233,-0.06908851861953735,-0.07404698431491852,0.005126866512000561,-0.0001316666603088379,0.0004913657903671265,-0.005287647247314453,-0.20760063873527027,1.579084937524518,2.9229412803895296,0.9784947037696838,0.20611265301704407,0.008110547438263893
1732227173435,SW,4.060007450435054,1.0s : 0.3s,-7.505840593786175,0.021073370864143195,0.0956861750994573,0.008628716109646314,-0.051817651838064194,-0.07476870715618134,0.008237171918153763,0.0023363232612609863,-0.005056649446487427,-0.006589888595044613,-0.20753195761546048,1.5784351845096356,2.9090933070573026,0.9785140156745911,0.20604544878005981,0.00747487461194396
1732227173445,SW,4.060007450435054,1.0s : 0.3s,-7.505840593786175,0.021200044710398342,0.07712148209161929,0.012529337916727121,-0.009999766014516354,-0.07003133744001389,0.006411675363779068,-0.0027960538864135742,0.004829764366149902,-0.011217832565307617,-0.20745528436206817,1.5777536044835894,2.8950678404520933,0.9785345792770386,0.2059704214334488,0.006808046717196703
1732227173455,SW,4.060007450435054,1.0s : 0.3s,-7.505840593786175,0.02132831850385425,0.061455511196058,0.02590945757264466,0.04167594388127327,-0.06807125359773636,0.0016965486574918032,-0.0075865983963012695,0.01804448664188385,-0.016974687576293945,-0.20740783686257527,1.5770093917763817,2.880789010508756,0.9785489439964294,0.20592398941516876,0.006079866550862789
1732227173465,SW,4.060007450435054,1.0s : 0.3s,-7.505840593786175,0.021462700979762786,0.054202423513423484,0.027812541291917073,0.0889194905757904,-0.07552876323461533,-0.0056806402280926704,-0.004657387733459473,0.020052939653396606,-0.01870095729827881,-0.20742926982624454,1.576138284591835,2.8660727752266664,0.9785494804382324,0.2059449553489685,0.005227419547736645
1732227173475,SW,4.060007450435054,1.0s : 0.3s,-7.505840593786175,0.021607004149153435,0.05671364060351637,0.03137294781868469,0.17255979776382446,-0.09210188686847687,-0.013542290776968002,-0.003361999988555908,0.02582891285419464,-0.01748788356781006,-0.2075924978041261,1.575148247006857,2.850874539609185,0.9785206913948059,0.20610468089580536,0.004258471075445414
1732227173485,SW,4.060007450435054,1.0s : 0.3s,-7.505840593786175,0.021793128912776252,0.09507445097811956,0.05107193309988331,0.30746927857398987,-0.10028120875358582,-0.023478379473090172,-0.007387518882751465,0.04230600595474243,-0.02763998508453369,-0.20800039391638322,1.5737346824190062,2.8347299802965042,0.978441596031189,0.20650380849838257,0.002875017700716853
1732227173495,SW,4.060007450435054,1.0s : 0.3s,-7.505840593786175,0.022047358926731327,0.16227908920682105,0.06296446456164939,0.47664445638656616,-0.11846314370632172,-0.024699438363313675,-0.007548689842224121,0.05619336664676666,-0.02738332748413086,-0.20841957367709948,1.5718661428930365,2.817131903268821,0.9783586263656616,0.20691393315792084,0.0010466641979292035
1732227173505,SW,4.060007450435054,1.0s : 0.3s,-7.505840593786175,0.022360235376772227,0.2569294713627627,0.06799975335114972,0.6988142728805542,-0.15756896138191223,-0.03739369660615921,-0.004829704761505127,0.06224149465560913,-0.02695620059967041,-0.20872569873856764,1.5692771503988876,2.797788869326572,0.9782944917678833,0.20721343159675598,-0.0014862030511721969
1732227173515,SW,4.060007450435054,1.0s : 0.3s,-7.505840593786175,0.022784646893181715,0.3725884697552462,0.0874571083246854,0.952938973903656,-0.13984668254852295,-0.019796593114733696,0.0010849237442016602,0.08604466915130615,-0.015616774559020996,-0.2089446242179707,1.566061692544459,2.776178796972342,0.9782393574714661,0.20742759108543396,-0.004631640389561653
1732227173525,SW,4.060007450435054,1.0s : 0.3s,-7.505840593786175,0.023337905203419242,0.5013224508260907,0.11061713656864114,1.1944819688796997,-0.11360900104045868,-0.008636183105409145,0.0036988258361816406,0.11036950349807739,-0.0064064254984259605,-0.20900464351180054,1.5624956433993114,2.752210189333116,0.9782041907310486,0.20748630166053772,-0.008119950070977211
1732227173535,SW,4.060007450435054,1.0s : 0.3s,-7.505840593786175,0.02393980420282103,0.6227436306840259,0.09880354385698945,1.3523155450820923,-0.07840387523174286,0.027515430003404617,0.0021054744720458984,0.09839722514152527,-0.008700191974639893,-0.20879590203107973,1.5587886579351087,2.739104458741839,0.9782106876373291,0.20728211104869843,-0.011746594682335854
1732227173545,SW,4.060007450435054,1.0s : 0.3s,-7.505840593786175,0.02455010694743546,0.7166726042780608,0.05647939937863135,1.3938018083572388,-0.07469955086708069,0.06024957448244095,0.014183104038238525,0.052840933203697205,-0.014021337032318115,-0.20814983690498692,1.5550895901527604,2.725000637550128,0.978294312953949,0.2066500335931778,-0.015367074869573116
1732227173555,SW,4.060007450435054,1.0s : 0.3s,-7.505840593786175,0.02505970685565842,0.7785130505713979,0.03504533486992179,1.3702073097229004,-0.10571818798780441,0.05923597514629364,0.01573079824447632,-0.0020070672035217285,-0.03125202655792236,-0.2072691063251019,1.5512597494209623,2.710887976649578,0.9784099459648132,0.20578822493553162,-0.019117213785648346
1732227173565,SW,4.060007450435054,1.0s : 0.3s,-7.505840593786175,0.02552001420346515,0.8054499754430389,0.05554231387573395,1.2894550561904907,-0.0940156802535057,0.056817326694726944,-0.002714395523071289,-0.029196932911872864,-0.047171175479888916,-0.20644145453585966,1.5474002885045508,2.697165053563314,0.9784988164901733,0.20497821271419525,-0.02289717271924019
1732227173575,SW,4.060007450435054,1.0s : 0.3s,-7.505840593786175,0.025932711227107077,0.7993037052627651,0.04248880189352002,1.1585718393325806,-0.08113797008991241,0.09124347567558289,-0.006968855857849121,-0.02152225375175476,-0.03596562147140503,-0.20536634528164122,1.5439385336528932,2.6846989548165174,0.9786332845687866,0.20392581820487976,-0.026290250942111015
1732227173585,SW,4.060007450435054,1.0s : 0.3s,-7.505840593786175,0.026276696582942256,0.7725431771714084,0.06887032111922142,1.0522398948669434,-0.09218146651983261,0.06583572179079056,-0.017804443836212158,-0.027813225984573364,-0.06043630838394165,-0.20424870554745184,1.5407757281833874,2.673445188941461,0.9787724614143372,0.20283153653144836,-0.029392166063189507
1732227173595,SW,4.060007450435054,1.0s : 0.3s,-7.505840593786175,0.02646011307984865,0.7416948076625868,0.08183281452361815,0.9934567213058472,-0.08338131755590439,0.04508410394191742,-0.03465348482131958,-0.03734782338142395,-0.06403815746307373,-0.2033895359012257,1.5377266710383355,2.6630473676102207,0.9788520932197571,0.20199015736579895,-0.03238210827112198
1732227173605,SW,4.060007450435054,1.0s : 0.3s,-7.505840593786175,0.02659198748529994,0.7074714757488928,0.07131238063781668,0.9322247505187988,-0.06310596317052841,0.04204443842172623,-0.0385746955871582,-0.019117102026939392,-0.05685054883360863,-0.20262976213886302,1.5349878491509001,2.653207510562687,0.9789128303527832,0.201245978474617,-0.035068366676568985
1732227173615,SW,4.060007450435054,1.0s : 0.3s,-7.505840593786175,0.02671218060192272,0.6708035785951141,0.06650427205384885,0.8693498969078064,-0.05748483166098595,0.03941430151462555,-0.03567570447921753,-0.015122026205062866,-0.05404985323548317,-0.20188494452502573,1.5325533711016055,2.644055131798295,0.9789741635322571,0.20051634311676025,-0.03745712712407112
1732227173625,SW,4.060007450435054,1.0s : 0.3s,-7.505840593786175,0.026815399855917285,0.6389096853078696,0.06928374543615726,0.8380904197692871,-0.06673066318035126,0.028333120048046112,-0.023129642009735107,-0.03432798385620117,-0.055559396743774414,-0.2012102822570092,1.530157464599465,2.6353641886978396,0.9790164828300476,0.19985534250736237,-0.039808034896850586
1732227173635,SW,4.060007450435054,1.0s : 0.3s,-7.505840593786175,0.026914921894086678,0.6135750583127135,0.05538157445661981,0.8238510489463806,-0.06240355223417282,0.016568871214985847,-0.011671662330627441,-0.02879101037979126,-0.04584723338484764,-0.20063608205981712,1.5277700143395514,2.6268945868130147,0.9790329933166504,0.19929268956184387,-0.042150191962718964
1732227173645,SW,4.060007450435054,1.0s : 0.3s,-7.505840593786175,0.027033647791118037,0.586237370069191,0.03756802108405678,0.7770678997039795,-0.05203911289572716,0.004278217442333698,-0.009652972221374512,0.005897745490074158,-0.035824473947286606,-0.2001789031403056,1.5255632649830202,2.6187652570943953,0.9790284633636475,0.19884467124938965,-0.044314682483673096
1732227173655,SW,4.060007450435054,1.0s : 0.3s,-7.505840593786175,0.027195299948567127,0.5680297505856559,0.050141418320191054,0.7818072438240051,-0.05130860581994057,-0.00573260523378849,-0.0031276345252990723,0.036748215556144714,-0.03396981582045555,-0.19982367442647123,1.5234539965229756,2.610839208538689,0.979003369808197,0.1984965205192566,-0.04638295993208885
1732227173665,SW,4.060007450435054,1.0s : 0.3s,-7.505840593786175,0.027402986397802455,0.5655491152642942,0.05462556407153546,0.8201494812965393,-0.04885321855545044,-0.018383651971817017,0.0039103031158447266,0.044885605573654175,-0.030885986983776093,-0.19955444590185448,1.521288544114776,2.6026594733963475,0.9789539575576782,0.19823263585567474,-0.048505477607250214
1732227173675,SW,4.060007450435054,1.0s : 0.3s,-7.505840593786175,0.027649698816517132,0.5694936294481459,0.05954856174107978,0.8713296055793762,-0.042737267911434174,-0.028500735759735107,-0.0009042620658874512,0.056267499923706055,-0.019472595304250717,-0.19935327536866174,1.5191085439614442,2.5940421403104725,0.9788858294487,0.19803544878959656,-0.05064154416322708
1732227173685,SW,4.060007450435054,1.0s : 0.3s,-7.505840593786175,0.027935614141163214,0.5825658030383299,0.06426705947842165,0.9129003286361694,-0.03615308925509453,-0.03631275147199631,-0.005716204643249512,0.06106479465961456,-0.019200801849365234,-0.19920702704820553,1.5168838548515593,2.584907938795887,0.9787997007369995,0.19789209961891174,-0.05282069742679596
1732227173695,SW,4.060007450435054,1.0s : 0.3s,-7.505840593786175,0.02823394664525287,0.5899279438873412,0.04851452040531806,0.9053846001625061,-0.0371677540242672,-0.03218778222799301,-0.006392836570739746,0.047454848885536194,-0.007799208164215088,-0.1990349019203057,1.5146530583304534,2.5755970783065694,0.9787134528160095,0.1977233737707138,-0.05500597879290581
1732227173705,SW,4.060007450435054,1.0s : 0.3s,-7.505840593786175,0.028518829365083043,0.5884815791975,0.021149706418551885,0.8572290539741516,-0.038842614740133286,-0.029088929295539856,-0.0031047463417053223,0.020868033170700073,0.0014818310737609863,-0.1988386780335397,1.5124687998127304,2.5665811281454407,0.9786296486854553,0.19753102958202362,-0.0571458674967289
1732227173715,SW,4.060007450435054,1.0s : 0.3s,-7.505840593786175,0.028741720866767947,0.5743051793031492,0.007838384839106,0.8048795461654663,-0.04200725257396698,-0.03231801092624664,-0.00388944149017334,0.0025783032178878784,0.0062980055809021,-0.1986462255829291,1.5103561662347817,2.558099763803591,0.9785445928573608,0.19734236598014832,-0.05921551585197449
1732227173725,SW,4.060007450435054,1.0s : 0.3s,-7.505840593786175,0.028933864417785508,0.5545386091267229,0.007730984484274509,0.7550665140151978,-0.05251244455575943,-0.038593750447034836,-0.004965245723724365,0.0016679316759109497,0.005686163902282715,-0.1985164302512185,1.5082853297952223,2.5501222320773325,0.9784454703330994,0.19721511006355286,-0.061243392527103424
1732227173735,SW,4.060007450435054,1.0s : 0.3s,-7.505840593786175,0.02909785909435765,0.5302849272914459,0.011567859754282287,0.7025260925292969,-0.059690460562705994,-0.04077514633536339,-0.004316568374633789,-0.0013622045516967773,0.010645516216754913,-0.1984476845074045,1.5062272638229433,2.5426779554587084,0.9783307909965515,0.19714771211147308,-0.06325783580541611
1732227173745,SW,4.060007450435054,1.0s : 0.3s,-7.505840593786175,0.029228992784583196,0.5101345208421129,0.017023769394920216,0.6853650212287903,-0.06726915389299393,-0.05400170385837555,-0.0012087821960449219,-0.011157363653182983,0.012800812721252441,-0.19844668311290775,1.504164490150198,2.5356115903950927,0.9781985282897949,0.19714674353599548,-0.06527579575777054
1732227173755,SW,4.060007450435054,1.0s : 0.3s,-7.505840593786175,0.029341791807557097,0.5006170364616404,0.010696184670770253,0.7075870037078857,-0.05949538201093674,-0.06988132745027542,-0.007175862789154053,0.003219038248062134,0.007249355316162109,-0.19859964385024167,1.5021003880057169,2.5285062119816772,0.978031575679779,0.19729669392108917,-0.06729268282651901
1732227173765,SW,4.060007450435054,1.0s : 0.3s,-7.505840593786175,0.029456486324952454,0.4997221401663221,0.025627464331251286,0.7278773784637451,-0.04558640345931053,-0.07589781284332275,-0.005377531051635742,0.02459259331226349,0.004801400005817413,-0.19882161915419996,1.5000911863650201,2.5211189883006044,0.9778505563735962,0.19751429557800293,-0.06925450265407562
1732227173775,SW,4.060007450435054,1.0s : 0.3s,-7.505840593786175,0.029565047748791085,0.4994514161654069,0.019134645748608296,0.735072672367096,-0.04890204221010208,-0.08226010203361511,0.0034352540969848633,0.01473940908908844,0.011708267033100128,-0.19908215988924624,1.4980953051931754,2.5136116606718906,0.9776590466499329,0.19776970148086548,-0.07120230048894882
1732227173785,SW,4.060007450435054,1.0s : 0.3s,-7.505840593786175,0.02965047713669902,0.4991126886688079,0.019720124478718026,0.7341113090515137,-0.039234764873981476,-0.08377864211797714,0.00637584924697876,-0.0046584755182266235,0.018070153892040253,-0.19935090319806648,1.4961412557768856,2.506055348176891,0.9774652123451233,0.19803312420845032,-0.07310860604047775
1732227173795,SW,4.060007450435054,1.0s : 0.3s,-7.505840593786175,0.029712695984741598,0.49842576793427257,0.017822794859941038,0.7298883199691772,-0.025337059050798416,-0.07532283663749695,-0.0014953017234802246,-0.0031935423612594604,0.017470471560955048,-0.19959988010807803,1.4942998886078764,2.4985509768751935,0.9772797226905823,0.19827717542648315,-0.07490458339452744
1732227173805,SW,4.060007450435054,1.0s : 0.3s,-7.505840593786175,0.029756070761523364,0.4926767522237578,0.012064614872326693,0.706296443939209,-0.012459167279303074,-0.051980361342430115,-0.006356596946716309,-0.00509113073348999,0.008901067078113556,-0.1996833108622209,1.4926216310589282,2.491152199992739,0.9771360158920288,0.1983589380979538,-0.07654330134391785
1732227173815,SW,4.060007450435054,1.0s : 0.3s,-7.505840593786175,0.02977528007433718,0.478323397117796,0.01907037801274658,0.6619225740432739,-0.013290605507791042,-0.03972768783569336,-0.002212345600128174,-0.015924811363220215,0.010255984961986542,-0.19958989157428547,1.4910802894669142,2.4841484032487613,0.9770354628562927,0.1982673853635788,-0.07805079221725464
1732227173825,SW,4.060007450435054,1.0s : 0.3s,-7.505840593786175,0.02976918821476318,0.4646444443636129,0.02423775493424754,0.6440459489822388,-0.014047876000404358,-0.03331982344388962,-0.008061647415161133,-0.022501200437545776,0.004021763801574707,-0.19943404841669882,1.489592323057166,2.4775058928297824,0.9769490361213684,0.19811463356018066,-0.0795070081949234
1732227173835,SW,4.060007450435054,1.0s : 0.3s,-7.505840593786175,0.02974506993190694,0.4568022243290588,0.02415230284719335,0.6528794169425964,-0.003960886970162392,-0.0169118233025074,-0.018378913402557373,-0.015507876873016357,-0.002248339354991913,-0.19914892019343242,1.488158827906619,2.470896288018952,0.9768902063369751,0.19783514738082886,-0.0809120312333107
1732227173845,SW,4.060007450435054,1.0s : 0.3s,-7.505840593786175,0.029710181027651533,0.45572810752174686,0.02661653354885717,0.6660009622573853,0.012152614071965218,-0.0039025810547173023,-0.024588167667388916,-0.007885873317718506,-0.006455607712268829,-0.19868953183489343,1.4868501865249208,2.4641718242120927,0.9768741130828857,0.1973848193883896,-0.08219797909259796
1732227173855,SW,4.060007450435054,1.0s : 0.3s,-7.505840593786175,0.029674414611364636,0.454460003802643,0.027342281487031533,0.6618573069572449,0.021117879077792168,0.005746850743889809,-0.024205684661865234,-0.002652272582054138,-0.012435860931873322,-0.19811379544562513,1.4856560504592338,2.457414394771327,0.9768882989883423,0.19682037830352783,-0.08337409794330597
1732227173865,SW,4.060007450435054,1.0s : 0.3s,-7.505840593786175,0.029643302756066813,0.45360602419753304,0.019432479460126866,0.6662967801094055,0.023096252232789993,0.018783090636134148,-0.01088094711303711,-0.0059976726770401,-0.014941692352294922,-0.19741727572643,1.4845312974005607,2.450694420825631,0.9769301414489746,0.1961374282836914,-0.08448457717895508
1732227173875,SW,4.060007450435054,1.0s : 0.3s,-7.505840593786175,0.029612557693747196,0.4541217900399815,0.01765918869786707,0.6851450800895691,0.02445313334465027,0.023770924657583237,-0.006238579750061035,-0.01131393015384674,-0.012038357555866241,-0.19663007241679673,1.4834005720408587,2.443843984552517,0.9769876003265381,0.19536545872688293,-0.08560262620449066
1732227173885,SW,4.060007450435054,1.0s : 0.3s,-7.505840593786175,0.029583648764392973,0.45765519877532657,0.018610784765434235,0.7046299576759338,0.032204486429691315,0.0361662432551384,-0.007038295269012451,-0.010461688041687012,-0.01368856430053711,-0.19571445712168115,1.4822944222385266,2.436819078250018,0.9770700335502625,0.19446739554405212,-0.08669903874397278
1732227173895,SW,4.060007450435054,1.0s : 0.3s,-7.505840593786175,0.029573086890124414,0.4664593541777854,0.03237798392789192,0.7255397439002991,0.02904011681675911,0.042113080620765686,-0.00767749547958374,-0.0065260231494903564,-0.030770130455493927,-0.1946734763283159,1.4811955887089814,2.4295812531353427,0.9771752953529358,0.19344618916511536,-0.08779069036245346
1732227173905,SW,4.060007450435054,1.0s : 0.3s,-7.505840593786175,0.029593594444762228,0.481466980671613,0.03942377157464417,0.768800675868988,0.02560730278491974,0.037734776735305786,-0.003626525402069092,-0.010172352194786072,-0.03791576623916626,-0.19359995022700072,1.4799858272934392,2.4220515249144494,0.9772745966911316,0.19239282608032227,-0.08899155259132385
1732227173915,SW,4.060007450435054,1.0s : 0.3s,-7.505840593786175,0.029640524328045068,0.49928155791253037,0.03913116716516651,0.8042446970939636,0.03216613829135895,0.051319293677806854,0.001072525978088379,-0.007680654525756836,-0.03835499286651611,-0.1924448384657304,1.4787228794894338,2.414073474145001,0.9773820638656616,0.19125917553901672,-0.09024610370397568
1732227173925,SW,4.060007450435054,1.0s : 0.3s,-7.505840593786175,0.02970421497158821,0.5133767707725472,0.04109813961687754,0.812362790107727,0.017382750287652016,0.052659064531326294,-0.0005935430526733398,-0.013618573546409607,-0.038771629333496094,-0.19115698172061057,1.477408362869318,2.405921221356055,0.9775069952011108,0.1899949312210083,-0.0915537029504776
1732227173935,SW,4.060007450435054,1.0s : 0.3s,-7.505840593786175,0.02976891066023421,0.5174730550018308,0.0450005076973685,0.7921992540359497,0.01155016291886568,0.07117681950330734,-0.004994213581085205,-0.024868950247764587,-0.0371704027056694,-0.1897942102780129,1.4760137295183133,2.397823255768324,0.9776351451873779,0.18865680694580078,-0.0929412841796875
1732227173945,SW,4.060007450435054,1.0s : 0.3s,-7.505840593786175,0.029831631766622298,0.5174585296503563,0.04657369097810272,0.7674770355224609,-0.0003948251251131296,0.08492512255907059,-0.003727257251739502,-0.029042989015579224,-0.036217689514160156,-0.18826470777691653,1.474583512934425,2.389997085871129,0.9777873754501343,0.18715454638004303,-0.09436703473329544
1732227173955,SW,4.060007450435054,1.0s : 0.3s,-7.505840593786175,0.029876200004261045,0.5114207810090077,0.055236826574259136,0.7299757599830627,-0.008519064635038376,0.09653784334659576,-0.006105303764343262,-0.04038548469543457,-0.037186622619628906,-0.18662375095683692,1.4731235834457006,2.382484339920288,0.9779528379440308,0.18554233014583588,-0.09582425653934479
1732227173965,SW,4.060007450435054,1.0s : 0.3s,-7.505840593786175,0.029910651775710232,0.4985720744472515,0.05341897167913415,0.6917265057563782,-0.017789218574762344,0.10619556158781052,-0.011755108833312988,-0.038778916001319885,-0.03480803966522217,-0.18491143849656294,1.4716438458467507,2.375372701697471,0.978124737739563,0.18385948240756989,-0.09730257093906403
1732227173975,SW,4.060007450435054,1.0s : 0.3s,-7.505840593786175,0.02994615864498033,0.4810964329325436,0.04778101961422765,0.6469614505767822,-0.02310835011303425,0.11826900392770767,-0.017662227153778076,-0.026839599013328552,-0.03536534309387207,-0.18311950634661306,1.470203604736755,2.3687228273811898,0.9783098697662354,0.18209780752658844,-0.09874413907527924
1732227173985,SW,4.060007450435054,1.0s : 0.3s,-7.505840593786175,0.029974465323407907,0.46220859833792166,0.03703546986320851,0.6113572716712952,-0.025750959292054176,0.1269029974937439,-0.012946248054504395,-0.027336761355400085,-0.021371059119701385,-0.18125110628232888,1.468801754838513,2.3624748477950104,0.9785071015357971,0.1802603304386139,-0.10014993697404861
1732227173995,SW,4.060007450435054,1.0s : 0.3s,-7.505840593786175,0.029989670374804173,0.436217609522793,0.03472884588094388,0.5426048040390015,-0.030796051025390625,0.1468716412782669,-0.008617520332336426,-0.030971422791481018,-0.013137809932231903,-0.17928445876247387,1.4674887927755889,2.3567523682977645,0.9787254929542542,0.17832554876804352,-0.1014709547162056
1732227174005,SW,4.060007450435054,1.0s : 0.3s,-7.505840593786175,0.0299891175104202,0.4046615502040962,0.029423812124081294,0.47320935130119324,-0.04894358292222023,0.14346961677074432,-0.010343968868255615,-0.027057930827140808,-0.005160562694072723,-0.1773080096015852,1.4661885196516087,2.35177699764896,0.9789413213729858,0.17638042569160461,-0.10278008133172989
1732227174015,SW,4.060007450435054,1.0s : 0.3s,-7.505840593786175,0.0299833411284943,0.37414862719745035,0.018529279642373934,0.42652174830436707,-0.05741909518837929,0.1494918316602707,-0.010440945625305176,-0.014261215925216675,-0.005562245845794678,-0.17536060900573747,1.4648742910067718,2.3473878495663505,0.9791451692581177,0.17446322739124298,-0.10410267114639282
1732227174025,SW,4.060007450435054,1.0s : 0.3s,-7.505840593786175,0.02997847022975175,0.341185811146894,0.009136398450570123,0.36308860778808594,-0.06232938915491104,0.15354479849338531,-0.008824288845062256,-0.0011425763368606567,-0.0020736977458000183,-0.17342786010080266,1.463592067096551,2.3435483548609577,0.9793442487716675,0.17255979776382446,-0.10539394617080688
1732227174035,SW,4.060007450435054,1.0s : 0.3s,-7.505840593786175,0.0299686177451217,0.30604806990681804,0.00837106272749725,0.29751598834991455,-0.08101252466440201,0.1461598426103592,-0.006018519401550293,-0.0046083927154541016,0.0035517364740371704,-0.17155581568363623,1.4623239005155757,2.3403913066862,0.9795292019844055,0.17071552574634552,-0.10667061060667038
1732227174045,SW,4.060007450435054,1.0s : 0.3s,-7.505840593786175,0.029951748037633875,0.2696652609769629,0.010431158965202776,0.23301967978477478,-0.08865717798471451,0.13744109869003296,-0.006715297698974609,-0.002276793122291565,0.007650494575500488,-0.16985568194168854,1.4610223805955025,2.33786741036928,0.9796767234802246,0.16904011368751526,-0.10797704756259918
1732227174055,SW,4.060007450435054,1.0s : 0.3s,-7.505840593786175,0.029943229225377364,0.23230930283138476,0.016243288878831405,0.16464194655418396,-0.09939317405223846,0.12839007377624512,-0.0057839155197143555,0.014849379658699036,0.003144308924674988,-0.16830184380625507,1.4597485192581572,2.336011285631347,0.9797983169555664,0.16750842332839966,-0.10925392061471939
1732227174065,SW,4.060007450435054,1.0s : 0.3s,-7.505840593786175,0.02994154802433532,0.19680357034226853,0.0208267404888598,0.10937029868364334,-0.09914785623550415,0.1177838072180748,-0.006366610527038574,0.018862053751945496,0.0061190128326416016,-0.1669248898809253,1.4585295498912196,2.3347804832856722,0.9798926115036011,0.1661507785320282,-0.11047390848398209
1732227174075,SW,4.060007450435054,1.0s : 0.3s,-7.505840593786175,0.029952704392346468,0.16378571735028993,0.03010433202552642,0.05530121177434921,-0.09927941858768463,0.10880868881940842,-0.010303020477294922,0.028141885995864868,0.0028553158044815063,-0.16570002505099554,1.4573988917868899,2.3340783581305637,0.9799684286117554,0.16494280099868774,-0.11160469055175781
1732227174085,SW,4.060007450435054,1.0s : 0.3s,-7.505840593786175,0.030010049087185443,0.13773584332059846,0.045889382286145156,0.03980134800076485,-0.0961398109793663,0.08730538934469223,-0.01928013563156128,0.04153381288051605,-0.003009013831615448,-0.16466894972237078,1.4563492482209917,2.3337382515058187,0.980019211769104,0.16392576694488525,-0.11265261471271515
1732227174095,SW,4.060007450435054,1.0s : 0.3s,-7.505840593786175,0.030136606063612098,0.11924764153044823,0.055964588835735,0.037552572786808014,-0.08484108746051788,0.08444222807884216,-0.019131183624267578,0.05254220962524414,-0.0023128390312194824,-0.1637804617565118,1.455375656908703,2.333446258759147,0.9800534248352051,0.16304923593997955,-0.11362343281507492
1732227174105,SW,4.060007450435054,1.0s : 0.3s,-7.505840593786175,0.030299576609551418,0.10359376952071123,0.05631349621910117,0.02500695362687111,-0.07699523866176605,0.07358431816101074,-0.013783574104309082,0.05453699827194214,0.0026341527700424194,-0.16293405324205695,1.4545167924819729,2.333193963145028,0.9800922870635986,0.16221410036087036,-0.11448110640048981
1732227174115,SW,4.060007450435054,1.0s : 0.3s,-7.505840593786175,0.030484289890214098,0.08502979492315144,0.059410185538804436,-0.02950635552406311,-0.06705179065465927,0.05706765875220299,-0.022091567516326904,0.05509553849697113,0.0024524331092834473,-0.16229076348641272,1.453811624970491,2.3332931409882764,0.9801146388053894,0.16157929599285126,-0.11518435180187225
1732227174125,SW,4.060007450435054,1.0s : 0.3s,-7.505840593786175,0.030665354600975407,0.0729191088812141,0.05597277997425062,-0.003901926102116704,-0.058757200837135315,0.044583361595869064,-0.01951587200164795,0.04927505552768707,0.018001437187194824,-0.16181839569097148,1.4531820974956344,2.3335502589273864,0.9801177382469177,0.16111311316490173,-0.11581028997898102
1732227174135,SW,4.060007450435054,1.0s : 0.3s,-7.505840593786175,0.03084994512271129,0.07091385598728088,0.04764384203619071,0.03030211664736271,-0.06503880023956299,0.047300320118665695,-0.008394241333007812,0.04518723487854004,0.01255333423614502,-0.16133758039492735,1.4525382703586107,2.333487573836941,0.9801197052001953,0.16063855588436127,-0.11645041406154633
1732227174145,SW,4.060007450435054,1.0s : 0.3s,-7.505840593786175,0.031041935838087162,0.06993947468438254,0.05523335775302312,0.06824270635843277,-0.058236684650182724,0.04318030923604965,-0.018037796020507812,0.05131334066390991,0.009607434272766113,-0.1608200039154431,1.451833101478037,2.333043624269097,0.9801197052001953,0.1601276844739914,-0.11715137213468552
1732227174155,SW,4.060007450435054,1.0s : 0.3s,-7.505840593786175,0.03125218719041477,0.06913244166145802,0.06597154117083252,0.10310135781764984,-0.04394003748893738,0.03456311672925949,-0.03202253580093384,0.057609349489212036,0.002822108566761017,-0.16065592764249725,1.4512864353026906,2.332229245825551,0.9800815582275391,0.15996572375297546,-0.11769028007984161
1732227174165,SW,4.060007450435054,1.0s : 0.3s,-7.505840593786175,0.03146576234363392,0.06936517733723782,0.05712442408195063,0.1152561604976654,-0.03626130148768425,0.04362828657031059,-0.028572499752044678,0.048684969544410706,0.008751332759857178,-0.16068479901098648,1.4507942352515313,2.3311814013305505,0.9800190329551697,0.1599942147731781,-0.11817212402820587
1732227174175,SW,4.060007450435054,1.0s : 0.3s,-7.505840593786175,0.031659420208779224,0.06890311446665158,0.03377164041912163,0.09573039412498474,-0.03206762298941612,0.04154596105217934,-0.0213010311126709,0.020637810230255127,0.016151487827301025,-0.1607945341446961,1.4503564842193362,2.330168905345414,0.9799497127532959,0.16010254621505737,-0.11859900504350662
1732227174185,SW,4.060007450435054,1.0s : 0.3s,-7.505840593786175,0.03182069059822108,0.06787644628194398,0.0364082875880111,0.08174759149551392,-0.023383276537060738,0.044951245188713074,-0.02085733413696289,0.012350812554359436,0.027166016399860382,-0.1609042513103443,1.4501075527556584,2.3293709073533173,0.9799027442932129,0.16021084785461426,-0.11884082108736038
1732227174195,SW,4.060007450435054,1.0s : 0.3s,-7.505840593786175,0.031969056069376826,0.06767639652076003,0.037669763183624166,0.09478962421417236,-0.012179623357951641,0.05701509863138199,-0.00893014669418335,0.0268794447183609,0.024834632873535156,-0.16093283109442694,1.449932406818183,2.3285791108364595,0.9798774123191833,0.1602390557527542,-0.11901190131902695
1732227174205,SW,4.060007450435054,1.0s : 0.3s,-7.505840593786175,0.03210674347404738,0.06771920224282083,0.028235761863983973,0.09233193099498749,-0.01430327259004116,0.05943101644515991,-0.001121819019317627,0.019903048872947693,0.019996710121631622,-0.16085871490572587,1.449997051345354,2.327751024857963,0.9798967838287354,0.16016589105129242,-0.11894997209310532
1732227174215,SW,4.060007450435054,1.0s : 0.3s,-7.505840593786175,0.032214636506700145,0.06702493596330136,0.026879883023234463,0.07710690051317215,-0.009119695983827114,0.059515438973903656,-0.0036971569061279297,0.001219034194946289,0.026596486568450928,-0.16069606711152107,1.4500076926818852,2.327017983007343,0.9799239635467529,0.1600053459405899,-0.11894269287586212
1732227174225,SW,4.060007450435054,1.0s : 0.3s,-7.505840593786175,0.03230213671585177,0.06713625954019388,0.025969822306976816,0.09857038408517838,0.0004574749618768692,0.056620582938194275,-0.0026004910469055176,0.007653743028640747,0.02467973530292511,-0.16060787644258012,1.450034615090386,2.3262608195742245,0.9799411296844482,0.15991829335689545,-0.11891800165176392
1732227174235,SW,4.060007450435054,1.0s : 0.3s,-7.505840593786175,0.032396801666056387,0.07320945516180136,0.027928333012235757,0.1274300068616867,0.00024122628383338451,0.058188650757074356,0.01233053207397461,0.022443830966949463,0.011145591735839844,-0.16058804590934753,1.449941189074218,2.325207036507451,0.9799332618713379,0.15989871323108673,-0.11900995671749115
1732227174245,SW,4.060007450435054,1.0s : 0.3s,-7.505840593786175,0.03249130762671498,0.0824673530024792,0.030039524280682184,0.1492583453655243,0.004686485975980759,0.06007503718137741,0.022195875644683838,0.014249876141548157,0.014375574886798859,-0.16041795138470302,1.449902786275841,2.323908502715192,0.9799555540084839,0.15973080694675446,-0.11905085295438766
1732227174255,SW,4.060007450435054,1.0s : 0.3s,-7.505840593786175,0.032575971897141745,0.09456398569058287,0.014134911650451124,0.17598982155323029,0.008036476559937,0.061366669833660126,0.010694682598114014,0.0012362897396087646,0.009159207344055176,-0.15990569671272833,1.449957345621838,2.322404982425584,0.9800432324409485,0.15922510623931885,-0.11900723725557327
1732227174265,SW,4.060007450435054,1.0s : 0.3s,-7.505840593786175,0.03265401629493715,0.11075045750509122,0.003674231050279456,0.21516704559326172,0.013461069203913212,0.06131773442029953,-0.0006706118583679199,-0.0004748702049255371,-0.0035811662673950195,-0.15927424708492563,1.4501246555399714,2.3205505498120433,0.9801627993583679,0.15860168635845184,-0.11885534971952438
1732227174275,SW,4.060007450435054,1.0s : 0.3s,-7.505840593786175,0.03271706933298553,0.12722763327655723,0.017567820313503582,0.23834213614463806,0.01685233786702156,0.06701955944299698,0.008999526500701904,-0.015004605054855347,-0.0015807151794433594,-0.15865953512498324,1.4502439624652916,2.3184094449331023,0.9802735447883606,0.15799471735954285,-0.11875011771917343
1732227174285,SW,4.060007450435054,1.0s : 0.3s,-7.505840593786175,0.032761036450451364,0.14422950961606457,0.03224066260547289,0.26444393396377563,0.016799919307231903,0.07205263525247574,0.01577061414718628,-0.02740424871444702,-0.00630517303943634,-0.15785024562134192,1.45023815657984,2.316000964453131,0.980399489402771,0.1571955382823944,-0.11877115070819855
1732227174295,SW,4.060007450435054,1.0s : 0.3s,-7.505840593786175,0.032794275526032896,0.1642003167212404,0.030863252224256545,0.30706915259361267,0.02314889430999756,0.06686080247163773,0.01224815845489502,-0.024606779217720032,-0.014036715030670166,-0.15687167810284885,1.4502211268185299,2.3132473260356465,0.980549693107605,0.15622906386852264,-0.11880628019571304
1732227174305,SW,4.060007450435054,1.0s : 0.3s,-7.505840593786175,0.0328143970562302,0.18011860902019325,0.030795246906308034,0.31418028473854065,0.029059069231152534,0.07403149455785751,0.010098695755004883,-0.025970354676246643,-0.013111226260662079,-0.15590413638667197,1.4502294148326214,2.310224349205066,0.9807001948356628,0.15527333319187164,-0.11881627142429352
1732227174315,SW,4.060007450435054,1.0s : 0.3s,-7.505840593786175,0.03274608866439758,0.18990873844873388,0.04795285470552435,0.304661363363266,0.024319708347320557,0.08438293635845184,0.01604241132736206,-0.04463613033294678,-0.00705217570066452,-0.15490453768291998,1.4501537026542133,2.3072155100347715,0.9808447360992432,0.15428577363491058,-0.11890913546085358
1732227174325,SW,4.060007450435054,1.0s : 0.3s,-7.505840593786175,0.03260933190271328,0.1913121022126995,0.05577774808531459,0.29083049297332764,0.019003063440322876,0.0839795395731926,0.016206324100494385,-0.05205099284648895,-0.011798575520515442,-0.15382264392392617,1.45008170749491,2.3043879030838923,0.9810014367103577,0.15321674942970276,-0.11899980157613754
1732227174335,SW,4.060007450435054,1.0s : 0.3s,-7.505840593786175,0.03247498805338352,0.19554578772360887,0.049528933588552086,0.29993051290512085,0.02053544670343399,0.0967097133398056,0.01404637098312378,-0.04151618480682373,-0.023069918155670166,-0.1526275065131768,1.449912486956939,2.3015142654089544,0.9811623692512512,0.15203560888767242,-0.11918780207633972
1732227174345,SW,4.060007450435054,1.0s : 0.3s,-7.505840593786175,0.032309810433641756,0.1948469852727516,0.06448867371755763,0.2608840763568878,0.005427865777164698,0.11022491753101349,0.02168816328048706,-0.05742761492729187,-0.019760608673095703,-0.15126554941461123,1.4496287488187203,2.298779720592631,0.9813330769538879,0.15068934857845306,-0.1194911003112793
1732227174355,SW,4.060007450435054,1.0s : 0.3s,-7.505840593786175,0.03205431922726608,0.18275764154542054,0.08594760940055671,0.20350225269794464,-0.008477829396724701,0.12008234113454819,0.021481692790985107,-0.08189024031162262,-0.014816105365753174,-0.14981763146306792,1.4492972504437884,2.296632147249424,0.9815090298652649,0.1492578089237213,-0.11984273046255112
1732227174365,SW,4.060007450435054,1.0s : 0.3s,-7.505840593786175,0.031788185009852477,0.16898965951458753,0.08287160596884358,0.17411509156227112,-0.014206910505890846,0.11483985185623169,0.019341707229614258,-0.07624541223049164,-0.026081383228302002,-0.1483372537806532,1.4489091215137093,2.294881094661739,0.9816806316375732,0.14779384434223175,-0.1202503964304924
1732227174375,SW,4.060007450435054,1.0s : 0.3s,-7.505840593786175,0.031559765569751874,0.15731715098750737,0.07154220621563094,0.162580668926239,-0.006139396224170923,0.11034762859344482,0.022573232650756836,-0.051780685782432556,-0.04390326887369156,-0.14694389594543839,1.4485145498829761,2.293314630770683,0.9818364381790161,0.14641565084457397,-0.12066271901130676
1732227174385,SW,4.060007450435054,1.0s : 0.3s,-7.505840593786175,0.031375624875842056,0.13960460554473747,0.07089453775859673,0.12209581583738327,-0.015422998927533627,0.08260700851678848,0.030739188194274902,-0.045453399419784546,-0.044890157878398895,-0.1457152142635685,1.4481588236998093,2.291973996130774,0.9819713830947876,0.14520010352134705,-0.12103390693664551
1732227174395,SW,4.060007450435054,1.0s : 0.3s,-7.505840593786175,0.031272967101908244,0.1259536549937036,0.024630121829216825,0.13721990585327148,0.000588724622502923,0.038942888379096985,0.02259993553161621,-0.0043121278285980225,-0.008791550993919373,-0.14480175196860845,1.447883832704375,2.290829295232405,0.9820691347122192,0.14429625868797302,-0.12132013589143753
1732227174405,SW,4.060007450435054,1.0s : 0.3s,-7.505840593786175,0.03148454967111649,0.13958609385339207,0.10926471908566295,0.2718316614627838,0.012197310104966164,-0.0015963171608746052,-0.0015720725059509277,0.10732285678386688,-0.020447783172130585,-0.14427576478352694,1.4476587362845292,2.2889033408061383,0.9821170568466187,0.14377576112747192,-0.12155050039291382
1732227174415,SW,4.060007450435054,1.0s : 0.3s,-7.505840593786175,0.03223705541215049,0.20285855907103706,0.21477662315407972,0.534786581993103,0.026758410036563873,-0.03434201329946518,-0.01017540693283081,0.2012728750705719,-0.07426095008850098,-0.14395029141875645,1.447255986846121,2.2848219520772672,0.9821144938468933,0.1434536576271057,-0.12195181101560593
1732227174425,SW,4.060007450435054,1.0s : 0.3s,-7.505840593786175,0.03348356089386206,0.2847273605419357,0.2362804130801476,0.7111039757728577,0.03567924350500107,-0.04856951907277107,0.003410816192626953,0.21176549792289734,-0.10474814474582672,-0.14357034882115158,1.4466414532957965,2.2784799526723796,0.9820934534072876,0.14307762682437897,-0.12256208062171936
1732227174435,SW,4.060007450435054,1.0s : 0.3s,-7.505840593786175,0.034958882623857095,0.3650822672684226,0.19132106254264905,0.8216062188148499,0.05440153181552887,-0.04128337651491165,-0.006097912788391113,0.16149242222309113,-0.1024048924446106,-0.14304148336474315,1.4459275050380451,2.2706450474094293,0.9820805788040161,0.14255419373512268,-0.1232726126909256
1732227174445,SW,4.060007450435054,1.0s : 0.3s,-7.505840593786175,0.03643202864415006,0.4253778642715022,0.1429348670248375,0.8399918675422668,0.07234067469835281,-0.040209390223026276,-0.03907597064971924,0.10997474193572998,-0.08251667022705078,-0.14236726660125992,1.4453120990915345,2.2622507242100585,0.9820996522903442,0.14188683032989502,-0.12388896197080612
1732227174455,SW,4.060007450435054,1.0s : 0.3s,-7.505840593786175,0.03787524662899996,0.47930167553236386,0.1283957025216479,0.8955938816070557,0.10126154124736786,-0.045983389019966125,-0.048613011837005615,0.10716710984706879,-0.051356032490730286,-0.14170447170601522,1.4449334125026805,2.2535295279776464,0.9821458458900452,0.14123070240020752,-0.1242726519703865
1732227174465,SW,4.060007450435054,1.0s : 0.3s,-7.505840593786175,0.0393190848835639,0.5231164715628908,0.1456414905267463,0.9245572686195374,0.11133898794651031,-0.044159289449453354,-0.029441475868225098,0.13200709223747253,-0.05402565002441406,-0.14098140759631336,1.4446816792969193,2.2443211999210924,0.9822155237197876,0.14051485061645508,-0.12453269213438034
1732227174475,SW,4.060007450435054,1.0s : 0.3s,-7.505840593786175,0.040769109863815885,0.5601485454657025,0.1568159058689432,0.9535694718360901,0.12786176800727844,-0.06109859421849251,-0.03267627954483032,0.14645731449127197,-0.04553838074207306,-0.140287775614461,1.4445198104095087,2.234829284225639,0.9822918772697449,0.13982807099819183,-0.12470393627882004
1732227174485,SW,4.060007450435054,1.0s : 0.3s,-7.505840593786175,0.04223201739289294,0.5845531008131076,0.1765125182410448,0.9426842927932739,0.13822457194328308,-0.08994888514280319,-0.05988270044326782,0.16050894558429718,-0.04251599311828613,-0.13981182936237407,1.4444805723087668,2.225193934025687,0.9823527932167053,0.13935677707195282,-0.12475083768367767
1732227174495,SW,4.060007450435054,1.0s : 0.3s,-7.505840593786175,0.04368552709189139,0.5939334988630319,0.17894697943737217,0.9005328416824341,0.1412922590970993,-0.12050918489694595,-0.06520599126815796,0.16542626917362213,-0.02010844647884369,-0.13968447327489247,1.4445682200033572,2.215870065957518,0.9823811650276184,0.1392306685447693,-0.12466695159673691
1732227174505,SW,4.060007450435054,1.0s : 0.3s,-7.505840593786175,0.045132182302549416,0.5999522034339566,0.1793800541251389,0.8973217606544495,0.13588698208332062,-0.16038599610328674,-0.071591317653656,0.16393114626407623,-0.013359129428863525,-0.13991539477063372,1.444636774551862,2.206643457365382,0.982357919216156,0.13945934176445007,-0.12459556758403778
1732227174515,SW,4.060007450435054,1.0s : 0.3s,-7.505840593786175,0.04666396762483512,0.6029424816180642,0.2278438349780169,0.8874571323394775,0.14289961755275726,-0.20952211320400238,-0.09997963905334473,0.20392940938472748,-0.018157117068767548,-0.14060382624827303,1.4447244976316531,2.1975212822650314,0.982273280620575,0.14014101028442383,-0.12449727952480316
1732227174525,SW,4.060007450435054,1.0s : 0.3s,-7.505840593786175,0.04839033782542815,0.6172710632160706,0.27846134427322067,0.9301530718803406,0.1438862681388855,-0.256837397813797,-0.12338745594024658,0.2488136738538742,-0.020199298858642578,-0.1417669139163172,1.4448097265944504,2.1881101298855015,0.9821215867996216,0.1412925273180008,-0.12439300864934921
1732227174535,SW,4.060007450435054,1.0s : 0.3s,-7.505840593786175,0.05031739948153501,0.6346303899774124,0.30268988208369163,0.9537793397903442,0.15292823314666748,-0.3003862202167511,-0.13860338926315308,0.2688164710998535,-0.012164294719696045,-0.14332529907188787,1.4448811757190874,2.1783530702262914,0.9819108843803406,0.1428350955247879,-0.12429504096508026
1732227174545,SW,4.060007450435054,1.0s : 0.3s,-7.505840593786175,0.052465106747558554,0.6627845022546595,0.3341521675179849,1.0151671171188354,0.18200619518756866,-0.3548114001750946,-0.16745394468307495,0.2889973521232605,-0.009868025779724121,-0.14532099353283373,1.445054428171281,2.1680309767965045,0.9816476702690125,0.1448100507259369,-0.12408892810344696
1732227174555,SW,4.060007450435054,1.0s : 0.3s,-7.505840593786175,0.05492429219751733,0.694957266821031,0.37726602397781367,1.0492361783981323,0.2093440741300583,-0.43402764201164246,-0.18945932388305664,0.32572612166404724,-0.018366031348705292,-0.14791136467515384,1.4453936895296227,2.1571603380102466,0.9813141226768494,0.14737263321876526,-0.12370853126049042
1732227174565,SW,4.060007450435054,1.0s : 0.3s,-7.505840593786175,0.05763162841559802,0.7337094603493953,0.38305179394816663,1.1021544933319092,0.21584483981132507,-0.5145200490951538,-0.18482089042663574,0.3354780077934265,0.004941821098327637,-0.15125834046222397,1.4458200487673898,2.145809896346869,0.9808719158172607,0.1506822258234024,-0.12322796136140823
1732227174575,SW,4.060007450435054,1.0s : 0.3s,-7.505840593786175,0.0606063708109006,0.7758953308400679,0.40242506734616673,1.141188144683838,0.22835130989551544,-0.603566586971283,-0.18199819326400757,0.35868382453918457,0.012981005012989044,-0.155399070136814,1.446208887144765,2.1338037575224065,0.9802922010421753,0.15477436780929565,-0.12276795506477356
1732227174585,SW,4.060007450435054,1.0s : 0.3s,-7.505840593786175,0.06392195255064177,0.8320464119261216,0.4466763064381225,1.2446658611297607,0.25009363889694214,-0.6799455285072327,-0.19240105152130127,0.40254878997802734,0.021354854106903076,-0.16030112261281973,1.4465661429346057,2.121049874648038,0.9795714616775513,0.15961547195911407,-0.12232226878404617
1732227174595,SW,4.060007450435054,1.0s : 0.3s,-7.505840593786175,0.06748833275037798,0.8875376530424338,0.4373543432624008,1.2949833869934082,0.26866093277931213,-0.7484819293022156,-0.20337098836898804,0.3870539963245392,0.010405123233795166,-0.16578258975059762,1.4469149754390147,2.107314295605906,0.978731095790863,0.16502423584461212,-0.12187059968709946
1732227174605,SW,4.060007450435054,1.0s : 0.3s,-7.505840593786175,0.07114825327312702,0.9294672268713922,0.4177313304103026,1.260066270828247,0.2813672423362732,-0.8364297151565552,-0.2226696014404297,0.3527589440345764,0.021882422268390656,-0.1720603317093081,1.4473407492687085,2.0934745002679676,0.9777354598045349,0.17121261358261108,-0.12132390588521957
1732227174615,SW,4.060007450435054,1.0s : 0.3s,-7.505840593786175,0.0748965974960594,0.9731522955873686,0.4183602018605937,1.2894377708435059,0.28861984610557556,-0.9178526401519775,-0.2217128872871399,0.35428208112716675,0.018784597516059875,-0.17919182615071846,1.4477620505798938,2.079559644339327,0.9765498042106628,0.17823439836502075,-0.1207590401172638
1732227174625,SW,4.060007450435054,1.0s : 0.3s,-7.505840593786175,0.07875963046899308,1.0245872694419818,0.42706223669312393,1.3538470268249512,0.2992843687534332,-1.0018017292022705,-0.2109220027923584,0.37118101119995117,0.010895855724811554,-0.18708304957688726,1.4480505445518441,2.0650323790324707,0.9751584529876709,0.18599364161491394,-0.12030136585235596
1732227174635,SW,4.060007450435054,1.0s : 0.3s,-7.505840593786175,0.08283602147198768,1.0802130203731444,0.45843578278994546,1.3913060426712036,0.3191891014575958,-1.1110291481018066,-0.233819842338562,0.39426591992378235,0.0067847371101379395,-0.19586649274318257,1.448223165986059,2.0498093488952867,0.9735201597213745,0.19461652636528015,-0.11992865800857544
1732227174645,SW,4.060007450435054,1.0s : 0.3s,-7.505840593786175,0.08717488567543746,1.1357397759989243,0.48753196172524,1.4285264015197754,0.32814016938209534,-1.19358491897583,-0.23756396770477295,0.4256059527397156,0.010504662990570068,-0.20561582716940893,1.4483273463038404,2.0341317631745874,0.971603274345398,0.20417004823684692,-0.11958975344896317
1732227174655,SW,4.060007450435054,1.0s : 0.3s,-7.505840593786175,0.09163682576291728,1.1938973716242636,0.4687498298285634,1.4795217514038086,0.3378519117832184,-1.2794607877731323,-0.21629077196121216,0.4158579111099243,0.0026272982358932495,-0.21608405894950983,1.4482440799826555,2.017768881954708,0.9694189429283142,0.21440640091896057,-0.11940284073352814
1732227174665,SW,4.060007450435054,1.0s : 0.3s,-7.505840593786175,0.09616249025658359,1.2512295323655407,0.45523535154210154,1.492614984512329,0.35031858086586,-1.3891733884811401,-0.21281850337982178,0.4023667573928833,0.006964370608329773,-0.2275051548161036,1.4479700749271864,2.000984617984204,0.9668927192687988,0.2255476713180542,-0.11936064809560776
1732227174675,SW,4.060007450435054,1.0s : 0.3s,-7.505840593786175,0.10075480732994295,1.3042824689529153,0.4630354620549339,1.49300217628479,0.3615014851093292,-1.4807440042495728,-0.19145625829696655,0.4213203191757202,0.0153469517827034,-0.23990999021920564,1.4475676654685536,1.983938723816249,0.9639934301376343,0.2376151978969574,-0.11939658969640732
1732227174685,SW,4.060007450435054,1.0s : 0.3s,-7.505840593786175,0.1054112948667368,1.3618561847676391,0.46687764687692407,1.5488449335098267,0.3717101812362671,-1.565084457397461,-0.17769700288772583,0.43139219284057617,0.017299950122833252,-0.25314169996560715,1.446964060850615,1.9664825951986518,0.9607170820236206,0.25044676661491394,-0.11957962065935135
1732227174695,SW,4.060007450435054,1.0s : 0.3s,-7.505840593786175,0.11013243207431082,1.4167360554525386,0.4689382872648658,1.5706745386123657,0.3759126365184784,-1.6447429656982422,-0.17911094427108765,0.4333740472793579,-0.0030532032251358032,-0.26713369661160963,1.4460351275133356,1.9483540778291284,0.9570346474647522,0.2639678716659546,-0.120024174451828
1732227174705,SW,4.060007450435054,1.0s : 0.3s,-7.505840593786175,0.11487420848998606,1.4636594605345745,0.43846770831780385,1.56261146068573,0.372231662273407,-1.7120249271392822,-0.156349778175354,0.40951138734817505,0.010445177555084229,-0.2818266611258922,1.444800508552334,1.9300398733882107,0.9529348611831665,0.27811071276664734,-0.12070520967245102
1732227174715,SW,4.060007450435054,1.0s : 0.3s,-7.505840593786175,0.11958015334188611,1.5132507881549708,0.41924591434223407,1.5876866579055786,0.39539024233818054,-1.797059178352356,-0.1598670482635498,0.38743269443511963,0.010274767875671387,-0.2972219618321762,1.4433200499885213,1.9114324895817894,0.9483954906463623,0.2928650975227356,-0.1215570867061615
1732227174725,SW,4.060007450435054,1.0s : 0.3s,-7.505840593786175,0.1243558731753941,1.5636434955356826,0.46843709820261265,1.5827058553695679,0.41074779629707336,-1.9035669565200806,-0.18397212028503418,0.4307834208011627,-0.003635697066783905,-0.31354064761652145,1.4416502028904068,1.8924512402828715,0.9433257579803467,0.3084285855293274,-0.12250871956348419
1732227174735,SW,4.060007450435054,1.0s : 0.3s,-7.505840593786175,0.12918261310712204,1.615326094548922,0.46967948962970296,1.6006028652191162,0.40608033537864685,-1.9959663152694702,-0.15664541721343994,0.44254910945892334,0.014536917209625244,-0.3308165379328437,1.4396141834186067,1.8730912102560768,0.9376512765884399,0.32481539249420166,-0.12371356785297394
1732227174745,SW,4.060007450435054,1.0s : 0.3s,-7.505840593786175,0.1340220708025964,1.6567003495263506,0.45016322667424513,1.551208734512329,0.384384423494339,-2.0737574100494385,-0.10314851999282837,0.4373943507671356,0.026334300637245178,-0.34889193372356986,1.43709476550161,1.8537147129638485,0.9313649535179138,0.3418567180633545,-0.12527230381965637
1732227174755,SW,4.060007450435054,1.0s : 0.3s,-7.505840593786175,0.138870136528514,1.6958132058329798,0.4462486954185573,1.5384093523025513,0.3657241761684418,-2.149252414703369,-0.07878649234771729,0.43914175033569336,0.009225502610206604,-0.36773547042120724,1.4340172267563773,1.8343540780063994,0.9244284629821777,0.35950320959091187,-0.1272369623184204
1732227174765,SW,4.060007450435054,1.0s : 0.3s,-7.505840593786175,0.14372298185030144,1.7430875087074769,0.44213560484192677,1.58005690574646,0.36330699920654297,-2.2400805950164795,-0.07748490571975708,0.4352897107601166,-0.001688241958618164,-0.38730951615818626,1.4303361215432036,1.8144995471342162,0.9168098568916321,0.3776986002922058,-0.12962891161441803
1732227174775,SW,4.060007450435054,1.0s : 0.3s,-7.505840593786175,0.14858606177612146,1.7986717457470929,0.44815871729135476,1.626813292503357,0.35934847593307495,-2.3443164825439453,-0.0817064642906189,0.4406469166278839,-0.0007644891738891602,-0.40771347657191187,1.4259197226991125,1.7937454155564776,0.9084123969078064,0.3965112566947937,-0.13253627717494965
1732227174785,SW,4.060007450435054,1.0s : 0.3s,-7.505840593786175,0.15348518318171248,1.854751805313215,0.46970675883386676,1.6497160196304321,0.3269050121307373,-2.437610387802124,-0.0448683500289917,0.46719789505004883,-0.018368378281593323,-0.42895403796362475,1.4205940886165778,1.7721622415346414,0.8991622924804688,0.41591984033584595,-0.13608109951019287
1732227174795,SW,4.060007450435054,1.0s : 0.3s,-7.505840593786175,0.15841511143311768,1.9061348878737954,0.4772467016176146,1.6259325742721558,0.28478044271469116,-2.532874345779419,0.005439341068267822,0.47637686133384705,-0.02828274667263031,-0.4510045195027378,1.4142233538286821,1.7499988249195795,0.8890003561973572,0.43586984276771545,-0.1403421312570572
1732227174805,SW,4.060007450435054,1.0s : 0.3s,-7.505840593786175,0.16331921076695177,1.9485158295544271,0.4541651180446546,1.5498690605163574,0.21802929043769836,-2.628246307373047,0.04129880666732788,0.4522392749786377,-0.006324648857116699,-0.4739521454182381,1.4068807622663904,1.727904143800729,0.8778448700904846,0.4564063549041748,-0.1451951563358307
1732227174815,SW,4.060007450435054,1.0s : 0.3s,-7.505840593786175,0.16823749413886943,1.99195637300616,0.49548963655904726,1.5352216958999634,0.16969478130340576,-2.71899676322937,0.07775604724884033,0.4885973334312439,-0.027140796184539795,-0.49773500625852896,1.398451369283311,1.7057112363524136,0.8656491041183472,0.4774366021156311,-0.1506851464509964
1732227174825,SW,4.060007450435054,1.0s : 0.3s,-7.505840593786175,0.1732246465525366,2.0412541016864423,0.5276757842459199,1.5648034811019897,0.12872356176376343,-2.80991268157959,0.11716359853744507,0.512269914150238,-0.04789529740810394,-0.522222815443769,1.3886826525875635,1.6826496512750122,0.8523797988891602,0.4988079071044922,-0.15696918964385986
1732227174835,SW,4.060007450435054,1.0s : 0.3s,-7.505840593786175,0.17825375360647588,2.0882463730745116,0.5379018095685881,1.5266082286834717,0.09669426083564758,-2.903001308441162,0.1463932991027832,0.5163121223449707,-0.036457523703575134,-0.5474091605246577,1.377642689920038,1.6587696662482676,0.8379969000816345,0.5204766988754272,-0.16390559077262878
1732227174845,SW,4.060007450435054,1.0s : 0.3s,-7.505840593786175,0.18338505201036465,2.1410369092288293,0.5703651261173127,1.5591318607330322,0.05858096480369568,-2.9965388774871826,0.17278623580932617,0.5430538654327393,-0.02353280782699585,-0.5732856688700603,1.3652456126326782,1.6340398648813048,0.8224377632141113,0.5423953533172607,-0.17147450149059296
1732227174855,SW,4.060007450435054,1.0s : 0.3s,-7.505840593786175,0.1886969586828683,2.1978567297025626,0.6221104573067439,1.6025419235229492,0.011488821357488632,-3.084527015686035,0.22025829553604126,0.5807792544364929,-0.0346866250038147,-0.599679122446507,1.3510554334131089,1.6077937730040999,0.805666446685791,0.5643776059150696,-0.1799434870481491
1732227174865,SW,4.060007450435054,1.0s : 0.3s,-7.505840593786175,0.19420204420469572,2.2555908042138353,0.669871647539725,1.6715288162231445,-0.020929528400301933,-3.147454023361206,0.27561402320861816,0.6104711294174194,-0.009483382105827332,-0.6263785152332433,1.3347727823603077,1.5796396011204255,0.7876946330070496,0.5862146615982056,-0.18944543600082397
1732227174875,SW,4.060007450435054,1.0s : 0.3s,-7.505840593786175,0.199708567939212,2.3017651221755493,0.6527394708029949,1.6745786666870117,-0.06008279323577881,-3.1775777339935303,0.3126184344291687,0.5723854899406433,0.026709213852882385,-0.6530058821204673,1.3164641283397858,1.549719061473342,0.7687109112739563,0.6075766086578369,-0.199835404753685
1732227174885,SW,4.060007450435054,1.0s : 0.3s,-7.505840593786175,0.20519094806076094,2.3395800865308822,0.5962073795407841,1.6498003005981445,-0.08933557569980621,-3.2205374240875244,0.3195449709892273,0.5008787512779236,0.04974663257598877,-0.6795454111148979,1.296522955747882,1.5187163840575306,0.7487839460372925,0.6284394860267639,-0.21068106591701508
1732227174895,SW,4.060007450435054,1.0s : 0.3s,-7.505840593786175,0.21066218970041142,2.3843155467413344,0.599976844068738,1.7028342485427856,-0.11636558920145035,-3.2937636375427246,0.3279638886451721,0.5017655491828918,0.025362074375152588,-0.7060973986724809,1.2745805897346634,1.4859898146215467,0.7277612090110779,0.6488692164421082,-0.2221088707447052
1732227174905,SW,4.060007450435054,1.0s : 0.3s,-7.505840593786175,0.216134320068687,2.441557329819954,0.6487981756392476,1.8734791278839111,-0.1371603012084961,-3.3479816913604736,0.35419780015945435,0.5433354377746582,-0.016419291496276855,-0.7323367939512829,1.2495419215968304,1.449945041078231,0.7055709362030029,0.6686091423034668,-0.23480141162872314
1732227174915,SW,4.060007450435054,1.0s : 0.3s,-7.505840593786175,0.22158581386862866,2.48870772358502,0.634076560358909,1.912939190864563,-0.17551274597644806,-3.364401340484619,0.3868138790130615,0.5019810199737549,-0.02105143666267395,-0.7577501998896626,1.2211997154310597,1.4104135420029444,0.6824457049369812,0.6872889399528503,-0.24880021810531616
1732227174925,SW,4.060007450435054,1.0s : 0.3s,-7.505840593786175,0.22694705304598403,2.5162260517529313,0.5908706816492535,1.808932900428772,-0.2677188515663147,-3.3853964805603027,0.42454999685287476,0.4109259843826294,-0.00502970814704895,-0.7826312378897667,1.190423944602497,1.3694045740020817,0.658381462097168,0.7051475644111633,-0.2632502615451813
1732227174935,SW,4.060007450435054,1.0s : 0.3s,-7.505840593786175,0.23221263996732774,2.5340362783325534,0.6107417911646186,1.7537751197814941,-0.3518212139606476,-3.4003169536590576,0.47265177965164185,0.38515418767929077,-0.03552579879760742,-0.8070535654541563,1.157229417535876,1.327242802300926,0.6333205103874207,0.7222524881362915,-0.2779507637023926
1732227174945,SW,4.060007450435054,1.0s : 0.3s,-7.505840593786175,0.237188162176739,2.553800488644471,0.6534252304726369,1.7695410251617432,-0.41930243372917175,-3.4253649711608887,0.5048872828483582,0.4092179536819458,-0.06777927279472351,-0.8306880685728686,1.1209582957207074,1.282917730882799,0.6072800159454346,0.7383955717086792,-0.2932283878326416
1732227174955,SW,4.060007450435054,1.0s : 0.3s,-7.505840593786175,0.24205898191860323,2.574493838386781,0.66577859237776,1.789368748664856,-0.4621084928512573,-3.447150468826294,0.507233738899231,0.4224538207054138,-0.08664777874946594,-0.8532693888135383,1.081335493101846,1.235724519492983,0.580321192741394,0.7534341216087341,-0.3091346323490143
1732227174965,SW,4.060007450435054,1.0s : 0.3s,-7.505840593786175,0.24704143264720363,2.6024759784272287,0.7071799545394127,1.8387686014175415,-0.49770882725715637,-3.491607904434204,0.523543119430542,0.4620799422264099,-0.11175069212913513,-0.8746762093971959,1.03816207395587,1.1852775175540222,0.5524150729179382,0.7673358917236328,-0.3256271779537201
1732227174975,SW,4.060007450435054,1.0s : 0.3s,-7.505840593786175,0.2523642443675748,2.6391517373877176,0.7868021804480136,1.9125944375991821,-0.6188414096832275,-3.5326764583587646,0.567816972732544,0.5227475166320801,-0.1528940498828888,-0.8946203221842691,0.9905454541163222,1.1309418775191755,0.5233847498893738,0.7799715399742126,-0.3430928587913513
1732227174985,SW,4.060007450435054,1.0s : 0.3s,-7.505840593786175,0.25789586660458885,2.680726864976343,0.7854746751852315,1.9255133867263794,-0.7001495957374573,-3.6014504432678223,0.5899256467819214,0.5014534592628479,-0.13229748606681824,-0.9129347774674182,0.9379062625969552,1.072356327705824,0.4930058717727661,0.7913015484809875,-0.3616447150707245
1732227174995,SW,4.060007450435054,1.0s : 0.3s,-7.505840593786175,0.26345174567176594,2.703412248507816,0.7490395696761534,1.7687655687332153,-0.8020408153533936,-3.6277410984039307,0.5965477228164673,0.4476790428161621,-0.06909823417663574,-0.9301772218865927,0.8819476632112467,1.0115238421843324,0.4614051878452301,0.8017258644104004,-0.37992212176322937
1732227175005,SW,4.060007450435054,1.0s : 0.3s,-7.505840593786175,0.26903591674867355,2.7117016846629243,0.7709846320089699,1.6724412441253662,-0.8981216549873352,-3.6107139587402344,0.6234197616577148,0.4436114430427551,-0.0947311520576477,-0.9461406909527657,0.8232262296623355,0.949299295889321,0.42887216806411743,0.8111645579338074,-0.3975936472415924
1732227175015,SW,4.060007450435054,1.0s : 0.3s,-7.505840593786175,0.2747008384338719,2.7101602578090445,0.7628120241619432,1.5920363664627075,-0.9590116143226624,-3.575484275817871,0.6185898780822754,0.4324876070022583,-0.11037760972976685,-0.9603180727873966,0.7621289699654897,0.8857767987180877,0.395814448595047,0.8193739652633667,-0.41467735171318054
1732227175025,SW,4.060007450435054,1.0s : 0.3s,-7.505840593786175,0.28046820578565934,2.709272324650246,0.7486804888021089,1.572676181793213,-1.0099353790283203,-3.580167293548584,0.6031185984611511,0.4364093542098999,-0.07948148250579834,-0.9724004339404182,0.6984443584651167,0.8203270474761207,0.36222872138023376,0.8262403011322021,-0.4314133822917938
1732227175035,SW,4.060007450435054,1.0s : 0.3s,-7.505840593786175,0.2864567124318955,2.7110643229215463,0.7919674484030902,1.599778652191162,-1.066300868988037,-3.581268548965454,0.6201024651527405,0.48432254791259766,-0.09009462594985962,-0.982084244145856,0.6318068508893299,0.7524806699871448,0.3279566764831543,0.8316565155982971,-0.44809815287590027
1732227175045,SW,4.060007450435054,1.0s : 0.3s,-7.505840593786175,0.29263720233972174,2.7176312515277528,0.808967717664714,1.6563372611999512,-1.118262529373169,-3.5582709312438965,0.6443612575531006,0.4811946749687195,-0.08763003349304199,-0.9886839408871902,0.5625230381358077,0.6824630134782862,0.2932150363922119,0.8353031277656555,-0.4650738537311554
1732227175055,SW,4.060007450435054,1.0s : 0.3s,-7.505840593786175,0.29891146283573083,2.72370848973588,0.7759276260482026,1.6205710172653198,-1.1819980144500732,-3.5625970363616943,0.631813645362854,0.44255882501602173,-0.08376684784889221,-0.9923865620229091,0.49148241875712356,0.6112816499811801,0.2580026686191559,0.837333083152771,-0.4819832444190979
1732227175065,SW,4.060007450435054,1.0s : 0.3s,-7.505840593786175,0.30524859807118837,2.725779280614285,0.75993404192038,1.5680028200149536,-1.2534174919128418,-3.5584659576416016,0.6294615268707275,0.41651201248168945,-0.08829313516616821,-0.9937557210895787,0.419448353612597,0.5398449432883158,0.22217726707458496,0.8380808234214783,-0.4982546865940094
1732227175075,SW,4.060007450435054,1.0s : 0.3s,-7.505840593786175,0.3116567706533102,2.726755869014662,0.7889473976770524,1.575674057006836,-1.297260046005249,-3.536520004272461,0.6641450524330139,0.41807061433792114,-0.08103275299072266,-0.9924943366794631,0.3472154038610944,0.46886076506661334,0.18599838018417358,0.8373919725418091,-0.5139836668968201
1732227175085,SW,4.060007450435054,1.0s : 0.3s,-7.505840593786175,0.31814721411104646,2.741535852329341,0.784501736357348,1.6606389284133911,-1.3367873430252075,-3.552142858505249,0.6508592367172241,0.4312698245048523,-0.07636469602584839,-0.9879868974026844,0.2750524114075495,0.39836196729144735,0.14947952330112457,0.8349196910858154,-0.5296838283538818
1732227175095,SW,4.060007450435054,1.0s : 0.3s,-7.505840593786175,0.32471735393603784,2.761482246434801,0.776872952918127,1.7714905738830566,-1.357664942741394,-3.544407367706299,0.6403635740280151,0.43212366104125977,-0.08206838369369507,-0.9796950911677457,0.20356076485536773,0.3287034338358501,0.11265767365694046,0.8303275108337402,-0.5457696914672852
1732227175105,SW,4.060007450435054,1.0s : 0.3s,-7.505840593786175,0.33133476517206095,2.7778659339902143,0.7751588575589442,1.8072792291641235,-1.3825316429138184,-3.529730796813965,0.6595159769058228,0.4000436067581177,-0.07664883136749268,-0.9679794497101847,0.13415918901170984,0.2613409810417719,0.07583561539649963,0.8237417936325073,-0.5618704557418823
1732227175115,SW,4.060007450435054,1.0s : 0.3s,-7.505840593786175,0.337958722696261,2.7898680969894385,0.7641211638294634,1.775274395942688,-1.4376192092895508,-3.526346206665039,0.6715303659439087,0.35780149698257446,-0.07004433870315552,-0.9536324215016175,0.06724732132300437,0.19688467754518407,0.0388883575797081,0.8155230283737183,-0.5774165987968445
1732227175125,SW,4.060007450435054,1.0s : 0.3s,-7.505840593786175,0.34462654649052826,2.8043468968771212,0.7923348699006288,1.7587385177612305,-1.4910030364990234,-3.548051595687866,0.6905823349952698,0.38193368911743164,-0.07083249092102051,-0.9373004821226545,0.0028095019206178,0.13550139274212009,0.0016631269827485085,0.8059630393981934,-0.591963529586792
1732227175135,SW,4.060007450435054,1.0s : 0.3s,-7.505840593786175,0.35136876357339564,2.8255524344513994,0.8218419651451576,1.8403699398040771,-1.5159366130828857,-3.561405897140503,0.7097316384315491,0.40980666875839233,-0.06134909391403198,-0.9182983488851617,-0.0590157309794111,0.077046884598357,-0.03581197187304497,0.7945695519447327,-0.6061161160469055
1732227175145,SW,4.060007450435054,1.0s : 0.3s,-7.505840593786175,0.35819134059678986,2.8445341950296044,0.8346798702978516,1.8661688566207886,-1.5633026361465454,-3.552483320236206,0.7274453639984131,0.4086958169937134,-0.021942138671875,-0.8965854263108907,-0.11766365416656424,0.022145830312773725,-0.07328581809997559,0.7811998128890991,-0.619964599609375
1732227175155,SW,4.060007450435054,1.0s : 0.3s,-7.505840593786175,0.36506814984282865,2.86307511996822,0.8055543144950991,1.895648717880249,-1.6262319087982178,-3.5409493446350098,0.7096227407455444,0.3810432553291321,-0.01262366771697998,-0.8728892276988789,-0.17315239515834316,-0.02892547723839904,-0.11071523278951645,0.7661888003349304,-0.63300621509552
1732227175165,SW,4.060007450435054,1.0s : 0.3s,-7.505840593786175,0.3719175294884413,2.877870623586874,0.7767245829309531,1.917585849761963,-1.6674253940582275,-3.520908832550049,0.6968070864677429,0.343131422996521,0.004667818546295166,-0.8470369458840085,-0.22536641395433393,-0.07618115839258655,-0.14797894656658173,0.7493215203285217,-0.6454605460166931
1732227175175,SW,4.060007450435054,1.0s : 0.3s,-7.505840593786175,0.378766550429492,2.878485418970857,0.7756254987378933,1.8316304683685303,-1.705142617225647,-3.496981620788574,0.6995304822921753,0.3349490165710449,0.007821440696716309,-0.8202775443598462,-0.27456212986526257,-0.11985307551717138,-0.1849125325679779,0.7313351631164551,-0.6564725637435913
1732227175185,SW,4.060007450435054,1.0s : 0.3s,-7.505840593786175,0.385587037529649,2.8800506496906393,0.7599289967719374,1.880066156387329,-1.7321784496307373,-3.471911907196045,0.6678067445755005,0.35984325408935547,-0.045156002044677734,-0.792378898901215,-0.32087432429549534,-0.16015086951824617,-0.22145666182041168,0.7120256423950195,-0.6663155555725098
1732227175195,SW,4.060007450435054,1.0s : 0.3s,-7.505840593786175,0.3923499022582897,2.880394059820384,0.7329749388084223,1.886799931526184,-1.7540690898895264,-3.4433586597442627,0.6348910331726074,0.3613555431365967,-0.059898316860198975,-0.7628889903095968,-0.36411286517110825,-0.1969132262470349,-0.25741907954216003,0.6910126209259033,-0.6754531860351562
1732227175205,SW,4.060007450435054,1.0s : 0.3s,-7.505840593786175,0.3989384361502463,2.8791920061649687,0.6979607398053669,1.8436014652252197,-1.8193883895874023,-3.4076387882232666,0.6162182092666626,0.32752782106399536,-0.012240886688232422,-0.732730223910847,-0.4049187358641394,-0.23066745596856172,-0.2928386926651001,0.6689016222953796,-0.6832394003868103
1732227175215,SW,4.060007450435054,1.0s : 0.3s,-7.505840593786175,0.4054180516495179,2.8696768620817075,0.698183626066412,1.8144499063491821,-1.854077935218811,-3.3651106357574463,0.6152211427688599,0.3300358057022095,0.006299853324890137,-0.7022230325263461,-0.44371639480437297,-0.26170902499677384,-0.32773029804229736,0.6459163427352905,-0.6894816160202026
1732227175225,SW,4.060007450435054,1.0s : 0.3s,-7.505840593786175,0.4118994559258782,2.8579865047594466,0.6999883422986828,1.8769664764404297,-1.8871054649353027,-3.279698371887207,0.605133056640625,0.3513103127479553,0.01946091651916504,-0.6708488131442379,-0.48006681146545216,-0.28954763553387375,-0.3617554008960724,0.6216510534286499,-0.694753885269165
1732227175235,SW,4.060007450435054,1.0s : 0.3s,-7.505840593786175,0.41828406338432006,2.8371754573806207,0.6683034434698174,1.7263405323028564,-1.9740986824035645,-3.232666015625,0.5833247900009155,0.3257632851600647,-0.01549077033996582,-0.6393719389303963,-0.5146725695986321,-0.3146528418832196,-0.395016074180603,0.5966915488243103,-0.6985137462615967
1732227175245,SW,4.060007450435054,1.0s : 0.3s,-7.505840593786175,0.42450599843703146,2.8049354228764183,0.634875235627928,1.5314635038375854,-2.060354709625244,-3.1715056896209717,0.5578951835632324,0.3025768995285034,-0.01633244752883911,-0.6091230062981953,-0.5488244936425276,-0.3385650038196921,-0.42785975337028503,0.5721484422683716,-0.6997014880180359
1732227175255,SW,4.060007450435054,1.0s : 0.3s,-7.505840593786175,0.43051239391027657,2.7637786899247514,0.6334113186383599,1.345748782157898,-2.1098103523254395,-3.1102793216705322,0.5793683528900146,0.2559428811073303,-0.005954146385192871,-0.5801318962878,-0.5823196400569651,-0.36119340122399984,-0.4599835276603699,0.5481342673301697,-0.6985441446304321
1732227175265,SW,4.060007450435054,1.0s : 0.3s,-7.505840593786175,0.43649390277414435,2.7206487414306464,0.6532089868333668,1.1143076419830322,-2.182158946990967,-3.07222056388855,0.6099216938018799,0.23339253664016724,0.014332890510559082,-0.5525176685481409,-0.6156236603558617,-0.3832606891839216,-0.4915439486503601,0.5248319506645203,-0.6949359178543091
1732227175275,SW,4.060007450435054,1.0s : 0.3s,-7.505840593786175,0.4424300331520339,2.671289059186089,0.7145003650634133,0.8980194926261902,-2.242217540740967,-2.9865994453430176,0.6737596392631531,0.23579269647598267,0.030992329120635986,-0.5265100183449257,-0.6488371462575195,-0.40484773268942914,-0.5224229693412781,0.5025190711021423,-0.6888750195503235
1732227175285,SW,4.060007450435054,1.0s : 0.3s,-7.505840593786175,0.4484159417170707,2.6195674416596924,0.7708751031304226,0.6669639348983765,-2.304391860961914,-2.899970293045044,0.7372764945030212,0.22244781255722046,0.03447848558425903,-0.5021752014642133,-0.6819330941849318,-0.42587978677849014,-0.552477240562439,0.48133331537246704,-0.6805050373077393
1732227175295,SW,4.060007450435054,1.0s : 0.3s,-7.505840593786175,0.4543766790982824,2.5605371673950432,0.8205049605340573,0.403285950422287,-2.3403332233428955,-2.785311460494995,0.7994361519813538,0.16481304168701172,0.08346790075302124,-0.47975321237466645,-0.7149509437245872,-0.44665040600567135,-0.5815711617469788,0.4615602493286133,-0.6698784232139587
1732227175305,SW,4.060007450435054,1.0s : 0.3s,-7.505840593786175,0.4602454347871704,2.4977496657129956,0.8705648866680933,0.1002092957496643,-2.3539063930511475,-2.678947925567627,0.8558802008628845,0.09990555047988892,0.1239805817604065,-0.45964253025792334,-0.7478968573313436,-0.46757487376167245,-0.6095117926597595,0.4436277747154236,-0.6570310592651367
1732227175315,SW,4.060007450435054,1.0s : 0.3s,-7.505840593786175,0.46606423213330456,2.437428531285021,0.9022906206293039,-0.07935034483671188,-2.3489739894866943,-2.5660207271575928,0.8896037340164185,0.0705864429473877,0.13323330879211426,-0.4414792186236047,-0.780594715500161,-0.48860620635552904,-0.636231541633606,0.4272773265838623,-0.6423733234405518
1732227175325,SW,4.060007450435054,1.0s : 0.3s,-7.505840593786175,0.4718481697623216,2.3716275786599677,0.9539327469600767,-0.1991724967956543,-2.274092197418213,-2.4501001834869385,0.9382725954055786,0.028372973203659058,0.169785737991333,-0.42454271398600973,-0.8122981968287152,-0.5090239849994017,-0.6614323258399963,0.41190412640571594,-0.6267712712287903
1732227175335,SW,4.060007450435054,1.0s : 0.3s,-7.505840593786175,0.4774543409437123,2.2978416429019886,0.9869810049962937,-0.24584944546222687,-2.1669998168945312,-2.33431077003479,0.9549568295478821,-0.04737439751625061,0.24483591318130493,-0.4084942164275325,-0.8424560402415442,-0.5286230930160297,-0.6848762631416321,0.3972278833389282,-0.6108637452125549
1732227175345,SW,4.060007450435054,1.0s : 0.3s,-7.505840593786175,0.48274275069970946,2.2094778975367566,0.9958398761637017,-0.2279580682516098,-2.0091159343719482,-2.2129805088043213,0.9486522078514099,-0.13247698545455933,0.272407591342926,-0.39287201395247057,-0.8704375976584603,-0.546760497665994,-0.7063578963279724,0.3828431963920593,-0.5953903198242188
1732227175355,SW,4.060007450435054,1.0s : 0.3s,-7.505840593786175,0.4875991847969303,2.1016259072201686,1.020464272608777,-0.15306837856769562,-1.8308066129684448,-2.059502363204956,0.9463670253753662,-0.22830238938331604,0.3059653639793396,-0.37757562026253977,-0.8957085852134449,-0.5630025817565002,-0.7256638407707214,0.36866796016693115,-0.5809439420700073
1732227175365,SW,4.060007450435054,1.0s : 0.3s,-7.505840593786175,0.4918902914931124,1.9707474778375338,1.06205288479412,-0.02207147516310215,-1.6359721422195435,-1.8659299612045288,0.944953978061676,-0.3487990200519562,0.3366861343383789,-0.3626792375916322,-0.9180553065991803,-0.5767392690598572,-0.742744505405426,0.3547804653644562,-0.5678567886352539
1732227175375,SW,4.060007450435054,1.0s : 0.3s,-7.505840593786175,0.4954192120019437,1.8277364748945275,1.1316306079239955,0.07431764155626297,-1.446760654449463,-1.6931674480438232,0.9277278780937195,-0.4972759187221527,0.41548222303390503,-0.34826771368341347,-0.9373001520717444,-0.5878467429279498,-0.757577121257782,0.3412700295448303,-0.5564276576042175
1732227175385,SW,4.060007450435054,1.0s : 0.3s,-7.505840593786175,0.4980412776419831,1.677876034168339,1.2145264726179839,0.17707251012325287,-1.2619963884353638,-1.5232120752334595,0.9003439545631409,-0.6494107246398926,0.4926672577857971,-0.33449219963876536,-0.9538268195560161,-0.5967674113733904,-0.7704307436943054,0.32828956842422485,-0.5465002655982971
1732227175395,SW,4.060007450435054,1.0s : 0.3s,-7.505840593786175,0.4998090910375904,1.5162884349445143,1.294769489206635,0.2767692804336548,-1.0612728595733643,-1.3142378330230713,0.8886956572532654,-0.7665143013000488,0.5469039082527161,-0.3215250247876564,-0.9675620849052323,-0.6033796720798085,-0.7813042402267456,0.31601381301879883,-0.5382368564605713
1732227175405,SW,4.060007450435054,1.0s : 0.3s,-7.505840593786175,0.5007837323354261,1.3463741355479817,1.3886696591640575,0.3432377874851227,-0.8793591260910034,-1.082031488418579,0.8790096044540405,-0.8842766880989075,0.611392080783844,-0.30988199327325205,-0.9786120691296437,-0.6077564420420274,-0.7902034521102905,0.30494624376296997,-0.531588613986969
1732227175415,SW,4.060007450435054,1.0s : 0.3s,-7.505840593786175,0.5010156299965813,1.1637542923960684,1.489532947031925,0.3392459750175476,-0.6792260408401489,-0.823519229888916,0.8660944700241089,-1.0076465606689453,0.673228919506073,-0.3000145697476985,-0.987150738699301,-0.6102633068716654,-0.7971857190132141,0.2955341339111328,-0.5264545679092407
1732227175425,SW,4.060007450435054,1.0s : 0.3s,-7.505840593786175,0.5007207708662306,0.9710043761306997,1.5655885771777267,0.3522033095359802,-0.4965441823005676,-0.5356831550598145,0.8585851192474365,-1.0744874477386475,0.7479143738746643,-0.2924602150215531,-0.9932885676838631,-0.6112046717404285,-0.8022496104240417,0.2883088290691376,-0.5227556824684143
1732227175435,SW,4.060007450435054,1.0s : 0.3s,-7.505840593786175,0.5001328042972667,0.7708792463874964,1.6234277173243796,0.36239442229270935,-0.3017832040786743,-0.24347342550754547,0.863638699054718,-1.1307703256607056,0.7816675901412964,-0.2872622200900281,-0.9969892784413091,-0.6102331676794781,-0.8054264187812805,0.28332769870758057,-0.5205896496772766
1732227175445,SW,4.060007450435054,1.0s : 0.3s,-7.505840593786175,0.4994489950646093,0.5658318940473854,1.7202595685879414,0.33716416358947754,-0.11542025953531265,0.07215596735477448,0.87916499376297,-1.1934516429901123,0.8729462027549744,-0.2846678983730853,-0.9982571015987584,-0.6076762593828402,-0.8067009449005127,0.2808387279510498,-0.5199646353721619
1732227175455,SW,4.060007450435054,1.0s : 0.3s,-7.505840593786175,0.49893585158280174,0.36667202978200086,1.7857869564579074,0.3439938426017761,0.08480870723724365,0.4404037594795227,0.9062816500663757,-1.2276328802108765,0.9276885986328125,-0.2850034310465261,-0.9971226694764123,-0.6032548053839528,-0.806031346321106,0.28116074204444885,-0.5208282470703125
1732227175465,SW,4.060007450435054,1.0s : 0.3s,-7.505840593786175,0.4987524078400429,0.245766722821267,1.840307258221987,0.3413545489311218,0.3209823966026306,0.8126866817474365,0.9233800768852234,-1.2734874486923218,0.9551595449447632,-0.28839379788357344,-0.9932438274173241,-0.596675333369911,-0.8032018542289734,0.2844127118587494,-0.5234273672103882
1732227175475,SW,4.060007450435054,1.0s : 0.3s,-7.505840593786175,0.49906121951565496,0.3520070650588702,1.937333946343189,0.3353206217288971,0.586132824420929,1.199573040008545,0.9607999920845032,-1.3355969190597534,1.0228915214538574,-0.2949322734706157,-0.9862009425155881,-0.5879554586796282,-0.7979276180267334,0.2906750440597534,-0.5280336141586304
1732227175485,SW,4.060007450435054,1.0s : 0.3s,-7.505840593786175,0.500148315400335,0.5953286379120493,2.0503809681093195,0.3075923025608063,0.8642588257789612,1.617891550064087,1.0505847930908203,-1.4009724855422974,1.0665879249572754,-0.30485788210413767,-0.9757152420892913,-0.5769860498527393,-0.7899188995361328,0.3001576066017151,-0.5347275137901306
1732227175495,SW,4.060007450435054,1.0s : 0.3s,-7.505840593786175,0.5023889188251814,0.8845533616502118,2.154483400073821,0.3255497217178345,1.164756417274475,2.0312533378601074,1.1745736598968506,-1.4445664882659912,1.0841600894927979,-0.3181146803032326,-0.9614283909334702,-0.5634050229102903,-0.7788674235343933,0.3127763867378235,-0.5436326861381531
1732227175505,SW,4.060007450435054,1.0s : 0.3s,-7.505840593786175,0.5061971969627741,1.1993263160112653,2.242303153083591,0.3542109429836273,1.4957754611968994,2.4580581188201904,1.3211097717285156,-1.4537503719329834,1.0812965631484985,-0.334430886803581,-0.9427786938370101,-0.5467461668715585,-0.7643622756004333,0.3282316327095032,-0.5549903512001038
1732227175515,SW,4.060007450435054,1.0s : 0.3s,-7.505840593786175,0.5119002939950813,1.540613038577978,2.3220765527733,0.5068804025650024,1.8525844812393188,2.9115118980407715,1.4647729396820068,-1.4433784484863281,1.0784889459609985,-0.3534311689321091,-0.9191034864732908,-0.526127095061057,-0.7459161281585693,0.3461189270019531,-0.569043755531311
1732227175525,SW,4.060007450435054,1.0s : 0.3s,-7.505840593786175,0.5197163107453056,1.9019047977419745,2.4281149023368545,0.6417496204376221,2.2377004623413086,3.3676247596740723,1.625514268875122,-1.4640203714370728,1.0536079406738281,-0.37452458674902817,-0.8895479212466826,-0.5005302672036542,-0.7229415774345398,0.36583012342453003,-0.5861091613769531
1732227175535,SW,4.060007450435054,1.0s : 0.3s,-7.505840593786175,0.5299238743245656,2.2937816496245826,2.5953595954501565,0.8135578632354736,2.6666219234466553,3.8870849609375,1.8220205307006836,-1.4974879026412964,1.0833570957183838,-0.3976064961068306,-0.8533138134026038,-0.4693714245176296,-0.6946859955787659,0.3872126638889313,-0.6061994433403015
1732227175545,SW,4.060007450435054,1.0s : 0.3s,-7.505840593786175,0.5428462158799184,2.7173588895242955,2.811734343649118,0.9871795177459717,3.118135452270508,4.452118396759033,2.072490930557251,-1.5602232217788696,1.0845897197723389,-0.4223039886225324,-0.8092719414923917,-0.431446485841305,-0.6601983308792114,0.40986311435699463,-0.6294047832489014
1732227175555,SW,4.060007450435054,1.0s : 0.3s,-7.505840593786175,0.5588992514938103,3.1643393002913998,3.1109754252609707,1.0771687030792236,3.59969162940979,5.02114725112915,2.371417284011841,-1.6525673866271973,1.1504647731781006,-0.44840360741887714,-0.7567224051667649,-0.38639840502717737,-0.6186707019805908,0.43352749943733215,-0.6552101969718933
1732227175565,SW,4.060007450435054,1.0s : 0.3s,-7.505840593786175,0.578613796522806,3.633202828023359,3.4339922689264983,1.1145392656326294,4.115271091461182,5.610309600830078,2.7153759002685547,-1.7013351917266846,1.2347044944763184,-0.4754559957952752,-0.6947213613467559,-0.3338840603052465,-0.5691661834716797,0.45774391293525696,-0.6830229163169861
1732227175575,SW,4.060007450435054,1.0s : 0.3s,-7.505840593786175,0.6026740781431372,4.129970957940488,3.8172653890061827,1.1016061305999756,4.691762924194336,6.241238594055176,3.142117500305176,-1.711335301399231,1.3303924798965454,-0.5029136694915648,-0.6221395594062572,-0.27305038110218155,-0.5106170773506165,0.48198047280311584,-0.7120147347450256
1732227175585,SW,4.060007450435054,1.0s : 0.3s,-7.505840593786175,0.6317656604814825,4.6702620608567305,4.291922688200287,1.047717809677124,5.38686466217041,6.936706066131592,3.6164417266845703,-1.7390490770339966,1.522385597229004,-0.5300120558523426,-0.5372301429822322,-0.20298695115642965,-0.4415455460548401,0.5055437684059143,-0.7412577271461487
1732227175595,SW,4.060007450435054,1.0s : 0.3s,-7.505840593786175,0.6668720683233226,5.29046180186963,4.88447510474632,1.0054707527160645,6.280062198638916,7.781871318817139,4.238933563232422,-1.7082841396331787,1.7237472534179688,-0.5552936246875593,-0.43691891875677025,-0.1215104203068764,-0.3595697283744812,0.5271928310394287,-0.769920289516449
1732227175605,SW,4.060007450435054,1.0s : 0.3s,-7.505840593786175,0.7095722122136506,6.011782593682689,5.741048724862143,0.8314880132675171,7.330690860748291,8.79836368560791,5.117204189300537,-1.6298422813415527,2.029156446456909,-0.5772305937943171,-0.31767671589902124,-0.026273947451745067,-0.26175084710121155,0.5457053184509277,-0.7960478067398071
1732227175615,SW,4.060007450435054,1.0s : 0.3s,-7.505840593786175,0.7613913337048208,6.802517499660125,6.788243004450827,0.5561286211013794,8.312187194824219,9.85623550415039,6.164410591125488,-1.665576696395874,2.3035058975219727,-0.5931904269749717,-0.17808033155893294,0.08445224328542009,-0.14687813818454742,0.5590092539787292,-0.8160486817359924
1732227175625,SW,4.060007450435054,1.0s : 0.3s,-7.505840593786175,0.8229130472050318,7.551736519055509,7.709404116278325,-0.03346181660890579,8.897226333618164,10.666153907775879,7.18616247177124,-1.7252542972564697,2.194875478744507,-0.6008849446187707,-0.021984981569950792,0.20836900559772592,-0.018132535740733147,0.56537264585495,-0.8246362805366516
1732227175635,SW,4.060007450435054,1.0s : 0.3s,-7.505840593786175,0.8948740302268472,8.188741861367223,8.651567387743423,-0.5555881261825562,9.159753799438477,11.167438507080078,8.321271896362305,-1.2245193719863892,2.0264759063720703,-0.5972237041106568,0.14318834202459485,0.3409616409945434,0.11799826472997665,0.5623489022254944,-0.8184376358985901
1732227175645,SW,4.060007450435054,1.0s : 0.3s,-7.505840593786175,0.9775446288142139,8.686113115005629,9.585034751477188,-1.0826584100723267,9.378265380859375,11.2869873046875,9.372243881225586,-0.118846595287323,2.004946708679199,-0.579697819107951,0.31039267308534657,0.47477422918734985,0.25553351640701294,0.547771155834198,-0.7966488599777222
1732227175655,SW,4.060007450435054,1.0s : 0.3s,-7.505840593786175,1.0700283691925807,9.05385608328364,10.369878202029568,-2.260124444961548,9.441629409790039,11.260893821716309,10.134933471679688,1.0116627216339111,1.9478285312652588,-0.5511966783361626,0.4749349238244694,0.6057152989093101,0.3895566165447235,0.5237070322036743,-0.757612407207489
1732227175665,SW,4.060007450435054,1.0s : 0.3s,-7.505840593786175,1.1713195158291783,9.309550339796548,11.151856580235059,-4.8559651374816895,8.93669605255127,11.200641632080078,10.852596282958984,2.02024245262146,1.5823019742965698,-0.5215102313720675,0.6346374045750949,0.7377403587691417,0.5140720009803772,0.49819016456604004,-0.6982382535934448
1732227175675,SW,4.060007450435054,1.0s : 0.3s,-7.505840593786175,1.2814032633791257,9.650738453237313,12.267171709978994,-8.924166679382324,7.901987552642822,11.519790649414062,11.717375755310059,3.4270782470703125,1.2007255554199219,-0.49819895916193724,0.7926241023878081,0.8875330861719443,0.6256263256072998,0.4778442084789276,-0.6166495680809021
1732227175685,SW,4.060007450435054,1.0s : 0.3s,-7.505840593786175,1.3993518754512493,10.324153317706585,13.344892622155076,-13.429240226745605,6.585524082183838,12.137598037719727,12.110790252685547,5.507565498352051,1.0400196313858032,-0.4802586463977072,0.9510575019307899,1.0709516304612352,0.7219434380531311,0.4620085656642914,-0.5151172876358032
1732227175695,SW,4.060007450435054,1.0s : 0.3s,-7.505840593786175,1.5224369157552968,11.288455395528798,14.327851496628977,-16.179920196533203,5.51291036605835,12.84153938293457,11.700597763061523,8.241762161254883,0.6757935881614685,-0.4491190388053469,1.1088382152763552,1.2867004734848173,0.8064063191413879,0.4341720938682556,-0.4015015661716461
1732227175705,SW,4.060007450435054,1.0s : 0.3s,-7.505840593786175,1.646103328507166,11.967339313280414,15.094686475638447,-16.813100814819336,2.976649045944214,12.519275665283203,10.07668399810791,11.223212242126465,0.5911906361579895,-0.3946651301600447,1.2427816662676032,1.5068644725876121,0.8739078640937805,0.38449907302856445,-0.2973979413509369
1732227175715,SW,4.060007450435054,1.0s : 0.3s,-7.505840593786175,1.765966457265416,12.57924500991047,15.436425758254035,-18.2819881439209,0.4218970835208893,12.049786567687988,7.585222244262695,13.369508743286133,1.4155845642089844,-0.3247525361252771,1.3348727509232745,1.7218925061138042,0.9214765429496765,0.31907427310943604,-0.22152337431907654
1732227175725,SW,4.060007450435054,1.0s : 0.3s,-7.505840593786175,1.877707685673467,13.138823029467721,13.916734331763887,-18.94160270690918,-1.8386988639831543,11.860669136047363,4.839587211608887,12.763296127319336,2.711487054824829,-0.24662768497545223,1.3886662590680359,1.9405948423913557,0.9537017345428467,0.2441350817680359,-0.175644189119339
1732227175735,SW,4.060007450435054,1.0s : 0.3s,-7.505840593786175,1.9787872628369598,13.335795343187966,12.79399661094218,-17.59983253479004,-3.0530405044555664,11.309370994567871,2.582396984100342,12.123541831970215,3.1681711673736572,-0.16277505017194435,1.405574971768334,2.1431197239620157,0.9733433127403259,0.16205719113349915,-0.1622965931892395
1732227175745,SW,4.060007450435054,1.0s : 0.3s,-7.505840593786175,2.067352232949407,13.874948031828213,11.41753684707727,-20.178495407104492,-4.002397537231445,10.476763725280762,0.569494903087616,10.741388320922852,3.8286290168762207,-0.08699940361984321,1.3947101036761553,2.346051657015861,0.9808133244514465,0.08688969910144806,-0.17451514303684235
1732227175755,SW,4.060007450435054,1.0s : 0.3s,-7.505840593786175,2.138222392816713,13.747244223409105,5.881696941617055,-15.534677505493164,-7.499574661254883,11.783254623413086,-0.39400744438171387,5.717349529266357,1.3232654333114624,-0.023283797645248988,1.3614423926699226,2.594554843942205,0.9779002666473389,0.02328169345855713,-0.2077716439962387
1732227175765,SW,4.060007450435054,1.0s : 0.3s,-7.505840593786175,2.178465824478177,15.846540302545783,7.02370772504485,-33.0997200012207,3.193063735961914,4.471921920776367,-0.6131622791290283,-6.759764194488525,-1.8061257600784302,0.023486981967828596,1.31688220121296,2.7323885357783224,0.9676697254180908,-0.02348482236266136,-0.2511252462863922
1732227175775,SW,4.060007450435054,1.0s : 0.3s,-7.505840593786175,2.2386871487071995,15.787997482437463,19.096830058586377,-22.74500274658203,-13.370757102966309,1.37263023853302,3.343045234680176,5.624091625213623,17.941085815429688,-0.04693069986859543,1.2898479355809758,3.1017255819922918,0.9597350358963013,0.046913474798202515,-0.27696171402931213
1732227175785,SW,4.060007450435054,1.0s : 0.3s,-7.505840593786175,2.3165715781032463,17.390472678552204,15.94106460119726,-30.085552215576172,-9.731023788452148,4.115964889526367,10.034053802490234,9.359418869018555,-8.113974571228027,-0.07941587612658407,1.1948229627752744,-2.9819015671695026,0.927219033241272,0.07933242619037628,-0.3660208284854889
1732227175795,SW,4.060007450435054,1.0s : 0.3s,-7.505840593786175,2.3764268363921337,16.40489717239049,10.241361263455568,-21.284852981567383,-5.683161735534668,-3.6151137351989746,-2.5414562225341797,3.050787925720215,9.440295219421387,-0.1835634784921418,1.152017033415361,-2.722126931808775,0.8982373476028442,0.1825343370437622,-0.3998136818408966
1732227175805,SW,4.060007450435054,1.0s : 0.3s,-7.505840593786175,2.419819183735154,14.626390219080422,7.535340010947875,-14.414613723754883,-7.989421367645264,-5.235954761505127,-2.7594268321990967,6.964573860168457,-0.8134024739265442,-0.2902152757318894,1.1046923239597528,-2.578466752839227,0.8559691309928894,0.2861585021018982,-0.4306160509586334
1732227175815,SW,4.060007450435054,1.0s : 0.3s,-7.505840593786175,2.47182878162092,12.497589012714863,10.382531786450889,-9.014439582824707,-7.887117385864258,-4.639726161956787,2.7395334243774414,9.89694595336914,-1.5304847955703735,-0.3821556302013828,1.0519963758533792,-2.494285187523914,0.8057699203491211,0.3729214668273926,-0.46007001399993896
1732227175825,SW,4.060007450435054,1.0s : 0.3s,-7.505840593786175,2.513856443942629,11.546719240846462,2.9092886003835603,-10.072957992553711,-9.885795593261719,-6.429477214813232,2.434587001800537,-0.5522709488868713,-1.4939019680023193,-0.47305344364881874,0.9827314109824608,-2.4459595735629707,0.7406448125839233,0.45560652017593384,-0.4938298761844635
1732227175835,SW,4.060007450435054,1.0s : 0.3s,-7.505840593786175,2.5519505126576427,11.43280941338891,3.9258303405567436,-11.457376480102539,-11.055550575256348,-7.5298333168029785,3.6732230186462402,-1.38374662399292,0.06943917274475098,-0.5978165095969528,0.9070682784450651,-2.385857486246647,0.6510872840881348,0.5628390312194824,-0.5092126727104187
