timestamp,club,max_speed,tempo,w.rotation,l.speed,t.spped,acc,rotation.x,rotation.y,rotation.z,userAcceleration.x,userAcceleration.y,userAcceleration.z,pitch,roll,yaw,gravity.x,gravity.y,gravity.z
1732227407348,SW,3.867814087711243,1.0s : 0.3s,-2.227472456340692,0.00016153581822329227,0.047424096297963736,0.05918111436129644,-0.0269198939204216,-0.011275436729192734,0.0070462399162352085,0.019691526889801025,0.024815499782562256,-0.049988389015197754,-0.21924631544202247,1.5754087035813185,2.9233472410290307,0.9760512113571167,0.21749404072761536,0.004501948133111
1732227407358,SW,3.867814087711243,1.0s : 0.3s,-2.227472456340692,0.00033954810375217396,0.029434616052212894,0.06587408638803924,0.004987971857190132,-0.021944059059023857,0.005590556189417839,0.013766288757324219,0.03366534411907196,-0.05492293834686279,-0.2189495584325002,1.5751017814129653,2.923433890785755,0.9761170148849487,0.21720437705516815,0.0042026531882584095
1732227407368,SW,3.867814087711243,1.0s : 0.3s,-2.227472456340692,0.000661280613398918,0.024123671333840593,0.06560575040824831,0.025875810533761978,-0.03279506415128708,0.0036707166582345963,0.008882999420166016,0.03265786170959473,-0.056202054023742676,-0.21874676405409604,1.5745206073235156,2.923218869890629,0.9761632680892944,0.21700641512870789,0.0036355226766318083
1732227407378,SW,3.867814087711243,1.0s : 0.3s,-2.227472456340692,0.0010455373754687431,0.012015446539067267,0.056199146044413895,0.07663672417402267,-0.054671067744493484,-0.0018143299967050552,0.008964717388153076,0.02901214361190796,-0.047289252281188965,-0.2185737145838776,1.5736590749504276,2.922653801686878,0.9762038588523865,0.21683749556541443,0.002794633386656642
1732227407388,SW,3.867814087711243,1.0s : 0.3s,-2.227472456340692,0.0014596700012516493,0.03527324815964994,0.053329986720774256,0.14034020900726318,-0.05574773997068405,-0.0037124650552868843,0.01333397626876831,0.03194437921047211,-0.04056906700134277,-0.2185398260194676,1.572448956944778,2.9214592738471667,0.9762137532234192,0.2168044149875641,0.001613321714103222
1732227407398,SW,3.867814087711243,1.0s : 0.3s,-2.227472456340692,0.0018912887588692596,0.06721479957201004,0.05058452011882834,0.1980823278427124,-0.07743066549301147,-0.007102934643626213,0.008461833000183105,0.033088281750679016,-0.03731429576873779,-0.21866536143143306,1.570849947595259,2.91960824314269,0.9761877059936523,0.2169269621372223,5.2343966672196984e-05
1732227407408,SW,3.867814087711243,1.0s : 0.3s,-2.227472456340692,0.0023426636462991896,0.09752361424319196,0.05797692508982269,0.23293724656105042,-0.0917690321803093,-0.015341158024966717,0.0013275146484375,0.039366111159324646,-0.04254257678985596,-0.21883068966913014,1.5690622928937907,2.9172754489936756,0.9761504530906677,0.21708834171295166,-0.0016926797106862068
1732227407418,SW,3.867814087711243,1.0s : 0.3s,-2.227472456340692,0.002807616281645174,0.11977115448192083,0.05754731894862297,0.23761242628097534,-0.0941280648112297,-0.012960557825863361,-0.0045552849769592285,0.027279555797576904,-0.050465524196624756,-0.21905121533983668,1.5671587295079454,2.9147535657732413,0.9760977029800415,0.21730360388755798,-0.0035506661515682936
1732227407428,SW,3.867814087711243,1.0s : 0.3s,-2.227472456340692,0.0032648451054241973,0.1342559255617107,0.036764054854100545,0.23266227543354034,-0.09277788549661636,-0.006610749755054712,-0.003007352352142334,0.017662614583969116,-0.03210270404815674,-0.21932095814761646,1.5651507988190325,2.912207122093911,0.9760299324989319,0.21756689250469208,-0.005510262679308653
1732227407438,SW,3.867814087711243,1.0s : 0.3s,-2.227472456340692,0.003709646543934384,0.13495552519507725,0.029418094571640803,0.18932412564754486,-0.09349267929792404,-0.004408315289765596,0.004486560821533203,0.013583868741989136,-0.02570551633834839,-0.21962273494938317,1.5632078691340952,2.9098967610157014,0.975951611995697,0.21786142885684967,-0.007406109943985939
1732227407448,SW,3.867814087711243,1.0s : 0.3s,-2.227472456340692,0.004132966305639054,0.13405248657673272,0.02481023391792102,0.15922561287879944,-0.10487573593854904,-0.01044483669102192,0.004216790199279785,0.0005951374769210815,-0.024442017078399658,-0.21992342815540633,1.5613340948511003,2.908031412780111,0.9758705496788025,0.2181548923254013,-0.009234189055860043
1732227407458,SW,3.867814087711243,1.0s : 0.3s,-2.227472456340692,0.00451859669366138,0.1330013491755478,0.016023832986535102,0.15577201545238495,-0.10261578112840652,-0.008865848183631897,0.007008612155914307,-0.004105240106582642,-0.013812660239636898,-0.22018984899267224,1.5595883531786117,2.906354339686712,0.9757946133613586,0.21841488778591156,-0.010937138460576534
1732227407468,SW,3.867814087711243,1.0s : 0.3s,-2.227472456340692,0.004888359387879867,0.13468426491330068,0.019957479631640344,0.18710796535015106,-0.11448872834444046,-0.021780945360660553,0.008182346820831299,0.010886594653129578,-0.014588771387934685,-0.2205103397159451,1.5578651687013465,2.9045707504322573,0.9757042527198792,0.21872763335704803,-0.012617688626050949
1732227407478,SW,3.867814087711243,1.0s : 0.3s,-2.227472456340692,0.005253783116646595,0.1523487318509669,0.031279128551395106,0.25890520215034485,-0.1238449439406395,-0.031055938452482224,-0.0025511980056762695,0.023436948657035828,-0.020556865260004997,-0.22098729690034657,1.5559262882696965,2.9022459111597514,0.9755735397338867,0.2191930115222931,-0.014507885091006756
1732227407488,SW,3.867814087711243,1.0s : 0.3s,-2.227472456340692,0.005621962601196819,0.203046217606586,0.05482230987392905,0.3546614348888397,-0.31414851546287537,0.22253575921058655,-0.02847689390182495,0.040755897760391235,-0.02309781312942505,-0.22108093591859937,1.5534159151441043,2.8989950910046445,0.9755136370658875,0.21928437054157257,-0.01695653609931469
1732227407498,SW,3.867814087711243,1.0s : 0.3s,-2.227472456340692,0.0060566474411724,0.3175914576289688,0.06447909975531,0.27084270119667053,-0.6237029433250427,0.7425531148910522,0.02962493896484375,0.044932663440704346,-0.03551018238067627,-0.22225830723603582,1.5510558504669618,2.8945863161135246,0.9752120971679688,0.22043293714523315,-0.019253652542829514
1732227407508,SW,3.867814087711243,1.0s : 0.3s,-2.227472456340692,0.006549967770247747,0.34141945106460897,0.14530269667709603,0.2830439805984497,-0.3915606737136841,0.3432348668575287,0.13963192701339722,0.03942522406578064,0.007839025929570198,-0.2225232269950037,1.549099702819178,2.891047520958268,0.975114107131958,0.22069133818149567,-0.021160004660487175
1732227407518,SW,3.867814087711243,1.0s : 0.3s,-2.227472456340692,0.007059506574801945,0.29919575053742803,0.06400914226816956,0.39411109685897827,-0.12582248449325562,-0.03863685950636864,0.036986708641052246,0.051541030406951904,0.00852501392364502,-0.2226480616658147,1.5468775985932885,2.88726417622155,0.975037157535553,0.2208130955696106,-0.023326097056269646
1732227407528,SW,3.867814087711243,1.0s : 0.3s,-2.227472456340692,0.007567809634713533,0.2779900800726533,0.05347814646196087,0.3818662762641907,-0.11294693499803543,-0.01762055605649948,-0.029755771160125732,0.03677383065223694,-0.024943768978118896,-0.22269159741284925,1.5447867036710483,2.883326991899707,0.9749767184257507,0.22085554897785187,-0.025364497676491737
1732227407538,SW,3.867814087711243,1.0s : 0.3s,-2.227472456340692,0.007946627954330546,0.2595724295084747,0.01052419402121389,0.3306824266910553,-0.11566255986690521,-0.03240589424967766,0.009739875793457031,0.0034402310848236084,0.0020145196467638016,-0.2229036072813109,1.5428643874864403,2.8797063175604007,0.9748792052268982,0.2210623174905777,-0.02723735012114048
1732227407548,SW,3.867814087711243,1.0s : 0.3s,-2.227472456340692,0.008275011251125024,0.2522293604678969,0.021535314040108326,0.3322984576225281,-0.11911233514547348,-0.020405955612659454,-0.016332149505615234,-0.014029830694198608,0.00044101476669311523,-0.2230274895482635,1.5409402089978779,2.8763242311709796,0.9747977256774902,0.22118313610553741,-0.029112325981259346
1732227407558,SW,3.867814087711243,1.0s : 0.3s,-2.227472456340692,0.008555728321412204,0.2575712092240361,0.005878075770840636,0.397386372089386,-0.11696982383728027,-0.031968604773283005,-0.00040072202682495117,0.0003895610570907593,-0.005851447582244873,-0.2231684918901992,1.5388945344271983,2.8725952281766953,0.974704921245575,0.22132064402103424,-0.031105386093258858
1732227407568,SW,3.867814087711243,1.0s : 0.3s,-2.227472456340692,0.008822588347603967,0.26938175543154014,0.020032182353644377,0.4357703924179077,-0.10896191000938416,-0.02840559184551239,-0.009777247905731201,0.011356428265571594,-0.013293806463479996,-0.22331363766817938,1.536807245540181,2.8682848295390695,0.9746058583259583,0.2214621901512146,-0.03313871845602989
1732227407578,SW,3.867814087711243,1.0s : 0.3s,-2.227472456340692,0.00906602348198068,0.2789291472698589,0.018812294275595783,0.4420804977416992,-0.09680192172527313,-0.024159181863069534,-0.015488266944885254,0.005340501666069031,-0.009246353060007095,-0.2233959469507624,1.5347828176909073,2.863758104077414,0.9745184779167175,0.22154244780540466,-0.03511101007461548
1732227407588,SW,3.867814087711243,1.0s : 0.3s,-2.227472456340692,0.009275309852195442,0.285188547264268,0.014115732783573927,0.44146037101745605,-0.09700498729944229,-0.019151674583554268,-0.010877072811126709,-0.008734628558158875,-0.0021562613546848297,-0.22343392992510147,1.5328149351854168,2.859226772604974,0.9744391441345215,0.22157949209213257,-0.03702836111187935
1732227407598,SW,3.867814087711243,1.0s : 0.3s,-2.227472456340692,0.009455839339563408,0.2899045599847656,0.01275252985122074,0.443933367729187,-0.10756202042102814,-0.019503477960824966,-0.000376284122467041,-0.012660294771194458,-0.0014840364456176758,-0.2234381795722201,1.5307626334231554,2.8546981885133786,0.9743600487709045,0.22158363461494446,-0.03902808204293251
1732227407608,SW,3.867814087711243,1.0s : 0.3s,-2.227472456340692,0.009609451238438501,0.2979013212979096,0.012002339803710741,0.46157535910606384,-0.09875987470149994,-0.02136446163058281,0.0003647804260253906,-0.011935234069824219,0.0012137889862060547,-0.2234457259806261,1.52868268838138,2.8500421670342586,0.9742751121520996,0.22159099578857422,-0.04105454310774803
1732227407618,SW,3.867814087711243,1.0s : 0.3s,-2.227472456340692,0.009741496197775822,0.301202807257908,0.008023565690916433,0.46150851249694824,-0.09647221863269806,-0.018257353454828262,-0.004651129245758057,0.0008564889430999756,0.006481591612100601,-0.22342508352780088,1.5266588717457654,2.8452861764737816,0.9741945266723633,0.22157086431980133,-0.043026410043239594
1732227407628,SW,3.867814087711243,1.0s : 0.3s,-2.227472456340692,0.009857572117145077,0.3021868643308744,0.010495002320109715,0.4542359411716461,-0.09244197607040405,-0.019191857427358627,-0.00567173957824707,0.006299108266830444,0.006188511848449707,-0.2233830395532589,1.5246732549502038,2.8405753087504646,0.9741165637969971,0.22152987122535706,-0.04496113583445549
1732227407638,SW,3.867814087711243,1.0s : 0.3s,-2.227472456340692,0.009926560179645091,0.31407513815731974,0.0342776263245614,0.44328927993774414,-0.27873140573501587,0.1441051959991455,-0.03227740526199341,0.0024267733097076416,0.011279873549938202,-0.2230196953682399,1.5224736996078316,2.835872215064842,0.9740957617759705,0.22117553651332855,-0.04710754007101059
1732227407648,SW,3.867814087711243,1.0s : 0.3s,-2.227472456340692,0.009982832586089842,0.33382994879150824,0.00734024750775146,0.41287651658058167,-0.42294833064079285,0.15504305064678192,-0.006700336933135986,-0.0005126744508743286,0.0029532834887504578,-0.22415639320130243,1.5206543679507578,2.8305870750510094,0.9737566709518433,0.22228394448757172,-0.04886702820658684
1732227407658,SW,3.867814087711243,1.0s : 0.3s,-2.227472456340692,0.010156143483783648,0.3327358179615606,0.07727609198726212,0.4341975450515747,-0.20661497116088867,0.04119612276554108,0.07372075319290161,0.019284680485725403,0.012843132019042969,-0.22416512446825274,1.5187088820009598,2.825643515630801,0.9736577868461609,0.2222924530506134,-0.05076126009225845
1732227407668,SW,3.867814087711243,1.0s : 0.3s,-2.227472456340692,0.01042168265906501,0.34694763101825776,0.06914828488178336,0.5939621925354004,-0.07720966637134552,-0.027443725615739822,0.0322381854057312,0.05812281370162964,0.019076772034168243,-0.22434828722793898,1.5167236405839106,2.82006101742537,0.9735142588615417,0.22247102856636047,-0.05269189551472664
1732227407678,SW,3.867814087711243,1.0s : 0.3s,-2.227472456340692,0.010725498516979175,0.36603437993721577,0.06816641357997892,0.6265198588371277,-0.06412635743618011,-0.047799330204725266,-0.02564913034439087,0.060369282960891724,-0.018556177616119385,-0.2242821923948798,1.514660261650317,2.8137893370331963,0.9734182357788086,0.22240659594535828,-0.054701343178749084
1732227407688,SW,3.867814087711243,1.0s : 0.3s,-2.227472456340692,0.011018936061128604,0.3796938262218198,0.021823723153312345,0.6154538989067078,-0.06861857324838638,-0.06334786862134933,0.011340856552124023,0.01723828911781311,0.007106423377990723,-0.2245268622773956,1.5125748522412155,2.8074115736838543,0.9732477068901062,0.2226451188325882,-0.05672802776098251
1732227407698,SW,3.867814087711243,1.0s : 0.3s,-2.227472456340692,0.011268021141732755,0.39054927543223156,0.019586633218981478,0.6177817583084106,-0.07170917093753815,-0.020730629563331604,-0.016515254974365234,-0.007084071636199951,0.007790923118591309,-0.22463627158319813,1.5105058540179865,2.8010751189409606,0.9731040000915527,0.22275178134441376,-0.05874009057879448
1732227407708,SW,3.867814087711243,1.0s : 0.3s,-2.227472456340692,0.011498321061417134,0.4051930543648432,0.009063520413887399,0.6464782357215881,-0.10594460368156433,0.05275021493434906,-0.00518953800201416,0.002725452184677124,-0.006912887096405029,-0.22485733895956397,1.5084583084108896,2.7945625666828127,0.9729324579238892,0.22296729683876038,-0.06072936952114105
1732227407718,SW,3.867814087711243,1.0s : 0.3s,-2.227472456340692,0.011716069711015025,0.42068566565577853,0.008440820379953593,0.6613059043884277,-0.13318286836147308,0.14702877402305603,0.0002745985984802246,0.005408823490142822,-0.006474308669567108,-0.22512564790967554,1.5064351003457526,2.787704823563939,0.9727476835250854,0.2232288420200348,-0.06269382685422897
1732227407728,SW,3.867814087711243,1.0s : 0.3s,-2.227472456340692,0.011928863109247767,0.43188811245623904,0.0181301220610627,0.6309822201728821,-0.18843872845172882,0.24889326095581055,0.01647329330444336,0.0075581371784210205,0.0004544183611869812,-0.22522186354230705,1.504471491673581,2.780942607262147,0.9726015329360962,0.22332262992858887,-0.06460238993167877
1732227407738,SW,3.867814087711243,1.0s : 0.3s,-2.227472456340692,0.01213639423216921,0.45568331381092797,0.033089143038404024,0.6702931523323059,-0.24213896691799164,0.32254618406295776,0.03261220455169678,-0.005492717027664185,-0.0010796114802360535,-0.22533609505873375,1.5023756478352617,2.7741814688542976,0.972438395023346,0.2234339714050293,-0.06663891673088074
1732227407748,SW,3.867814087711243,1.0s : 0.3s,-2.227472456340692,0.012348695442976482,0.471142892323294,0.038012080779097554,0.6091352701187134,-0.2692837715148926,0.41472136974334717,0.03734326362609863,-0.0006641149520874023,-0.0070680901408195496,-0.22554826908320488,1.5003551092377458,2.76737414074209,0.9722543954849243,0.2236407846212387,-0.06860028952360153
1732227407758,SW,3.867814087711243,1.0s : 0.3s,-2.227472456340692,0.012607835919210927,0.500199686299738,0.05709513105406038,0.6325769424438477,-0.3136429786682129,0.5121094584465027,0.04585987329483032,0.028328359127044678,0.018821001052856445,-0.22564143271298778,1.4984282527575536,2.7606701466520285,0.9720996618270874,0.22373157739639282,-0.07047204673290253
1732227407768,SW,3.867814087711243,1.0s : 0.3s,-2.227472456340692,0.012994700482229426,0.5319194119071347,0.07133704431450832,0.6085065007209778,-0.36176520586013794,0.6015953421592712,0.06352490186691284,0.030243530869483948,-0.011785142123699188,-0.22568033382855798,1.496477998596922,2.7538657740271004,0.9719516634941101,0.22376950085163116,-0.0723671019077301
1732227407778,SW,3.867814087711243,1.0s : 0.3s,-2.227472456340692,0.013396056140861212,0.562898568578202,0.08003117049345435,0.5396986603736877,-0.4222634434700012,0.6999064683914185,0.07651865482330322,0.008106976747512817,0.022003650665283203,-0.2256606563291385,1.4946354121888994,2.7476500556604844,0.9718211889266968,0.22375032305717468,-0.07415822893381119
1732227407788,SW,3.867814087711243,1.0s : 0.3s,-2.227472456340692,0.013837494045260067,0.5981072868155575,0.09618669051865139,0.4833035469055176,-0.4815070629119873,0.7945279479026794,0.09436708688735962,-0.0015923380851745605,0.018552541732788086,-0.2255769693188135,1.4928181341757605,2.7420002232837675,0.9717034697532654,0.22366875410079956,-0.07592563331127167
1732227407798,SW,3.867814087711243,1.0s : 0.3s,-2.227472456340692,0.014354234067725976,0.6295235071278056,0.0983083743234294,0.452144980430603,-0.5002202391624451,0.8294909596443176,0.09825199842453003,0.0024621784687042236,0.002240300178527832,-0.22556574318791395,1.4910757537538188,2.736620315680103,0.9715721607208252,0.22365781664848328,-0.0776187926530838
1732227407808,SW,3.867814087711243,1.0s : 0.3s,-2.227472456340692,0.014896650365657913,0.6451988766400446,0.08077432015668563,0.412845641374588,-0.4920095205307007,0.8029060363769531,0.080130934715271,0.002332940697669983,0.00990360975265503,-0.2254635115890567,1.489534967567712,2.7318074652917126,0.971474289894104,0.22355817258358002,-0.0791175439953804
1732227407818,SW,3.867814087711243,1.0s : 0.3s,-2.227472456340692,0.015458083822225405,0.6495232686361715,0.07568251191437578,0.4052324593067169,-0.4760662317276001,0.7736597657203674,0.07436853647232056,0.002970561385154724,0.013723671436309814,-0.2252946444074421,1.4880404126489726,2.72708122102067,0.9713925719261169,0.22339357435703278,-0.08057250082492828
1732227407828,SW,3.867814087711243,1.0s : 0.3s,-2.227472456340692,0.016038771870240283,0.6491899432092463,0.07455612742701745,0.4116639792919159,-0.4641309976577759,0.7393211722373962,0.07432997226715088,0.0007489025592803955,0.0057541728019714355,-0.22505354495974841,1.486541572743251,2.722394738021324,0.9713243246078491,0.2231585532426834,-0.08203289657831192
1732227407838,SW,3.867814087711243,1.0s : 0.3s,-2.227472456340692,0.016638034928519986,0.6421548503250054,0.06658506453181558,0.4309801459312439,-0.4479254186153412,0.6914079785346985,0.06588202714920044,0.009610608220100403,0.0008749440312385559,-0.22485377255130182,1.4850179182305705,2.7176299635754018,0.9712424278259277,0.2229638248682022,-0.08351656794548035
1732227407848,SW,3.867814087711243,1.0s : 0.3s,-2.227472456340692,0.017263887948448797,0.6299107601498845,0.06784227247603383,0.4588432312011719,-0.41055476665496826,0.6517071723937988,0.061432480812072754,0.028217464685440063,-0.005692005157470703,-0.2246437660089391,1.4834882234577853,2.7124562914098798,0.9711602926254272,0.22275909781455994,-0.08500626683235168
1732227407858,SW,3.867814087711243,1.0s : 0.3s,-2.227472456340692,0.01790540216781245,0.612265945343899,0.06671457717066238,0.41933920979499817,-0.4047597348690033,0.620231032371521,0.06226712465286255,0.023296833038330078,0.0055585578083992004,-0.2244008051209431,1.4821996793230439,2.707622100726558,0.9711037874221802,0.22252222895622253,-0.08626236021518707
1732227407868,SW,3.867814087711243,1.0s : 0.3s,-2.227472456340692,0.018552840856143143,0.5894012079918995,0.06800870919133009,0.37746328115463257,-0.3897345960140228,0.5865354537963867,0.06548303365707397,0.01174461841583252,0.014114558696746826,-0.22415176271622816,1.4809048615164777,2.703007368994398,0.971046507358551,0.22227942943572998,-0.0875246673822403
1732227407878,SW,3.867814087711243,1.0s : 0.3s,-2.227472456340692,0.019202783006903954,0.5619257273272525,0.06438330851282245,0.3186678886413574,-0.3777117431163788,0.5548832416534424,0.06431978940963745,0.0026607513427734375,0.0010466650128364563,-0.2238593958774587,1.4796917903609148,2.6989302901569956,0.9710041284561157,0.22199437022209167,-0.08870844542980194
1732227407888,SW,3.867814087711243,1.0s : 0.3s,-2.227472456340692,0.019835589103364488,0.5317486015115933,0.06837032944481129,0.24829170107841492,-0.37414756417274475,0.5259969830513,0.06299227476119995,-0.019750162959098816,0.017787814140319824,-0.22354208503293532,1.4785646340946497,2.6956123880594975,0.9709737300872803,0.22168496251106262,-0.0898093581199646
1732227407898,SW,3.867814087711243,1.0s : 0.3s,-2.227472456340692,0.020450323440795982,0.5082747578932255,0.06270710284457776,0.293226420879364,-0.36473700404167175,0.48829755187034607,0.05745941400527954,-0.0186450332403183,0.016821391880512238,-0.22319116953653909,1.4773044140447213,2.6925031687796555,0.9709370732307434,0.2213427573442459,-0.09104017168283463
1732227407908,SW,3.867814087711243,1.0s : 0.3s,-2.227472456340692,0.02106085957837657,0.4785291587659137,0.049889654759366533,0.2375413179397583,-0.3250866234302521,0.4587518572807312,0.049292564392089844,0.0033724606037139893,-0.0069171711802482605,-0.2228322551555671,1.4761448801315817,2.6893345127720942,0.9709098935127258,0.22099272906780243,-0.09217344969511032
1732227407918,SW,3.867814087711243,1.0s : 0.3s,-2.227472456340692,0.021668211476988223,0.4534219069839912,0.05372593352394576,0.28942903876304626,-0.2996172308921814,0.4171551465988159,0.0410081148147583,0.029984593391418457,0.01748526841402054,-0.22242468112683234,1.4750026854690594,2.6861790234462846,0.9708936810493469,0.22059522569179535,-0.09329097718000412
1732227407928,SW,3.867814087711243,1.0s : 0.3s,-2.227472456340692,0.022281373528020586,0.4304252027008232,0.05472965296772071,0.30883800983428955,-0.2798389196395874,0.3806896209716797,0.04703402519226074,0.025582462549209595,-0.011343412101268768,-0.22201010793447148,1.473885135184491,2.6827405178015606,0.9708797335624695,0.2201908379793167,-0.09438477456569672
1732227407938,SW,3.867814087711243,1.0s : 0.3s,-2.227472456340692,0.022888868218746746,0.4071757854880979,0.04986293980065024,0.28568235039711,-0.27361220121383667,0.3490062952041626,0.04790639877319336,0.012907609343528748,0.004968233406543732,-0.2215980823775695,1.4727469258730892,2.679343821514798,0.9708618521690369,0.21978890895843506,-0.09549865126609802
1732227407948,SW,3.867814087711243,1.0s : 0.3s,-2.227472456340692,0.023481134418477576,0.3828227167084255,0.0453449707204811,0.26406919956207275,-0.25542041659355164,0.31927940249443054,0.04499197006225586,4.0143728256225586e-05,0.005646891891956329,-0.2211645566465587,1.4716017227119744,2.6762024339274504,0.9708465337753296,0.21936596930027008,-0.09661984443664551
1732227407958,SW,3.867814087711243,1.0s : 0.3s,-2.227472456340692,0.024045679277491745,0.35733905506561114,0.036320500991643724,0.2553215026855469,-0.2360091656446457,0.27848589420318604,0.03630596399307251,0.0010150223970413208,0.0001596882939338684,-0.22079093973875524,1.4704880507406266,2.6732434597244303,0.9708198308944702,0.2190014272928238,-0.09770919382572174
1732227407968,SW,3.867814087711243,1.0s : 0.3s,-2.227472456340692,0.02457622321348053,0.333015652430023,0.03026872848447256,0.245502308011055,-0.21322037279605865,0.2546895146369934,0.027599215507507324,0.011591270565986633,-0.004485718905925751,-0.22041368921559565,1.469434796942671,2.6703759998855756,0.9707984924316406,0.21863332390785217,-0.09874001145362854
1732227407978,SW,3.867814087711243,1.0s : 0.3s,-2.227472456340692,0.025088959136595673,0.3056531065449904,0.03167706968577736,0.19797447323799133,-0.20178475975990295,0.22416891157627106,0.03106057643890381,0.005647256970405579,-0.002604961395263672,-0.22001570501788084,1.468433879826088,2.6678248806275984,0.9707857370376587,0.21824495494365692,-0.0997205376625061
1732227407988,SW,3.867814087711243,1.0s : 0.3s,-2.227472456340692,0.025575743400818522,0.2768475010579142,0.03452917857044293,0.15764981508255005,-0.18936364352703094,0.19366908073425293,0.031711041927337646,-0.013119474053382874,0.00381489098072052,-0.2196857235531698,1.467471212898682,2.665765854529959,0.9707607626914978,0.21792291104793549,-0.10066244751214981
1732227407998,SW,3.867814087711243,1.0s : 0.3s,-2.227472456340692,0.02603172504197006,0.24828167147247832,0.02858672250831292,0.13617993891239166,-0.171501025557518,0.16101446747779846,0.024405598640441895,-0.012853547930717468,0.007506914436817169,-0.2194132596643593,1.4665507498689465,2.6640522654366046,0.9707267880439758,0.21765698492527008,-0.10156213492155075
1732227408008,SW,3.867814087711243,1.0s : 0.3s,-2.227472456340692,0.026438967802370563,0.2236662670246782,0.01709312156264965,0.1489643156528473,-0.14799688756465912,0.1341085284948349,0.014873862266540527,0.007906556129455566,0.0029033422470092773,-0.21917043220764368,1.4656871510791414,2.6624063968652516,0.9706913232803345,0.21741998195648193,-0.10240596532821655
1732227408018,SW,3.867814087711243,1.0s : 0.3s,-2.227472456340692,0.026829161692737035,0.20673182998294073,0.02353310939712853,0.1949019730091095,-0.13144002854824066,0.10608327388763428,0.01238316297531128,0.019344836473464966,-0.005122676491737366,-0.21894191751038178,1.4647963882895614,2.660470954876385,0.9706491827964783,0.21719692647457123,-0.1032758429646492
1732227408028,SW,3.867814087711243,1.0s : 0.3s,-2.227472456340692,0.02719920055146236,0.19713244088237133,0.01944456573949214,0.22676829993724823,-0.11857730150222778,0.08671216666698456,0.00966787338256836,0.014854863286018372,-0.007997274398803711,-0.21868013685832433,1.4638026509480946,2.658152422392367,0.9706025123596191,0.21694138646125793,-0.10424643009901047
1732227408038,SW,3.867814087711243,1.0s : 0.3s,-2.227472456340692,0.027550141893584124,0.19348856899084274,0.022119906465853975,0.23998716473579407,-0.10199619829654694,0.07041921466588974,0.0074926018714904785,0.02080923318862915,0.0003563612699508667,-0.21836404214745364,1.4627967657699126,2.6556287277496264,0.9705653786659241,0.21663279831409454,-0.10523008555173874
1732227408048,SW,3.867814087711243,1.0s : 0.3s,-2.227472456340692,0.02788572252143123,0.1837579882816185,0.023853647086442952,0.2247002273797989,-0.0927581787109375,0.056716691702604294,0.008149862289428711,0.021872833371162415,-0.004914812743663788,-0.21800915027500167,1.4617748227991691,2.6530978234320193,0.970533549785614,0.2162863314151764,-0.1062302365899086
1732227408058,SW,3.867814087711243,1.0s : 0.3s,-2.227472456340692,0.028193664055632093,0.1669522552519935,0.018360679767912783,0.1642667055130005,-0.09125615656375885,0.04598015546798706,0.012420594692230225,-0.011396139860153198,0.007278144359588623,-0.2176546442791696,1.4607917154141383,2.6510278700631287,0.9705048203468323,0.2159401923418045,-0.10719273239374161
1732227408068,SW,3.867814087711243,1.0s : 0.3s,-2.227472456340692,0.02846646254157684,0.14614650567162965,0.0392320576664624,0.11066419631242752,-0.08948995172977448,0.03787742182612419,0.01364058256149292,-0.03232330083847046,0.017558276653289795,-0.21731839171279266,1.4598452863289377,2.6496096614763185,0.9704750180244446,0.21561186015605927,-0.10811923444271088
1732227408078,SW,3.867814087711243,1.0s : 0.3s,-2.227472456340692,0.028707544997726854,0.12702770998415877,0.024717111345888842,0.0931861400604248,-0.0757480338215828,0.03065945766866207,0.005714058876037598,-0.01665334403514862,0.017347946763038635,-0.21697542735788722,1.4589541425203905,2.648540995146471,0.9704515933990479,0.21527695655822754,-0.10899225622415543
1732227408088,SW,3.867814087711243,1.0s : 0.3s,-2.227472456340692,0.0289125695904371,0.10878304810577631,0.015348098018633348,0.07059068232774734,-0.06735335290431976,0.02267453446984291,-0.005359053611755371,-0.013233274221420288,0.005632504820823669,-0.2166608620599243,1.4581566413867735,2.647762869535014,0.9704318046569824,0.21496975421905518,-0.10977378487586975
1732227408098,SW,3.867814087711243,1.0s : 0.3s,-2.227472456340692,0.029082648566172355,0.09269609381737028,0.016552260404252745,0.055131834000349045,-0.05405299365520477,0.03020062856376171,-0.008192479610443115,-0.01163889467716217,0.008449658751487732,-0.21630948495796698,1.4574322804254694,2.647125712384838,0.9704270958900452,0.21462658047676086,-0.1104852482676506
1732227408108,SW,3.867814087711243,1.0s : 0.3s,-2.227472456340692,0.029228461041655104,0.07984758536208615,0.010118975186934656,0.05398068204522133,-0.044388603419065475,0.025351911783218384,-0.008908689022064209,0.0012753456830978394,-0.004626274108886719,-0.21606969897572995,1.4568242129714615,2.6465750253529197,0.9704107046127319,0.21439237892627716,-0.11108114570379257
1732227408118,SW,3.867814087711243,1.0s : 0.3s,-2.227472456340692,0.0293437464143305,0.0722838780600149,0.018316460820762034,0.06889545172452927,-0.03480548411607742,0.022955063730478287,-0.016321420669555664,-0.002048283815383911,-0.008056581020355225,-0.21600435146472113,1.4563982730440692,2.6459952211633135,0.9703772068023682,0.21432854235172272,-0.11149606853723526
1732227408128,SW,3.867814087711243,1.0s : 0.3s,-2.227472456340692,0.029426682742853233,0.06435132968590872,0.02296085175763507,0.05289171636104584,-0.03225044906139374,0.02839643508195877,-0.020371854305267334,-0.003992348909378052,-0.009810678660869598,-0.21588571381602734,1.4559602897405906,2.64539773870381,0.9703534841537476,0.21421267092227936,-0.11192397773265839
1732227408138,SW,3.867814087711243,1.0s : 0.3s,-2.227472456340692,0.029489329688982928,0.06334800071781933,0.011352846387592095,0.06435555964708328,-0.044094592332839966,0.02225198969244957,-0.009573876857757568,-0.005843698978424072,-0.0017547607421875,-0.21546911843729646,1.4556256069278364,2.6449272146494893,0.9704045653343201,0.21380572021007538,-0.11225897073745728
1732227408148,SW,3.867814087711243,1.0s : 0.3s,-2.227472456340692,0.029543607576577965,0.06484088850603845,0.00882678593189529,0.10245420038700104,-0.04277374967932701,0.033203840255737305,-0.0054228901863098145,0.006890431046485901,-0.0010131001472473145,-0.21478900659940123,1.4552874353813912,2.644147255808761,0.970510721206665,0.2131412923336029,-0.11260386556386948
1732227408158,SW,3.867814087711243,1.0s : 0.3s,-2.227472456340692,0.029598659463554094,0.07060731716500587,0.02799640427039018,0.1268567442893982,-0.030002295970916748,0.029731079936027527,-0.006789982318878174,0.024983569979667664,-0.01065438985824585,-0.2141994675466698,1.4549384368031872,2.6430915662891326,0.9705960750579834,0.21256525814533234,-0.11295707523822784
1732227408168,SW,3.867814087711243,1.0s : 0.3s,-2.227472456340692,0.02963499990736989,0.07900329731798493,0.018260291837009984,0.1456790417432785,-0.02847936749458313,0.026247898116707802,-0.0165787935256958,0.0076443105936050415,-0.0003825947642326355,-0.21370517111387613,1.454492320794003,2.641783610808246,0.970649778842926,0.21208223700523376,-0.11340223252773285
1732227408178,SW,3.867814087711243,1.0s : 0.3s,-2.227472456340692,0.029637825689016118,0.08903612751124249,0.035558284180979484,0.16800086200237274,-0.022901110351085663,0.0213633943349123,-0.02088409662246704,0.0125894695520401,-0.025879554450511932,-0.21321982043537843,1.4540168117711831,2.640186709328467,0.9706978797912598,0.2116079032421112,-0.11387575417757034
1732227408188,SW,3.867814087711243,1.0s : 0.3s,-2.227472456340692,0.029626445787878743,0.1044335478934566,0.028556392515658634,0.2106601744890213,-0.016569621860980988,0.01963200606405735,-0.019973039627075195,0.0079030841588974,-0.01881718635559082,-0.21286273133264164,1.453399679582338,2.638329756832565,0.9707024097442627,0.2112588882446289,-0.11448362469673157
1732227408198,SW,3.867814087711243,1.0s : 0.3s,-2.227472456340692,0.02961884458040239,0.12443079216641488,0.03913492841018665,0.2556215226650238,-0.011681657284498215,0.022836320102214813,-0.01570713520050049,0.028389200568199158,-0.021883368492126465,-0.21243222945184806,1.4526709816522634,2.635937324819048,0.970708966255188,0.21083807945251465,-0.11520165950059891
1732227408208,SW,3.867814087711243,1.0s : 0.3s,-2.227472456340692,0.02968808137993068,0.14669093154479143,0.05921316997811006,0.29576122760772705,-0.014476112090051174,0.02131326124072075,-0.0025655031204223633,0.04506807029247284,-0.038320839405059814,-0.21190050619091116,1.4518082479675334,2.6330719871266055,0.9707204103469849,0.21031828224658966,-0.11605236679315567
1732227408218,SW,3.867814087711243,1.0s : 0.3s,-2.227472456340692,0.029756375392554425,0.15524593107729456,0.013419732685723796,0.2577773630619049,-0.029305923730134964,0.029475316405296326,9.310245513916016e-05,0.002121150493621826,-0.01325070858001709,-0.2113319258195357,1.4510213028455952,2.630297503203587,0.9707473516464233,0.20976237952709198,-0.1168305054306984
1732227408228,SW,3.867814087711243,1.0s : 0.3s,-2.227472456340692,0.02982060090648933,0.15525121077392137,0.02164802025311617,0.22590424120426178,-0.04072711244225502,0.03490353748202324,0.006341755390167236,-0.016495615243911743,-0.01250254362821579,-0.2108336255437346,1.4502006159871559,2.6279168730575773,0.9707547426223755,0.20927514135837555,-0.1176397055387497
1732227408238,SW,3.867814087711243,1.0s : 0.3s,-2.227472456340692,0.02988358084821912,0.14950587805396567,0.02176864461764561,0.18691930174827576,-0.0486590713262558,0.041787806898355484,0.009199380874633789,-0.015958204865455627,-0.011600904166698456,-0.2104869158016978,1.4492965134899676,2.6258663645593057,0.9707199931144714,0.20893609523773193,-0.11852610856294632
1732227408248,SW,3.867814087711243,1.0s : 0.3s,-2.227472456340692,0.02994238454247158,0.13554282334036014,0.028431416504573162,0.1434078961610794,-0.040250714868307114,0.04704192280769348,0.003496825695037842,-0.014655426144599915,-0.024110913276672363,-0.20999733715895064,1.4485368367954554,2.62418404549269,0.9707310795783997,0.20845729112625122,-0.11927596479654312
1732227408258,SW,3.867814087711243,1.0s : 0.3s,-2.227472456340692,0.02998539975569015,0.12662544945905815,0.021702023721837774,0.14531658589839935,-0.03941208869218826,0.05376134812831879,-0.004933834075927734,-0.017486855387687683,-0.011867813766002655,-0.20949124675163405,1.4476012571133228,2.622759567169274,0.970723569393158,0.2079622894525528,-0.12019705027341843
1732227408268,SW,3.867814087711243,1.0s : 0.3s,-2.227472456340692,0.030027952125748665,0.11932055550742221,0.03745025771376413,0.1361309438943863,-0.039556827396154404,0.05179210752248764,-0.0041828155517578125,-0.001256406307220459,-0.03719472140073776,-0.20893470117807883,1.4467486438681028,2.621380506865622,0.9707354307174683,0.20741789042949677,-0.12103896588087082
1732227408278,SW,3.867814087711243,1.0s : 0.3s,-2.227472456340692,0.03006804858064321,0.11935125562302545,0.026116427458105333,0.1666126847267151,-0.03691337630152702,0.05216414853930473,-0.007211625576019287,0.004756078124046326,-0.024646297097206116,-0.20852867228287295,1.4458732415276268,2.619889523673785,0.9707127213478088,0.20702067017555237,-0.12189919501543045
1732227408288,SW,3.867814087711243,1.0s : 0.3s,-2.227472456340692,0.030115082711169847,0.12465343037167705,0.03898513723502481,0.20155443251132965,-0.03724227845668793,0.051876459270715714,-0.008538365364074707,0.022365808486938477,-0.03076861798763275,-0.2081999746814623,1.4448167733636468,2.6180510252454603,0.9706506729125977,0.20669908821582794,-0.12293317914009094
1732227408298,SW,3.867814087711243,1.0s : 0.3s,-2.227472456340692,0.030180023799520762,0.12738402322624431,0.04851540933546339,0.20394940674304962,-0.02938062697649002,0.04842926561832428,-0.009330987930297852,0.03149405121803284,-0.03570437431335449,-0.20749469474746843,1.4440099019062034,2.616030859269413,0.9706956744194031,0.20600898563861847,-0.12373474985361099
1732227408308,SW,3.867814087711243,1.0s : 0.3s,-2.227472456340692,0.03024446379567782,0.13007089124668908,0.028687165154504462,0.20585769414901733,-0.04009687155485153,0.0493471585214138,-0.011377573013305664,0.023813992738723755,-0.011242687702178955,-0.20662655228457247,1.443213952910446,2.6139865368017,0.9707739353179932,0.20515938103199005,-0.12453003972768784
1732227408318,SW,3.867814087711243,1.0s : 0.3s,-2.227472456340692,0.03032278072961345,0.13033753179935037,0.03821981479549674,0.18744511902332306,-0.04279252886772156,0.04677987098693848,-0.0008842945098876953,0.02230304479598999,-0.031024932861328125,-0.20576949348494628,1.442348153407325,2.6120329211116045,0.9708397388458252,0.20432047545909882,-0.12539297342300415
1732227408328,SW,3.867814087711243,1.0s : 0.3s,-2.227472456340692,0.03040520384901875,0.13084561252288338,0.012364619402403696,0.18995888531208038,-0.048897646367549896,0.04845200106501579,0.0027420520782470703,0.010698661208152771,-0.005559101700782776,-0.2049513338404083,1.4413183792496922,2.6101488653382585,0.97087562084198,0.20351950824260712,-0.1264141947031021
1732227408338,SW,3.867814087711243,1.0s : 0.3s,-2.227472456340692,0.030492989429939738,0.13082550504804255,0.025541892915369038,0.18474255502223969,-0.04225732013583183,0.04477311298251152,-0.0003312230110168457,0.011489108204841614,-0.022809624671936035,-0.2041284251207946,1.4404217337314924,2.6083003614139257,0.9709274768829346,0.2027137577533722,-0.12730638682842255
1732227408348,SW,3.867814087711243,1.0s : 0.3s,-2.227472456340692,0.030567655130991946,0.13141998320118906,0.017130281501716707,0.19451221823692322,-0.04226118326187134,0.044071272015571594,-0.012860298156738281,0.006528079509735107,-0.009243562817573547,-0.20347602707548626,1.439291195607492,2.60641688908239,0.9709139466285706,0.20207485556602478,-0.12842130661010742
1732227408358,SW,3.867814087711243,1.0s : 0.3s,-2.227472456340692,0.03063305088275889,0.1321609738603464,0.021403118044106998,0.20165002346038818,-0.0380195677280426,0.031609807163476944,-0.013269364833831787,0.00980311632156372,-0.013635113835334778,-0.20293646568249726,1.4383127876027362,2.604435629646112,0.9708957672119141,0.20154640078544617,-0.1293855905532837
1732227408368,SW,3.867814087711243,1.0s : 0.3s,-2.227472456340692,0.030697645534837087,0.13607585542904505,0.02345299994070382,0.22168779373168945,-0.033592548221349716,0.03485090658068657,-0.009484469890594482,0.01958981156349182,-0.00873655080795288,-0.20255661652552862,1.4372539838473395,2.6022245652886165,0.970833957195282,0.20117433369159698,-0.1304236650466919
1732227408378,SW,3.867814087711243,1.0s : 0.3s,-2.227472456340692,0.03076436271725861,0.1368766417177506,0.015277474316477366,0.2111765593290329,-0.03060261532664299,0.02985801175236702,-0.00217360258102417,0.014741271734237671,-0.003372177481651306,-0.20225680082853342,1.4362003858854326,2.600028777912298,0.9707555770874023,0.20088063180446625,-0.13145454227924347
1732227408388,SW,3.867814087711243,1.0s : 0.3s,-2.227472456340692,0.030823314754436403,0.13767431823095458,0.007881484604825425,0.21166977286338806,-0.024267489090561867,0.03804190829396248,-0.00316697359085083,0.0038695335388183594,0.006092190742492676,-0.2019062157315628,1.4354516322539588,2.597939148032973,0.970726728439331,0.20053718984127045,-0.13219086825847626
1732227408398,SW,3.867814087711243,1.0s : 0.3s,-2.227472456340692,0.030878263816648946,0.1383219946782619,0.008463313017758609,0.2114601880311966,-0.018162192776799202,0.03833112493157387,-0.0039051175117492676,0.007472127676010132,-0.0007382631301879883,-0.2014374322060723,1.4345630998983658,2.5957830271777094,0.9707019329071045,0.20007790625095367,-0.1330660879611969
1732227408408,SW,3.867814087711243,1.0s : 0.3s,-2.227472456340692,0.03092614018385879,0.13865585032771766,0.013333547082697218,0.2078143209218979,-0.017910080030560493,0.03673289716243744,-0.009244799613952637,0.007486984133720398,-0.006021812558174133,-0.20090841477036808,1.434000456837182,2.593723651110029,0.9707317352294922,0.1995595544576645,-0.13362665474414825
1732227408418,SW,3.867814087711243,1.0s : 0.3s,-2.227472456340692,0.030966568823669306,0.13876463706671066,0.013149224146170887,0.20458470284938812,-0.014435186982154846,0.04008634760975838,-0.009883701801300049,0.007860630750656128,-0.0036640167236328125,-0.20035580049384683,1.4332847016420756,2.5916690627980024,0.9707449078559875,0.19901803135871887,-0.13433651626110077
1732227408428,SW,3.867814087711243,1.0s : 0.3s,-2.227472456340692,0.031004902622738653,0.13935340820427083,0.013512088127264975,0.20978905260562897,-0.016707219183444977,0.049213334918022156,-0.0069165825843811035,0.010494187474250793,-0.004960790276527405,-0.19973938764387045,1.432673035775153,2.589616938634139,0.9707838892936707,0.1984139084815979,-0.13494713604450226
1732227408438,SW,3.867814087711243,1.0s : 0.3s,-2.227472456340692,0.031039075161618624,0.14025876476083873,0.014219421088300089,0.2167913019657135,-0.015370845794677734,0.043562375009059906,-0.008216440677642822,0.005546450614929199,-0.010194063186645508,-0.1991050807978719,1.4319988395286098,2.587516359764532,0.9708170890808105,0.1977921724319458,-0.13561898469924927
1732227408448,SW,3.867814087711243,1.0s : 0.3s,-2.227472456340692,0.031059616034068874,0.14322008346929907,0.016735094056859773,0.23239769041538239,-0.007803562097251415,0.040382422506809235,-0.014535903930664062,-0.0007880926132202148,-0.008255288004875183,-0.19860912813861223,1.4314146344506256,2.5853118877565597,0.9708345532417297,0.19730599224567413,-0.1361996978521347
1732227408458,SW,3.867814087711243,1.0s : 0.3s,-2.227472456340692,0.031072669522609585,0.15224078631691831,0.015631535783421274,0.25611498951911926,-0.002084689447656274,0.040625572204589844,-0.012402236461639404,0.003922641277313232,-0.008668467402458191,-0.19802203765406753,1.4309295128778183,2.5829161401692584,0.9708830118179321,0.19673040509223938,-0.1366868019104004
1732227408468,SW,3.867814087711243,1.0s : 0.3s,-2.227472456340692,0.031080688561546863,0.1629249534125037,0.01655000292122898,0.2772585153579712,-0.0035160055849701166,0.041873496025800705,-0.01020127534866333,0.0007812380790710449,-0.01300869882106781,-0.19733536992494727,1.4304843933291655,2.5803002835047337,0.970955491065979,0.19605711102485657,-0.1371377855539322
1732227408478,SW,3.867814087711243,1.0s : 0.3s,-2.227472456340692,0.031082618775535573,0.17101232365796962,0.018377049629082206,0.2797616124153137,-0.002353269373998046,0.04383731260895729,-0.010634303092956543,-0.002439633011817932,-0.014787688851356506,-0.19662096344089355,1.4299637514912884,2.5775553919098,0.9710225462913513,0.19535651803016663,-0.13766294717788696
1732227408488,SW,3.867814087711243,1.0s : 0.3s,-2.227472456340692,0.031075066810242427,0.1742229377332429,0.016823804513606967,0.27869874238967896,-0.0013369186781346798,0.045078277587890625,-0.013226628303527832,-0.002729639410972595,-0.010032236576080322,-0.19590540263035916,1.429392333728879,2.574789680411087,0.9710818529129028,0.1946547031402588,-0.13823744654655457
1732227408498,SW,3.867814087711243,1.0s : 0.3s,-2.227472456340692,0.03104945977733614,0.17489085487510506,0.02305902577664498,0.2671118676662445,-0.006189197767525911,0.03661688044667244,-0.014788269996643066,-0.015761911869049072,-0.00803665816783905,-0.19523777678278714,1.4288332559885475,2.5720859061228345,0.9711328148841858,0.19399979710578918,-0.13879868388175964
1732227408508,SW,3.867814087711243,1.0s : 0.3s,-2.227472456340692,0.03101361575787999,0.18012936704996507,0.021150232166541372,0.29183492064476013,-0.004873640835285187,0.035901989787817,-0.013890206813812256,-0.009540125727653503,-0.012782037258148193,-0.19463509634967208,1.4282373833037474,2.569347497741734,0.9711655378341675,0.1934085339307785,-0.13939392566680908
1732227408518,SW,3.867814087711243,1.0s : 0.3s,-2.227472456340692,0.030976083377859148,0.18891818667028318,0.020156875247276367,0.3089214861392975,0.002814905485138297,0.04517192021012306,-0.010458886623382568,-0.0043315589427948,-0.016677796840667725,-0.19389875364649967,1.4275718233651877,2.566321373202194,0.9712132215499878,0.1926860362291336,-0.14006054401397705
1732227408528,SW,3.867814087711243,1.0s : 0.3s,-2.227472456340692,0.030929632292839727,0.18951832730841484,0.022747626962120966,0.28640860319137573,-0.006432344671338797,0.04814423993229866,-0.00555497407913208,-0.020152956247329712,-0.008969679474830627,-0.19305714423714296,1.4269333410286245,2.5633972785312866,0.9712837934494019,0.1918601393699646,-0.14070382714271545
1732227408538,SW,3.867814087711243,1.0s : 0.3s,-2.227472456340692,0.030870488137228622,0.19183588739639637,0.024968787163232472,0.3035393953323364,-0.003387019969522953,0.043483443558216095,-0.005383133888244629,-0.02427510917186737,-0.0022762417793273926,-0.1922510021519622,1.4262545547154064,2.5604890513391725,0.9713407754898071,0.19106890261173248,-0.14138531684875488
1732227408548,SW,3.867814087711243,1.0s : 0.3s,-2.227472456340692,0.030809820672862514,0.20230582287896004,0.009461399429988636,0.33534473180770874,-0.0019476700108498335,0.04185006022453308,-0.00493621826171875,-0.007741972804069519,-0.002283349633216858,-0.19141919150606812,1.4255471682731073,2.5573075161445575,0.9713974595069885,0.1902523636817932,-0.14209535717964172
1732227408558,SW,3.867814087711243,1.0s : 0.3s,-2.227472456340692,0.03075081611030502,0.21441228503197846,0.008424524959790765,0.35918134450912476,3.9847102016210556e-05,0.04245273396372795,-0.007846474647521973,0.0020144879817962646,-0.0023124217987060547,-0.1904494073584384,1.4248819957753949,2.5538585270410725,0.9714847803115845,0.18930019438266754,-0.14276821911334991
1732227408568,SW,3.867814087711243,1.0s : 0.3s,-2.227472456340692,0.0306975257634321,0.22838198262895207,0.01454272279426023,0.38596993684768677,-0.0005887921433895826,0.047728486359119415,-0.009390175342559814,0.009004488587379456,-0.006498813629150391,-0.1894068458495749,1.424179039764634,2.550162749180022,0.9715788960456848,0.18827638030052185,-0.1434798389673233
1732227408578,SW,3.867814087711243,1.0s : 0.3s,-2.227472456340692,0.030646964509021428,0.23802982725710736,0.011198745817831214,0.38499999046325684,0.0010834068525582552,0.050123199820518494,-0.008838295936584473,0.006140202283859253,-0.0030974745750427246,-0.18829940071668474,1.4234736969654795,2.546344019552407,0.971683144569397,0.18718862533569336,-0.14419563114643097
1732227408588,SW,3.867814087711243,1.0s : 0.3s,-2.227472456340692,0.030583989811751686,0.23895190811904074,0.016568122710925004,0.36455586552619934,0.003499027108773589,0.0537051223218441,-0.01264280080795288,-0.005816221237182617,0.008990764617919922,-0.18717456995126724,1.4228111671229928,2.542635227144623,0.9717950224876404,0.18608355522155762,-0.144870325922966
1732227408598,SW,3.867814087711243,1.0s : 0.3s,-2.227472456340692,0.03050478893758281,0.23861485406844918,0.020443550211743617,0.3474738299846649,0.012466156855225563,0.05009866878390312,-0.015434503555297852,-0.011134564876556396,0.007465675473213196,-0.18606493899459012,1.422245008162245,2.5391580102912186,0.9719163179397583,0.1849931925535202,-0.14545094966888428
1732227408608,SW,3.867814087711243,1.0s : 0.3s,-2.227472456340692,0.030417628130783945,0.23581897120702627,0.015715940146213928,0.32513269782066345,0.02428433485329151,0.04997313395142555,-0.01515418291091919,-0.0036741942167282104,0.001960054039955139,-0.1850259084806056,1.421847493975636,2.5358602200045572,0.9720480442047119,0.18397200107574463,-0.14586573839187622
1732227408618,SW,3.867814087711243,1.0s : 0.3s,-2.227472456340692,0.030327826797902087,0.2347421176589016,0.013695350681253942,0.331409215927124,0.0328834131360054,0.04795685410499573,-0.011671960353851318,0.0021333694458007812,0.006839349865913391,-0.18397657318113364,1.4215666136292866,2.532655698999947,0.9721973538398743,0.18294046819210052,-0.14616736769676208
1732227408628,SW,3.867814087711243,1.0s : 0.3s,-2.227472456340692,0.030240421014546024,0.22967903188337624,0.013098381638207623,0.3113616108894348,0.033661458641290665,0.050893425941467285,-0.00962841510772705,0.006663709878921509,0.005869939923286438,-0.18293829276891058,1.4213371193090096,2.529468690865888,0.97235107421875,0.1819196194410324,-0.14641869068145752
1732227408638,SW,3.867814087711243,1.0s : 0.3s,-2.227472456340692,0.030155620781068804,0.22190032087254938,0.022607174416743165,0.2961488366127014,0.03177327662706375,0.05645490437746048,-0.008171498775482178,0.01263880729675293,0.01686924695968628,-0.1818896730210182,1.4211489336971561,2.5265287028816523,0.9725116491317749,0.18088839948177338,-0.14663003385066986
1732227408648,SW,3.867814087711243,1.0s : 0.3s,-2.227472456340692,0.030085139982505647,0.2206363549876531,0.03210624612957453,0.30459198355674744,0.03489845246076584,0.060587894171476364,-0.0009092092514038086,0.022338494658470154,0.023042917251586914,-0.18079321946484309,1.4209659714491494,2.5236082189987976,0.9726804494857788,0.17980992794036865,-0.1468374878168106
1732227408658,SW,3.867814087711243,1.0s : 0.3s,-2.227472456340692,0.030073346446919558,0.21902917411260003,0.04234069723734328,0.2998313307762146,0.03254448249936104,0.060960471630096436,0.002713143825531006,0.03886120021343231,0.016588568687438965,-0.17966358995854678,1.4208086676095755,2.5206795263365342,0.9728574752807617,0.1786985844373703,-0.14702075719833374
1732227408668,SW,3.867814087711243,1.0s : 0.3s,-2.227472456340692,0.030106504937157216,0.211667756920945,0.04615870184507729,0.2798443138599396,0.04033990949392319,0.05578867718577385,-0.0006653666496276855,0.04307352006435394,0.01657874882221222,-0.17857718370535972,1.4206916977594877,2.517823878747757,0.9730315804481506,0.17762956023216248,-0.1471634805202484
1732227408678,SW,3.867814087711243,1.0s : 0.3s,-2.227472456340692,0.030170442186695963,0.2046742226193178,0.04705483638642847,0.2705687880516052,0.02952507883310318,0.05566563829779625,0.0037900805473327637,0.04226046800613403,0.020343199372291565,-0.1775273438272595,1.4205837564781982,2.515163876528814,0.9731995463371277,0.17659632861614227,-0.14729632437229156
1732227408688,SW,3.867814087711243,1.0s : 0.3s,-2.227472456340692,0.03027683357843062,0.18835606398930893,0.04884620554489582,0.2162379026412964,0.026482507586479187,0.05357552692294121,0.015741407871246338,0.04382605850696564,0.014745727181434631,-0.1765724172647099,1.4204659055683337,2.5127847130657033,0.9733484387397766,0.17565631866455078,-0.1474362164735794
1732227408698,SW,3.867814087711243,1.0s : 0.3s,-2.227472456340692,0.03038867663635843,0.15941649241745148,0.036911534773523644,0.12570694088935852,0.017439743503928185,0.06074635311961174,0.008696496486663818,0.0252506285905838,0.025480151176452637,-0.17567911475361508,1.4204196420104054,2.5111451555551803,0.9734964966773987,0.1747768372297287,-0.14750470221042633
1732227408708,SW,3.867814087711243,1.0s : 0.3s,-2.227472456340692,0.03048110871466615,0.12210300701027657,0.03656968313222845,0.036926064640283585,0.00934972520917654,0.05803195759654045,0.004168212413787842,-0.0016403347253799438,0.03629431128501892,-0.17492480208156505,1.4204443097903783,2.510436279377621,0.9736300706863403,0.17403408885002136,-0.14750038087368011
1732227408718,SW,3.867814087711243,1.0s : 0.3s,-2.227472456340692,0.030567355190241233,0.09176280058007366,0.03690186720491362,0.016152609139680862,0.005277486052364111,0.044629067182540894,0.006665945053100586,0.011460557579994202,0.03443789482116699,-0.17431155532959414,1.4204866941410252,2.510299486848761,0.9737417101860046,0.1734301596879959,-0.14747507870197296
1732227408728,SW,3.867814087711243,1.0s : 0.3s,-2.227472456340692,0.030671118293007782,0.07650179809332565,0.05038944595449245,0.04481341317296028,0.025919781997799873,0.0411863699555397,0.002467811107635498,0.042476192116737366,0.026995912194252014,-0.17380585484993943,1.4206367628111323,2.510058519835077,0.9738503694534302,0.17293210327625275,-0.1473420411348343
1732227408738,SW,3.867814087711243,1.0s : 0.3s,-2.227472456340692,0.030797845188254975,0.06318237315816644,0.05618750548533817,0.02639206312596798,0.03503284975886345,0.03837992995977402,-0.005844056606292725,0.05260129272937775,0.0188676118850708,-0.1736577958243122,1.4210589739923916,2.5097589444939263,0.9739379286766052,0.17278628051280975,-0.14693468809127808
1732227408748,SW,3.867814087711243,1.0s : 0.3s,-2.227472456340692,0.030920159769832898,0.048358588742042116,0.041079102854654374,-0.022059092298150063,0.0346381701529026,0.038384389132261276,-0.001636505126953125,0.025161832571029663,0.03242987394332886,-0.173662015498363,1.4216101167931214,2.509797573578747,0.9740180969238281,0.17279043793678284,-0.14639778435230255
1732227408758,SW,3.867814087711243,1.0s : 0.3s,-2.227472456340692,0.031031006710162193,0.042520064566189314,0.043771094151228256,-0.06983460485935211,0.0208981242030859,0.035062894225120544,0.006009995937347412,0.008298665285110474,0.04255491495132446,-0.17372621102366423,1.4221949938186191,2.5103684608144814,0.9740925431251526,0.17285366356372833,-0.14582642912864685
1732227408768,SW,3.867814087711243,1.0s : 0.3s,-2.227472456340692,0.031136701684494936,0.03720698510345054,0.045541317168654324,-0.07316901534795761,0.01859329082071781,0.023104002699255943,0.00941324234008789,0.011225610971450806,0.043120622634887695,-0.1738839120897893,1.4226909355558293,2.511182415943389,0.9741377830505371,0.173008993268013,-0.14533929526805878
1732227408778,SW,3.867814087711243,1.0s : 0.3s,-2.227472456340692,0.03124518231588888,0.03278419099396203,0.03371441960643018,-0.07000438123941422,0.01151700597256422,0.018192866817116737,0.010975062847137451,0.013148456811904907,0.02904011309146881,-0.17399212218840815,1.42320154564469,2.5119892698851265,0.9741933345794678,0.1731155663728714,-0.1448391228914261
1732227408788,SW,3.867814087711243,1.0s : 0.3s,-2.227472456340692,0.03135455102951224,0.03031226094015671,0.018385101377103627,-0.03242451697587967,0.027666769921779633,0.010203517973423004,0.002637505531311035,0.013499155640602112,0.0121995210647583,-0.17394591130284534,1.4238239932501997,2.512597184519559,0.974291205406189,0.1730700582265854,-0.14423388242721558
1732227408798,SW,3.867814087711243,1.0s : 0.3s,-2.227472456340692,0.03145968075296419,0.02856539486551047,0.018234601184234027,0.0020469101145863533,0.04071412980556488,-0.006262540817260742,-0.009620845317840576,0.015304595232009888,-0.0023894309997558594,-0.17403388259919106,1.4244967200106737,2.5127842948955923,0.9743730425834656,0.17315669357776642,-0.14357620477676392
1732227408808,SW,3.867814087711243,1.0s : 0.3s,-2.227472456340692,0.03156806729849586,0.026793010431279584,0.023394429961406994,0.01159234531223774,0.03834529221057892,-0.016743313521146774,-0.006691932678222656,0.01863725483417511,-0.012456730008125305,-0.1744768608808387,1.4251394037681806,2.512723530794314,0.9743891954421997,0.1735929697751999,-0.14293882250785828
1732227408818,SW,3.867814087711243,1.0s : 0.3s,-2.227472456340692,0.03168414136411449,0.023927728742288074,0.0158043791109518,-0.006958169862627983,0.020979616791009903,-0.024606827646493912,0.0074498653411865234,0.011141464114189148,-0.008375301957130432,-0.17506945467008894,1.4255549863275505,2.512675369446274,0.9743464589118958,0.17417652904987335,-0.14251895248889923
1732227408828,SW,3.867814087711243,1.0s : 0.3s,-2.227472456340692,0.031793479347730004,0.02067133770178188,0.0061947605467496175,-0.02680031768977642,0.014903081580996513,-0.032014407217502594,0.005302131175994873,-0.002496778964996338,-0.002007126808166504,-0.17557765868722194,1.4260376115926774,2.5128611091174173,0.9743273258209229,0.17467693984508514,-0.14203588664531708
1732227408838,SW,3.867814087711243,1.0s : 0.3s,-2.227472456340692,0.03189126142093859,0.018043187919174575,0.012014882356596767,-0.020078498870134354,0.011711549945175648,-0.03151639923453331,-0.00684964656829834,0.001610592007637024,-0.009738877415657043,-0.17599331292525688,1.42658609596396,2.513119738075354,0.9743332266807556,0.17508620023727417,-0.14149102568626404
1732227408848,SW,3.867814087711243,1.0s : 0.3s,-2.227472456340692,0.031988742120565884,0.015886778468146904,0.019890127712288458,-0.010384193621575832,0.005974879488348961,-0.0251438207924366,0.0001201629638671875,0.0049390047788619995,-0.019266784191131592,-0.17637874872087547,1.4270838523115237,2.5133001908885877,0.974336564540863,0.1754656583070755,-0.14099633693695068
1732227408858,SW,3.867814087711243,1.0s : 0.3s,-2.227472456340692,0.03208958631105452,0.013951320158623402,0.02502647453920064,-0.004271706100553274,0.0013114179018884897,-0.021210864186286926,0.010857582092285156,-0.0026274174451828003,-0.022394955158233643,-0.17668674558601236,1.4273892862254778,2.5133986157254236,0.9743261337280273,0.1757688671350479,-0.14069101214408875
1732227408868,SW,3.867814087711243,1.0s : 0.3s,-2.227472456340692,0.032195569955644786,0.012123572927968026,0.027406579818848784,0.010927886702120304,-0.003959732595831156,-0.01909075491130352,0.013245761394500732,-0.002370208501815796,-0.023875772953033447,-0.17695247299598293,1.4274457910620781,2.513355813424088,0.974287748336792,0.1760304570198059,-0.14062927663326263
1732227408878,SW,3.867814087711243,1.0s : 0.3s,-2.227472456340692,0.032310579506823485,0.011037766294639036,0.030301803230393522,0.03835684806108475,-0.0048239282332360744,-0.02498805895447731,0.010932624340057373,0.005255639553070068,-0.027767881751060486,-0.1772195840883115,1.4272990555461564,2.5130713381122836,0.9742205142974854,0.17629338800907135,-0.1407655030488968
1732227408888,SW,3.867814087711243,1.0s : 0.3s,-2.227472456340692,0.03245155047752017,0.01893546122772187,0.03700161256037907,0.06477660685777664,-0.012009713798761368,-0.02854401245713234,0.014018535614013672,0.0132303386926651,-0.03158414363861084,-0.17751989062653908,1.426995280640496,2.512506037199225,0.9741253852844238,0.1765889823436737,-0.14105385541915894
1732227408898,SW,3.867814087711243,1.0s : 0.3s,-2.227472456340692,0.03262314041087853,0.031494616446056584,0.03887499074542297,0.08719589561223984,-0.011534872464835644,-0.029717132449150085,0.018023908138275146,0.017258882522583008,-0.029808297753334045,-0.17773671102468427,1.4266703800348055,2.511675362162862,0.9740416407585144,0.176802396774292,-0.14136485755443573
1732227408908,SW,3.867814087711243,1.0s : 0.3s,-2.227472456340692,0.032801832100570014,0.0405355917892566,0.03200889006077368,0.08829377591609955,-0.007755891419947147,-0.025417760014533997,0.008405625820159912,0.014329448342323303,-0.0273602157831192,-0.17784497248364617,1.4264100144163518,2.5107466571534984,0.9739857912063599,0.1769089549779892,-0.14161570370197296
1732227408918,SW,3.867814087711243,1.0s : 0.3s,-2.227472456340692,0.032979563088367324,0.04360306762257553,0.02816165713581785,0.08385828137397766,-0.011545835994184017,-0.02230958640575409,0.003499627113342285,0.00989338755607605,-0.026133358478546143,-0.1779491802253981,1.426056301579264,2.5098226288695944,0.9739173650741577,0.17701151967048645,-0.14195753633975983
1732227408928,SW,3.867814087711243,1.0s : 0.3s,-2.227472456340692,0.03316375507216643,0.04708802408727199,0.03428870324279768,0.08583062142133713,-0.029260296374559402,-0.025788074359297752,0.006663143634796143,0.01471845805644989,-0.030243754386901855,-0.17806985763155053,1.425526349301036,2.5089177630895483,0.9738208651542664,0.17713028192520142,-0.1424705535173416
1732227408938,SW,3.867814087711243,1.0s : 0.3s,-2.227472456340692,0.03335627335341217,0.054547934628422334,0.032534460035731246,0.10021542012691498,-0.03605188801884651,-0.025753984227776527,0.009652912616729736,0.015779897570610046,-0.026763916015625,-0.1781231665242131,1.424850321928438,2.5079233070484173,0.9737150073051453,0.17718274891376495,-0.1431274712085724
1732227408948,SW,3.867814087711243,1.0s : 0.3s,-2.227472456340692,0.033554368780460864,0.0618809046374718,0.032132123397665045,0.11219379305839539,-0.034235257655382156,-0.024797044694423676,0.004377007484436035,0.019098877906799316,-0.02546660602092743,-0.17816170176255178,1.42412807941241,2.506768231106192,0.9736044406890869,0.1772206723690033,-0.14382967352867126
1732227408958,SW,3.867814087711243,1.0s : 0.3s,-2.227472456340692,0.033753978430244275,0.06735425288411004,0.03688767530947951,0.11557360738515854,-0.03962096944451332,-0.032127395272254944,-0.004509150981903076,0.022350743412971497,-0.028996765613555908,-0.17828398448641314,1.4233623261715016,2.505544630120356,0.9734727740287781,0.1773410141468048,-0.14457201957702637
1732227408968,SW,3.867814087711243,1.0s : 0.3s,-2.227472456340692,0.033949438645214096,0.06849360629307864,0.03368259337856013,0.10338512063026428,-0.04774201288819313,-0.03341156989336014,-0.004196822643280029,0.013517379760742188,-0.030564427375793457,-0.1784995595602541,1.422521604119038,2.504350373554009,0.97331303358078,0.1775531768798828,-0.14538472890853882
1732227408978,SW,3.867814087711243,1.0s : 0.3s,-2.227472456340692,0.03414219975040548,0.06993103310786954,0.021725540981958183,0.10483308136463165,-0.054690998047590256,-0.03454793989658356,0.003774404525756836,0.010449185967445374,-0.018669962882995605,-0.17874882210147053,1.4216287854037002,2.5032348689029567,0.9731390476226807,0.17779846489429474,-0.14624707400798798
1732227408988,SW,3.867814087711243,1.0s : 0.3s,-2.227472456340692,0.0343370433716022,0.0739834355810153,0.023425173401645495,0.11663447320461273,-0.057237204164266586,-0.03544086590409279,0.005692839622497559,0.015012487769126892,-0.017057418823242188,-0.1789804834567516,1.4206866211011282,2.502051219098923,0.9729601144790649,0.17802643775939941,-0.1471577137708664
1732227408998,SW,3.867814087711243,1.0s : 0.3s,-2.227472456340692,0.0345361677509905,0.08242920702694231,0.02931355626918735,0.13516581058502197,-0.058003928512334824,-0.03964652866125107,0.001005411148071289,0.02243955433368683,-0.018834546208381653,-0.17920162163556286,1.4197310867659125,2.500708112427881,0.9727801084518433,0.17824403941631317,-0.14808142185211182
1732227409008,SW,3.867814087711243,1.0s : 0.3s,-2.227472456340692,0.03473613177045431,0.08987094767499633,0.029180923014961495,0.14584483206272125,-0.06076997518539429,-0.03382166475057602,-0.002132892608642578,0.02095523476600647,-0.020195424556732178,-0.17940750544116846,1.4187086838386769,2.499188163913494,0.9725918769836426,0.17844662070274353,-0.1490703523159027
1732227409018,SW,3.867814087711243,1.0s : 0.3s,-2.227472456340692,0.03493563896739538,0.09420219651903519,0.019640073097616246,0.1482616364955902,-0.06582971662282944,-0.029879655689001083,0.004948675632476807,0.01528555154800415,-0.011295795440673828,-0.17955589385497955,1.4176493982290295,2.4976442490244914,0.9724072813987732,0.17859262228012085,-0.15009647607803345
1732227409028,SW,3.867814087711243,1.0s : 0.3s,-2.227472456340692,0.03513096200797804,0.09999363929195715,0.014458019555928367,0.15614327788352966,-0.07299068570137024,-0.031897664070129395,0.00650179386138916,0.009879648685455322,-0.008315861225128174,-0.17971533667319148,1.416541808229917,2.4960476539007233,0.9722121953964233,0.17874950170516968,-0.15116901695728302
1732227409038,SW,3.867814087711243,1.0s : 0.3s,-2.227472456340692,0.03531722563389805,0.11013628144572438,0.012245002812096924,0.18535149097442627,-0.06816583126783371,-0.030288849025964737,0.001971006393432617,0.006945550441741943,-0.009890124201774597,-0.17989038511101696,1.415330880464268,2.4942539308441622,0.9719973802566528,0.17892172932624817,-0.1523413211107254
1732227409048,SW,3.867814087711243,1.0s : 0.3s,-2.227472456340692,0.0354935887700208,0.1227673248697128,0.01626316749277455,0.21597397327423096,-0.06800822168588638,-0.024879667907953262,-0.00220489501953125,0.007007881999015808,-0.014509260654449463,-0.17993561984133438,1.4140534730914631,2.49213450147856,0.9717941284179688,0.1789662390947342,-0.15358160436153412
1732227409058,SW,3.867814087711243,1.0s : 0.3s,-2.227472456340692,0.03564711239934015,0.13255563113053973,0.01786018635521027,0.221180722117424,-0.06757865846157074,-0.020734990015625954,-0.0014880895614624023,-0.011870205402374268,-0.013261601328849792,-0.1798610469971832,1.4128815882672936,2.4898783746851834,0.9716265797615051,0.17889286577701569,-0.1547224074602127
1732227409068,SW,3.867814087711243,1.0s : 0.3s,-2.227472456340692,0.035764722766188035,0.1406046187117167,0.028262207464217017,0.22646749019622803,-0.07000625878572464,-0.019375480711460114,-0.002572000026702881,-0.027705594897270203,-0.004953503608703613,-0.17979574531093995,1.4117293864965499,2.487612390941652,0.9714592695236206,0.17882861196994781,-0.15584367513656616
1732227409078,SW,3.867814087711243,1.0s : 0.3s,-2.227472456340692,0.035854287398839384,0.15501974910596888,0.024722383720014087,0.2735878825187683,-0.06444558501243591,-0.022561153396964073,-0.003869175910949707,-0.022540301084518433,-0.00938938558101654,-0.17975677637346024,1.4105164118111984,2.485072112546814,0.9712762832641602,0.17879027128219604,-0.15702301263809204
1732227409088,SW,3.867814087711243,1.0s : 0.3s,-2.227472456340692,0.03592687393646991,0.18082920496794896,0.012215335057629081,0.35732510685920715,-0.05378938466310501,-0.01567588374018669,-0.006491422653198242,-0.007760182023048401,-0.006845101714134216,-0.17959193261702455,1.4092526877876455,2.481881298965625,0.9711061716079712,0.1786280870437622,-0.15825505554676056
1732227409098,SW,3.867814087711243,1.0s : 0.3s,-2.227472456340692,0.035989164975819804,0.21855115034074915,0.0146992209958411,0.45936518907546997,-0.03628336265683174,-0.0004908055998384953,-0.010017752647399902,0.0007451176643371582,-0.010731101036071777,-0.17912045290272116,1.4080673462288118,2.4777862592948505,0.9710009694099426,0.17816416919231415,-0.15941967070102692
1732227409108,SW,3.867814087711243,1.0s : 0.3s,-2.227472456340692,0.03603770918628642,0.2673894015482331,0.021448452144319462,0.5713937282562256,-0.018523450940847397,0.004276252817362547,-0.011330842971801758,-0.006790176033973694,-0.016897976398468018,-0.17831156214555022,1.4068994555475494,2.472654903192254,0.9709560871124268,0.1773681640625,-0.16057705879211426
1732227409118,SW,3.867814087711243,1.0s : 0.3s,-2.227472456340692,0.03608408707366965,0.33711401375640837,0.02983027960953999,0.7476806044578552,0.005024752113968134,0.0008042897097766399,-0.012002825736999512,0.0026202499866485596,-0.027182936668395996,-0.1772771644623235,1.4056893525212428,2.466073950884313,0.970941424369812,0.17635007202625275,-0.16178195178508759
1732227409128,SW,3.867814087711243,1.0s : 0.3s,-2.227472456340692,0.03623338106932498,0.4467606381324179,0.06682922874223902,1.0483068227767944,0.04627658426761627,-0.03706007078289986,-0.012508928775787354,0.04035000503063202,-0.05178368091583252,-0.17593400082648197,1.4043659422201678,2.4571993688462963,0.9709592461585999,0.17502780258655548,-0.16310587525367737
1732227409138,SW,3.867814087711243,1.0s : 0.3s,-2.227472456340692,0.036623488648999544,0.6049005141264665,0.1372200316940014,1.4476184844970703,0.12282302230596542,-0.07781149446964264,-0.023733139038085938,0.11769910156726837,-0.06643038988113403,-0.17439758281692216,1.4029956762790563,2.4445740989061164,0.9709987044334412,0.17351488769054413,-0.16448089480400085
1732227409148,SW,3.867814087711243,1.0s : 0.3s,-2.227472456340692,0.03742519708162569,0.7910781079030087,0.23131418484512029,1.8151576519012451,0.1994905024766922,-0.10207957774400711,-0.0272902250289917,0.21533192694187164,-0.07996034622192383,-0.17250043569399215,1.4017903595752816,2.428103016648354,0.9711226224899292,0.17164620757102966,-0.16570621728897095
1732227409158,SW,3.867814087711243,1.0s : 0.3s,-2.227472456340692,0.03862518876843729,0.9735941653897086,0.24741519847732013,2.0691802501678467,0.24617864191532135,-0.11235298961400986,-0.0020899176597595215,0.24201369285583496,-0.05137397348880768,-0.1702764448907122,1.4006868202654705,2.40831871734167,0.9713129997253418,0.16945479810237885,-0.1668420135974884
1732227409168,SW,3.867814087711243,1.0s : 0.3s,-2.227472456340692,0.0399195889101693,1.091393282562812,0.17544350303426945,2.021005630493164,0.23031926155090332,-0.09346318989992142,0.026814758777618408,0.17312835156917572,-0.009378984570503235,-0.16776058668399166,1.3996269530699037,2.387551171813452,0.9715526103973389,0.16697479784488678,-0.16794346272945404
1732227409178,SW,3.867814087711243,1.0s : 0.3s,-2.227472456340692,0.0409971336351947,1.1699927324575794,0.08697758056347732,2.00150203704834,0.21202680468559265,-0.1306433230638504,0.028256356716156006,0.06339628994464874,0.052417442202568054,-0.16536849274247142,1.3984421341053233,2.367419079028069,0.9717437624931335,0.16461580991744995,-0.16916248202323914
1732227409188,SW,3.867814087711243,1.0s : 0.3s,-2.227472456340692,0.04172776435656795,1.1804767017692717,0.06817750732381142,1.7774932384490967,0.2363635152578354,-0.10323449224233627,-0.016044259071350098,0.02552826702594757,0.061147868633270264,-0.16335338164767632,1.3979013001935179,2.348796121854297,0.9719768166542053,0.16262786090373993,-0.16974471509456635
1732227409198,SW,3.867814087711243,1.0s : 0.3s,-2.227472456340692,0.04232043981808189,1.2080668699762078,0.12824444820200215,1.8737359046936035,0.2715854346752167,-0.11548769474029541,-0.033544957637786865,0.0822475254535675,0.09250253438949585,-0.16123270801701625,1.3975247170864136,2.330204729440851,0.9722504019737244,0.1605350524187088,-0.17016981542110443
1732227409208,SW,3.867814087711243,1.0s : 0.3s,-2.227472456340692,0.04297044867970584,1.2293294688892966,0.1444853803958646,1.8806675672531128,0.2763688266277313,-0.14561331272125244,-0.052316486835479736,0.1325112134218216,0.02407880127429962,-0.15926841983588863,1.3972542181946892,2.3114930722699825,0.97251296043396,0.15859593451023102,-0.1704869121313095
1732227409218,SW,3.867814087711243,1.0s : 0.3s,-2.227472456340692,0.04374375610345375,1.255030195943259,0.21706809558702056,1.9325709342956543,0.2745403051376343,-0.17894889414310455,-0.0761634111404419,0.1905926913022995,0.07065492868423462,-0.1575311764028792,1.3969983452500727,2.2924604022042043,0.9727392792701721,0.1568804383277893,-0.1707831472158432
1732227409228,SW,3.867814087711243,1.0s : 0.3s,-2.227472456340692,0.044661336502635214,1.2775723532119154,0.24969046158730457,1.950569748878479,0.2764549255371094,-0.23074278235435486,-0.10373443365097046,0.21593275666236877,0.07040978968143463,-0.1561456607202343,1.3967241834977204,2.273018480681549,0.9729054570198059,0.15551193058490753,-0.17108729481697083
1732227409238,SW,3.867814087711243,1.0s : 0.3s,-2.227472456340692,0.04572606860627097,1.2890530219596315,0.29127916089384087,1.9196749925613403,0.2958392798900604,-0.2877064645290375,-0.1281414031982422,0.23983100056648254,0.10442423820495605,-0.15533947670899725,1.396586946201209,2.253519532149134,0.9730052947998047,0.15471549332141876,-0.17124250531196594
1732227409248,SW,3.867814087711243,1.0s : 0.3s,-2.227472456340692,0.04702738140345434,1.2884623848490684,0.33276318305318153,1.859913945198059,0.31783756613731384,-0.3414282500743866,-0.1507502794265747,0.27660784125328064,0.10720910131931305,-0.15507371219921093,1.3966803715039748,2.2342401861998353,0.9730616211891174,0.15445291996002197,-0.17115870118141174
1732227409258,SW,3.867814087711243,1.0s : 0.3s,-2.227472456340692,0.048506275027236874,1.2583616298557996,0.3464064460665999,1.7032111883163452,0.3271991014480591,-0.40183088183403015,-0.1735416054725647,0.27110353112220764,0.127998486161232,-0.15559465024685565,1.3971136532131836,2.2159537721021936,0.9730563163757324,0.15496759116649628,-0.17072314023971558
1732227409268,SW,3.867814087711243,1.0s : 0.3s,-2.227472456340692,0.050092665405352683,1.215401846492189,0.37403225386623745,1.5728566646575928,0.3251095116138458,-0.4775157868862152,-0.198560893535614,0.259884774684906,0.1814761757850647,-0.15703486471115058,1.3977527086563801,2.1989494339283446,0.9729443788528442,0.1563902497291565,-0.17006267607212067
1732227409278,SW,3.867814087711243,1.0s : 0.3s,-2.227472456340692,0.051915499971835546,1.1722120743457929,0.41156663604722965,1.4781999588012695,0.3333117663860321,-0.5569226741790771,-0.21659034490585327,0.29014772176742554,0.19567835330963135,-0.15948686264681172,1.398519699606032,2.18304246084017,0.9726938009262085,0.15881159901618958,-0.16925014555454254
1732227409288,SW,3.867814087711243,1.0s : 0.3s,-2.227472456340692,0.054124142728065,1.140162719108187,0.4559082873737983,1.4281262159347534,0.3589145839214325,-0.648639976978302,-0.22828274965286255,0.33317437767982483,0.21150457859039307,-0.162937439030554,1.3995176957342437,2.167652017003408,0.972316563129425,0.16221743822097778,-0.16818492114543915
1732227409298,SW,3.867814087711243,1.0s : 0.3s,-2.227472456340692,0.056806764083836864,1.1353641246024713,0.5028922389745056,1.4443522691726685,0.4160529673099518,-0.7384116649627686,-0.2537195682525635,0.37170612812042236,0.22441376745700836,-0.1673273621664412,1.400851202904728,2.1523133174038622,0.9718286395072937,0.16654764115810394,-0.16676610708236694
1732227409308,SW,3.867814087711243,1.0s : 0.3s,-2.227472456340692,0.060045633391349516,1.1465731769498932,0.544805807624191,1.4873749017715454,0.4762720763683319,-0.8408573865890503,-0.2792494297027588,0.4140470027923584,0.21771128475666046,-0.1726244442791322,1.4026004528987674,2.136329589090995,0.971235454082489,0.17176838219165802,-0.16491587460041046
1732227409318,SW,3.867814087711243,1.0s : 0.3s,-2.227472456340692,0.06385799039251881,1.161794346099792,0.5731713904608473,1.4570071697235107,0.5306322574615479,-0.9322355389595032,-0.28940725326538086,0.44446414709091187,0.21730279922485352,-0.1789255533856194,1.4048284490877165,2.120158661085504,0.9705137610435486,0.17797237634658813,-0.1625695377588272
1732227409328,SW,3.867814087711243,1.0s : 0.3s,-2.227472456340692,0.06819903029516375,1.1843456234646612,0.5914495151620534,1.44667649269104,0.5860169529914856,-1.0216706991195679,-0.2852553129196167,0.4605555534362793,0.23734050989151,-0.18617851319447748,1.4074814259029749,2.1040108221768197,0.9696424603462219,0.18510480225086212,-0.1597801297903061
1732227409338,SW,3.867814087711243,1.0s : 0.3s,-2.227472456340692,0.07295456640328592,1.204645135630407,0.5807481516088518,1.3857910633087158,0.6360769271850586,-1.1159478425979614,-0.28156059980392456,0.45993804931640625,0.21552038192749023,-0.1944371992900857,1.4105598356244347,2.0879812100653945,0.9685875773429871,0.19321437180042267,-0.15654517710208893
1732227409348,SW,3.867814087711243,1.0s : 0.3s,-2.227472456340692,0.07799944319461216,1.216698400103824,0.5808972283725508,1.2674140930175781,0.6645704507827759,-1.2285939455032349,-0.27789807319641113,0.44634491205215454,0.24696248769760132,-0.20391478295732643,1.4140439346934612,2.0727911632658857,0.9672749042510986,0.20250454545021057,-0.1528768390417099
1732227409358,SW,3.867814087711243,1.0s : 0.3s,-2.227472456340692,0.08337785786272602,1.2462147429722166,0.6041863117498514,1.2853055000305176,0.6944811940193176,-1.3400912284851074,-0.2635851502418518,0.4751698672771454,0.26415443420410156,-0.21464591661500657,1.417718941213194,2.058067020061388,0.9656267762184143,0.21300148963928223,-0.14898110926151276
1732227409368,SW,3.867814087711243,1.0s : 0.3s,-2.227472456340692,0.08919389480419444,1.2886044149313562,0.6356360394267918,1.3005659580230713,0.7638528943061829,-1.4391616582870483,-0.240805983543396,0.5364968180656433,0.24128161370754242,-0.2264191450968309,1.4216669078536095,2.042862097769265,0.9636606574058533,0.2244895100593567,-0.144785076379776
1732227409378,SW,3.867814087711243,1.0s : 0.3s,-2.227472456340692,0.09543062116041813,1.3402980274138159,0.6671795008974779,1.30755615234375,0.8158940076828003,-1.5578023195266724,-0.23253071308135986,0.5662854313850403,0.26528996229171753,-0.2393220162953923,1.4260268066629649,2.0274258230253004,0.9613361954689026,0.23704402148723602,-0.14015266299247742
1732227409388,SW,3.867814087711243,1.0s : 0.3s,-2.227472456340692,0.10191935291656953,1.4105908869581705,0.6508679167798723,1.4073580503463745,0.8538792729377747,-1.6816374063491821,-0.2310141921043396,0.5546902418136597,0.2501603960990906,-0.25346534810860955,1.4303886706529254,2.0112184318665784,0.958522617816925,0.2507600784301758,-0.13547535240650177
1732227409398,SW,3.867814087711243,1.0s : 0.3s,-2.227472456340692,0.10851119370663322,1.4831431411882765,0.6429785901537981,1.4330458641052246,0.9215791821479797,-1.7855116128921509,-0.2172214388847351,0.5618009567260742,0.22497999668121338,-0.26867501461802945,1.434850239615292,1.994050402403373,0.9552279710769653,0.2654542326927185,-0.13066546618938446
1732227409408,SW,3.867814087711243,1.0s : 0.3s,-2.227472456340692,0.11518013127994951,1.5485056232495444,0.6415600724132399,1.3987187147140503,0.9733458161354065,-1.88618004322052,-0.18844443559646606,0.5563235282897949,0.25805455446243286,-0.2849656447899451,1.439645146914771,1.9769472120275733,0.951429545879364,0.281124472618103,-0.12550149857997894
1732227409418,SW,3.867814087711243,1.0s : 0.3s,-2.227472456340692,0.12185977182809313,1.612962855750684,0.6029181009678465,1.3963689804077148,0.9816405177116394,-2.0067594051361084,-0.15210586786270142,0.5130153298377991,0.277829647064209,-0.3024896067835753,1.4445213984703538,1.9599881721960541,0.9469971656799316,0.29789769649505615,-0.12022166699171066
1732227409428,SW,3.867814087711243,1.0s : 0.3s,-2.227472456340692,0.12852826309695323,1.6932377694814975,0.5953098561459658,1.5204765796661377,1.0217417478561401,-2.1233139038085938,-0.10699570178985596,0.5176124572753906,0.27390342950820923,-0.3211948356082737,1.449041883379711,1.9421709251691173,0.9418346881866455,0.315700501203537,-0.11524257808923721
1732227409438,SW,3.867814087711243,1.0s : 0.3s,-2.227472456340692,0.13522919048690593,1.77023544777863,0.6208173674877617,1.5375759601593018,1.0538607835769653,-2.2318220138549805,-0.07502937316894531,0.5557528138160706,0.26631486415863037,-0.340967557635261,1.4532682035295743,1.9233339897590644,0.9359301924705505,0.33439910411834717,-0.11050739139318466
1732227409448,SW,3.867814087711243,1.0s : 0.3s,-2.227472456340692,0.14194417216493455,1.8396788286715209,0.6122868864440588,1.4922268390655518,1.0912156105041504,-2.34651780128479,-0.060617804527282715,0.5475618839263916,0.26720160245895386,-0.36196273425797165,1.4575115432530292,1.9045494619731367,0.9292091727256775,0.3541104793548584,-0.10571788996458054
1732227409458,SW,3.867814087711243,1.0s : 0.3s,-2.227472456340692,0.14845435680202457,1.8964753025910859,0.5588656326029704,1.4023147821426392,1.1092623472213745,-2.4479169845581055,-0.0378187894821167,0.48311755061149597,0.27838456630706787,-0.3841894524390685,1.4618686376023782,1.8863614219613434,0.9216077327728271,0.37480780482292175,-0.10078753530979156
1732227409468,SW,3.867814087711243,1.0s : 0.3s,-2.227472456340692,0.15471973100247538,1.9551762084957105,0.5353253839916673,1.3841861486434937,1.1292098760604858,-2.5639710426330566,0.008873939514160156,0.46312767267227173,0.26834172010421753,-0.4076253651334137,1.466194265647893,1.868668414828672,0.913046658039093,0.3964303731918335,-0.09585642069578171
1732227409478,SW,3.867814087711243,1.0s : 0.3s,-2.227472456340692,0.1608941940535486,2.017402613574628,0.5451582838460103,1.4035894870758057,1.1366832256317139,-2.675109624862671,0.07147479057312012,0.4862700402736664,0.2358608841896057,-0.43226334365621366,1.4701461567184793,1.8506590853605316,0.9034245014190674,0.41892704367637634,-0.09123813360929489
1732227409488,SW,3.867814087711243,1.0s : 0.3s,-2.227472456340692,0.1670338904384531,2.0887372103092674,0.5676908896124869,1.4974277019500732,1.1313916444778442,-2.790447235107422,0.12953007221221924,0.5058540105819702,0.22272545099258423,-0.45802173783081723,1.4733227643271778,1.8318083011144892,0.8926715850830078,0.44217461347579956,-0.087288498878479
1732227409498,SW,3.867814087711243,1.0s : 0.3s,-2.227472456340692,0.17313640373043193,2.162647005539149,0.5873296536293071,1.5499789714813232,1.139575719833374,-2.9015047550201416,0.1608855128288269,0.532723069190979,0.18782466650009155,-0.48489693465013517,1.4755130965643337,1.8117385949667448,0.8807099461555481,0.46611717343330383,-0.08417177200317383
1732227409508,SW,3.867814087711243,1.0s : 0.3s,-2.227472456340692,0.1791756743000238,2.229992108466083,0.5974501137766552,1.553918480873108,1.1420190334320068,-2.9911787509918213,0.1887992024421692,0.5372561812400818,0.18071329593658447,-0.5127853726766222,1.4770058121262586,1.79105273091196,0.8675513863563538,0.49060627818107605,-0.08160752058029175
1732227409518,SW,3.867814087711243,1.0s : 0.3s,-2.227472456340692,0.18514753313687765,2.2800721817982113,0.5711388850217951,1.4817347526550293,1.1211291551589966,-3.0542542934417725,0.24237287044525146,0.48006826639175415,0.19232648611068726,-0.5414741271013642,1.4778882893257306,1.7703409457743604,0.8532538414001465,0.5153998136520386,-0.07950302213430405
1732227409528,SW,3.867814087711243,1.0s : 0.3s,-2.227472456340692,0.19100341711553526,2.3219769504972434,0.5611378452714979,1.4165059328079224,1.0904356241226196,-3.1373801231384277,0.2968902587890625,0.4225613474845886,0.21948522329330444,-0.5709915966327741,1.4782957829879322,1.7502549116090405,0.8377685546875,0.5404666066169739,-0.07771582901477814
1732227409538,SW,3.867814087711243,1.0s : 0.3s,-2.227472456340692,0.19659958197416136,2.3747139805329627,0.5990074280929576,1.4942622184753418,1.0867671966552734,-3.2338383197784424,0.3293575048446655,0.4544244408607483,0.20936083793640137,-0.6015247103456764,1.477798680218651,1.7296428025804573,0.8209110498428345,0.5659002065658569,-0.07656364142894745
1732227409548,SW,3.867814087711243,1.0s : 0.3s,-2.227472456340692,0.20217674281370127,2.4371061768857607,0.6427307095383794,1.6077098846435547,1.102089524269104,-3.3195583820343018,0.34919607639312744,0.5109955668449402,0.17334473133087158,-0.6327258310736307,1.4755839587754842,1.707019578770232,0.8027662038803101,0.5913451313972473,-0.07666508108377457
1732227409558,SW,3.867814087711243,1.0s : 0.3s,-2.227472456340692,0.20775995838108788,2.49810276002673,0.6496265116018962,1.6042062044143677,1.092578411102295,-3.424048662185669,0.364798903465271,0.5134190320968628,0.15917682647705078,-0.6647281786132381,1.4719424986003755,1.682916132660051,0.7832418084144592,0.6168451905250549,-0.07767964899539948
1732227409568,SW,3.867814087711243,1.0s : 0.3s,-2.227472456340692,0.2132814244076441,2.551398003483934,0.623955811504411,1.5425945520401,1.0468088388442993,-3.528333902359009,0.3892514705657959,0.4556930661201477,0.1736317276954651,-0.6977526175022601,1.467162301471735,1.658471036002085,0.7621766924858093,0.642497181892395,-0.07927142828702927
1732227409578,SW,3.867814087711243,1.0s : 0.3s,-2.227472456340692,0.21863048740460134,2.5939354641481556,0.6593276218571394,1.4674744606018066,0.9958072304725647,-3.6060993671417236,0.46322137117385864,0.43724769353866577,0.17015677690505981,-0.7316508981942247,1.461080633793043,1.6337986148110857,0.7395984530448914,0.6680989265441895,-0.0814727321267128
1732227409588,SW,3.867814087711243,1.0s : 0.3s,-2.227472456340692,0.22393451993233485,2.6213330154260346,0.7247373977283492,1.3724275827407837,0.9445282816886902,-3.645758628845215,0.5406482219696045,0.4524537920951843,0.1680159568786621,-0.7660768257260339,1.453858923706096,1.609167201127,0.715714693069458,0.6933134198188782,-0.08407740294933319
1732227409598,SW,3.867814087711243,1.0s : 0.3s,-2.227472456340692,0.22929050086130237,2.6477024742541997,0.7680618567813781,1.3494917154312134,0.902171790599823,-3.7028555870056152,0.5894418954849243,0.4699556827545166,0.14703375101089478,-0.8009277009783786,1.445357235593849,1.5842521271993402,0.690572202205658,0.7180021405220032,-0.08708196878433228
1732227409608,SW,3.867814087711243,1.0s : 0.3s,-2.227472456340692,0.23483906091804835,2.6869988160455676,0.7934979801389977,1.4150999784469604,0.9239619374275208,-3.782388210296631,0.5977475643157959,0.5045264363288879,0.1333790421485901,-0.8362453882828255,1.4344372428370864,1.557252407378905,0.6640321612358093,0.7421318292617798,-0.09111222624778748
1732227409618,SW,3.867814087711243,1.0s : 0.3s,-2.227472456340692,0.24071130692616152,2.738142241602134,0.8184161420849964,1.5102251768112183,0.9267947673797607,-3.872857093811035,0.5936070680618286,0.5505778789520264,0.11958105862140656,-0.8719961651502697,1.4208763481926971,1.527269590904044,0.6360834240913391,0.7656145691871643,-0.09608254581689835
1732227409628,SW,3.867814087711243,1.0s : 0.3s,-2.227472456340692,0.24695431907537732,2.792198260605536,0.8535195985831276,1.5486127138137817,0.9399704933166504,-3.953977584838867,0.6156994104385376,0.5789151787757874,0.11944520473480225,-0.9083185814400638,1.4040845607239834,1.4937553213190835,0.6065448522567749,0.7884706854820251,-0.10206548124551773
1732227409638,SW,3.867814087711243,1.0s : 0.3s,-2.227472456340692,0.2536117325139107,2.838628158473456,0.9210908954067053,1.545850396156311,0.9355674982070923,-4.002874851226807,0.6851940751075745,0.5981729030609131,0.14528143405914307,-0.944776163563732,1.3835761382817955,1.4567891823866113,0.5756853818893433,0.8103657960891724,-0.10905711352825165
1732227409648,SW,3.867814087711243,1.0s : 0.3s,-2.227472456340692,0.26057316989143325,2.8548117435965543,0.9629723899958056,1.4714699983596802,0.8385242819786072,-3.965585470199585,0.7586604952812195,0.5583754181861877,0.19991740584373474,-0.980790109705235,1.3604619300110956,1.4178346488041853,0.544104278087616,0.8309372067451477,-0.11616194248199463
1732227409658,SW,3.867814087711243,1.0s : 0.3s,-2.227472456340692,0.2676253736827019,2.8748653254914185,0.9744091968955595,1.4786972999572754,0.8062651753425598,-4.016537666320801,0.8085827827453613,0.4633675813674927,0.2845305800437927,-1.0164819027740568,1.3322490613996907,1.3748718299755613,0.5114550590515137,0.8502615094184875,-0.1243743747472763
1732227409668,SW,3.867814087711243,1.0s : 0.3s,-2.227472456340692,0.27477002853504995,2.8751688003862257,0.944903750513866,1.4675565958023071,0.7456079125404358,-3.9623055458068848,0.7892166972160339,0.4812725782394409,0.19584894180297852,-1.0513469040270966,1.2993354646075284,1.3279907751718798,0.47822412848472595,0.8680925965309143,-0.1331048458814621
1732227409678,SW,3.867814087711243,1.0s : 0.3s,-2.227472456340692,0.28203254854053955,2.884203052342726,0.911753714435835,1.5409088134765625,0.7431609630584717,-3.978626251220703,0.7747445702552795,0.4398725628852844,0.19384998083114624,-1.0850916000427628,1.259660000087039,1.2746544445289123,0.44441744685173035,0.8843461871147156,-0.14291615784168243
1732227409688,SW,3.867814087711243,1.0s : 0.3s,-2.227472456340692,0.2890512216163052,2.8836883813458165,0.8391438649395396,1.486993670463562,0.7181835770606995,-3.9611337184906006,0.7301141023635864,0.38425910472869873,0.153103768825531,-1.1175967974963732,1.2130870923908732,1.214714452251613,0.4101293981075287,0.8990508317947388,-0.1533021777868271
1732227409698,SW,3.867814087711243,1.0s : 0.3s,-2.227472456340692,0.2958523255614623,2.8888513102056885,0.824947795611937,1.4696927070617676,0.652387797832489,-4.022003173828125,0.729253888130188,0.3588264584541321,0.14131951332092285,-1.14906893889877,1.1587104559655255,1.1476311980825606,0.3750705122947693,0.9123831987380981,-0.16394832730293274
1732227409708,SW,3.867814087711243,1.0s : 0.3s,-2.227472456340692,0.3027419681120214,2.900818528787904,0.8573153911696868,1.4944109916687012,0.6091130375862122,-4.057849407196045,0.7601969242095947,0.3767188787460327,0.12317955493927002,-1.1792143923324014,1.0936013147696222,1.0702841292065377,0.3390156924724579,0.9243064522743225,-0.1752883344888687
1732227409718,SW,3.867814087711243,1.0s : 0.3s,-2.227472456340692,0.3097193357450318,2.9127450059959736,0.9163675246255495,1.4784282445907593,0.5378900170326233,-4.093382835388184,0.8152130246162415,0.3987998366355896,0.12694823741912842,-1.2073176184562169,1.0158481735640625,0.9809325911304636,0.30217286944389343,0.9346656799316406,-0.18732726573944092
1732227409728,SW,3.867814087711243,1.0s : 0.3s,-2.227472456340692,0.31669840395564763,2.9256760780143436,0.9164618328677453,1.456121802330017,0.4614885449409485,-4.1358137130737305,0.8362081050872803,0.36601096391677856,0.08181852102279663,-1.2330332315877144,0.9241967587348643,0.8785757372898548,0.26448461413383484,0.9434983134269714,-0.19964690506458282
1732227409738,SW,3.867814087711243,1.0s : 0.3s,-2.227472456340692,0.3237703752731841,2.936582861536626,0.9010111742651922,1.4590742588043213,0.4033893048763275,-4.150171756744385,0.8231081962585449,0.365354061126709,0.028817415237426758,-1.2553417215072555,0.8166750936111278,0.7609961438742037,0.22613197565078735,0.950655460357666,-0.21241120994091034
1732227409748,SW,3.867814087711243,1.0s : 0.3s,-2.227472456340692,0.3309325381775778,2.951680948177214,0.8854548439239315,1.4437925815582275,0.3450853228569031,-4.200155258178711,0.7911333441734314,0.3959224820137024,-0.03719812631607056,-1.2734352847424992,0.6928765611254998,0.6277743165117021,0.1871534138917923,0.9561130404472351,-0.22543616592884064
1732227409758,SW,3.867814087711243,1.0s : 0.3s,-2.227472456340692,0.3379891310876062,2.973042466965594,0.8409994655415685,1.4759209156036377,0.28771042823791504,-4.24984073638916,0.7462812662124634,0.38500863313674927,-0.04596439003944397,-1.2862677163799872,0.5527582404508992,0.478785334423032,0.14738021790981293,0.9597941040992737,-0.23890195786952972
1732227409768,SW,3.867814087711243,1.0s : 0.3s,-2.227472456340692,0.3450435320037556,2.993274227667169,0.8387050159777848,1.5114363431930542,0.2251315414905548,-4.268901824951172,0.7457959651947021,0.3808687925338745,-0.04640522599220276,-1.2926045756063342,0.4005452841467462,0.31819029715637615,0.10707879066467285,0.9615535736083984,-0.25288063287734985
1732227409778,SW,3.867814087711243,1.0s : 0.3s,-2.227472456340692,0.3522555638895253,3.050777213303563,0.8873566763152299,2.0807735919952393,0.3018985092639923,-4.278631210327148,0.7755922079086304,0.4307689070701599,-0.017226338386535645,-1.2898810886448469,0.24255057048882533,0.1519871969832872,0.06658616662025452,0.9608020782470703,-0.26912012696266174
1732227409788,SW,3.867814087711243,1.0s : 0.3s,-2.227472456340692,0.3601282746432252,3.124118020855883,1.0125706353136141,2.4146573543548584,0.19620491564273834,-4.309183597564697,0.8062751293182373,0.6058521270751953,-0.09034880995750427,-1.2737503201892966,0.08978483682735296,-0.00951274966279294,0.026244420558214188,0.9562053084373474,-0.29151761531829834
1732227409798,SW,3.867814087711243,1.0s : 0.3s,-2.227472456340692,0.3690943730663965,3.2219307395960337,1.187771201096371,2.43607759475708,0.07293518632650375,-4.542742729187012,0.8112097978591919,0.8440353274345398,-0.20085680484771729,-1.250418459442158,-0.04951133565228262,-0.1566718315171538,-0.015585999004542828,0.9491164684295654,-0.3145393133163452
1732227409808,SW,3.867814087711243,1.0s : 0.3s,-2.227472456340692,0.377470669747507,3.256253793218302,0.7910722685903324,2.233643054962158,-0.02315131574869156,-4.448007106781006,0.7043219804763794,0.3601357936859131,-0.005300194025039673,-1.2217500878008738,-0.17070133182952457,-0.284592685121789,-0.058096993714571,0.9396993517875671,-0.3370307385921478
1732227409818,SW,3.867814087711243,1.0s : 0.3s,-2.227472456340692,0.384743739399214,3.21858974898949,0.7395392035080408,1.5457441806793213,-0.2578918933868408,-4.430131435394287,0.7326254844665527,0.08084279298782349,0.060353755950927734,-1.1937660514942947,-0.27497888328104875,-0.3939068199050859,-0.09996553510427475,0.929762065410614,-0.3543296158313751
1732227409828,SW,3.867814087711243,1.0s : 0.3s,-2.227472456340692,0.39160421947233254,3.196194876166083,0.7545679505538968,1.5713980197906494,-0.3414655923843384,-4.421103000640869,0.7254464626312256,0.1972661018371582,0.06470167636871338,-1.1652806005502985,-0.36845874763745656,-0.4910161207662381,-0.1420876830816269,0.9188990592956543,-0.36801591515541077
1732227409838,SW,3.867814087711243,1.0s : 0.3s,-2.227472456340692,0.3985740609008955,3.1812489836031372,0.8075898680173119,1.772335410118103,-0.3778443932533264,-4.331467628479004,0.7155526876449585,0.37357378005981445,-0.025067448616027832,-1.132542959051567,-0.4466774612990591,-0.5721274184466475,-0.18331080675125122,0.905494213104248,-0.38272371888160706
1732227409848,SW,3.867814087711243,1.0s : 0.3s,-2.227472456340692,0.405692460558278,3.181158314529,0.8153494444478785,1.8237260580062866,-0.43198832869529724,-4.359953880310059,0.6914920806884766,0.4319567084312439,-0.006842583417892456,-1.096517169368144,-0.5122381417723968,-0.6399807381720283,-0.2238406538963318,0.889622151851654,-0.39807990193367004
1732227409858,SW,3.867814087711243,1.0s : 0.3s,-2.227472456340692,0.41291298375080937,3.18085693610563,0.7777258974884937,1.8293285369873047,-0.5020223259925842,-4.349156379699707,0.6738697290420532,0.38821762800216675,0.006650805473327637,-1.058350632910785,-0.5689558228310602,-0.6983751933310735,-0.26415592432022095,0.8715479373931885,-0.41306865215301514
1732227409868,SW,3.867814087711243,1.0s : 0.3s,-2.227472456340692,0.42028697562301814,3.1796716442847166,0.836711066291593,1.8576716184616089,-0.578643262386322,-4.316219329833984,0.7464067935943604,0.37809187173843384,0.002973794937133789,-1.0188821359477815,-0.6178614737012966,-0.7480324768133365,-0.30373406410217285,0.8515224456787109,-0.42738184332847595
1732227409878,SW,3.867814087711243,1.0s : 0.3s,-2.227472456340692,0.42801045845035657,3.179113135422811,0.9062620758994788,1.9162336587905884,-0.6297503709793091,-4.293938636779785,0.8056615591049194,0.4149894118309021,-0.0020470619201660156,-0.9780518413203979,-0.6600695410946963,-0.7902457106424874,-0.34254199266433716,0.8294106125831604,-0.4412970542907715
1732227409888,SW,3.867814087711243,1.0s : 0.3s,-2.227472456340692,0.4359594786181731,3.181157114406636,0.9052455177998034,1.9700278043746948,-0.7112616896629333,-4.283532619476318,0.7977749109268188,0.4229118227958679,-0.06457731127738953,-0.9360502305436295,-0.6969079378732793,-0.8261694392072317,-0.3805995583534241,0.8052222728729248,-0.4547097980976105
1732227409898,SW,3.867814087711243,1.0s : 0.3s,-2.227472456340692,0.44395166897539196,3.18859151991827,0.8636994032697608,1.989514708518982,-0.7761592268943787,-4.287472724914551,0.7706514596939087,0.3805064558982849,-0.08536875247955322,-0.892937625276558,-0.729559108897103,-0.8570152129870232,-0.4180055558681488,0.7789173722267151,-0.4675029516220093
1732227409908,SW,3.867814087711243,1.0s : 0.3s,-2.227472456340692,0.45197777267191414,3.1902281624988267,0.850867058960784,2.0316786766052246,-0.8216662406921387,-4.245310306549072,0.7709704637527466,0.35773372650146484,-0.040073394775390625,-0.849321613191773,-0.7588098429831959,-0.8847992759523361,-0.4544574022293091,0.7508324980735779,-0.47929003834724426
1732227409918,SW,3.867814087711243,1.0s : 0.3s,-2.227472456340692,0.460118188993818,3.18962753965787,0.8938273160086753,2.151998519897461,-0.8822993636131287,-4.156061172485352,0.81906658411026,0.3556407690048218,0.039709508419036865,-0.8049861742554819,-0.7841674725319704,-0.9059884933067378,-0.48950719833374023,0.7208210825920105,-0.49071356654167175
1732227409928,SW,3.867814087711243,1.0s : 0.3s,-2.227472456340692,0.46832598301359607,3.17831785710649,0.8980454683610924,2.1425342559814453,-0.9805085062980652,-4.082364559173584,0.8320708274841309,0.3368881344795227,0.02549874782562256,-0.7605167900254118,-0.8068828413899451,-0.924079505005391,-0.5231718420982361,0.6892959475517273,-0.5011610388755798
1732227409938,SW,3.867814087711243,1.0s : 0.3s,-2.227472456340692,0.47644806175613746,3.1532429869502208,0.8460470889209715,2.1089978218078613,-1.0615705251693726,-3.978097915649414,0.8072537779808044,0.2491598129272461,0.04534757137298584,-0.716527062406842,-0.8280388674335506,-0.9393663968775884,-0.5554684996604919,0.6567697525024414,-0.5100082159042358
1732227409948,SW,3.867814087711243,1.0s : 0.3s,-2.227472456340692,0.48414401518984895,3.1091978856491185,0.808087474889737,1.9561599493026733,-1.1297590732574463,-3.881096601486206,0.7911005616188049,0.1594730019569397,0.041636884212493896,-0.6737010377434915,-0.8483098122668574,-0.9528540371704988,-0.5862664580345154,0.6238826513290405,-0.5167802572250366
1732227409958,SW,3.867814087711243,1.0s : 0.3s,-2.227472456340692,0.4914972144534694,3.0615106261298535,0.7831114433907637,1.871820092201233,-1.1741886138916016,-3.8102452754974365,0.7665846347808838,0.14557814598083496,0.06647205352783203,-0.6321582554205619,-0.8680580918219325,-0.9653230852999964,-0.615614116191864,0.5908873081207275,-0.5214129090309143
1732227409968,SW,3.867814087711243,1.0s : 0.3s,-2.227472456340692,0.49867293210981234,3.0131652139493816,0.7789070774511294,1.8449273109436035,-1.208722472190857,-3.724318265914917,0.7579184770584106,0.17306947708129883,0.04798722267150879,-0.5913051343453478,-0.8868910921663018,-0.9772986277497396,-0.6435080766677856,0.5574450492858887,-0.5245497226715088
1732227409978,SW,3.867814087711243,1.0s : 0.3s,-2.227472456340692,0.505870586372758,2.9604435830800133,0.8024321945873262,1.8495979309082031,-1.2147846221923828,-3.608433961868286,0.7815543413162231,0.1709831953048706,0.06192725896835327,-0.5511210579240523,-0.9044426465570135,-0.9864769054789018,-0.6696920990943909,0.5236426591873169,-0.5266031622886658
1732227409988,SW,3.867814087711243,1.0s : 0.3s,-2.227472456340692,0.5130777082922728,2.903067187300521,0.8056510951044634,1.8037205934524536,-1.233274221420288,-3.505197048187256,0.7882178425788879,0.1417340636253357,0.08773696422576904,-0.5118215188705626,-0.9209743492510091,-0.9940132099835779,-0.6941626071929932,0.4897661507129669,-0.5275105237960815
1732227409998,SW,3.867814087711243,1.0s : 0.3s,-2.227472456340692,0.5202599532050303,2.836803242778298,0.7975107618790858,1.7384121417999268,-1.268915057182312,-3.373251438140869,0.7812396287918091,0.09086093306541443,0.1320316195487976,-0.47363129602301623,-0.9369303909774626,-1.000260446703554,-0.7170458436012268,0.4561208486557007,-0.5270664095878601
1732227410008,SW,3.867814087711243,1.0s : 0.3s,-2.227472456340692,0.5274093981896392,2.7600950187285274,0.822909494077162,1.6412220001220703,-1.2857972383499146,-3.237551689147949,0.8050737380981445,0.04382506012916565,0.16466838121414185,-0.4369413585883174,-0.9524822252650966,-1.0055318184083466,-0.7383012175559998,0.42317017912864685,-0.5252031087875366
1732227410018,SW,3.867814087711243,1.0s : 0.3s,-2.227472456340692,0.5343750866010196,2.6745350773730547,0.8391223595522482,1.5057337284088135,-1.323593258857727,-3.1030666828155518,0.8122296333312988,-0.0008426308631896973,0.2107335925102234,-0.40191089840944993,-0.9678419844945344,-1.010160444534676,-0.758030354976654,0.3911776840686798,-0.5218908190727234
1732227410028,SW,3.867814087711243,1.0s : 0.3s,-2.227472456340692,0.5411695470881259,2.5828952720356186,0.8378135680575903,1.3803091049194336,-1.3422917127609253,-2.967895746231079,0.8120778203010559,-0.0427170991897583,0.2015848159790039,-0.36871853918893577,-0.9832359528746965,-1.014542619896874,-0.7763569355010986,0.3604204058647156,-0.5170755386352539
1732227410038,SW,3.867814087711243,1.0s : 0.3s,-2.227472456340692,0.5476729655564643,2.486760720231196,0.8552361150093855,1.28427255153656,-1.3353946208953857,-2.824725866317749,0.8206360936164856,-0.09354639053344727,0.22188800573349,-0.33720530411327,-0.9983937941512042,-1.018446761430068,-0.7932618856430054,0.33085107803344727,-0.5111489295959473
1732227410048,SW,3.867814087711243,1.0s : 0.3s,-2.227472456340692,0.5538965424195504,2.3897572142868087,0.8692572772762011,1.2254520654678345,-1.3101218938827515,-2.6843862533569336,0.8154826164245605,-0.14530527591705322,0.26359570026397705,-0.3072358301822112,-1.0130560409943272,-1.0215312239384264,-0.8087229132652283,0.3024250566959381,-0.5044862627983093
1732227410058,SW,3.867814087711243,1.0s : 0.3s,-2.227472456340692,0.5598810997258666,2.2844133772289297,0.8953280543180592,1.21235191822052,-1.2580454349517822,-2.489108085632324,0.8139548301696777,-0.1925794780254364,0.3193790912628174,-0.278772100445164,-1.0268461487939942,-1.0234223462127645,-0.822637140750885,0.2751753628253937,-0.49754077196121216
1732227410068,SW,3.867814087711243,1.0s : 0.3s,-2.227472456340692,0.5655635164466083,2.160127853095083,0.9285087275512267,1.1650317907333374,-1.1775318384170532,-2.2451484203338623,0.8118191957473755,-0.27522242069244385,0.3568342328071594,-0.25233324007846497,-1.0395535911320217,-1.0240518943216794,-0.834875226020813,0.24966399371623993,-0.4905623197555542
1732227410078,SW,3.867814087711243,1.0s : 0.3s,-2.227472456340692,0.570793734283636,2.0169843306099495,0.9935399435791273,1.0321975946426392,-1.1212033033370972,-1.996866226196289,0.8124077320098877,-0.411346971988678,0.397377610206604,-0.22843786112366835,-1.0513024340796313,-1.0238649686098262,-0.8455192446708679,0.22645623981952667,-0.4835440218448639
1732227410088,SW,3.867814087711243,1.0s : 0.3s,-2.227472456340692,0.5755377155829988,1.863414746438744,1.0850437519939837,0.8877875208854675,-1.0634328126907349,-1.7702467441558838,0.830146312713623,-0.543025016784668,0.4396599531173706,-0.20736499363579558,-1.0624791455048426,-1.0235202606274605,-0.8548502326011658,0.20588205754756927,-0.4762810468673706
1732227410098,SW,3.867814087711243,1.0s : 0.3s,-2.227472456340692,0.5799491226709815,1.6985393771801272,1.1555111566391643,0.825219452381134,-0.9468234181404114,-1.507729172706604,0.853247344493866,-0.611883819103241,0.4824657440185547,-0.1888092950140015,-1.0725900116645688,-1.0225731607901214,-0.8628298044204712,0.18768948316574097,-0.46935850381851196
1732227410108,SW,3.867814087711243,1.0s : 0.3s,-2.227472456340692,0.5841035221025761,1.5244526624769001,1.2249897853206146,0.7592816352844238,-0.8251953721046448,-1.2406667470932007,0.8652465343475342,-0.6900672912597656,0.5251243114471436,-0.1730153909565509,-1.0813739356848395,-1.0206525343545492,-0.8694273233413696,0.172153502702713,-0.46309736371040344
1732227410118,SW,3.867814087711243,1.0s : 0.3s,-2.227472456340692,0.5880011626259039,1.342447181070766,1.3070260408419856,0.7274855971336365,-0.6669396758079529,-0.9636169075965881,0.8682331442832947,-0.7918293476104736,0.5722714066505432,-0.15978746085577758,-1.088656465296087,-1.0176928483155425,-0.8747180700302124,0.15910838544368744,-0.4577694833278656
1732227410128,SW,3.867814087711243,1.0s : 0.3s,-2.227472456340692,0.5917550553362612,1.149817088117808,1.4121985727401931,0.6887539029121399,-0.4777902662754059,-0.6668862104415894,0.884285569190979,-0.8813128471374512,0.6600238680839539,-0.14929232207145787,-1.0940155409520371,-1.0137378426851347,-0.8785939812660217,0.14873836934566498,-0.45381659269332886
1732227410138,SW,3.867814087711243,1.0s : 0.3s,-2.227472456340692,0.595476097487302,0.9519345241627863,1.4948445367628518,0.7108688354492188,-0.2694493234157562,-0.32893240451812744,0.8857484459877014,-0.9481921792030334,0.7422543168067932,-0.14168950602412753,-1.0971719203394636,-1.0097454084728166,-0.8810029029846191,0.14121589064598083,-0.4515438675880432
1732227410148,SW,3.867814087711243,1.0s : 0.3s,-2.227472456340692,0.5992110060424312,0.7549364817572084,1.5665157084592198,0.6955592036247253,-0.05676178261637688,0.02465805783867836,0.8911664485931396,-1.0265055894851685,0.7785114645957947,-0.13711860870074302,-1.0980517031437387,-1.004104035371412,-0.8819652795791626,0.13668933510780334,-0.4510578215122223
1732227410158,SW,3.867814087711243,1.0s : 0.3s,-2.227472456340692,0.6030870174207581,0.5763384036644721,1.6674745948412435,0.6632055044174194,0.17219683527946472,0.41184893250465393,0.9094163179397583,-1.1037297248840332,0.8574463129043579,-0.1361014792027345,-1.0965298576649765,-0.9970481742934789,-0.8814010620117188,0.13568168878555298,-0.452462762594223
1732227410168,SW,3.867814087711243,1.0s : 0.3s,-2.227472456340692,0.6072125849918772,0.46930876608993805,1.7497270529271183,0.6088905334472656,0.3824619650840759,0.8001987934112549,0.927780032157898,-1.172119379043579,0.9093432426452637,-0.1385812555424803,-1.0926072436105987,-0.9885474680040867,-0.8793179988861084,0.13813811540603638,-0.4557604491710663
1732227410178,SW,3.867814087711243,1.0s : 0.3s,-2.227472456340692,0.6117209130088359,0.5012041130448567,1.851661761325653,0.5196975469589233,0.6441679000854492,1.2029826641082764,0.9708658456802368,-1.255016803741455,0.9544650912284851,-0.1448199323636057,-1.0862105922724186,-0.9787356118592735,-0.8756051659584045,0.144314244389534,-0.4609653949737549
1732227410188,SW,3.867814087711243,1.0s : 0.3s,-2.227472456340692,0.6168040518154895,0.6777995855161514,1.9713358997646369,0.4614320695400238,0.8891876935958862,1.6257545948028564,1.0191540718078613,-1.329599142074585,1.0390651226043701,-0.15504873923304435,-1.0768849568072092,-0.9676389268008622,-0.8699231147766113,0.15442825853824615,-0.4683864712715149
1732227410198,SW,3.867814087711243,1.0s : 0.3s,-2.227472456340692,0.6226463036326549,0.9299177755132726,2.0324624742354636,0.42981743812561035,1.157673716545105,2.032139301300049,1.0830570459365845,-1.3665200471878052,1.0442768335342407,-0.1690514179171471,-1.064594731588813,-0.9548729967574314,-0.8621249794960022,0.16824737191200256,-0.4779469072818756
1732227410208,SW,3.867814087711243,1.0s : 0.3s,-2.227472456340692,0.6295381789243649,1.2232146465625107,2.0824437785383076,0.49123910069465637,1.4594714641571045,2.4387221336364746,1.1893837451934814,-1.3645141124725342,1.0295822620391846,-0.18625249588555626,-1.048820870210211,-0.9397413618740519,-0.851844072341919,0.1851775199174881,-0.4899703562259674
1732227410218,SW,3.867814087711243,1.0s : 0.3s,-2.227472456340692,0.6376967949004583,1.5496430956533633,2.134159370348811,0.6088091731071472,1.8078075647354126,2.8850817680358887,1.29058837890625,-1.3515727519989014,1.030664324760437,-0.2062734084338619,-1.0288232515759868,-0.9211319408555428,-0.838531494140625,0.20481373369693756,-0.5048922896385193
1732227410228,SW,3.867814087711243,1.0s : 0.3s,-2.227472456340692,0.6472620534444254,1.8977374642335831,2.233213284028848,0.6602177619934082,2.1551616191864014,3.3604159355163574,1.4203689098358154,-1.3907567262649536,1.01763916015625,-0.2294656621911474,-1.0042233376816652,-0.8987171100125482,-0.8216291666030884,0.2274572253227234,-0.5226746201515198
1732227410238,SW,3.867814087711243,1.0s : 0.3s,-2.227472456340692,0.6584987012456882,2.2652275882091333,2.4219765757268217,0.6902344822883606,2.5142970085144043,3.8610520362854004,1.608006238937378,-1.4795012474060059,1.0446829795837402,-0.2559216115582159,-0.9745151015480527,-0.8724635115435257,-0.8004806041717529,0.25313711166381836,-0.543279230594635
1732227410248,SW,3.867814087711243,1.0s : 0.3s,-2.227472456340692,0.6717592578657364,2.6507568804282724,2.6409135898958804,0.702861487865448,2.855440139770508,4.40302848815918,1.8380603790283203,-1.562978982925415,1.0738041400909424,-0.28567508144390424,-0.939566651833977,-0.841912214833415,-0.7745837569236755,0.28180524706840515,-0.5662205815315247
1732227410258,SW,3.867814087711243,1.0s : 0.3s,-2.227472456340692,0.6875997046446628,3.063671291225994,2.8916267404215876,0.7626385688781738,3.2638115882873535,4.980864524841309,2.144968032836914,-1.5945868492126465,1.103589653968811,-0.3185119227960574,-0.8983367678214808,-0.8059616023940845,-0.742944598197937,0.3131536841392517,-0.5915810465812683
1732227410268,SW,3.867814087711243,1.0s : 0.3s,-2.227472456340692,0.7064102638259948,3.496576344054438,3.1868977754823002,0.7274163365364075,3.6727592945098877,5.579306125640869,2.444998264312744,-1.675119161605835,1.1714421510696411,-0.35418518650197045,-0.8497682994281565,-0.7639870073392996,-0.7045044898986816,0.3468262553215027,-0.6191807985305786
1732227410278,SW,3.867814087711243,1.0s : 0.3s,-2.227472456340692,0.7286997416998114,3.951743668499289,3.5261833552066406,0.6238686442375183,4.099482536315918,6.22185754776001,2.8079116344451904,-1.7337901592254639,1.2424061298370361,-0.3927176884074651,-0.7932342223293701,-0.7155379524567401,-0.6583754420280457,0.3827006220817566,-0.6481373310089111
1732227410288,SW,3.867814087711243,1.0s : 0.3s,-2.227472456340692,0.7550915782005245,4.452845475364259,3.9205589614093816,0.4919625520706177,4.598613739013672,6.995092868804932,3.2621982097625732,-1.7572503089904785,1.2809827327728271,-0.4341689999579936,-0.72707649775234,-0.659085896483304,-0.6030184030532837,0.42065665125846863,-0.6778028607368469
1732227410298,SW,3.867814087711243,1.0s : 0.3s,-2.227472456340692,0.7862395172765873,5.010309313551544,4.382429614365203,0.3637782037258148,5.223723411560059,7.822414398193359,3.77653431892395,-1.7713491916656494,1.3438005447387695,-0.47788477373399013,-0.6486352612931423,-0.5924057555718695,-0.5364219546318054,0.45990195870399475,-0.70763099193573
1732227410308,SW,3.867814087711243,1.0s : 0.3s,-2.227472456340692,0.8228791734919265,5.639395987177243,4.929378719122353,0.17465196549892426,5.936820983886719,8.781621932983398,4.375926494598389,-1.769061803817749,1.4214296340942383,-0.5225988402842755,-0.5545930956556698,-0.5127405699747473,-0.45630979537963867,0.49913379549980164,-0.7366456389427185
1732227410318,SW,3.867814087711243,1.0s : 0.3s,-2.227472456340692,0.8660685042541875,6.339326387554553,5.655029347099383,-0.04620850086212158,6.719002723693848,9.81185245513916,5.145815372467041,-1.7780125141143799,1.529252290725708,-0.5664245186859868,-0.441505519435913,-0.41687546285544413,-0.3605673909187317,0.5366184115409851,-0.7629101276397705
1732227410328,SW,3.867814087711243,1.0s : 0.3s,-2.227472456340692,0.9167919100165481,7.051558753217241,6.469922239271955,-0.5169938206672668,7.238470077514648,10.791240692138672,5.996376991271973,-1.7929726839065552,1.6396968364715576,-0.6066495452077553,-0.30843241693975704,-0.3028718043592372,-0.24939805269241333,0.5701180696487427,-0.7827937602996826
1732227410338,SW,3.867814087711243,1.0s : 0.3s,-2.227472456340692,0.9759119301005886,7.754301239197233,7.327953782574237,-1.0029213428497314,7.542354583740234,11.783268928527832,6.956381320953369,-1.6491961479187012,1.6086695194244385,-0.6401316798331547,-0.15648365197469105,-0.16972222159322464,-0.12499099224805832,0.5973010659217834,-0.7922176122665405
1732227410348,SW,3.867814087711243,1.0s : 0.3s,-2.227472456340692,1.0445173661424605,8.395792474861151,8.32817319735155,-1.4777235984802246,7.828372001647949,12.439468383789062,8.087468147277832,-1.250882625579834,1.544869065284729,-0.6614033236413315,0.012369392943150176,-0.01803528990060196,0.009760823100805283,0.6142248511314392,-0.7890706658363342
1732227410358,SW,3.867814087711243,1.0s : 0.3s,-2.227472456340692,1.1232995543567215,8.92913394033349,9.337008639371708,-2.3759913444519043,7.952888488769531,12.755350112915039,9.188539505004883,-0.6443173885345459,1.5281777381896973,-0.6670841598363634,0.1912081640585835,0.14344642095525192,0.14930500090122223,0.6186978220939636,-0.7713112235069275
1732227410368,SW,3.867814087711243,1.0s : 0.3s,-2.227472456340692,1.2128603592030804,9.367533781613682,10.441270592821978,-4.527171611785889,7.583693504333496,12.994013786315918,10.325448989868164,0.15723943710327148,1.5428903102874756,-0.6635768486951042,0.37400452093121545,0.31291904565448375,0.28781747817993164,0.6159386038780212,-0.7333353161811829
1732227410378,SW,3.867814087711243,1.0s : 0.3s,-2.227472456340692,1.3136448912521796,9.777064030281382,11.65398362332455,-7.476288318634033,6.603407382965088,13.230748176574707,11.478470802307129,1.323693037033081,1.5191705226898193,-0.6578621798291446,0.5572787517497401,0.4953049953038906,0.4185023307800293,0.611426591873169,-0.6715753674507141
1732227410388,SW,3.867814087711243,1.0s : 0.3s,-2.227472456340692,1.424776198918511,10.284698601088085,12.72347256806008,-10.635295867919922,4.980840682983398,13.693794250488281,12.29624080657959,3.010812520980835,1.2744505405426025,-0.6485801975976502,0.7396775940021013,0.6995721602971589,0.5371787548065186,0.6040555238723755,-0.5886899828910828
1732227410398,SW,3.867814087711243,1.0s : 0.3s,-2.227472456340692,1.5448354954257455,10.944623694503084,13.867704231318593,-13.001884460449219,3.7605860233306885,14.070465087890625,12.71049976348877,5.423390865325928,1.1589857339859009,-0.6259358174517818,0.9177414958033459,0.9255253085985746,0.6436571478843689,0.5858559012413025,-0.49242082238197327
1732227410408,SW,3.867814087711243,1.0s : 0.3s,-2.227472456340692,1.6704109680070032,11.655997010116664,14.65438301122686,-14.96009635925293,2.5214004516601562,14.014911651611328,12.123958587646484,8.14178466796875,1.2132238149642944,-0.5830254140841121,1.084353509960076,1.1621616998991082,0.7379651069641113,0.5505520701408386,-0.39025628566741943
1732227410418,SW,3.867814087711243,1.0s : 0.3s,-2.227472456340692,1.7971172809881002,11.930768965696002,14.968023923878421,-13.590551376342773,0.6955469846725464,13.580451011657715,10.562942504882812,10.47044563293457,1.6839697360992432,-0.5145109302599938,1.2163540374210589,1.3814386702855939,0.8164213299751282,0.49210914969444275,-0.30213379859924316
1732227410428,SW,3.867814087711243,1.0s : 0.3s,-2.227472456340692,1.9207731379919446,12.123176560926883,14.9362664266907,-14.33553409576416,-1.2427983283996582,12.90080451965332,8.520541191101074,12.098036766052246,2.0322251319885254,-0.4299502762101362,1.3024792608371434,1.5772877540082593,0.8764615058898926,0.4168255925178528,-0.2409805953502655
1732227410438,SW,3.867814087711243,1.0s : 0.3s,-2.227472456340692,2.0382731621861963,12.213793548064745,14.329183400077799,-14.195392608642578,-2.557997941970825,12.382073402404785,6.246138095855713,12.548775672912598,2.9731271266937256,-0.34158748121397126,1.3507089006396424,1.758980645423408,0.9194962382316589,0.33498328924179077,-0.20570161938667297
1732227410448,SW,3.867814087711243,1.0s : 0.3s,-2.227472456340692,2.147462744519538,12.554396714368371,12.915842923385872,-16.601818084716797,-3.305391550064087,11.426774024963379,4.245547294616699,11.534280776977539,3.9692182540893555,-0.25576046284628023,1.3750071946197433,1.9398377975309757,0.9489872455596924,0.2529812157154083,-0.18821249902248383
1732227410458,SW,3.867814087711243,1.0s : 0.3s,-2.227472456340692,2.245696799437216,13.409012526853125,10.774103844674062,-20.671279907226562,-4.6992597579956055,10.5824613571167,2.468353748321533,9.491459846496582,4.461023807525635,-0.1837981724891885,1.3800838359130663,2.1484243431486836,0.965331494808197,0.18276508152484894,-0.18636572360992432
1732227410468,SW,3.867814087711243,1.0s : 0.3s,-2.227472456340692,2.3308290825697817,15.391623049896545,7.093850112566375,-27.323070526123047,-6.7841410636901855,11.745622634887695,1.7632206678390503,5.859397888183594,3.5890414714813232,-0.12424384897375335,1.366812624160612,2.4077059811688546,0.9717188477516174,0.12392444908618927,-0.2010105550289154
1732227410478,SW,3.867814087711243,1.0s : 0.3s,-2.227472456340692,2.399859192546493,13.032524144707589,3.7793071143754107,-9.83664321899414,-2.4678268432617188,4.935658931732178,2.583831548690796,1.8822788000106812,-2.015937328338623,-0.06367178628653708,1.3134273792150766,2.5608563656226666,0.9651033282279968,0.06362877041101456,-0.25402122735977173
1732227410488,SW,3.867814087711243,1.0s : 0.3s,-2.227472456340692,2.458254645341551,14.44519547879542,5.627090751536413,-24.998252868652344,-11.123579025268555,5.2053303718566895,2.503909111022949,-2.374307155609131,4.444913387298584,-0.09196610828639909,1.3027005545685464,2.8207733832720487,0.9602020978927612,0.09183652698993683,-0.2637762725353241
1732227410498,SW,3.867814087711243,1.0s : 0.3s,-2.227472456340692,2.5422248208608487,14.848447277280886,13.993684080377204,-21.754812240600586,-11.176288604736328,2.4181067943573,9.213468551635742,6.128215789794922,8.566222190856934,-0.10789430167772794,1.2161443991763898,2.9954860996926844,0.9323142766952515,0.10768508911132812,-0.3452446460723877
1732227410508,SW,3.867814087711243,1.0s : 0.3s,-2.227472456340692,2.6235918612866467,14.45817345929851,6.930682922758742,-20.35371208190918,-6.4734320640563965,-2.3436219692230225,6.129826545715332,3.221841812133789,0.2816516160964966,-0.20139170342734328,1.1489632877077325,-3.0729898766915773,0.8939008116722107,0.20003309845924377,-0.40115851163864136
1732227410518,SW,3.867814087711243,1.0s : 0.3s,-2.227472456340692,2.6888921929025895,14.00406507859341,8.558431378946752,-16.649646759033203,-12.203853607177734,-4.882750988006592,-0.36421316862106323,0.43169140815734863,8.539773941040039,-0.2982668462383649,1.0826862925628358,-2.925203467809372,0.8442240953445435,0.29386401176452637,-0.4482516944408417
1732227410528,SW,3.867814087711243,1.0s : 0.3s,-2.227472456340692,2.7552167802231335,12.544809287113756,8.454188878580808,-9.262248992919922,-11.765519142150879,-5.602309226989746,3.686414957046509,7.5849761962890625,0.5931192636489868,-0.4146587304677068,0.9973188469820959,-2.8285995782628146,0.7688309550285339,0.4028775990009308,-0.4965769350528717
1732227410538,SW,3.867814087711243,1.0s : 0.3s,-2.227472456340692,2.8102167341636712,11.299897028705146,4.523261641266175,-6.769742012023926,-11.580324172973633,-5.222800254821777,1.0588774681091309,4.397211074829102,-0.05664932727813721,-0.5006043441246333,0.8967221546559916,-2.794136140091307,0.6854157447814941,0.4799558222293854,-0.5475834608078003
1732227410548,SW,3.867814087711243,1.0s : 0.3s,-2.227472456340692,2.856770756887776,10.82975657654145,3.9084858550779926,-7.130361080169678,-12.717735290527344,-5.959214687347412,3.258241891860962,0.4392830729484558,-2.1135637760162354,-0.5884300934023311,0.7812001770716135,-2.7809651130486617,0.5857062935829163,0.5550558567047119,-0.5906446576118469
1732227410558,SW,3.867814087711243,1.0s : 0.3s,-2.227472456340692,2.9052256291912064,10.69896263009149,5.477448481588701,-6.852240562438965,-13.183121681213379,-6.764963150024414,4.93606424331665,-0.8640907406806946,2.211573839187622,-0.6827399484364179,0.6516522867011435,-2.780496050161999,0.47055190801620483,0.6309211850166321,-0.6168625354766846
1732227410568,SW,3.867814087711243,1.0s : 0.3s,-2.227472456340692,2.953146296740535,10.571526683174136,4.662447526058117,-5.625380516052246,-12.535666465759277,-8.476603507995605,3.9652249813079834,-0.21426784992218018,2.4432554244995117,-0.775932919599699,0.49403373113286164,-2.822574049292848,0.33845528960227966,0.7003822922706604,-0.6284207701683044
1732227410578,SW,3.867814087711243,1.0s : 0.3s,-2.227472456340692,2.997941346173841,10.464413042571206,3.848600441762941,-4.980182647705078,-11.714868545532227,-9.492534637451172,2.896343469619751,-0.00015932321548461914,2.5343480110168457,-0.8593796789238509,0.3072550530381515,-2.9124941535800146,0.19746753573417664,0.7574377059936523,-0.6223300099372864
1732227410588,SW,3.867814087711243,1.0s : 0.3s,-2.227472456340692,3.0430517151542964,10.311887473959086,4.744714061888454,-4.089589595794678,-10.727540969848633,-10.3102388381958,3.504610061645508,-0.042968153953552246,3.1981515884399414,-0.9242789376937709,0.08408853195298907,-3.054342993998773,0.05059611797332764,0.7981866002082825,-0.6002817153930664
1732227410598,SW,3.867814087711243,1.0s : 0.3s,-2.227472456340692,3.089203990226978,9.974674434615954,4.882541162579492,-1.697486400604248,-9.38233470916748,-11.017110824584961,3.5354416370391846,0.3702309727668762,3.3470568656921387,-0.9499355598428398,-0.16549596164972524,3.04520486192868,-0.09583600610494614,0.8133780360221863,-0.5737871527671814
1732227410608,SW,3.867814087711243,1.0s : 0.3s,-2.227472456340692,3.134465584169798,9.638783825286946,3.947833535032301,0.4903161823749542,-8.720049858093262,-11.179576873779297,3.304363965988159,0.8038066029548645,2.0051093101501465,-0.9233619129658065,-0.40352012730966935,2.86425886428289,-0.23682862520217896,0.7976338267326355,-0.5547003149986267
1732227410618,SW,3.867814087711243,1.0s : 0.3s,-2.227472456340692,3.18015117074287,9.34608677232345,4.295446455896227,1.6925586462020874,-8.458403587341309,-10.585506439208984,3.915314197540283,0.8543489575386047,1.5463708639144897,-0.8611096079440133,-0.6009677137278285,2.7232858132633018,-0.3684391379356384,0.7585660219192505,-0.5374292731285095
1732227410628,SW,3.867814087711243,1.0s : 0.3s,-2.227472456340692,3.2271997073470553,9.034364363977406,4.72942920732115,2.1736698150634766,-7.951012134552002,-9.862189292907715,4.301112174987793,0.16030901670455933,1.9601621627807617,-0.7820812349383506,-0.7561407078831764,2.624385930979781,-0.48676598072052,0.7047574520111084,-0.5161161422729492
