timestamp,club,max_speed,tempo,w.rotation,l.speed,t.spped,acc,rotation.x,rotation.y,rotation.z,userAcceleration.x,userAcceleration.y,userAcceleration.z,pitch,roll,yaw,gravity.x,gravity.y,gravity.z
1732227336304,SW,4.761875967086646,1.1s : 0.3s,-15.891113508682409,0.00012589146950036487,0.034025862779576685,0.03731187328616743,0.15517467260360718,0.000194931635633111,-0.023613635450601578,0.0057141780853271484,0.036562249064445496,0.004767179489135742,-0.16760579335732861,1.50399367247751,0.15681315496935255,0.9837878346443176,0.1668221801519394,-0.06581757217645645
1732227336314,SW,4.761875967086646,1.1s : 0.3s,-15.891113508682409,0.00026769721390686104,0.03353500717623419,0.026975024506646888,0.09249318391084671,-0.015523310750722885,-0.026882529258728027,0.021756470203399658,0.015180572867393494,0.004884481430053711,-0.16754804953871344,1.5037665129978384,0.15557187235172037,0.9837824702262878,0.1667652428150177,-0.06604169309139252
1732227336324,SW,4.761875967086646,1.1s : 0.3s,-15.891113508682409,0.00040867505411303973,0.03374162608109417,0.02927209326105151,0.05216600373387337,-0.023393750190734863,-0.020633690059185028,0.026628077030181885,-0.01205424964427948,-0.001579880714416504,-0.1676542378363361,1.5035116553195034,0.15482627783478115,0.9837479591369629,0.16686993837356567,-0.06629122793674469
1732227336334,SW,4.761875967086646,1.1s : 0.3s,-15.891113508682409,0.0005347741483458936,0.03266467702462698,0.031094732035834283,0.009889652952551842,-0.030468352138996124,-0.02303832396864891,0.01571434736251831,-0.025694727897644043,-0.0077280402183532715,-0.16802475267022512,1.5031184859152753,0.1544918516676164,0.9836600422859192,0.16723524034023285,-0.06667381525039673
1732227336344,SW,4.761875967086646,1.1s : 0.3s,-15.891113508682409,0.0006372291852299144,0.0316349206849968,0.040093096918937594,-0.004163049161434174,-0.03804025053977966,-0.02358480542898178,0.010941505432128906,-0.03065820038318634,-0.023405440151691437,-0.1685090036097464,1.5026852660072914,0.1544691680330788,0.9835502505302429,0.16771265864372253,-0.06709443777799606
1732227336364,SW,4.761875967086646,1.1s : 0.3s,-15.891113508682409,0.0007307320630280149,0.03024667389415785,0.03626202363858082,-0.013918740674853325,-0.03626081347465515,-0.014567475765943527,-0.006816864013671875,-0.01872934401035309,-0.03029317408800125,-0.1693948933175868,1.5019052614455983,0.15450394580603743,0.9833490252494812,0.16858594119548798,-0.06785133481025696
1732227336374,SW,4.761875967086646,1.1s : 0.3s,-15.891113508682409,0.0008322814123778466,0.028937301390284765,0.03862277250691563,-0.03851702809333801,-0.04267938807606697,-0.01731232926249504,-0.009508788585662842,-0.0035476088523864746,-0.03726547956466675,-0.16976720415515556,1.5015739879052978,0.15476117852891594,0.9832636713981628,0.16895289719104767,-0.06817273795604706
1732227336384,SW,4.761875967086646,1.1s : 0.3s,-15.891113508682409,0.0009454946271843822,0.027999796884089635,0.035250266188723824,-0.026967696845531464,-0.0382702574133873,-0.010708488523960114,-0.01097196340560913,-0.017031937837600708,-0.028846323490142822,-0.17010328028236413,1.501263334977498,0.15510659831374615,0.9831857681274414,0.1692841351032257,-0.06847423315048218
1732227336394,SW,4.761875967086646,1.1s : 0.3s,-15.891113508682409,0.0010696646344153145,0.02624271018503156,0.036298151429155566,-0.05159900709986687,-0.027022752910852432,-0.0021438300609588623,-0.009180128574371338,-0.029269099235534668,-0.019406206905841827,-0.17024225404235824,1.5010650587615042,0.15547439677753772,0.9831487536430359,0.16942110657691956,-0.06866754591464996
1732227336404,SW,4.761875967086646,1.1s : 0.3s,-15.891113508682409,0.0012073735526288763,0.033626304956076346,0.02325603287598424,-0.12214401364326477,-0.03531796485185623,-0.002959289588034153,-0.008212804794311523,-0.010723710060119629,-0.018931321799755096,-0.17022067620626288,1.5009237633035208,0.15631999046638612,0.983142614364624,0.16939984261989594,-0.0688067078590393
1732227336414,SW,4.761875967086646,1.1s : 0.3s,-15.891113508682409,0.0013524079982033187,0.062270200674063324,0.016250817360085424,-0.198561429977417,-0.053463634103536606,0.0022188611328601837,-0.006589710712432861,0.0007959455251693726,-0.014833450317382812,-0.17017500487570283,1.5007293833059316,0.15797624990710943,0.9831369519233704,0.16935482621192932,-0.06899835169315338
1732227336424,SW,4.761875967086646,1.1s : 0.3s,-15.891113508682409,0.001496646959940874,0.08632773297910974,0.03312839508679883,-0.2080412209033966,-0.05427563190460205,0.005489223171025515,0.014384746551513672,-0.02738383412361145,0.01186150312423706,-0.17007884930004247,1.5003661542275324,0.16003998080693438,0.9831280708312988,0.16926005482673645,-0.06935659795999527
1732227336434,SW,4.761875967086646,1.1s : 0.3s,-15.891113508682409,0.001642260757430092,0.09214012682952533,0.012713674953111924,-0.15745779871940613,-0.0446634404361248,4.0362123399972916e-05,0.008502960205078125,-0.009181767702102661,-0.0022432878613471985,-0.16987929057363213,1.4999862979211838,0.16188465566941015,0.9831354022026062,0.16906337440013885,-0.0697324350476265
1732227336444,SW,4.761875967086646,1.1s : 0.3s,-15.891113508682409,0.0017837039328502217,0.0752547342034452,0.03562273694690916,-0.03593083471059799,0.025963855907320976,-0.09193297475576401,-0.013619303703308105,0.022876307368278503,-0.02366787940263748,-0.17006572429551417,1.4995196510227846,0.16283807969913763,0.9830713272094727,0.1692471206188202,-0.0701889619231224
1732227336454,SW,4.761875967086646,1.1s : 0.3s,-15.891113508682409,0.0018987111715909144,0.18441818284709713,0.06799255325701517,0.13923990726470947,0.33385294675827026,-0.8113820552825928,-0.03539156913757324,0.04528139531612396,-0.03633207082748413,-0.17060234778886296,1.4988294783360503,0.16297517424748606,0.982931911945343,0.16977597773075104,-0.07086088508367538
1732227336464,SW,4.761875967086646,1.1s : 0.3s,-15.891113508682409,0.0021232381615681546,0.2954071091109633,0.0906194145966461,0.10029438883066177,0.42418259382247925,-0.7247512936592102,0.06110137701034546,0.06386353075504303,-0.019998736679553986,-0.1694907769542083,1.4977501871365015,0.1623831908718138,0.9830424785614014,0.16868044435977936,-0.07193544507026672
1732227336474,SW,4.761875967086646,1.1s : 0.3s,-15.891113508682409,0.002670683196546208,0.2523316240309219,0.16074827851131604,0.046832889318466187,0.10389988869428635,-0.19952836632728577,0.14846271276474,0.05253267288208008,-0.032235853374004364,-0.16965451457886524,1.4972199029350928,0.16198375223699726,0.9829764366149902,0.16884183883666992,-0.07245468348264694
1732227336484,SW,4.761875967086646,1.1s : 0.3s,-15.891113508682409,0.003272885568116154,0.17755457856296164,0.057898435670668026,0.0985240489244461,-0.02328682504594326,-0.003999353386461735,0.025650978088378906,0.050379976630210876,-0.012494564056396484,-0.17025953632487723,1.4968588336129254,0.16100120684898042,0.9828481674194336,0.16943813860416412,-0.07280204445123672
1732227336494,SW,4.761875967086646,1.1s : 0.3s,-15.891113508682409,0.0038873686626089672,0.13613675750813922,0.07444654305165815,0.11171508580446243,-0.03353693336248398,-0.04856858402490616,-0.026893138885498047,0.04507981240749359,-0.05279069393873215,-0.17041980063383874,1.4962954676185207,0.15987327813797053,0.9827799201011658,0.16959607601165771,-0.07335371524095535
1732227336504,SW,4.761875967086646,1.1s : 0.3s,-15.891113508682409,0.004500774110192474,0.1086173950988032,0.040985918466871676,0.11071693152189255,-0.04363537207245827,-0.0371398963034153,0.017030715942382812,0.02215665578842163,-0.029981374740600586,-0.17068755090515136,1.495751191523069,0.15873783764763677,0.9826946258544922,0.16985994577407837,-0.07388520240783691
1732227336514,SW,4.761875967086646,1.1s : 0.3s,-15.891113508682409,0.005078020047413494,0.1045331549229774,0.03879527154033263,0.13849690556526184,-0.04816869646310806,-0.045802559703588486,-0.014564692974090576,0.002000093460083008,-0.03590184450149536,-0.17096597333565716,1.4950799321687367,0.15745103714513073,0.9825975298881531,0.17013432085514069,-0.07454124093055725
1732227336524,SW,4.761875967086646,1.1s : 0.3s,-15.891113508682409,0.005636977096120308,0.10197382659613931,0.045660273422455086,0.16758394241333008,-0.046605151146650314,-0.04421931132674217,-0.0035268068313598633,0.017771601676940918,-0.04191172122955322,-0.17135925153100867,1.4942650465595932,0.15586197342366023,0.9824696779251099,0.17052185535430908,-0.07533680647611618
1732227336534,SW,4.761875967086646,1.1s : 0.3s,-15.891113508682409,0.006184389221613016,0.10358757499334577,0.05108023841420527,0.18341270089149475,-0.045912377536296844,-0.041765473783016205,-0.0017380118370056152,0.02389371395111084,-0.04511386156082153,-0.17178948892704685,1.493371716605439,0.1540289750243073,0.9823288321495056,0.17094576358795166,-0.07620877027511597
1732227336544,SW,4.761875967086646,1.1s : 0.3s,-15.891113508682409,0.006711575162138487,0.10842219858791763,0.043545367572191025,0.18501512706279755,-0.04534485936164856,-0.03787805885076523,-0.0034577250480651855,0.010214760899543762,-0.04218888282775879,-0.1721683530690217,1.4925635723264998,0.15212380130698352,0.9822022318840027,0.17131905257701874,-0.0769975334405899
1732227336554,SW,4.761875967086646,1.1s : 0.3s,-15.891113508682409,0.007211573476082583,0.11036483080642827,0.04084002587341545,0.1760191023349762,-0.05363212525844574,-0.03849707543849945,-0.0057808756828308105,-0.0022271573543548584,-0.04036742448806763,-0.172468735475825,1.4916992375821119,0.15025667668130313,0.9820839762687683,0.17161497473716736,-0.07784239202737808
1732227336564,SW,4.761875967086646,1.1s : 0.3s,-15.891113508682409,0.00768551778189514,0.11366470719537711,0.0383904942386297,0.18271082639694214,-0.05310748517513275,-0.040214814245700836,-0.0065811872482299805,-0.0008933842182159424,-0.03781163692474365,-0.17283411800790152,1.4908318440242325,0.1484159276156013,0.981953501701355,0.17197492718696594,-0.07868919521570206
1732227336574,SW,4.761875967086646,1.1s : 0.3s,-15.891113508682409,0.008135686926490058,0.12235375484351681,0.03257709849634177,0.20706477761268616,-0.05397891253232956,-0.03436554968357086,-0.005907237529754639,0.005933985114097595,-0.03148268908262253,-0.1731681006478813,1.489789456931209,0.1464000372611368,0.9818136096000671,0.1723039299249649,-0.07970806956291199
1732227336584,SW,4.761875967086646,1.1s : 0.3s,-15.891113508682409,0.008565376448892624,0.12846229369076256,0.031044749341574987,0.2091958373785019,-0.05488172173500061,-0.03313809633255005,-0.005792140960693359,0.011328399181365967,-0.028317749500274658,-0.173376812141624,1.4888008183157408,0.144227189175316,0.9816985130310059,0.17250950634479523,-0.08067575097084045
1732227336594,SW,4.761875967086646,1.1s : 0.3s,-15.891113508682409,0.008982681237576768,0.137202721479029,0.038401705726061934,0.22144997119903564,0.00492865638807416,-0.09380453824996948,-0.006905555725097656,0.012920409440994263,-0.035497426986694336,-0.17366594867150226,1.4879032172466216,0.14205030380040665,0.9815759658813477,0.17279431223869324,-0.08155275881290436
1732227336604,SW,4.761875967086646,1.1s : 0.3s,-15.891113508682409,0.00936974589275377,0.23016850510243975,0.04389066830183319,0.3261244595050812,0.2957839369773865,-0.66034996509552,-0.027905821800231934,0.002495214343070984,-0.033785052597522736,-0.17404130471348173,1.486883768892666,0.140068240161468,0.9814276695251465,0.1731640100479126,-0.08254794776439667
1732227336614,SW,4.761875967086646,1.1s : 0.3s,-15.891113508682409,0.009748154169489267,0.26014304690490503,0.033587046974832925,0.3002951145172119,0.2126554399728775,-0.3393387496471405,0.028815627098083496,-0.005986005067825317,-0.016183853149414062,-0.17375970728584533,1.4855117633670076,0.13818388178223068,0.9813620448112488,0.1728866547346115,-0.08389854431152344
1732227336624,SW,4.761875967086646,1.1s : 0.3s,-15.891113508682409,0.010273563135610387,0.22033245569082843,0.10797841218367617,0.17323942482471466,0.002686230232939124,-0.1047971099615097,0.10568904876708984,0.012586236000061035,-0.018186509609222412,-0.17397426036411992,1.484688243943545,0.13640985162155142,0.9812555313110352,0.17309796810150146,-0.0847034826874733
1732227336634,SW,4.761875967086646,1.1s : 0.3s,-15.891113508682409,0.010787428258203904,0.17146717581234294,0.03953151099511646,0.14549341797828674,-0.058878641575574875,0.019513629376888275,0.03531593084335327,0.00620664656162262,-0.016643404960632324,-0.17402218396444324,1.4837057836347713,0.13472033914529377,0.9811635613441467,0.17314517498016357,-0.08566676825284958
1732227336644,SW,4.761875967086646,1.1s : 0.3s,-15.891113508682409,0.011266256011177452,0.14682723432765074,0.03264841740128444,0.14606386423110962,-0.06348750740289688,-0.03204037621617317,-0.014014244079589844,0.0021315962076187134,-0.029410481452941895,-0.17400766906112308,1.4825971534885798,0.13319918447802717,0.9810705184936523,0.17313088476657867,-0.0867546871304512
1732227336654,SW,4.761875967086646,1.1s : 0.3s,-15.891113508682409,0.011726003745792858,0.13065605777628675,0.02731120885632569,0.15190882980823517,-0.05162014812231064,-0.008072825148701668,0.020356714725494385,0.0006780922412872314,-0.018194682896137238,-0.17407361980044894,1.4815845196725583,0.1316400228995628,0.9809709787368774,0.17319583892822266,-0.08774710446596146
1732227336664,SW,4.761875967086646,1.1s : 0.3s,-15.891113508682409,0.012141291969161116,0.1298037378693237,0.02329693526777137,0.15719574689865112,-0.03333701565861702,-0.08949550986289978,-0.01559591293334961,-0.003780379891395569,-0.016888558864593506,-0.17418500185583743,1.4806245615117613,0.130021488111526,0.9808669686317444,0.17330552637577057,-0.088687002658844
1732227336674,SW,4.761875967086646,1.1s : 0.3s,-15.891113508682409,0.012531216765868793,0.13033727900755238,0.021461641556338045,0.14260029792785645,0.006211545318365097,-0.1617908775806427,-0.002245664596557617,0.002105697989463806,-0.02123970538377762,-0.17425086972066758,1.479568035433723,0.12845328758227956,0.9807614088058472,0.17337040603160858,-0.08972223103046417
1732227336684,SW,4.761875967086646,1.1s : 0.3s,-15.891113508682409,0.012908815792328098,0.13862466566850618,0.024346578537136534,0.11671996116638184,0.05384990572929382,-0.24064680933952332,0.015004456043243408,0.004001781344413757,-0.01875121146440506,-0.17420032495874324,1.478540642998964,0.1270930040538949,0.9806774258613586,0.17332062125205994,-0.09073062241077423
1732227336694,SW,4.761875967086646,1.1s : 0.3s,-15.891113508682409,0.013269838432154952,0.16218617273572844,0.024869665684889863,0.10364331305027008,0.09350481629371643,-0.3289576470851898,0.022439658641815186,-0.004275009036064148,-0.009832918643951416,-0.17405200687187924,1.4777110897442243,0.12596205174738076,0.9806273579597473,0.17317454516887665,-0.09154649823904037
1732227336704,SW,4.761875967086646,1.1s : 0.3s,-15.891113508682409,0.013617338774035325,0.20054625319281189,0.024588168247602685,0.10180040448904037,0.13859106600284576,-0.41915810108184814,0.02322787046432495,0.00031185150146484375,-0.008058957755565643,-0.17393420344879718,1.4768842963958901,0.12488723948004685,0.980571448802948,0.17305852472782135,-0.09235914051532745
1732227336714,SW,4.761875967086646,1.1s : 0.3s,-15.891113508682409,0.013971835130896898,0.24603348626544275,0.03956098225741335,0.07776524126529694,0.16708622872829437,-0.5064505338668823,0.03283113241195679,0.015748754143714905,-0.01546495407819748,-0.17384631674567558,1.4760043758185235,0.12397485253326346,0.9805049896240234,0.1729719638824463,-0.09322337061166763
1732227336724,SW,4.761875967086646,1.1s : 0.3s,-15.891113508682409,0.014336955589927966,0.29908328849440646,0.048915619802556855,0.06440496444702148,0.19188877940177917,-0.6055251955986023,0.04643058776855469,0.00820210576057434,-0.01302550733089447,-0.17380877022591942,1.474917570764623,0.12327505560643783,0.9804095029830933,0.17293497920036316,-0.09428954869508743
1732227336734,SW,4.761875967086646,1.1s : 0.3s,-15.891113508682409,0.014732654147530586,0.3561158211489455,0.06528350101421422,0.05711548775434494,0.22930596768856049,-0.6945071816444397,0.06418389081954956,-0.005787268280982971,-0.010434135794639587,-0.17382128454188672,1.4737371563607244,0.12270853689750975,0.9802953600883484,0.17294730246067047,-0.09544656425714493
1732227336744,SW,4.761875967086646,1.1s : 0.3s,-15.891113508682409,0.015155382817834354,0.41638681251861437,0.06837339145172974,0.06364555656909943,0.281694620847702,-0.7806351184844971,0.06809461116790771,-0.0014214664697647095,-0.006002001464366913,-0.17380395591509287,1.4725471590927444,0.12214999036166614,0.9801841378211975,0.17293024063110352,-0.0966133400797844
1732227336754,SW,4.761875967086646,1.1s : 0.3s,-15.891113508682409,0.015621101180596102,0.47757571708311913,0.07267161297575482,0.045025937259197235,0.3245968520641327,-0.8667057752609253,0.07123041152954102,0.010897517204284668,-0.009414665400981903,-0.17373676605369864,1.471406467281355,0.12170874266006748,0.9800848960876465,0.17286406457424164,-0.09773252159357071
1732227336764,SW,4.761875967086646,1.1s : 0.3s,-15.891113508682409,0.01615698224557419,0.5206879125134025,0.08482032105778456,0.0024036404211074114,0.340859979391098,-0.8641382455825806,0.08377015590667725,0.011353343725204468,-0.0069389790296554565,-0.17364577592154515,1.4703454700874299,0.12156927552211975,0.9799962043762207,0.17277443408966064,-0.09877390414476395
1732227336774,SW,4.761875967086646,1.1s : 0.3s,-15.891113508682409,0.016728981673439045,0.5444890508786604,0.08773387257353006,-0.023585747927427292,0.33540400862693787,-0.8314442038536072,0.08724361658096313,-0.007006257772445679,-0.006057731807231903,-0.17361813658787334,1.4694311129462774,0.12192588750058526,0.9799103140830994,0.17274720966815948,-0.0996704176068306
1732227336784,SW,4.761875967086646,1.1s : 0.3s,-15.891113508682409,0.017310508703811685,0.5558200426243395,0.07784412491590241,-0.007103178650140762,0.33644476532936096,-0.8007235527038574,0.07768464088439941,-0.003649413585662842,0.003389120101928711,-0.17354078259649647,1.4686055097105508,0.12231856262817337,0.9798409938812256,0.17267102003097534,-0.10048076510429382
1732227336794,SW,4.761875967086646,1.1s : 0.3s,-15.891113508682409,0.01791700017827102,0.5568898148949835,0.07668681857382484,0.01998063735663891,0.33808067440986633,-0.7739170789718628,0.07351690530776978,0.01872757077217102,-0.011198699474334717,-0.17345560972114782,1.4678755375953825,0.12252640258070782,0.9797820448875427,0.17258712649345398,-0.1011975109577179
1732227336804,SW,4.761875967086646,1.1s : 0.3s,-15.891113508682409,0.01855096987417752,0.5559827823890964,0.07879283412766419,0.04536695405840874,0.3368161916732788,-0.7436617016792297,0.07004189491271973,0.032548487186431885,-0.015589728951454163,-0.17336627571883317,1.4672350027233705,0.1225032078802149,0.9797324538230896,0.1724991351366043,-0.10182667523622513
1732227336814,SW,4.761875967086646,1.1s : 0.3s,-15.891113508682409,0.01920860704583679,0.5471793924305705,0.08000664099195579,0.06545184552669525,0.3234879970550537,-0.7136598229408264,0.07095342874526978,0.03483539819717407,-0.012376129627227783,-0.17324428242851922,1.4666204177173405,0.1222659535765449,0.9796904921531677,0.17237897217273712,-0.10243096202611923
1732227336824,SW,4.761875967086646,1.1s : 0.3s,-15.891113508682409,0.019883796387730485,0.5354827453128873,0.07755098834833792,0.07362082600593567,0.31048616766929626,-0.6879576444625854,0.07257896661758423,0.02547946572303772,-0.009861350059509277,-0.17316915396190435,1.4659705873993787,0.12189731272048059,0.9796366095542908,0.17230495810508728,-0.10306893289089203
1732227336834,SW,4.761875967086646,1.1s : 0.3s,-15.891113508682409,0.020570080755596316,0.5202152548021299,0.07366571481553355,0.08207117021083832,0.2997450828552246,-0.6529476642608643,0.07001250982284546,0.02148681879043579,-0.007950007915496826,-0.173101979372046,1.4652979415524108,0.12146877896081681,0.9795785546302795,0.1722387969493866,-0.10372907668352127
1732227336844,SW,4.761875967086646,1.1s : 0.3s,-15.891113508682409,0.021261877557008205,0.5023703620674905,0.07066679423647616,0.0699085146188736,0.2960832417011261,-0.6160897612571716,0.06670337915420532,0.022935211658477783,-0.0042931437492370605,-0.17302571673102876,1.4647127980974646,0.12105826654778311,0.9795307517051697,0.17216366529464722,-0.10430364310741425
1732227336854,SW,4.761875967086646,1.1s : 0.3s,-15.891113508682409,0.021954641752140833,0.4813410659628682,0.06569630082473656,0.0441749207675457,0.28120434284210205,-0.5781424641609192,0.06132131814956665,0.022952362895011902,-0.005374841392040253,-0.1729153652536737,1.4641990576617614,0.12084825169912354,0.9794958829879761,0.1720549613237381,-0.10480886697769165
1732227336864,SW,4.761875967086646,1.1s : 0.3s,-15.891113508682409,0.02264053366971888,0.45737270098960114,0.060640848139744845,0.0184306763112545,0.2647409439086914,-0.5368651151657104,0.05942642688751221,0.012002766132354736,-0.0013213083148002625,-0.17278513698522135,1.4637239778643425,0.12093611220527216,0.9794681668281555,0.17192667722702026,-0.10527657717466354
1732227336874,SW,4.761875967086646,1.1s : 0.3s,-15.891113508682409,0.02331368129926928,0.4332814890087088,0.055099248797903906,0.018619760870933533,0.25021544098854065,-0.5031294226646423,0.054676055908203125,0.006814971566200256,-0.00011086463928222656,-0.17264553958040088,1.4632541247639141,0.1211185992006397,0.9794425964355469,0.17178915441036224,-0.10573936998844147
1732227336884,SW,4.761875967086646,1.1s : 0.3s,-15.891113508682409,0.02397128203668625,0.4097790765815697,0.04702480189768394,0.025482727214694023,0.24116653203964233,-0.47025564312934875,0.045741915702819824,0.009138986468315125,-0.005957186222076416,-0.17250138884892494,1.4628073354782272,0.12127619156485633,0.9794198870658875,0.17164714634418488,-0.1061796247959137
1732227336894,SW,4.761875967086646,1.1s : 0.3s,-15.891113508682409,0.024592199840418404,0.386471720994754,0.03894976969020087,0.03739318251609802,0.22778671979904175,-0.4379734694957733,0.03604191541671753,0.014071375131607056,-0.004478983581066132,-0.1723581377121126,1.4623912994212693,0.12131666917612796,0.9793999195098877,0.17150601744651794,-0.10658974200487137
1732227336904,SW,4.761875967086646,1.1s : 0.3s,-15.891113508682409,0.0251938682752224,0.3636154167845495,0.039608430766188696,0.04249127209186554,0.20819304883480072,-0.41086485981941223,0.03404134511947632,0.018473654985427856,-0.008290879428386688,-0.17227283813228264,1.4619849845571664,0.1212657413545939,0.9793711304664612,0.17142198979854584,-0.10698926448822021
1732227336914,SW,4.761875967086646,1.1s : 0.3s,-15.891113508682409,0.025778275708972988,0.33928039914007074,0.03924231315863264,0.03627865016460419,0.18735629320144653,-0.3752765953540802,0.03408157825469971,0.018597111105918884,-0.005705490708351135,-0.17224045484844522,1.4615581436480345,0.12120782193115626,0.9793310165405273,0.1713900864124298,-0.10740791261196136
1732227336924,SW,4.761875967086646,1.1s : 0.3s,-15.891113508682409,0.026345595558520295,0.31496924249705127,0.0399713387104434,0.03762860596179962,0.16725581884384155,-0.3446369469165802,0.03397244215011597,0.020992055535316467,-0.0017072483897209167,-0.17221016201919903,1.4611064199707469,0.1211586422964905,0.9792873859405518,0.17136023938655853,-0.10785084217786789
1732227336934,SW,4.761875967086646,1.1s : 0.3s,-15.891113508682409,0.026898160990664752,0.290138987860753,0.04052216964981463,0.032518401741981506,0.14826150238513947,-0.31100544333457947,0.03307598829269409,0.023176267743110657,-0.0032993704080581665,-0.1722079317355016,1.460644340982053,0.12111724113936403,0.979237973690033,0.17135803401470184,-0.10830339044332504
1732227336944,SW,4.761875967086646,1.1s : 0.3s,-15.891113508682409,0.02743433025077611,0.2660617033088245,0.03679489893099527,0.026312435045838356,0.1364557147026062,-0.2801806628704071,0.025835156440734863,0.024075478315353394,-0.01033347100019455,-0.17223996610668754,1.4602071523295583,0.12110308180879231,0.9791849255561829,0.1713895946741104,-0.10873087495565414
1732227336954,SW,4.761875967086646,1.1s : 0.3s,-15.891113508682409,0.02794374541668094,0.2411961720461636,0.02998774186510859,0.003142667468637228,0.1167214959859848,-0.24734222888946533,0.013463258743286133,0.021637484431266785,-0.015805840492248535,-0.17228298032253683,1.4598266997990088,0.12122509886626541,0.9791362285614014,0.17143197357654572,-0.10910259187221527
1732227336964,SW,4.761875967086646,1.1s : 0.3s,-15.891113508682409,0.028406020225353202,0.21752358142426445,0.022710965617092807,-0.017674198374152184,0.09586228430271149,-0.2235357016324997,0.006641685962677002,0.015105053782463074,-0.015604913234710693,-0.17239310731694496,1.4594479276816084,0.12155676139964322,0.979076087474823,0.17154046893119812,-0.10947135835886002
1732227336974,SW,4.761875967086646,1.1s : 0.3s,-15.891113508682409,0.028841160326695633,0.1939718207902188,0.023364889255736144,-0.0027190831024199724,0.07746247202157974,-0.1926191747188568,0.005792558193206787,0.015898287296295166,-0.016112379729747772,-0.17253272203648481,1.4590595636485166,0.12190222715218157,0.9790096879005432,0.17167802155017853,-0.10984890908002853
1732227336984,SW,4.761875967086646,1.1s : 0.3s,-15.891113508682409,0.02926148441334853,0.17148350085054387,0.034169637717481056,0.021177727729082108,0.06835898756980896,-0.16302132606506348,0.010801374912261963,0.026111915707588196,-0.019210994243621826,-0.17265104862757127,1.4586530787394476,0.12200280635648865,0.9789447784423828,0.1717945784330368,-0.11024457961320877
1732227336994,SW,4.761875967086646,1.1s : 0.3s,-15.891113508682409,0.029668472290097097,0.14969296585072508,0.036267724278729395,0.02759075164794922,0.055274296551942825,-0.13511115312576294,0.010230004787445068,0.030084535479545593,-0.017481863498687744,-0.17272309297387803,1.4582725768587548,0.12192887502505843,0.9788904786109924,0.1718655526638031,-0.11061567813158035
1732227337004,SW,4.761875967086646,1.1s : 0.3s,-15.891113508682409,0.030057001605375694,0.12821773994840063,0.029231392747570688,0.019246801733970642,0.037651095539331436,-0.10922683775424957,0.0065444111824035645,0.023821324110031128,-0.015626564621925354,-0.17279226311235182,1.4579034892347296,0.12185102266473709,0.978837788105011,0.17193369567394257,-0.11097563058137894
1732227337014,SW,4.761875967086646,1.1s : 0.3s,-15.891113508682409,0.03042865800222246,0.10765605584744425,0.02430477274515778,0.016241958364844322,0.021274782717227936,-0.08609296381473541,0.009481310844421387,0.017950937151908875,-0.013363778591156006,-0.17286539241839827,1.4575389149382076,0.1218078852620707,0.9787847399711609,0.17200574278831482,-0.11133105307817459
1732227337024,SW,4.761875967086646,1.1s : 0.3s,-15.891113508682409,0.03078294186050801,0.08827321183963795,0.02096377953969345,0.01840018481016159,0.01381180714815855,-0.06149733439087868,0.00933152437210083,0.015194803476333618,-0.011023640632629395,-0.17292154100162088,1.4571891893637494,0.1217307046894089,0.9787361025810242,0.17206105589866638,-0.11167225986719131
1732227337034,SW,4.761875967086646,1.1s : 0.3s,-15.891113508682409,0.03111326840375054,0.07038983523485794,0.022931471415620956,0.01448533684015274,0.006127079017460346,-0.041362568736076355,-0.002134859561920166,0.0177498459815979,-0.014360979199409485,-0.1729611271663915,1.4569032890012543,0.12163990623191762,0.9786974787712097,0.17210005223751068,-0.1119513139128685
1732227337044,SW,4.761875967086646,1.1s : 0.3s,-15.891113508682409,0.031413975701210343,0.05365133574973478,0.02766894831491375,0.02705945260822773,-0.003266955493018031,-0.01848282292485237,-0.011507749557495117,0.02163122594356537,-0.012854278087615967,-0.1729553579120362,1.4566579857915933,0.12148876173820317,0.9786708354949951,0.17209435999393463,-0.11219148337841034
1732227337054,SW,4.761875967086646,1.1s : 0.3s,-15.891113508682409,0.031691970632943614,0.043626775734499704,0.02638623293734409,0.04465961828827858,-0.01819419488310814,-0.0015007425099611282,-0.0072515010833740234,0.0226258784532547,-0.011476874351501465,-0.1729989485962317,1.4563255050889719,0.12112556136089986,0.9786260724067688,0.1721373051404953,-0.11251600831747055
1732227337064,SW,4.761875967086646,1.1s : 0.3s,-15.891113508682409,0.031953364730266665,0.0404028153750714,0.026744003523151014,0.05176413059234619,-0.015120641328394413,0.0023339432664215565,-0.00513613224029541,0.020174264907836914,-0.01678871363401413,-0.1730867778709093,1.4559668854658059,0.12062721856375626,0.9785705804824829,0.17222382128238678,-0.11286521703004837
1732227337074,SW,4.761875967086646,1.1s : 0.3s,-15.891113508682409,0.032192056684930595,0.03756833764013315,0.024590876782629563,0.04472220316529274,-0.014920282177627087,0.0020207553170621395,-0.011177897453308105,0.014101162552833557,-0.01676075905561447,-0.1732107987986329,1.4556083649377731,0.12010112996236535,0.9785088300704956,0.17234598100185394,-0.11321359127759933
1732227337084,SW,4.761875967086646,1.1s : 0.3s,-15.891113508682409,0.03240695094963968,0.03290719004061127,0.018648399418952112,0.025323737412691116,-0.016142141073942184,-0.00022269180044531822,-0.00847327709197998,-0.0015735030174255371,-0.01653754711151123,-0.17335415800217593,1.455252602210546,0.11973335910023601,0.97844398021698,0.17248719930648804,-0.11355886608362198
1732227337094,SW,4.761875967086646,1.1s : 0.3s,-15.891113508682409,0.032595664664643836,0.03038681033596948,0.016689037924275913,0.020081037655472755,-0.01904986798763275,-0.004796404391527176,-0.007556438446044922,-0.009637400507926941,-0.011337757110595703,-0.1735009552940064,1.454925614563653,0.11950609467961013,0.9783816337585449,0.17263180017471313,-0.1138758659362793
1732227337104,SW,4.761875967086646,1.1s : 0.3s,-15.891113508682409,0.03276437981835461,0.02864178066883582,0.015164577277788388,0.028070520609617233,-0.014762713573873043,-0.002270129509270191,-0.005989670753479004,-0.005696728825569153,-0.012713596224784851,-0.17362090766900143,1.4546138422816457,0.11924738905891995,0.978325366973877,0.17274993658065796,-0.11417847871780396
1732227337114,SW,4.761875967086646,1.1s : 0.3s,-15.891113508682409,0.032918224589897314,0.027229863276188072,0.013114344487437013,0.03482829034328461,-0.010467832908034325,0.0029102512635290623,-0.006004810333251953,0.005422875285148621,-0.010320886969566345,-0.17374895565832024,1.4542710534102083,0.11889962779591233,0.9782642722129822,0.17287606000900269,-0.11451126635074615
1732227337124,SW,4.761875967086646,1.1s : 0.3s,-15.891113508682409,0.033059116426945416,0.025771596499629824,0.015039300848004613,0.03369591757655144,-0.009836130775511265,0.009048305451869965,-0.006898462772369385,0.00861009955406189,-0.010220468044281006,-0.17385931249129086,1.4539789715787481,0.11853421888205753,0.9782119393348694,0.1729847639799118,-0.1147947832942009
1732227337134,SW,4.761875967086646,1.1s : 0.3s,-15.891113508682409,0.0331863665311075,0.02367864042433683,0.010432637162935045,0.017960095778107643,-0.009416772052645683,0.011597615666687489,-0.005162298679351807,0.0007797330617904663,-0.00903230905532837,-0.1739394319826081,1.4537297747421085,0.11825505079367772,0.9781695008277893,0.17306366562843323,-0.11503691971302032
1732227337144,SW,4.761875967086646,1.1s : 0.3s,-15.891113508682409,0.033295105386064776,0.02159792838349648,0.013925292693985023,0.014056434854865074,-0.006922721862792969,0.01323199737817049,-0.006661117076873779,-0.009628549218177795,-0.007538855075836182,-0.1739877156638405,1.4534343460871688,0.11809569805687521,0.9781271815299988,0.173111230134964,-0.11532492190599442
1732227337154,SW,4.761875967086646,1.1s : 0.3s,-15.891113508682409,0.03338487324174334,0.020737511553051036,0.011908411592108233,0.030672695487737656,-0.0034348678309470415,0.013674881309270859,-0.007334232330322266,-0.008710652589797974,-0.0034848004579544067,-0.17396983298756685,1.453158804696397,0.1178589407314602,0.9780985116958618,0.17309361696243286,-0.11559480428695679
1732227337164,SW,4.761875967086646,1.1s : 0.3s,-15.891113508682409,0.03347196232148005,0.021113092687572516,0.012552322785891499,0.04663381725549698,-0.0007048614788800478,0.01277686282992363,-0.002056896686553955,0.006417185068130493,-0.010590076446533203,-0.1737774519984119,1.4528921607616931,0.11744772973851579,0.9781006574630737,0.1729041337966919,-0.1158595085144043
1732227337174,SW,4.761875967086646,1.1s : 0.3s,-15.891113508682409,0.03356154596866039,0.025958125673905603,0.017639437257792538,0.06557515263557434,0.00022329436615109444,0.011287457309663296,-0.00044476985931396484,0.012363091111183167,-0.01257401704788208,-0.1735036757234459,1.452664136549321,0.11688093910142068,0.9781211614608765,0.17263446748256683,-0.11608811467885971
1732227337184,SW,4.761875967086646,1.1s : 0.3s,-15.891113508682409,0.03365375716197795,0.03420492400240507,0.016071936365916632,0.08068513125181198,-0.00398316839709878,0.012472297996282578,0.0009629130363464355,0.01070474088191986,-0.011949412524700165,-0.17325088552408796,1.4523896275613064,0.11612839538265622,0.9781325459480286,0.17238546907901764,-0.11636175960302353
1732227337194,SW,4.761875967086646,1.1s : 0.3s,-15.891113508682409,0.033749320050185806,0.04415723733443892,0.01822299612786945,0.10009198635816574,-0.0024192272685468197,0.013004695996642113,0.0011200308799743652,0.015284135937690735,-0.009859934449195862,-0.1730787215913982,1.4520978293940192,0.11521388211594719,0.9781281352043152,0.17221587896347046,-0.11665070056915283
1732227337204,SW,4.761875967086646,1.1s : 0.3s,-15.891113508682409,0.03384929453306965,0.051138577499798166,0.022126157348319353,0.1023346334695816,0.0001853443682193756,0.016202352941036224,-0.0005844235420227051,0.017103716731071472,-0.014024555683135986,-0.17290448580722828,1.4518040359196658,0.11417121026040056,0.9781235456466675,0.17204424738883972,-0.11694161593914032
1732227337214,SW,4.761875967086646,1.1s : 0.3s,-15.891113508682409,0.033948468811349684,0.051993959249300614,0.01939638798760421,0.08778711408376694,-0.0006569246761500835,0.016278186812996864,-0.0039566755294799805,0.009633094072341919,-0.01636362075805664,-0.17265038285562614,1.4515642779402664,0.11321540117684502,0.97813880443573,0.17179392278194427,-0.11718131601810455
1732227337224,SW,4.761875967086646,1.1s : 0.3s,-15.891113508682409,0.03403773816202136,0.05203768926605417,0.012757835120748963,0.07692860811948776,-0.0039025191217660904,0.01468588411808014,-0.0056296586990356445,-0.002738475799560547,-0.011116206645965576,-0.17233725828392568,1.4513228646664584,0.11240144651007242,0.9781638383865356,0.17148545384407043,-0.11742385476827621
1732227337234,SW,4.761875967086646,1.1s : 0.3s,-15.891113508682409,0.03411841674813747,0.05507846815103263,0.009765226678228576,0.10375595837831497,-0.004555259831249714,0.010795271024107933,-0.004675447940826416,-0.0008188039064407349,-0.008534014225006104,-0.17204594684984395,1.4510914756571711,0.11152015266904886,0.9781862497329712,0.17119844257831573,-0.1176561489701271
1732227337244,SW,4.761875967086646,1.1s : 0.3s,-15.891113508682409,0.03420335397944485,0.06480283829986032,0.021953422267482318,0.12960247695446014,0.00045121670700609684,0.014542605727910995,-0.002810180187225342,0.015349149703979492,-0.015442125499248505,-0.1718510781182922,1.450779321167778,0.11032953853152425,0.9781824946403503,0.1710064560174942,-0.117965467274189
1732227337254,SW,4.761875967086646,1.1s : 0.3s,-15.891113508682409,0.03430330188038973,0.07421278094852532,0.03650820979077429,0.14186766743659973,0.0035484731197357178,0.020815148949623108,-0.0034979581832885742,0.0292627215385437,-0.021547779440879822,-0.17162123320885184,1.4504587619658063,0.10894974350915256,0.9781835079193115,0.1707799881696701,-0.11828373372554779
1732227337264,SW,4.761875967086646,1.1s : 0.3s,-15.891113508682409,0.03440874936748847,0.07737232479444746,0.028365157061632344,0.13659434020519257,0.0019958503544330597,0.01853388547897339,-0.0032119154930114746,0.02436797320842743,-0.014158658683300018,-0.17137009340743592,1.4501324847966532,0.1075507728966833,0.9781875014305115,0.17053253948688507,-0.11860805749893188
1732227337274,SW,4.761875967086646,1.1s : 0.3s,-15.891113508682409,0.03451258814085404,0.07801976660515007,0.013340493238673722,0.12358639389276505,-0.00494789844378829,0.01857583038508892,-0.0008904337882995605,0.0072554051876068115,-0.011159524321556091,-0.17116086757578364,1.4498162951156899,0.10624683583720508,0.97818523645401,0.170326367020607,-0.11892163753509521
1732227337284,SW,4.761875967086646,1.1s : 0.3s,-15.891113508682409,0.03461211881268128,0.07748241113314862,0.008108300165672844,0.10679063200950623,-0.005348704289644957,0.018049854785203934,5.8710575103759766e-05,0.0032156407833099365,-0.007443167269229889,-0.17100213048687932,1.4494366102647092,0.10508474096296348,0.9781668186187744,0.17016994953155518,-0.11929629743099213
1732227337294,SW,4.761875967086646,1.1s : 0.3s,-15.891113508682409,0.03470773931160932,0.07532110961036634,0.012451164645908244,0.08998887985944748,-0.006676956079900265,0.01767658069729805,-0.0021421313285827637,0.0018978416919708252,-0.012117795646190643,-0.17079099324939237,1.4490410102083375,0.10406451482999267,0.978155255317688,0.16996188461780548,-0.11968761682510376
1732227337304,SW,4.761875967086646,1.1s : 0.3s,-15.891113508682409,0.034797563456422,0.0712838134236465,0.017506654790289112,0.08010642230510712,-0.010813644155859947,0.016250191256403923,-0.007170140743255615,0.0021828562021255493,-0.015821099281311035,-0.17050179535148258,1.4486992699552066,0.10321882194171147,0.9781631827354431,0.16967688500881195,-0.12002788484096527
1732227337314,SW,4.761875967086646,1.1s : 0.3s,-15.891113508682409,0.03488413847447843,0.06932004466011055,0.020130490021173522,0.0808664932847023,-0.010754521936178207,0.018267802894115448,-0.008134722709655762,0.006900221109390259,-0.017071902751922607,-0.17025162250480666,1.448376530634307,0.1024272669619335,0.9781664609909058,0.16943034529685974,-0.12034875154495239
1732227337324,SW,4.761875967086646,1.1s : 0.3s,-15.891113508682409,0.03497372740147807,0.06850995818974137,0.023850474790084113,0.08850497007369995,-0.010853591375052929,0.021683307364583015,-0.0058553218841552734,0.014854982495307922,-0.017716936767101288,-0.1700917881818962,1.4479786176612401,0.1015629040022304,0.9781453609466553,0.16927281022071838,-0.12074127793312073
1732227337334,SW,4.761875967086646,1.1s : 0.3s,-15.891113508682409,0.035069388916183615,0.06805328484933182,0.02510689583499515,0.09220782667398453,-0.009133278392255306,0.02412162907421589,-0.0034638047218322754,0.01770542562007904,-0.01746070384979248,-0.17001740322953152,1.447531025653665,0.10065109693543055,0.978103756904602,0.16919949650764465,-0.12118062376976013
1732227337344,SW,4.761875967086646,1.1s : 0.3s,-15.891113508682409,0.035166155530680844,0.06781552497531616,0.022344416993389106,0.09455407410860062,-0.009516241028904915,0.025081166997551918,-0.005731463432312012,0.016840636730194092,-0.013520956039428711,-0.1698730295767457,1.4471566139408165,0.09972126396836957,0.978082537651062,0.1690572053194046,-0.12154984474182129
1732227337354,SW,4.761875967086646,1.1s : 0.3s,-15.891113508682409,0.035265445355230914,0.06712466909393054,0.0196713336586389,0.0869831070303917,-0.012890954501926899,0.02521495707333088,-0.0028211474418640137,0.01244249939918518,-0.014972865581512451,-0.16958253425520406,1.4467907642004625,0.09882016341776152,0.9780867099761963,0.16877087950706482,-0.12191373854875565
1732227337364,SW,4.761875967086646,1.1s : 0.3s,-15.891113508682409,0.03536726515723784,0.06602448114861248,0.017710618960593057,0.0794929638504982,-0.014786059968173504,0.02485889382660389,-0.0011380314826965332,0.01079656183719635,-0.013993039727210999,-0.16927089272233775,1.4464509015644877,0.0980031992160753,0.9780974388122559,0.16846370697021484,-0.12225267291069031
1732227337374,SW,4.761875967086646,1.1s : 0.3s,-15.891113508682409,0.035469308600164624,0.06475572307422287,0.015179234832544457,0.07520899921655655,-0.013340850360691547,0.02479204535484314,-0.0012997984886169434,0.011097520589828491,-0.01027446985244751,-0.16895009710638753,1.4460880072715425,0.097240159499023,0.9781064391136169,0.1681474894285202,-0.1226143091917038
1732227337384,SW,4.761875967086646,1.1s : 0.3s,-15.891113508682409,0.035572025140691535,0.06242497643513648,0.01683737434884103,0.06647250056266785,-0.014901730231940746,0.025253038853406906,-0.0022594332695007324,0.009941250085830688,-0.013400137424468994,-0.16865254598478802,1.4456707177775905,0.09653373214714797,0.9781047701835632,0.1678541600704193,-0.12302868813276291
1732227337394,SW,4.761875967086646,1.1s : 0.3s,-15.891113508682409,0.03567080653638767,0.06019051711171511,0.014590168446462692,0.06182835251092911,-0.01761251501739025,0.027089789509773254,-0.005089938640594482,0.008025139570236206,-0.011070802807807922,-0.16838285834158007,1.445245055319999,0.09588702467143126,0.9780972599983215,0.16758829355239868,-0.12345069646835327
1732227337404,SW,4.761875967086646,1.1s : 0.3s,-15.891113508682409,0.03576326731867261,0.05895495351082925,0.013312548039673414,0.06491149216890335,-0.017633022740483284,0.027446120977401733,-0.006548523902893066,0.005863979458808899,-0.009997725486755371,-0.16817596088002784,1.444792050271482,0.0952634921316392,0.9780756235122681,0.1673843264579773,-0.12389812618494034
1732227337414,SW,4.761875967086646,1.1s : 0.3s,-15.891113508682409,0.03585035806262536,0.05875687099066308,0.016417241675716784,0.07935860753059387,-0.017611097544431686,0.025853149592876434,-0.008463919162750244,0.00798766314983368,-0.011579513549804688,-0.16797201513773338,1.4443387422024443,0.09454231819489067,0.9780531525611877,0.16718325018882751,-0.12434577196836472
1732227337424,SW,4.761875967086646,1.1s : 0.3s,-15.891113508682409,0.03593844716435836,0.059411574124949455,0.024187853783722624,0.09220436215400696,-0.01287439838051796,0.028529096394777298,-0.0090293288230896,0.014658540487289429,-0.016989722847938538,-0.16775253272414634,1.4439310406004375,0.09368755782998951,0.9780388474464417,0.16696685552597046,-0.12474916875362396
1732227337434,SW,4.761875967086646,1.1s : 0.3s,-15.891113508682409,0.03602965863631551,0.05943623117538244,0.021302092733371136,0.0843268632888794,-0.009134477004408836,0.02697071246802807,-0.0050299763679504395,0.011874929070472717,-0.016954779624938965,-0.16748055273230966,1.4435579435645916,0.09280480539380463,0.9780371785163879,0.16669867932796478,-0.12511982023715973
1732227337444,SW,4.761875967086646,1.1s : 0.3s,-15.891113508682409,0.03611627130672041,0.0592396397022247,0.008052078909320446,0.08222616463899612,-0.014034425839781761,0.019798818975687027,-0.0013611316680908203,0.0005325525999069214,-0.007918313145637512,-0.1672381351864256,1.443185399355184,0.09199209542661901,0.9780305624008179,0.16645964980125427,-0.12548930943012238
1732227337454,SW,4.761875967086646,1.1s : 0.3s,-15.891113508682409,0.03619891543634829,0.059396426718554905,0.00679253519364202,0.08557388931512833,-0.017734844237565994,0.024590015411376953,-0.0010939836502075195,0.003022029995918274,-0.005984067916870117,-0.16701915531224182,1.442835072655145,0.0911671354082207,0.9780227541923523,0.16624373197555542,-0.125836580991745
1732227337464,SW,4.761875967086646,1.1s : 0.3s,-15.891113508682409,0.0362858094798859,0.06051509475597238,0.01586751651004329,0.10097761452198029,-0.01637769676744938,0.024673637002706528,0.003128528594970703,0.015056774020195007,-0.003909468650817871,-0.16674512052897203,1.4423891555137305,0.09022717483090502,0.9780116677284241,0.165973499417305,-0.12627851963043213
1732227337474,SW,4.761875967086646,1.1s : 0.3s,-15.891113508682409,0.036378067736818065,0.061328877302814354,0.017647468245303544,0.09739566594362259,-0.01619633659720421,0.026843713596463203,0.0015144944190979004,0.01540134847164154,-0.008481621742248535,-0.16644213345887585,1.4419688889602666,0.0892475167775385,0.9780082106590271,0.16567470133304596,-0.12669597566127777
1732227337484,SW,4.761875967086646,1.1s : 0.3s,-15.891113508682409,0.036463770184668634,0.06253673782498857,0.01214480076374068,0.10363731533288956,-0.015690602362155914,0.03141716122627258,-0.006670057773590088,0.004891678690910339,-0.00889258086681366,-0.16609804879333293,1.4415696576952697,0.08828840295123905,0.9780140519142151,0.16533537209033966,-0.12709374725818634
1732227337494,SW,4.761875967086646,1.1s : 0.3s,-15.891113508682409,0.036539364286107795,0.063405216715433,0.015457681723450403,0.10032540559768677,-0.010912003926932812,0.03351826220750809,-0.011819660663604736,0.005707055330276489,-0.008164867758750916,-0.165735440785498,1.4411611638275612,0.08728047153221342,0.9780213236808777,0.16497774422168732,-0.127500981092453
1732227337504,SW,4.761875967086646,1.1s : 0.3s,-15.891113508682409,0.03661347667497122,0.06456389162979287,0.02157819906554644,0.1066349670290947,-0.009967380203306675,0.03237763047218323,-0.010780096054077148,0.01270359754562378,-0.013712286949157715,-0.16541795196262044,1.440739903321487,0.08625837789742595,0.9780195355415344,0.1646645963191986,-0.1279197782278061
1732227337514,SW,4.761875967086646,1.1s : 0.3s,-15.891113508682409,0.03668372105947006,0.0678506505083363,0.018742896876188124,0.11891999840736389,-0.0075308093801140785,0.0342966690659523,-0.01011723279953003,0.013928547501564026,-0.00741170346736908,-0.16504232940808183,1.4403282038951224,0.08515469643502564,0.9780279397964478,0.1642940789461136,-0.12833043932914734
1732227337524,SW,4.761875967086646,1.1s : 0.3s,-15.891113508682409,0.03674962451869115,0.07552150708348306,0.016478071287703032,0.13530349731445312,-0.0017858385108411312,0.03778460994362831,-0.008405745029449463,0.013668954372406006,-0.003745660185813904,-0.16454756356432873,1.440038554507546,0.08391890554743867,0.9780712127685547,0.1638060212135315,-0.1286243051290512
1732227337534,SW,4.761875967086646,1.1s : 0.3s,-15.891113508682409,0.03681096950860496,0.08363594744962909,0.014574341650923982,0.1483089178800583,0.0016732969088479877,0.03858232870697975,-0.005661904811859131,0.013403326272964478,0.0008397102355957031,-0.16402800864888575,1.4397611722078372,0.08254947688398537,0.9781197905540466,0.16329346597194672,-0.128906711935997
1732227337544,SW,4.761875967086646,1.1s : 0.3s,-15.891113508682409,0.03686436068533597,0.09381928434930073,0.009000403903037968,0.1678844839334488,0.002857604529708624,0.05091675743460655,-0.0061168670654296875,0.006511598825454712,0.00109100341796875,-0.16349685589859564,1.4395470529485819,0.081015786460381,0.978178083896637,0.16276942193508148,-0.12912747263908386
1732227337554,SW,4.761875967086646,1.1s : 0.3s,-15.891113508682409,0.036913115220974395,0.10320180900266823,0.008254362331517991,0.18148723244667053,-0.0032407233957201242,0.04296412691473961,-0.005263328552246094,0.005866289138793945,-0.0024532675743103027,-0.16294464170135317,1.4392202035446366,0.07931823076867495,0.9782247543334961,0.16222454607486725,-0.1294589638710022
1732227337564,SW,4.761875967086646,1.1s : 0.3s,-15.891113508682409,0.036953329401296656,0.10971057538642444,0.010292213476041702,0.18529503047466278,-0.0018180629704147577,0.04356120899319649,-0.008037030696868896,-0.002727523446083069,-0.0058220624923706055,-0.1623602002804244,1.4388239146325676,0.07749814583543459,0.9782671928405762,0.16164781153202057,-0.129859060049057
1732227337574,SW,4.761875967086646,1.1s : 0.3s,-15.891113508682409,0.03698333099172011,0.11187348588589165,0.025386441821378277,0.18177592754364014,-0.006646106950938702,0.04396487772464752,-0.013649284839630127,-0.012895151972770691,-0.017084598541259766,-0.16176256198733804,1.438417366616183,0.07569831807601352,0.9783099889755249,0.16105800867080688,-0.13026949763298035
1732227337584,SW,4.761875967086646,1.1s : 0.3s,-15.891113508682409,0.037001824925078294,0.11274831722047401,0.019242923451604204,0.1747438609600067,-0.02032117359340191,0.040301963686943054,-0.008735239505767822,-0.014848172664642334,-0.008574232459068298,-0.16123680530502266,1.4378869893391422,0.07395135128350731,0.9783244132995605,0.16053909063339233,-0.1307995468378067
1732227337594,SW,4.761875967086646,1.1s : 0.3s,-15.891113508682409,0.037008844368851455,0.12106337910775772,0.016186411217052003,0.20430266857147217,-0.026838859543204308,0.04116339981555939,-0.00629502534866333,-0.01450781524181366,-0.0034490376710891724,-0.16073742899228766,1.4372913975511938,0.07210591303937686,0.9783257842063904,0.16004617512226105,-0.13139288127422333
1732227337604,SW,4.761875967086646,1.1s : 0.3s,-15.891113508682409,0.03701647998897272,0.13285496929838586,0.007967944729922747,0.23204375803470612,-0.029969939962029457,0.05013026297092438,-0.003912389278411865,-0.0005395412445068359,-0.006920278072357178,-0.1601280051046185,1.4366572786753598,0.06995479256277688,0.9783387184143066,0.15944457054138184,-0.13202624022960663
1732227337614,SW,4.761875967086646,1.1s : 0.3s,-15.891113508682409,0.03702733957244896,0.14473865139153144,0.00408793025873853,0.2513527274131775,-0.030502039939165115,0.045492567121982574,0.000706017017364502,0.0031749308109283447,-0.0024763941764831543,-0.15947220566372947,1.4360284386424513,0.067615974229826,0.9783589243888855,0.15879712998867035,-0.13265545666217804
1732227337624,SW,4.761875967086646,1.1s : 0.3s,-15.891113508682409,0.037036647297843936,0.16144602179744896,0.007281908218498049,0.29471591114997864,-0.04021778330206871,0.03523007407784462,-0.0018053054809570312,-0.004963025450706482,-0.005013525485992432,-0.1587972876678962,1.43529880558178,0.06495551295572587,0.9783678650856018,0.1581307351589203,-0.13338370621204376
1732227337634,SW,4.761875967086646,1.1s : 0.3s,-15.891113508682409,0.037041457787535634,0.19002559647324951,0.012761012187569889,0.38153815269470215,-0.03125935047864914,0.02773240953683853,-0.007390439510345459,-0.006448045372962952,-0.008163794875144958,-0.15815325770185235,1.434321860686824,0.06142762449062306,0.9783377051353455,0.15749478340148926,-0.13435328006744385
1732227337644,SW,4.761875967086646,1.1s : 0.3s,-15.891113508682409,0.037044243488631404,0.20837973859044218,0.01262458031838529,0.3676191568374634,-0.036652520298957825,0.06100887060165405,-0.008374214172363281,-0.002236977219581604,-0.009178698062896729,-0.15719572114930977,1.4333838618986305,0.05778437804606875,0.9783601760864258,0.1565491259098053,-0.13529148697853088
1732227337654,SW,4.761875967086646,1.1s : 0.3s,-15.891113508682409,0.03705956299969093,0.2256376393291763,0.022594019016060417,0.38708192110061646,-0.052133429795503616,0.06819191575050354,0.012136101722717285,0.01710711419582367,0.008399486541748047,-0.15599490190074652,1.4322248259043449,0.05404774637222975,0.978388249874115,0.15536299347877502,-0.13645122945308685
1732227337664,SW,4.761875967086646,1.1s : 0.3s,-15.891113508682409,0.03712692705469097,0.22932136877154075,0.03394653565995644,0.3507425785064697,-0.05446023494005203,0.0882529765367508,0.022589445114135742,0.024955585598945618,-0.004393517971038818,-0.15466112869896265,1.4310594803557914,0.05040448822506138,0.9784328937530518,0.15404528379440308,-0.13762003183364868
1732227337674,SW,4.761875967086646,1.1s : 0.3s,-15.891113508682409,0.03720501362446202,0.21990819529382824,0.018647338643227512,0.27467218041419983,-0.04997019097208977,0.10871215164661407,0.01587510108947754,-0.0019351691007614136,-0.009589552879333496,-0.15318357781401415,1.430102018061914,0.04738056439372911,0.978524923324585,0.1525851935148239,-0.138588547706604
1732227337684,SW,4.761875967086646,1.1s : 0.3s,-15.891113508682409,0.03723428427821748,0.19733820760462703,0.04647801995257126,0.18514469265937805,-0.05797219276428223,0.11616793274879456,0.00931704044342041,-0.04464012384414673,-0.008981004357337952,-0.15178973528557438,1.429229932687917,0.04526346669794033,0.9786133766174316,0.15120753645896912,-0.13947173953056335
1732227337694,SW,4.761875967086646,1.1s : 0.3s,-15.891113508682409,0.03719768803319721,0.16739995035781363,0.08562840113724715,0.09926573187112808,-0.06835301965475082,0.11954502016305923,0.008971095085144043,-0.08219265937805176,-0.022273510694503784,-0.15046295546750543,1.428434593043298,0.04399708180611798,0.9786996841430664,0.14989587664604187,-0.14027833938598633
1732227337704,SW,4.761875967086646,1.1s : 0.3s,-15.891113508682409,0.03713603989480097,0.1354541144560602,0.10102182207983199,0.030357778072357178,-0.07563383132219315,0.10238707810640335,0.008371710777282715,-0.09301596879959106,-0.03851431608200073,-0.1492642149349085,1.4276398603492053,0.04353757412615269,0.9787651300430298,0.14871056377887726,-0.14108164608478546
1732227337714,SW,4.761875967086646,1.1s : 0.3s,-15.891113508682409,0.03705078370406035,0.11142053554156488,0.09542765022493226,0.013927803374826908,-0.08001343905925751,0.08240041881799698,0.0009789466857910156,-0.08843813836574554,-0.03583537042140961,-0.14833824725681716,1.426840458289946,0.04348474917499758,0.9787878394126892,0.14779482781887054,-0.1418837010860443
1732227337724,SW,4.761875967086646,1.1s : 0.3s,-15.891113508682409,0.0369898524718011,0.09704922238003297,0.06755353447742658,0.030988015234470367,-0.07085110247135162,0.07273606956005096,-0.004792928695678711,-0.05130447447299957,-0.043684765696525574,-0.14755773597960953,1.4260688101292993,0.04339743499683898,0.9787918925285339,0.14702284336090088,-0.14265553653240204
1732227337734,SW,4.761875967086646,1.1s : 0.3s,-15.891113508682409,0.03698504463223487,0.09597787882847109,0.042926151368271145,0.09775546193122864,-0.049515143036842346,0.06997234374284744,-0.004746198654174805,0.007852569222450256,-0.0419340580701828,-0.14681860731134727,1.4254186334518955,0.042869894934491566,0.97880619764328,0.14629171788692474,-0.14330759644508362
1732227337744,SW,4.761875967086646,1.1s : 0.3s,-15.891113508682409,0.03704723850522902,0.1027082608328042,0.07897981652717692,0.16046756505966187,-0.04742802307009697,0.07591571658849716,0.0011385679244995117,0.0682859867811203,-0.03966785967350006,-0.14594618935930334,1.424790289383124,0.041696490353331235,0.97884202003479,0.1454286277294159,-0.14394113421440125
1732227337754,SW,4.761875967086646,1.1s : 0.3s,-15.891113508682409,0.037289539896945195,0.12133437595282727,0.09623321745538198,0.2537139058113098,-0.027974609285593033,0.062280863523483276,0.0048937201499938965,0.08863173425197601,-0.03716583549976349,-0.1449533691202228,1.4241106632852918,0.039726633192133994,0.9788863062858582,0.14444628357887268,-0.1446273773908615
1732227337764,SW,4.761875967086646,1.1s : 0.3s,-15.891113508682409,0.03761548762434935,0.15797130547123092,0.08833901916724855,0.3720237612724304,-0.013117366470396519,0.061128247529268265,0.0014124512672424316,0.08505192399024963,-0.023831859230995178,-0.14385252015480565,1.4234663703017136,0.03672566997747299,0.9789496064186096,0.14335688948631287,-0.14528128504753113
1732227337774,SW,4.761875967086646,1.1s : 0.3s,-15.891113508682409,0.037971418994735356,0.2089287053109125,0.09934037752905445,0.49321022629737854,0.003087035845965147,0.06210093945264816,-0.007803082466125488,0.09841004014015198,-0.011094436049461365,-0.14253533878048938,1.4228125756999594,0.032469108537566134,0.979040265083313,0.14205320179462433,-0.14594899117946625
1732227337784,SW,4.761875967086646,1.1s : 0.3s,-15.891113508682409,0.038377142143660316,0.260147755201607,0.09561860419307718,0.569035530090332,0.016999654471874237,0.04606498032808304,-0.002173781394958496,0.09386730194091797,-0.0180865079164505,-0.14111290030359863,1.4221919358411514,0.0272087263160989,0.9791483879089355,0.14064504206180573,-0.1465863734483719
1732227337794,SW,4.761875967086646,1.1s : 0.3s,-15.891113508682409,0.03878998733797573,0.30365272563444085,0.06682542877360825,0.6055606603622437,0.025041736662387848,0.03202895447611809,-0.005586385726928711,0.062497854232788086,-0.022988006472587585,-0.13976950546568304,1.4216162259026643,0.02141052391291579,0.9792496562004089,0.13931487500667572,-0.14717799425125122
1732227337804,SW,4.761875967086646,1.1s : 0.3s,-15.891113508682409,0.03918770539520318,0.3426726963478085,0.051721814208256625,0.6478244662284851,0.03397957235574722,0.013101868331432343,-0.018433570861816406,0.045707717537879944,-0.015689298510551453,-0.13852701707315943,1.4210763866716432,0.015186384927391751,0.9793404936790466,0.13808439671993256,-0.14773231744766235
1732227337814,SW,4.761875967086646,1.1s : 0.3s,-15.891113508682409,0.03956157902907966,0.3685236412166349,0.045361095394088044,0.6400482654571533,0.034524720162153244,-0.00627296045422554,-0.014396071434020996,0.04297402501106262,0.001901388168334961,-0.13745103723326707,1.420540859331916,0.008724368974517442,0.9794076681137085,0.13701863586902618,-0.14827892184257507
1732227337824,SW,4.761875967086646,1.1s : 0.3s,-15.891113508682409,0.03992330986168079,0.3899566997339035,0.0578530985349705,0.6556972861289978,0.04005530849099159,-0.021830081939697266,-0.005886733531951904,0.05705012381076813,0.007590174674987793,-0.13655011660897856,1.4200639648908728,0.0022939193746096217,0.9794585108757019,0.13612616062164307,-0.1487644612789154
1732227337834,SW,4.761875967086646,1.1s : 0.3s,-15.891113508682409,0.04026701215650046,0.41936514459147195,0.07479179258478316,0.7253843545913696,0.059920135885477066,-0.038226932287216187,-0.01752936840057373,0.07077288627624512,0.016665294766426086,-0.1357286615317565,1.4196331831561926,-0.004623409926410261,0.979504406452179,0.1353123039007187,-0.14920315146446228
1732227337844,SW,4.761875967086646,1.1s : 0.3s,-15.891113508682409,0.040526800296817315,0.4543594624095427,0.09870291139054295,0.7938848733901978,0.08143341541290283,-0.06879736483097076,-0.03921157121658325,0.08789217472076416,0.02190166711807251,-0.13503678208694142,1.419317769031013,-0.012277176975310455,0.979549765586853,0.13462676107883453,-0.1495261937379837
1732227337854,SW,4.761875967086646,1.1s : 0.3s,-15.891113508682409,0.04077358494901787,0.48882945013021956,0.13296495863075958,0.8380793929100037,0.1059475988149643,-0.10604549944400787,-0.044622182846069336,0.12313367426395416,0.022948622703552246,-0.1345811704363461,1.4191775027553022,-0.02062376337794199,0.9795892238616943,0.13417528569698334,-0.14967283606529236
1732227337864,SW,4.761875967086646,1.1s : 0.3s,-15.891113508682409,0.041053663675449804,0.5026853799185118,0.15545278718563138,0.7796062231063843,0.11798109114170074,-0.1467076987028122,-0.042786359786987305,0.14606815576553345,0.03160680830478668,-0.13456525175354478,1.4192335538297742,-0.028781624579332362,0.9795997142791748,0.13415950536727905,-0.1496182531118393
1732227337874,SW,4.761875967086646,1.1s : 0.3s,-15.891113508682409,0.041270110133826685,0.519879461289167,0.1519087767613502,0.8026935458183289,0.16464513540267944,-0.19060802459716797,-0.050750672817230225,0.12861433625221252,0.06292057037353516,-0.13497876659388391,1.4195960027540446,-0.03682367486216641,0.9795989394187927,0.13456927239894867,-0.14925481379032135
1732227337884,SW,4.761875967086646,1.1s : 0.3s,-15.891113508682409,0.041462774397466616,0.564988928119392,0.15367695975918874,0.953619122505188,0.20821604132652283,-0.2309572994709015,-0.07999050617218018,0.1252000331878662,0.03928203880786896,-0.13568342554430796,1.4202539474158786,-0.045909459159252076,0.9796028733253479,0.1352674812078476,-0.14859598875045776
1732227337894,SW,4.761875967086646,1.1s : 0.3s,-15.891113508682409,0.04175670076637766,0.6133913957250559,0.21069073401655394,1.0303131341934204,0.22146855294704437,-0.25548213720321655,-0.09580141305923462,0.18549342453479767,0.028370127081871033,-0.1365399714285761,1.4210481309204117,-0.05621222905143216,0.9796058535575867,0.1361161172389984,-0.14780065417289734
1732227337904,SW,4.761875967086646,1.1s : 0.3s,-15.891113508682409,0.04226023488500802,0.657397314738488,0.2499263669261304,1.0723308324813843,0.22263367474079132,-0.2956213057041168,-0.08875793218612671,0.23100793361663818,0.034936413168907166,-0.13763606082690838,1.4217834824102078,-0.06713815503155524,0.979566216468811,0.1372019201517105,-0.14705802500247955
1732227337914,SW,4.761875967086646,1.1s : 0.3s,-15.891113508682409,0.04291503936964246,0.6907172151104839,0.23447113079407572,1.0737038850784302,0.23011428117752075,-0.3325051963329315,-0.09020572900772095,0.21296799182891846,0.038526251912117004,-0.1391037083143977,1.4225121173942294,-0.07833900978653889,0.9794726371765137,0.13865554332733154,-0.14631429314613342
1732227337924,SW,4.761875967086646,1.1s : 0.3s,-15.891113508682409,0.043659637974322124,0.7182040472768629,0.23908535529646022,1.077388048171997,0.24235975742340088,-0.38391005992889404,-0.11123824119567871,0.2066936045885086,0.04544903337955475,-0.14101757287055752,1.4233179825635092,-0.08958623659734564,0.9793259501457214,0.1405506581068039,-0.14548566937446594
1732227337934,SW,4.761875967086646,1.1s : 0.3s,-15.891113508682409,0.04447240406335307,0.7525562052567077,0.2472664357520948,1.1359810829162598,0.25990065932273865,-0.4348973035812378,-0.13044768571853638,0.20395289361476898,0.050272345542907715,-0.14344713505674278,1.424184318403412,-0.10122809871161031,0.9791110157966614,0.1429556906223297,-0.14458689093589783
1732227337944,SW,4.761875967086646,1.1s : 0.3s,-15.891113508682409,0.045508732668480746,0.7833484581861495,0.28161475547600656,1.1533578634262085,0.2687588930130005,-0.4787624776363373,-0.13801681995391846,0.2440517246723175,0.026400446891784668,-0.1462703248923292,1.4250817264492632,-0.11338810649310796,0.9788371920585632,0.1457493007183075,-0.14364899694919586
1732227337954,SW,4.761875967086646,1.1s : 0.3s,-15.891113508682409,0.04684814257277456,0.7990937724282142,0.3026652961728214,1.1021250486373901,0.2706831991672516,-0.524837851524353,-0.13246357440948486,0.2715185880661011,0.018366798758506775,-0.14958614590518743,1.4260149744015642,-0.12544881348277756,0.9784872531890869,0.14902891218662262,-0.14266493916511536
1732227337964,SW,4.761875967086646,1.1s : 0.3s,-15.891113508682409,0.04831449203957526,0.8033125371042379,0.272661839021157,1.0426430702209473,0.27606943249702454,-0.5809756517410278,-0.13732975721359253,0.2320334017276764,0.040564969182014465,-0.153502167214938,1.4270077916738773,-0.13673321131304145,0.9780431985855103,0.15290005505084991,-0.14160867035388947
1732227337974,SW,4.761875967086646,1.1s : 0.3s,-15.891113508682409,0.04986658874665272,0.803172955804162,0.2563398141567626,0.9940180778503418,0.2816019654273987,-0.6260057091712952,-0.14521008729934692,0.20496687293052673,0.05111469328403473,-0.158025208491823,1.428085387476751,-0.14759834492067136,0.9775006771087646,0.15736833214759827,-0.14045485854148865
1732227337984,SW,4.761875967086646,1.1s : 0.3s,-15.891113508682409,0.05154746473628036,0.8017511956601581,0.29059208981661183,0.9422616362571716,0.295846164226532,-0.6764662265777588,-0.1582019329071045,0.24145881831645966,0.03336989879608154,-0.1630870285283905,1.4292785413830527,-0.15802381704494523,0.9768664836883545,0.16236503422260284,-0.13917432725429535
1732227337994,SW,4.761875967086646,1.1s : 0.3s,-15.891113508682409,0.053409119105343614,0.8007544753244581,0.30766844820882333,0.9073861241340637,0.30614733695983887,-0.741707980632782,-0.16338485479354858,0.25872623920440674,0.03203117847442627,-0.16880153879847454,1.4305918650253824,-0.168102292518204,0.9761137366294861,0.16800104081630707,-0.13775934278964996
1732227338004,SW,4.761875967086646,1.1s : 0.3s,-15.891113508682409,0.055440526542293596,0.8253306900465521,0.32498438475343994,1.0107487440109253,0.3315221667289734,-0.8050180077552795,-0.17103451490402222,0.2708563208580017,0.05476219952106476,-0.1751519712234488,1.431911751436318,-0.17863785296892745,0.9752184152603149,0.1742577850818634,-0.13632041215896606
1732227338014,SW,4.761875967086646,1.1s : 0.3s,-15.891113508682409,0.057797172645842526,0.8545246597803369,0.3711860663769828,1.0179593563079834,0.34940072894096375,-0.8786818981170654,-0.1750410795211792,0.32329410314559937,0.05119217932224274,-0.18205869137285194,1.4332876255375613,-0.18980103772268486,0.9741896390914917,0.18105462193489075,-0.13481031358242035
1732227338024,SW,4.761875967086646,1.1s : 0.3s,-15.891113508682409,0.0605634286031933,0.9061416584146359,0.4184452211789179,1.1237974166870117,0.39853206276893616,-0.9698576331138611,-0.17689764499664307,0.3732607066631317,0.06693333387374878,-0.18976584864055104,1.4347868513460404,-0.2017020443069626,0.9729791879653931,0.18862895667552948,-0.13315647840499878
1732227338034,SW,4.761875967086646,1.1s : 0.3s,-15.891113508682409,0.06377658022970051,0.9606106083756876,0.46821674761336457,1.1567282676696777,0.4352306127548218,-1.0582609176635742,-0.2113875150680542,0.41251838207244873,0.066112220287323,-0.19827529970258084,1.4365026179163898,-0.21433081626978404,0.971580445766449,0.19697871804237366,-0.1312672197818756
1732227338044,SW,4.761875967086646,1.1s : 0.3s,-15.891113508682409,0.06739270850982172,1.0235012883611334,0.48997873262310027,1.240896463394165,0.4561886489391327,-1.1417713165283203,-0.21529024839401245,0.4316748082637787,0.0859425812959671,-0.20758440510991671,1.4382165259204722,-0.22777204696923095,0.969944179058075,0.20609676837921143,-0.12935379147529602
1732227338054,SW,4.761875967086646,1.1s : 0.3s,-15.891113508682409,0.07134457517713315,1.0785191065265411,0.48569525234471483,1.2530304193496704,0.4574795365333557,-1.2107666730880737,-0.18699610233306885,0.4377843141555786,0.09631837904453278,-0.21761575075111889,1.4397877582357324,-0.24179077956906156,0.9680477380752563,0.21590222418308258,-0.12755312025547028
1732227338064,SW,4.761875967086646,1.1s : 0.3s,-15.891113508682409,0.07554929210116937,1.1266901790902093,0.4729217339250535,1.2465866804122925,0.4878094792366028,-1.276897668838501,-0.16669893264770508,0.4358709156513214,0.07670056819915771,-0.22833960616882906,1.4413419435324037,-0.25594699051683606,0.9658932685852051,0.22636054456233978,-0.12574231624603271
1732227338074,SW,4.761875967086646,1.1s : 0.3s,-15.891113508682409,0.07983899790859797,1.1689301080597458,0.4359033392428185,1.2203257083892822,0.5003634691238403,-1.3593261241912842,-0.16015625,0.39747095108032227,0.07986576110124588,-0.2398156285123958,1.4429582870064936,-0.270119647274692,0.9634552001953125,0.23752354085445404,-0.12384158372879028
1732227338084,SW,4.761875967086646,1.1s : 0.3s,-15.891113508682409,0.08408639317503346,1.2219478936995873,0.40761638430995817,1.2704477310180664,0.525565505027771,-1.4652663469314575,-0.16589337587356567,0.3623952269554138,0.0854412317276001,-0.25225580742052955,1.4445673668264152,-0.28462604126062047,0.960647463798523,0.2495890110731125,-0.12190970778465271
1732227338094,SW,4.761875967086646,1.1s : 0.3s,-15.891113508682409,0.08838959158511074,1.2878572279822669,0.43063530056259325,1.362329363822937,0.5567129850387573,-1.5675112009048462,-0.16638368368148804,0.3860044479370117,0.09361515939235687,-0.2656851194322016,1.4460487087573817,-0.3000585645263455,0.9574146866798401,0.26257041096687317,-0.12005863338708878
1732227338104,SW,4.761875967086646,1.1s : 0.3s,-15.891113508682409,0.09285943067043712,1.3537146046893627,0.46697460072981656,1.3925045728683472,0.5728424191474915,-1.6697200536727905,-0.1545276641845703,0.4347469210624695,0.07198328524827957,-0.28005049725783976,1.447298305370558,-0.3163865656321925,0.9537219405174255,0.27640417218208313,-0.11838524788618088
1732227338114,SW,4.761875967086646,1.1s : 0.3s,-15.891113508682409,0.09757466218994214,1.4294577850847627,0.48592821916694556,1.5252572298049927,0.5778999924659729,-1.752212643623352,-0.1316211223602295,0.46327659487724304,0.06462902575731277,-0.2952675340391505,1.4481518914979494,-0.33365976930696334,0.949537992477417,0.2909958064556122,-0.11704298108816147
1732227338124,SW,4.761875967086646,1.1s : 0.3s,-15.891113508682409,0.10241200403858516,1.4933875175227935,0.4826655614091758,1.5062822103500366,0.5913199186325073,-1.8381999731063843,-0.10597240924835205,0.46667131781578064,0.0628790408372879,-0.31124847364325187,1.448610939767164,-0.35175737987863104,0.944854736328125,0.306247353553772,-0.116025410592556
1732227338134,SW,4.761875967086646,1.1s : 0.3s,-15.891113508682409,0.10726283386777562,1.5562159491894068,0.4437038024205096,1.5356903076171875,0.6045990586280823,-1.929258942604065,-0.10059893131256104,0.42352327704429626,0.08591247349977493,-0.3280731224361853,1.4488424065765593,-0.370100708596824,0.9396339058876038,0.32221952080726624,-0.11516354233026505
1732227338144,SW,4.761875967086646,1.1s : 0.3s,-15.891113508682409,0.1119761615801564,1.6157574852629604,0.40683803752190545,1.5685789585113525,0.6041119694709778,-2.0044918060302734,-0.0933348536491394,0.38713765144348145,0.08324801921844482,-0.34573768427416224,1.4486800083992897,-0.38884459167532504,0.9338194727897644,0.33889079093933105,-0.11460484564304352
1732227338154,SW,4.761875967086646,1.1s : 0.3s,-15.891113508682409,0.1166237696797561,1.6780093223969794,0.40694946532668336,1.650450348854065,0.6040859818458557,-2.072585105895996,-0.05760103464126587,0.39513352513313293,0.07848238945007324,-0.3639955885909709,1.4478521292971278,-0.4086037059082328,0.9274283647537231,0.35601088404655457,-0.11459992080926895
1732227338164,SW,4.761875967086646,1.1s : 0.3s,-15.891113508682409,0.12126212023733166,1.738389335794529,0.4087637561316693,1.6872869729995728,0.6177554726600647,-2.14851975440979,-0.03153812885284424,0.40489745140075684,0.04638112336397171,-0.3828934182427216,1.446432803667949,-0.4292403834588463,0.9204235672950745,0.3736059367656708,-0.11506091803312302
1732227338174,SW,4.761875967086646,1.1s : 0.3s,-15.891113508682409,0.12576279044693908,1.7947069211852158,0.3775523326110629,1.6951075792312622,0.6145610809326172,-2.234407901763916,-0.021991074085235596,0.37523192167282104,0.03554098308086395,-0.4025175659215799,1.4445334182587477,-0.4504036579929106,0.9127535223960876,0.3917359411716461,-0.11586327850818634
1732227338184,SW,4.761875967086646,1.1s : 0.3s,-15.891113508682409,0.130021430269039,1.8525346441071453,0.33995548697123623,1.7391471862792969,0.6061984896659851,-2.3205697536468506,-0.0041297078132629395,0.33537763357162476,0.055448368191719055,-0.4229381032436694,1.4418974653355658,-0.47224093835076286,0.9043218493461609,0.41044142842292786,-0.11721595376729965
1732227338194,SW,4.761875967086646,1.1s : 0.3s,-15.891113508682409,0.13407752647915075,1.9097944434336227,0.3328498287874927,1.7662289142608643,0.6086587905883789,-2.4058752059936523,0.03157448768615723,0.3297485113143921,0.03252659738063812,-0.44407237721863113,1.4385301001909547,-0.4947565534325644,0.8951224088668823,0.4296204149723053,-0.11908974498510361
1732227338204,SW,4.761875967086646,1.1s : 0.3s,-15.891113508682409,0.1380635733690586,1.9690724418152716,0.3432208124642989,1.7564343214035034,0.611122727394104,-2.5334346294403076,0.06162238121032715,0.3369591534137726,0.021488070487976074,-0.4661647145830529,1.4344017718921485,-0.5178850283066789,0.8850024342536926,0.44946354627609253,-0.12146366387605667
1732227338214,SW,4.761875967086646,1.1s : 0.3s,-15.891113508682409,0.14203444848866323,2.021185885597261,0.36504911204209867,1.6900018453598022,0.6042776703834534,-2.6472809314727783,0.07357078790664673,0.3552979826927185,0.040143951773643494,-0.489468449879635,1.4298610170541546,-0.5410593364875459,0.8738323450088501,0.47015681862831116,-0.12397575378417969
1732227338224,SW,4.761875967086646,1.1s : 0.3s,-15.891113508682409,0.14616802999340747,2.0786622911730173,0.4479181942695454,1.765864610671997,0.5652474761009216,-2.73008131980896,0.1066390872001648,0.4246261417865753,0.09461212158203125,-0.5136668956643378,1.4243249823099624,-0.5648441320377351,0.8616226315498352,0.4913742244243622,-0.12711335718631744
1732227338234,SW,4.761875967086646,1.1s : 0.3s,-15.891113508682409,0.1507010051201992,2.1468284139176133,0.555163738820211,1.9725854396820068,0.5155757665634155,-2.7688097953796387,0.19088464975357056,0.518073320388794,0.05805051326751709,-0.5380643478580677,1.416596339773664,-0.5909539879317752,0.8485136032104492,0.512474775314331,-0.1318877786397934
1732227338244,SW,4.761875967086646,1.1s : 0.3s,-15.891113508682409,0.15567551461966447,2.215119382011646,0.6319046951160964,2.0924179553985596,0.4905953109264374,-2.8147077560424805,0.2719588279724121,0.5701133012771606,-0.017685115337371826,-0.562437443332802,1.4065876271899822,-0.6198059531589893,0.8345780968666077,0.5332497358322144,-0.1382901966571808
1732227338254,SW,4.761875967086646,1.1s : 0.3s,-15.891113508682409,0.1608586870951323,2.270244998097078,0.5997415013554448,2.093428134918213,0.4517798125743866,-2.864734411239624,0.2746908664703369,0.5325409173965454,-0.025198563933372498,-0.5869862937117888,1.3948625134594435,-0.6500777782739415,0.8197609782218933,0.5538542866706848,-0.1457303762435913
1732227338264,SW,4.761875967086646,1.1s : 0.3s,-15.891113508682409,0.16604268473649178,2.3156224365647917,0.515847551064183,2.0890891551971436,0.4088219404220581,-2.9160404205322266,0.24137389659881592,0.45586544275283813,-0.004902660846710205,-0.6116384064273822,1.3814890286868144,-0.681350599567607,0.8040820360183716,0.5742096304893494,-0.154063418507576
1732227338274,SW,4.761875967086646,1.1s : 0.3s,-15.891113508682409,0.17101584847775228,2.3550178290759862,0.47303415591182224,2.1088173389434814,0.3311229348182678,-2.960010290145874,0.23123908042907715,0.4118044972419739,0.02658677101135254,-0.6363937781887057,1.3662810522287734,-0.7135991406278095,0.7874834537506104,0.5942990183830261,-0.16333602368831635
1732227338284,SW,4.761875967086646,1.1s : 0.3s,-15.891113508682409,0.17583463147925574,2.379470078909696,0.4671245970946707,2.0699033737182617,0.255757600069046,-2.9768545627593994,0.24188250303268433,0.39592409133911133,0.054243505001068115,-0.6609756515084829,1.3488731682377728,-0.7471592231322501,0.7700346112251282,0.6138873100280762,-0.17375031113624573
1732227338294,SW,4.761875967086646,1.1s : 0.3s,-15.891113508682409,0.1806331549581927,2.3942929933250263,0.4747576546382201,1.9874614477157593,0.20450128614902496,-3.023897409439087,0.25751441717147827,0.39370471239089966,0.063857302069664,-0.6854988774710431,1.3299661273976975,-0.7812526316125331,0.751763105392456,0.6330592632293701,-0.1846306025981903
1732227338304,SW,4.761875967086646,1.1s : 0.3s,-15.891113508682409,0.18518686658317443,2.403185767940217,0.43996646505390147,1.8535736799240112,0.1495855748653412,-3.1071767807006836,0.23659473657608032,0.35632699728012085,0.10307517647743225,-0.7104463335101914,1.3097311432603382,-0.8155439845244441,0.7323842644691467,0.6521722078323364,-0.19566555321216583
1732227338314,SW,4.761875967086646,1.1s : 0.3s,-15.891113508682409,0.1896437917371777,2.4182324043336365,0.43942593764915705,1.8360867500305176,0.08952822536230087,-3.1694295406341553,0.2207043170928955,0.36303871870040894,0.11219468712806702,-0.735767486101193,1.287911609933836,-0.8503975679601328,0.711851954460144,0.6711562871932983,-0.20692124962806702
1732227338324,SW,4.761875967086646,1.1s : 0.3s,-15.891113508682409,0.194161893264782,2.432475725515444,0.5067771612367973,1.8192484378814697,0.01433174591511488,-3.2007031440734863,0.27210360765457153,0.40964168310165405,0.1223781406879425,-0.760917604663691,1.2635239257859439,-0.8869262093792173,0.6902835369110107,0.6895862817764282,-0.2190425992012024
1732227338334,SW,4.761875967086646,1.1s : 0.3s,-15.891113508682409,0.1988127124348097,2.4394409500755234,0.5509402619772286,1.7213927507400513,-0.04587944224476814,-3.239169120788574,0.33875352144241333,0.4309937357902527,0.055005669593811035,-0.7859042284259385,1.2370285296585528,-0.9244326949900012,0.6677467226982117,0.7074645161628723,-0.23153461515903473
1732227338344,SW,4.761875967086646,1.1s : 0.3s,-15.891113508682409,0.20347308507707138,2.4394819973304056,0.5437022955676425,1.634007453918457,-0.08950307965278625,-3.2598659992218018,0.3649718761444092,0.3989105820655823,0.0572543740272522,-0.810755179918523,1.2088161039189869,-0.962771780144583,0.6443055272102356,0.7248076796531677,-0.2439761459827423
1732227338354,SW,4.761875967086646,1.1s : 0.3s,-15.891113508682409,0.20808789886541895,2.4465823884787103,0.5515876223079345,1.6193740367889404,-0.13979852199554443,-3.3029627799987793,0.39585304260253906,0.374308705329895,0.08626857399940491,-0.8352886086996563,1.178411432886832,-1.0026026345631207,0.6199702620506287,0.7414901852607727,-0.2565719187259674
1732227338364,SW,4.761875967086646,1.1s : 0.3s,-15.891113508682409,0.2127928021720502,2.4579492458813483,0.591056745376594,1.6006584167480469,-0.1810074746608734,-3.342106580734253,0.4285963773727417,0.40073275566101074,0.07117921113967896,-0.859383007140007,1.1450754617036878,-1.0448239968901425,0.5946275591850281,0.7574398517608643,-0.26963502168655396
1732227338374,SW,4.761875967086646,1.1s : 0.3s,-15.891113508682409,0.21766565760966758,2.4662614464634767,0.6247869408751547,1.5451656579971313,-0.22800429165363312,-3.3665573596954346,0.4577517509460449,0.4211583733558655,0.05871695280075073,-0.8829466734042694,1.1089827914779482,-1.0891762130433256,0.5683713555335999,0.772612988948822,-0.28288382291793823
1732227338384,SW,4.761875967086646,1.1s : 0.3s,-15.891113508682409,0.2226716671066321,2.465550229540254,0.6530784715636391,1.4935554265975952,-0.26736393570899963,-3.3438382148742676,0.4967736601829529,0.41133517026901245,0.10261967778205872,-0.9057061958252023,1.0704501845724284,-1.1353344016091897,0.5414801239967346,0.7868611812591553,-0.2960553467273712
1732227338394,SW,4.761875967086646,1.1s : 0.3s,-15.891113508682409,0.22769214546946695,2.464856408296032,0.6470678145267292,1.4547072649002075,-0.3054928183555603,-3.359039545059204,0.5113300681114197,0.3741675019264221,0.1312897503376007,-0.9273907593767112,1.0291310032191041,-1.1835395347486677,0.5140452980995178,0.8000572919845581,-0.3092987835407257
1732227338404,SW,4.761875967086646,1.1s : 0.3s,-15.891113508682409,0.23273883569047488,2.4646166870589483,0.6058806028471637,1.3922513723373413,-0.3143821656703949,-3.3934075832366943,0.4925856292247772,0.33331894874572754,0.11553865671157837,-0.9483391247505224,0.9849930457857097,-1.234284739099195,0.48582321405410767,0.812448263168335,-0.32234102487564087
1732227338414,SW,4.761875967086646,1.1s : 0.3s,-15.891113508682409,0.23781178590804686,2.4642948447742024,0.5921751763095644,1.3356214761734009,-0.3441588580608368,-3.4146101474761963,0.4771229028701782,0.33235180377960205,0.11210465431213379,-0.9684707388658067,0.9380643579615543,-1.2874613028765636,0.45688286423683167,0.824020266532898,-0.3350355923175812
1732227338424,SW,4.761875967086646,1.1s : 0.3s,-15.891113508682409,0.24290131157414335,2.4637062761939363,0.6117001977591514,1.264264702796936,-0.39550620317459106,-3.436863422393799,0.512930154800415,0.3145872950553894,0.11006644368171692,-0.9876519322314066,0.8880226704937529,-1.3431091272451703,0.42720967531204224,0.8347353339195251,-0.3474321663379669
1732227338434,SW,4.761875967086646,1.1s : 0.3s,-15.891113508682409,0.24798939824583263,2.4697631236763775,0.6293115164930224,1.2625445127487183,-0.4393959939479828,-3.4676268100738525,0.5390738844871521,0.3151209354400635,0.07830151915550232,-1.005633080147971,0.8342869941948465,-1.4019430583269867,0.3967476487159729,0.8445011973381042,-0.3597346246242523
1732227338444,SW,4.761875967086646,1.1s : 0.3s,-15.891113508682409,0.2531249201329513,2.4696611877627377,0.6519497225896751,1.2112712860107422,-0.4786054491996765,-3.455397129058838,0.5519285798072815,0.34331828355789185,0.05045631527900696,-1.0220014685924779,0.7766098224528658,-1.4643630416352378,0.3656129240989685,0.8531538248062134,-0.37209632992744446
1732227338454,SW,4.761875967086646,1.1s : 0.3s,-15.891113508682409,0.25822557017344117,2.4688209492239097,0.6463741847908508,1.0531011819839478,-0.5851537585258484,-3.496175765991211,0.578181266784668,0.2781968116760254,0.07818275690078735,-1.037370511108403,0.7163289500192225,-1.528187579934377,0.3338823914527893,0.8610701560974121,-0.38351112604141235
1732227338464,SW,4.761875967086646,1.1s : 0.3s,-15.891113508682409,0.2631694471009591,2.4753492054368205,0.6571518512446426,1.065408706665039,-0.6086529493331909,-3.5236687660217285,0.6102584600448608,0.23049360513687134,0.07940948009490967,-1.0515024573979028,0.651986627621462,-1.5955010710664599,0.3011185824871063,0.8681698441505432,-0.39447304606437683
1732227338474,SW,4.761875967086646,1.1s : 0.3s,-15.891113508682409,0.26817148112897654,2.480674810258948,0.6381745914620435,1.0797840356826782,-0.6098189949989319,-3.5140116214752197,0.5738310813903809,0.27909982204437256,0.009380221366882324,-1.0630114603743217,0.5840141523535692,-1.6664411806354498,0.26810315251350403,0.8738237619400024,-0.40565094351768494
1732227338484,SW,4.761875967086646,1.1s : 0.3s,-15.891113508682409,0.273245171617581,2.4928145042700502,0.6433417203709216,1.1147739887237549,-0.6254384517669678,-3.5371475219726562,0.571803092956543,0.29379528760910034,-0.024781465530395508,-1.072153281616261,0.5128200597363495,-1.7404706542159434,0.2346392124891281,0.8782323002815247,-0.4167163372039795
1732227338494,SW,4.761875967086646,1.1s : 0.3s,-15.891113508682409,0.27839728742542186,2.494212690994847,0.6451662230874107,1.1365224123001099,-0.6404459476470947,-3.5005979537963867,0.5699309706687927,0.30180269479751587,-0.018255889415740967,-1.0782247549528752,0.43901893123338376,-1.8169611262417895,0.20100408792495728,0.8811196684837341,-0.42804843187332153
1732227338504,SW,4.761875967086646,1.1s : 0.3s,-15.891113508682409,0.28361259070030226,2.496898059885735,0.6625990305299162,1.1653828620910645,-0.676881730556488,-3.4923198223114014,0.5928929448127747,0.29313725233078003,-0.03982439637184143,-1.081360400016081,0.3638691122025589,-1.8944662956440812,0.16731515526771545,0.8825981616973877,-0.43934735655784607
1732227338514,SW,4.761875967086646,1.1s : 0.3s,-15.891113508682409,0.2888835550434167,2.501663591125998,0.654709864816644,1.241631031036377,-0.6726357936859131,-3.4777724742889404,0.5953704714775085,0.27190542221069336,-0.015698730945587158,-1.0810506264560087,0.2878138856009678,-1.9727454913339122,0.13352662324905396,0.8824524879455566,-0.45105233788490295
1732227338524,SW,4.761875967086646,1.1s : 0.3s,-15.891113508682409,0.2942069052547133,2.504888297640932,0.6411139417525089,1.2559008598327637,-0.6946625113487244,-3.4709560871124268,0.5776612162590027,0.2759220004081726,-0.03466489911079407,-1.0775834372862727,0.21241217486925804,-2.050413833521712,0.09981374442577362,0.8808162212371826,-0.46281740069389343
1732227338534,SW,4.761875967086646,1.1s : 0.3s,-15.891113508682409,0.29958282562800337,2.520797851247054,0.619618876440217,1.281814694404602,-0.7298081517219543,-3.5163681507110596,0.5487352013587952,0.286909818649292,-0.022360384464263916,-1.0711410662726992,0.13769964332504522,-2.1270864276312915,0.06576677411794662,0.8777477741241455,-0.4745878577232361
1732227338544,SW,4.761875967086646,1.1s : 0.3s,-15.891113508682409,0.30502723320385755,2.5361606495371207,0.6162406599973103,1.271077275276184,-0.7984702587127686,-3.528695821762085,0.521263062953949,0.3190990686416626,-0.07882356643676758,-1.061901989352817,0.06416890139243062,-2.2020367442106314,0.03124241530895233,0.8732837438583374,-0.4862093925476074
1732227338554,SW,4.761875967086646,1.1s : 0.3s,-15.891113508682409,0.31057634070717544,2.548386738321242,0.651824921656606,1.2665501832962036,-0.8870803713798523,-3.5185444355010986,0.5368896722793579,0.3544636368751526,-0.10478901863098145,-1.0502890428202867,-0.007198119825841683,-2.2740367053698995,-0.003579741111025214,0.8675670027732849,-0.49730753898620605
1732227338564,SW,4.761875967086646,1.1s : 0.3s,-15.891113508682409,0.3162930180303902,2.5559889277122143,0.6701220397989633,1.2959964275360107,-0.944036602973938,-3.487950563430786,0.5669038891792297,0.34556812047958374,-0.0909186601638794,-1.036044459276334,-0.07560169354820226,-2.3422577447146766,-0.038492023944854736,0.8603951334953308,-0.5081719756126404
1732227338574,SW,4.761875967086646,1.1s : 0.3s,-15.891113508682409,0.32207918944351893,2.555019354292237,0.6572895662931638,1.2861363887786865,-0.9885607361793518,-3.435051679611206,0.5618959069252014,0.32933956384658813,-0.08853256702423096,-1.0194361751583454,-0.13999367160088486,-2.4058994946879664,-0.07309586554765701,0.8518127799034119,-0.5187215209007263
1732227338584,SW,4.761875967086646,1.1s : 0.3s,-15.891113508682409,0.3278953440340235,2.532074783563211,0.6267911839444875,1.1173492670059204,-1.0585752725601196,-3.365750789642334,0.5426992177963257,0.30272597074508667,-0.0818641185760498,-1.0017508213492157,-0.20039866543616833,-2.4648160016443263,-0.10725918412208557,0.8424156904220581,-0.5280448794364929
1732227338594,SW,4.761875967086646,1.1s : 0.3s,-15.891113508682409,0.33354148488054347,2.5142161993056997,0.5972160673842213,1.0115759372711182,-1.1404465436935425,-3.3651928901672363,0.5321024656295776,0.2571871876716614,-0.08595782518386841,-0.9838048852193679,-0.25796055943044305,-2.5199896762006855,-0.14129436016082764,0.8326107859611511,-0.5355325937271118
1732227338604,SW,4.761875967086646,1.1s : 0.3s,-15.891113508682409,0.33922223109790534,2.502159876993125,0.6200508272036677,1.001719355583191,-1.178658366203308,-3.3538286685943604,0.5375552177429199,0.2907496690750122,-0.10469979047775269,-0.9647221828559558,-0.31291777860449604,-2.5719732277248952,-0.17535731196403503,0.8218907117843628,-0.541982889175415
1732227338614,SW,4.761875967086646,1.1s : 0.3s,-15.891113508682409,0.3451804387023688,2.5010956516977463,0.6848239793802674,1.31753671169281,-1.0640238523483276,-3.311051607131958,0.5772464871406555,0.3606046438217163,-0.07572758197784424,-0.9429888574288405,-0.363471447884193,-2.619401809161286,-0.20882299542427063,0.8093172907829285,-0.548997700214386
1732227338624,SW,4.761875967086646,1.1s : 0.3s,-15.891113508682409,0.3516945506347836,2.5413536798951073,0.773429718180587,1.4592344760894775,-1.2397091388702393,-3.4397835731506348,0.6203666925430298,0.4556627869606018,-0.07556533813476562,-0.9176395649126081,-0.40965340200876704,-2.662260119398498,-0.24204030632972717,0.7941694259643555,-0.5574150085449219
1732227338634,SW,4.761875967086646,1.1s : 0.3s,-15.891113508682409,0.35924430585846745,2.602782078284713,0.9605303854198954,1.587916612625122,-1.2506414651870728,-3.5661838054656982,0.6217103600502014,0.6789577603340149,-0.27406424283981323,-0.8888044811028821,-0.45468259541854306,-2.7031503139468573,-0.27683117985725403,0.7763187289237976,-0.566298246383667
1732227338644,SW,4.761875967086646,1.1s : 0.3s,-15.891113508682409,0.3668881475741677,2.6192274196888548,0.7815991696303992,1.3971434831619263,-1.3673609495162964,-3.4488425254821777,0.5978226661682129,0.48528456687927246,-0.13417977094650269,-0.8590981640410523,-0.496465246460278,-2.7406590475729296,-0.3110947608947754,0.757253885269165,-0.5742705464363098
1732227338654,SW,4.761875967086646,1.1s : 0.3s,-15.891113508682409,0.3741767621289956,2.633205080526174,0.7141951325658517,1.2017642259597778,-1.4914318323135376,-3.4901328086853027,0.6533690690994263,0.2864699959754944,-0.03344380855560303,-0.8309237348700963,-0.5378278786443286,-2.7762171339880917,-0.34537044167518616,0.7385544776916504,-0.579013466835022
1732227338664,SW,4.761875967086646,1.1s : 0.3s,-15.891113508682409,0.38129497743963353,2.633505446710746,0.7070033836677572,1.2549160718917847,-1.4649150371551514,-3.42649507522583,0.6310360431671143,0.3013310432434082,-0.10414844751358032,-0.8021776256694388,-0.5769933963359578,-2.8091869433029353,-0.37920501828193665,0.718871533870697,-0.5826038122177124
1732227338674,SW,4.761875967086646,1.1s : 0.3s,-15.891113508682409,0.38842220548025386,2.6334302906876075,0.7332941962226869,1.3217871189117432,-1.4639427661895752,-3.3949954509735107,0.630295991897583,0.3406236171722412,-0.15627825260162354,-0.7724466190361035,-0.6125563364912948,-2.8383061808889627,-0.4117901027202606,0.6978896260261536,-0.5859856009483337
1732227338684,SW,4.761875967086646,1.1s : 0.3s,-15.891113508682409,0.395454497109441,2.6441813238393026,0.6927156910720509,1.2643646001815796,-1.525671124458313,-3.4527645111083984,0.594980001449585,0.3414178490638733,-0.09637260437011719,-0.7417723510574584,-0.6465022589881816,-2.8653048837603583,-0.4441315531730652,0.6755957007408142,-0.5884876251220703
1732227338694,SW,4.761875967086646,1.1s : 0.3s,-15.891113508682409,0.4023604134589396,2.64054613597513,0.6826456273577761,1.1939432621002197,-1.5707513093948364,-3.3794877529144287,0.5909259915351868,0.31731224060058594,-0.12698215246200562,-0.7110879509662623,-0.679330664516091,-2.8907183146287427,-0.4760120213031769,0.6526584625244141,-0.5894484519958496
1732227338704,SW,4.761875967086646,1.1s : 0.3s,-15.891113508682409,0.40938784737925193,2.6294957275406214,0.785500818700828,1.1306588649749756,-1.6296308040618896,-3.342223882675171,0.719240128993988,0.3104097247123718,-0.05788761377334595,-0.6806950471834763,-0.7106732464283084,-2.9139388299889806,-0.5069597959518433,0.6293333172798157,-0.5890087485313416
1732227338714,SW,4.761875967086646,1.1s : 0.3s,-15.891113508682409,0.4166743199755606,2.6205968902758014,0.8463889080057657,1.2050700187683105,-1.6200159788131714,-3.3093690872192383,0.7794044017791748,0.3264889717102051,-0.04804074764251709,-0.6499371995329846,-0.7404755087265049,-2.935161448152344,-0.5370948314666748,0.6051363945007324,-0.5876556634902954
1732227338724,SW,4.761875967086646,1.1s : 0.3s,-15.891113508682409,0.4240535643333918,2.6032306380960675,0.8154439519535166,1.2350890636444092,-1.6265902519226074,-3.2295868396759033,0.7566795945167542,0.3023380637168884,-0.031249403953552246,-0.6185992766087907,-0.7680441797240003,-2.9535148334400274,-0.5659905076026917,0.5798945426940918,-0.5859838128089905
1732227338734,SW,4.761875967086646,1.1s : 0.3s,-15.891113508682409,0.4314225764782376,2.581658785707014,0.786526124567184,1.244837760925293,-1.634385347366333,-3.1660685539245605,0.7525630593299866,0.22806024551391602,-0.016146540641784668,-0.5872511178746862,-0.7939544528185735,-2.969751166073266,-0.5936580300331116,0.554074764251709,-0.5835849642753601
1732227338744,SW,4.761875967086646,1.1s : 0.3s,-15.891113508682409,0.4387139559333729,2.5521938689964747,0.7624045524947974,1.1805121898651123,-1.6492356061935425,-3.0977702140808105,0.7460770606994629,0.15187567472457886,0.03954112529754639,-0.5562378568810625,-0.8186852955977676,-2.984309158674568,-0.6201615333557129,0.5279949307441711,-0.5801904797554016
1732227338754,SW,4.761875967086646,1.1s : 0.3s,-15.891113508682409,0.44591336910726037,2.5163148062053975,0.772490099631864,1.1421962976455688,-1.6605544090270996,-3.015599012374878,0.7636143565177917,0.10818076133728027,0.043943047523498535,-0.5258425738433437,-0.8424942748279388,-2.997557267156995,-0.6454808115959167,0.5019419193267822,-0.5756813287734985
1732227338764,SW,4.761875967086646,1.1s : 0.3s,-15.891113508682409,0.45288673337524166,2.4689352850389885,0.8004810897332884,1.09317946434021,-1.6441117525100708,-2.9097402095794678,0.7949170470237732,0.06115436553955078,0.07167291641235352,-0.49617106454834264,-0.8652509100541831,-3.0093929069821947,-0.669459342956543,0.4760618209838867,-0.570253849029541
1732227338774,SW,4.761875967086646,1.1s : 0.3s,-15.891113508682409,0.4594951390198139,2.4163215699446905,0.8098984152252511,1.0694712400436401,-1.6424237489700317,-2.80269193649292,0.8021272420883179,0.026402443647384644,0.10876691341400146,-0.46732053420739644,-0.886921428274164,-3.019791646489676,-0.6920198202133179,0.45049574971199036,-0.5640586614608765
1732227338784,SW,4.761875967086646,1.1s : 0.3s,-15.891113508682409,0.46588957675271603,2.3519619536682352,0.827304393598938,1.078951120376587,-1.5918325185775757,-2.66084885597229,0.8159006237983704,0.022310316562652588,0.1350591778755188,-0.4392833267497106,-0.9073783242077536,-3.0285725963525825,-0.7130869030952454,0.42529094219207764,-0.5573460459709167
1732227338794,SW,4.761875967086646,1.1s : 0.3s,-15.891113508682409,0.4721895355037904,2.2716804602100287,0.8846317962912923,1.0816911458969116,-1.5252773761749268,-2.48349666595459,0.8610023856163025,-0.006079137325286865,0.20300579071044922,-0.4122662243414957,-0.9261467430297599,-3.0363148398138606,-0.7323402762413025,0.40068671107292175,-0.550570547580719
1732227338804,SW,4.761875967086646,1.1s : 0.3s,-15.891113508682409,0.47827801994260605,2.1738274957505013,0.9024169358280271,1.0247528553009033,-1.4658803939819336,-2.285548448562622,0.8601158857345581,-0.07777044177055359,0.2617417573928833,-0.3867972203055997,-0.9435103932006611,-3.042469843155327,-0.7498100996017456,0.3772241771221161,-0.5435868501663208
1732227338814,SW,4.761875967086646,1.1s : 0.3s,-15.891113508682409,0.48384526411919576,2.0554247363328977,0.9029945052346264,0.9069327116012573,-1.3945053815841675,-2.068363904953003,0.8279255628585815,-0.21493124961853027,0.2893836498260498,-0.36346018491241167,-0.9596759056386535,-3.047577082621461,-0.765501856803894,0.35551050305366516,-0.5363013744354248
1732227338824,SW,4.761875967086646,1.1s : 0.3s,-15.891113508682409,0.48873421568545833,1.9209057628021915,0.9522235770557294,0.8169484734535217,-1.2966574430465698,-1.8442528247833252,0.8067982792854309,-0.34414640069007874,0.37063395977020264,-0.34248663963354853,-0.9746661199402975,-3.0519182896419195,-0.7794545292854309,0.33583036065101624,-0.5288370847702026
1732227338834,SW,4.761875967086646,1.1s : 0.3s,-15.891113508682409,0.49303032032136174,1.7690417516831713,1.0218238102869917,0.7953774333000183,-1.161353588104248,-1.5757447481155396,0.8166851997375488,-0.4298170208930969,0.43864166736602783,-0.32378081213254106,-0.9879322819307754,-3.0548771502819188,-0.7915082573890686,0.31815317273139954,-0.5218173265457153
1732227338844,SW,4.761875967086646,1.1s : 0.3s,-15.891113508682409,0.496804127648766,1.6070211353172965,1.1034755369074698,0.7919123768806458,-1.0077656507492065,-1.3202937841415405,0.8360148668289185,-0.526802122592926,0.49113839864730835,-0.30732824978882967,-0.9991801076050641,-3.0561773848063707,-0.8016215562820435,0.30251315236091614,-0.5156440138816833
1732227338854,SW,4.761875967086646,1.1s : 0.3s,-15.891113508682409,0.4999480854172727,1.4310619800660729,1.1836233371660532,0.7217738032341003,-0.8555583357810974,-1.0466108322143555,0.8206928372383118,-0.664206326007843,0.5350303053855896,-0.2932223106474889,-1.0084659144846064,-3.056103797297985,-0.8099048733711243,0.2890385091304779,-0.5104026198387146
1732227338864,SW,4.761875967086646,1.1s : 0.3s,-15.891113508682409,0.5024205836492529,1.244662442610226,1.3990817146802985,0.7023787498474121,-0.685230016708374,-0.7473189234733582,0.8828592896461487,-0.8807793855667114,0.6342056393623352,-0.2818980452867531,-1.0158408757464716,-3.0548440858614225,-0.8163766860961914,0.2781792879104614,-0.5061080455780029
1732227338874,SW,4.761875967086646,1.1s : 0.3s,-15.891113508682409,0.5046133439120646,1.0553596181573415,1.3953747986271463,0.7568873167037964,-0.48863860964775085,-0.42637524008750916,0.8874433040618896,-0.8722786903381348,0.63138347864151,-0.2730593118476382,-1.0208400901177284,-3.051594785047334,-0.8209608793258667,0.26967865228652954,-0.5032859444618225
1732227338884,SW,4.761875967086646,1.1s : 0.3s,-15.891113508682409,0.5067248534487154,0.8683261983230596,1.5017013127160006,0.8085826635360718,-0.2640112042427063,-0.08300276100635529,0.9325721859931946,-0.9489859938621521,0.6963056325912476,-0.26683862207014347,-1.0231407348275596,-3.0461005289112006,-0.8235328793525696,0.2636832594871521,-0.5022596716880798
1732227338894,SW,4.761875967086646,1.1s : 0.3s,-15.891113508682409,0.5087657160249313,0.7039472717894568,1.6120141897556812,0.8701469898223877,-0.02092895284295082,0.2755492031574249,0.9344803094863892,-1.053330421447754,0.7847492098808289,-0.26325456294063426,-1.0224891225844268,-3.038138702023863,-0.8240066170692444,0.2602243721485138,-0.5032855272293091
1732227338904,SW,4.761875967086646,1.1s : 0.3s,-15.891113508682409,0.5107357027293771,0.5950380788751606,1.7076119900675606,0.8893707990646362,0.22231405973434448,0.6605168581008911,0.9220446944236755,-1.1584715843200684,0.850714921951294,-0.26266246469203447,-1.0187843490192472,-3.027832635787551,-0.822267472743988,0.25965261459350586,-0.5064155459403992
1732227338914,SW,4.761875967086646,1.1s : 0.3s,-15.891113508682409,0.5128340765566991,0.588785523527454,1.843387870609581,0.8659471869468689,0.46649423241615295,1.0546387434005737,0.9563523530960083,-1.2521837949752808,0.9568201303482056,-0.265342014777349,-1.0121085968290489,-3.015388806786462,-0.818275511264801,0.26223933696746826,-0.5115228295326233
1732227338924,SW,4.761875967086646,1.1s : 0.3s,-15.891113508682409,0.5152347070910972,0.7034955138438164,2.005536036783897,0.7982778549194336,0.7505379319190979,1.4933767318725586,1.0032999515533447,-1.3738274574279785,1.0621497631072998,-0.27168880862961914,-1.0022452295462347,-3.001081934904907,-0.8117716312408447,0.26835867762565613,-0.5186622142791748
1732227338934,SW,4.761875967086646,1.1s : 0.3s,-15.891113508682409,0.5182119400514791,0.9284695305985029,2.1330423203682756,0.8273442983627319,1.0787235498428345,1.9373185634613037,1.0692369937896729,-1.4649001359939575,1.1227953433990479,-0.2816747443109657,-0.9885804470846896,-2.98432017152358,-0.8023303151130676,0.2779647707939148,-0.5282062292098999
1732227338944,SW,4.761875967086646,1.1s : 0.3s,-15.891113508682409,0.5221377189377864,1.2205367842929542,2.251707935549857,0.8522166013717651,1.4466309547424316,2.4077866077423096,1.175234079360962,-1.5361392498016357,1.152948260307312,-0.29503976704845913,-0.9702910639380308,-2.964437760267787,-0.7894002795219421,0.29077789187431335,-0.5406435132026672
1732227338954,SW,4.761875967086646,1.1s : 0.3s,-15.891113508682409,0.5273717543187909,1.5586332078525063,2.392480902267417,0.8952658176422119,1.8367758989334106,2.9045028686523438,1.3011884689331055,-1.6122967004776,1.1963999271392822,-0.3117494450234788,-0.9468708924073641,-2.940960340159077,-0.7724713683128357,0.3067242205142975,-0.5560649037361145
1732227338964,SW,4.761875967086646,1.1s : 0.3s,-15.891113508682409,0.5343082314590378,1.9402853707900864,2.533078046016798,1.0033177137374878,2.2490408420562744,3.4564144611358643,1.4519660472869873,-1.668623447418213,1.2344937324523926,-0.3316362425111006,-0.9176219666961827,-2.9130224049084616,-0.7508857250213623,0.3255905508995056,-0.5745968222618103
1732227338974,SW,4.761875967086646,1.1s : 0.3s,-15.891113508682409,0.5433580409923606,2.3633624307275913,2.6721727659050196,1.1300512552261353,2.7215018272399902,4.047572612762451,1.6311721801757812,-1.7015907764434814,1.2587189674377441,-0.35434535288989544,-0.8814929448676105,-2.8793636643714007,-0.723747193813324,0.34697645902633667,-0.5964875817298889
1732227338984,SW,4.761875967086646,1.1s : 0.3s,-15.891113508682409,0.5548695577223233,2.8277580972562975,2.8774809702459354,1.1977506875991821,3.239645004272461,4.708291053771973,1.8366302251815796,-1.7824347019195557,1.3151473999023438,-0.37986843776368984,-0.8373286967767106,-2.8393314408649646,-0.6899017095565796,0.3707982897758484,-0.6217268109321594
1732227338994,SW,4.761875967086646,1.1s : 0.3s,-15.891113508682409,0.5692487716453373,3.3322630313763777,3.1594789500599507,1.2472988367080688,3.7887744903564453,5.419216632843018,2.082981824874878,-1.9043915271759033,1.4201362133026123,-0.40810304112549795,-0.783990407650605,-2.7919248648839035,-0.6481215357780457,0.39686888456344604,-0.6499488949775696
1732227339004,SW,4.761875967086646,1.1s : 0.3s,-15.891113508682409,0.5871552956191326,3.882871576622831,3.51160758441437,1.2608522176742554,4.385436534881592,6.214099407196045,2.432863712310791,-2.0241222381591797,1.5216737985610962,-0.43865960092802436,-0.7201813351138141,-2.7359693347513883,-0.5970786809921265,0.42472636699676514,-0.6805177927017212
1732227339014,SW,4.761875967086646,1.1s : 0.3s,-15.891113508682409,0.6093756479726162,4.484516248773201,3.928775889181535,1.16205632686615,5.099630832672119,7.061860084533691,2.8611433506011963,-2.1300086975097656,1.646876335144043,-0.4709740466631648,-0.6438726800133588,-2.6701050326981277,-0.5349408984184265,0.4537544846534729,-0.7127026915550232
1732227339024,SW,4.761875967086646,1.1s : 0.3s,-15.891113508682409,0.6369142804634003,5.153145190869047,4.477958037136812,0.8686423301696777,5.878952980041504,8.076774597167969,3.396829843521118,-2.245241641998291,1.8634766340255737,-0.5051108658831213,-0.5527331952758066,-2.592800001037519,-0.45945191383361816,0.4839044511318207,-0.7448090314865112
1732227339034,SW,4.761875967086646,1.1s : 0.3s,-15.891113508682409,0.6710636160678387,5.888502080394691,5.189393901193897,0.5149187445640564,6.748523712158203,9.12793254852295,4.089813709259033,-2.36460280418396,2.1475303173065186,-0.5402169858786212,-0.44422735572047806,-2.501828235951357,-0.3685612380504608,0.5143221020698547,-0.7743613123893738
1732227339044,SW,4.761875967086646,1.1s : 0.3s,-15.891113508682409,0.7130438995232933,6.691956963191665,5.968068863839234,0.2782779633998871,7.727509498596191,10.192291259765625,4.899270534515381,-2.444715976715088,2.3745226860046387,-0.5724230340854687,-0.3150976872813626,-2.394473973084846,-0.2605069875717163,0.5416704416275024,-0.7992054224014282
1732227339054,SW,4.761875967086646,1.1s : 0.3s,-15.891113508682409,0.7637078791345867,7.5026974977754195,6.732274015514635,0.03362800553441048,8.525674819946289,11.131735801696777,5.798730850219727,-2.440565586090088,2.3962206840515137,-0.5962793709411345,-0.16469690944508078,-2.2696671654102754,-0.13566003739833832,0.5615677833557129,-0.8162339925765991
1732227339064,SW,4.761875967086646,1.1s : 0.3s,-15.891113508682409,0.8242192577108555,8.252569491286772,7.669312069205673,-0.09472623467445374,8.95221996307373,11.932393074035645,6.939098834991455,-2.266918659210205,2.351241111755371,-0.6060835889892362,0.002287904023999568,-2.130343957687294,0.0018803931307047606,0.5696529746055603,-0.8218831419944763
1732227339074,SW,4.761875967086646,1.1s : 0.3s,-15.891113508682409,0.8958264308284052,8.896237271817354,8.741898936146896,-0.5837345123291016,9.179157257080078,12.495726585388184,8.205766677856445,-1.7198431491851807,2.475546360015869,-0.5978982210837673,0.17691259938840698,-1.9817927300366078,0.1454603523015976,0.5629065632820129,-0.8136199712753296
1732227339084,SW,4.761875967086646,1.1s : 0.3s,-15.891113508682409,0.979662182119212,9.300086674705843,10.017740562542713,-2.1199891567230225,9.305068969726562,12.046236038208008,9.669472694396973,-0.8234663009643555,2.485624074935913,-0.5781839450389752,0.35075670811073134,-1.836185799226766,0.2877572178840637,0.5465039610862732,-0.7864663004875183
1732227339094,SW,4.761875967086646,1.1s : 0.3s,-15.891113508682409,1.0757028192467817,9.607360805753,11.207949616218585,-4.853045463562012,8.684690475463867,12.240058898925781,10.96534538269043,-0.04775756597518921,2.31884765625,-0.5576788037214185,0.5204439969041043,-1.6882738691018173,0.4219226539134979,0.5292181372642517,-0.73614501953125
1732227339104,SW,4.761875967086646,1.1s : 0.3s,-15.891113508682409,1.183146476736488,9.989486579650267,12.277996481603966,-8.665740966796875,7.787258625030518,12.576626777648926,12.095016479492188,0.9780558347702026,1.8716785907745361,-0.5421490095617705,0.6891904412656854,-1.5238868144162814,0.5447239279747009,0.5159780383110046,-0.6610919833183289
1732227339114,SW,4.761875967086646,1.1s : 0.3s,-15.891113508682409,1.3010531715167661,10.640607640693636,13.464958699458757,-12.72443962097168,6.439895153045654,13.25996208190918,13.115928649902344,2.7663087844848633,1.274780035018921,-0.528277501457459,0.8596788928103594,-1.3296658667069594,0.6543499827384949,0.5040463805198669,-0.5637051463127136
1732227339124,SW,4.761875967086646,1.1s : 0.3s,-15.891113508682409,1.4275852763569885,11.649997128076375,14.550074723733914,-16.32503890991211,5.017049312591553,14.17052173614502,13.555157661437988,5.203297138214111,0.9423768520355225,-0.5019672687315072,1.029602350963681,-1.101226378114735,0.751361072063446,0.4811510443687439,-0.4516083896160126
1732227339134,SW,4.761875967086646,1.1s : 0.3s,-15.891113508682409,1.5603525184236267,12.493659121644239,15.652088597796483,-16.98821258544922,3.3594067096710205,14.204890251159668,13.387129783630371,8.075511932373047,0.7474895715713501,-0.4502935867915929,1.1839443979902942,-0.858179409292306,0.8337869048118591,0.4352298676967621,-0.3396678566932678
1732227339144,SW,4.761875967086646,1.1s : 0.3s,-15.891113508682409,1.6950474618955784,12.819110510904851,16.238973732522663,-15.834667205810547,0.49146634340286255,13.73012924194336,11.914799690246582,10.973716735839844,1.1486327648162842,-0.3703217706659477,1.2914213380021289,-0.6410743492410086,0.8960673213005066,0.3619154095649719,-0.25706177949905396
1732227339154,SW,4.761875967086646,1.1s : 0.3s,-15.891113508682409,1.826209738659963,12.891934633047374,16.675418178742937,-15.308167457580566,-1.8529220819473267,13.068951606750488,9.423680305480957,13.696752548217773,1.2894923686981201,-0.2793072665646954,1.345107338270875,-0.4472398608320319,0.9368696212768555,0.27568984031677246,-0.215105801820755
1732227339164,SW,4.761875967086646,1.1s : 0.3s,-15.891113508682409,1.949652422125846,12.789277594918033,16.251922403566365,-14.574725151062012,-2.5191264152526855,12.197561264038086,6.472465515136719,14.758048057556152,2.105276584625244,-0.18736655775462902,1.3632748905110021,-0.26736940217774713,0.9614183306694031,0.18627218902111053,-0.2024291604757309
1732227339174,SW,4.761875967086646,1.1s : 0.3s,-15.891113508682409,2.06180012697374,12.949439108988745,15.082426646905127,-17.224483489990234,-3.282642126083374,10.521367073059082,3.29219913482666,14.241936683654785,3.7159464359283447,-0.10752904585461248,1.3619332907700372,-0.09058108028227195,0.9726171493530273,0.10732194781303406,-0.20615021884441376
1732227339184,SW,4.761875967086646,1.1s : 0.3s,-15.891113508682409,2.158757441507236,13.889592209000947,13.475586948364112,-21.924392700195312,-3.0419657230377197,10.526664733886719,0.3434775471687317,12.851947784423828,4.037437915802002,-0.048675774257428576,1.3442546808799285,0.12251832125706208,0.9732949733734131,0.04865655675530434,-0.22434288263320923
1732227339194,SW,4.761875967086646,1.1s : 0.3s,-15.891113508682409,2.237773239634565,12.652944170162064,8.499071583905275,-10.56752872467041,-7.69890832901001,8.911528587341309,-0.8691069483757019,7.939105987548828,2.90679669380188,0.011326044375006578,1.296828860299577,0.32012760130013884,0.9626433253288269,-0.011325802654027939,-0.2705357074737549
1732227339204,SW,4.761875967086646,1.1s : 0.3s,-15.891113508682409,2.292906693550659,14.751407418803021,4.337341215589996,-28.173433303833008,-1.5252108573913574,10.33997917175293,-0.5824739336967468,1.9731066226959229,-3.818390130996704,0.04763326309481307,1.2593309003203406,0.5114051975289038,0.9508059024810791,-0.04761525243520737,-0.306106299161911
1732227339214,SW,4.761875967086646,1.1s : 0.3s,-15.891113508682409,2.3343955183547878,15.478041272328882,1.7088103370628784,-27.582727432250977,-3.8905012607574463,0.18367400765419006,1.0425671339035034,-1.3385834693908691,-0.2031768560409546,0.018778499769462716,1.2216180855854162,0.7602109792511491,0.9394885301589966,-0.01877739652991295,-0.3420654535293579
1732227339224,SW,4.761875967086646,1.1s : 0.3s,-15.891113508682409,2.3715832829602306,17.079396172022257,10.225796446224045,-30.439529418945312,-11.379838943481445,0.5367061495780945,5.60267448425293,-8.494407653808594,1.0109353065490723,-0.09625568727551748,1.1431886067972594,1.0507940336583264,0.9057482481002808,0.096107117831707,-0.41277551651000977
1732227339234,SW,4.761875967086646,1.1s : 0.3s,-15.891113508682409,2.433906578898052,16.761868192260202,11.841713400313768,-23.0684757232666,-9.710110664367676,-3.710066080093384,9.21802043914795,1.8750733137130737,7.192939281463623,-0.23060282405100396,1.0823946662504673,1.2784460261065942,0.8597075939178467,0.22856442630290985,-0.45679429173469543
1732227339244,SW,4.761875967086646,1.1s : 0.3s,-15.891113508682409,2.499652963048989,15.413334971971404,9.90935984081674,-16.1192626953125,-10.57335090637207,-7.575672626495361,2.841752767562866,5.699232578277588,7.5920090675354,-0.39621192396151045,1.0283489806743669,1.4315501698281934,0.7900983691215515,0.3859265148639679,-0.47624069452285767
1732227339254,SW,4.761875967086646,1.1s : 0.3s,-15.891113508682409,2.568396100835529,13.05105409328965,11.455587799812236,-7.6034674644470215,-9.211784362792969,-8.236814498901367,2.156531810760498,10.741820335388184,3.3456177711486816,-0.5185504382505071,0.9527685164057023,1.4832546621271934,0.7078786492347717,0.4956216514110565,-0.5032563209533691
1732227339264,SW,4.761875967086646,1.1s : 0.3s,-15.891113508682409,2.6331986108525736,11.374987475683334,8.410106137532383,-5.239513874053955,-9.970468521118164,-8.97372817993164,2.2077715396881104,8.097463607788086,-0.5354560613632202,-0.6272913754476769,0.8533786228579534,1.476433891694167,0.6100537180900574,0.5869539380073547,-0.5322776436805725
1732227339274,SW,4.761875967086646,1.1s : 0.3s,-15.891113508682409,2.6833384810925915,10.462889721165277,4.458152917350779,-4.500919342041016,-11.032196044921875,-8.446989059448242,1.8741083145141602,1.722715139389038,-3.6599314212799072,-0.7229815297190458,0.7275888785825393,1.443639485767406,0.49869444966316223,0.6616232395172119,-0.5599629282951355
1732227339284,SW,4.761875967086646,1.1s : 0.3s,-15.891113508682409,2.7303738734761267,10.354859371514555,5.353175981686663,-5.671594142913818,-12.067973136901855,-8.947444915771484,5.0085062980651855,-1.2751073837280273,-1.3947970867156982,-0.8154720460033339,0.5742811849656522,1.3912716843761286,0.37239864468574524,0.7280492782592773,-0.5755550265312195
1732227339294,SW,4.761875967086646,1.1s : 0.3s,-15.891113508682409,2.779106124059317,10.220295309105369,5.968257144392552,-4.7435760498046875,-10.970254898071289,-9.848553657531738,5.830350399017334,-1.2395124435424805,0.3011917471885681,-0.9056803544939499,0.38971197040769145,1.3021674208923093,0.23446901142597198,0.7868452072143555,-0.5708755850791931
1732227339304,SW,4.761875967086646,1.1s : 0.3s,-15.891113508682409,2.826041229938071,10.047500124279482,4.212043902907769,-3.415792226791382,-10.059548377990723,-10.693453788757324,3.991999626159668,-0.13557016849517822,1.3367398977279663,-0.9721091198860329,0.16617816515612494,1.1554926165121655,0.09322068840265274,0.8260761499404907,-0.5557950139045715
1732227339314,SW,4.761875967086646,1.1s : 0.3s,-15.891113508682409,2.8719081726027356,9.869787122799583,4.0954223885828185,-1.9273840188980103,-9.185388565063477,-11.498440742492676,3.756249189376831,0.351912260055542,1.5934975147247314,-1.002615798979554,-0.0927051365288819,0.9618394337620265,-0.04981314763426781,0.842881441116333,-0.5357887148857117
1732227339324,SW,4.761875967086646,1.1s : 0.3s,-15.891113508682409,2.9210164032232533,9.626841005458868,5.2525966736455,0.4967173635959625,-8.595001220703125,-11.598572731018066,4.872629642486572,0.7092028856277466,1.8287382125854492,-0.9858384738656817,-0.35189295414356575,0.7589769959601484,-0.19031742215156555,0.8337353467941284,-0.5183287262916565
1732227339334,SW,4.761875967086646,1.1s : 0.3s,-15.891113508682409,2.972817734908631,9.271182987949363,5.3756968024571785,2.4083831310272217,-7.972614765167236,-10.634506225585938,5.136682510375977,0.7020604014396667,1.421168565750122,-0.9231604169138197,-0.5628556506228175,0.601438505729279,-0.3219243884086609,0.7975122928619385,-0.510233998298645
1732227339344,SW,4.761875967086646,1.1s : 0.3s,-15.891113508682409,3.027155345326019,8.916526367589343,5.538906245377966,2.8739237785339355,-7.216546535491943,-10.005102157592773,5.34268856048584,0.9095942378044128,1.1435906887054443,-0.8398605242414523,-0.7199267247591983,0.4960712442297166,-0.44014644622802734,0.7445499897003174,-0.5019126534461975
1732227339354,SW,4.761875967086646,1.1s : 0.3s,-15.891113508682409,3.0831691310612444,8.509323797125722,5.697676329803063,3.4965126514434814,-6.434132099151611,-9.191866874694824,5.257152557373047,0.2726699709892273,2.1797966957092285,-0.7501340363172304,-0.8354530666942797,0.4299406201629113,-0.542553186416626,0.6817368268966675,-0.49078622460365295
1732227339364,SW,4.761875967086646,1.1s : 0.3s,-15.891113508682409,3.1392990234892326,8.126319638763798,5.705292715734275,4.696536540985107,-6.017879962921143,-8.368555068969727,5.07105827331543,-0.4561946988105774,2.5742220878601074,-0.6567581722781491,-0.9187553777812388,0.397211957974808,-0.6294995546340942,0.6105526089668274,-0.480578750371933
1732227339374,SW,4.761875967086646,1.1s : 0.3s,-15.891113508682409,3.1942468218919413,7.817992028502565,5.1734009793453914,5.471466541290283,-5.931705474853516,-7.580450534820557,4.605629920959473,-0.25007444620132446,2.3430137634277344,-0.5617850027530411,-0.9813380906141941,0.3922741191046089,-0.7034846544265747,0.5326976776123047,-0.4704703688621521
1732227339384,SW,4.761875967086646,1.1s : 0.3s,-15.891113508682409,3.246542578822463,7.510917627638167,4.613233054523012,5.118593215942383,-5.615968704223633,-7.05133581161499,4.019453048706055,-0.2858303189277649,2.2459335327148438,-0.47162344381137905,-1.0359320352089083,0.39925853876523454,-0.7664163112640381,0.45433309674263,-0.4540786147117615
1732227339394,SW,4.761875967086646,1.1s : 0.3s,-15.891113508682409,3.295201218837989,7.168370078832159,4.311973439680079,5.031644821166992,-5.201279640197754,-6.392181873321533,3.4682302474975586,-0.6265532970428467,2.4843358993530273,-0.38762171062323336,-1.0848506972535998,0.4110108316454494,-0.818632960319519,0.37798765301704407,-0.43239498138427734
1732227339404,SW,4.761875967086646,1.1s : 0.3s,-15.891113508682409,3.340187485948953,6.878411343301868,3.94877027497774,5.158202648162842,-4.7593302726745605,-6.205378532409668,3.0610532760620117,-0.5594034194946289,2.431009531021118,-0.3048568067446844,-1.1288257503496288,0.4280356262876794,-0.8622312545776367,0.3001565933227539,-0.40799927711486816
1732227339414,SW,4.761875967086646,1.1s : 0.3s,-15.891113508682409,3.382549303376775,6.703220583954394,3.676823011421569,5.504940032958984,-4.480011940002441,-6.2997260093688965,2.9298315048217773,-0.13215532898902893,2.2175774574279785,-0.22259683065146563,-1.16967657289962,0.4511939897043553,-0.8979102373123169,0.22076313197612762,-0.38081610202789307
1732227339424,SW,4.761875967086646,1.1s : 0.3s,-15.891113508682409,3.424027174224379,6.58151009445721,3.88657210822739,5.806764125823975,-4.397873401641846,-6.065418243408203,3.0919229984283447,0.14154429733753204,2.350621223449707,-0.14374022517170107,-1.209218327308423,0.4816164469102015,-0.9256937503814697,0.14324575662612915,-0.3501024842262268
1732227339434,SW,4.761875967086646,1.1s : 0.3s,-15.891113508682409,3.464178989589542,6.399067589445519,3.6999765573700856,5.76987361907959,-4.100857257843018,-5.526186943054199,2.9363646507263184,-0.004545964300632477,2.2511260509490967,-0.0697116810288025,-1.2482100460401098,0.5170439834793086,-0.9461151957511902,0.06965523213148117,-0.3162505030632019
1732227339444,SW,4.761875967086646,1.1s : 0.3s,-15.891113508682409,3.5014122657829794,6.161835303186887,3.2021600528470637,5.577244281768799,-3.8088672161102295,-5.022036552429199,2.4859423637390137,-0.36224812269210815,1.9856222867965698,-0.0024611658842644507,-1.2862596422404287,0.5551482979136995,-0.9597889184951782,0.0024611633270978928,-0.28071194887161255
1732227339454,SW,4.761875967086646,1.1s : 0.3s,-15.891113508682409,3.536015046556525,5.963807234841788,3.032128292644348,5.820391654968262,-3.683656692504883,-4.583134651184082,2.3861303329467773,-0.48514989018440247,1.8068795204162598,0.058569474382388145,-1.3249495491874224,0.597376806081162,-0.9682685136795044,-0.058535993099212646,-0.24296042323112488
1732227339464,SW,4.761875967086646,1.1s : 0.3s,-15.891113508682409,3.568646370429827,5.801070236653615,2.7428368101444325,6.238855838775635,-3.357531785964966,-4.118863582611084,2.3353018760681152,-0.13204419612884521,1.432509422302246,0.11448258745389174,-1.3644896029202018,0.6464758671314681,-0.9723871350288391,-0.11423268169164658,-0.20350545644760132
1732227339474,SW,4.761875967086646,1.1s : 0.3s,-15.891113508682409,3.599147775276249,5.612416483596284,2.3798174287349205,6.226652145385742,-2.9573869705200195,-3.688667058944702,2.0442495346069336,0.2055635154247284,1.2009656429290771,0.16441792498385233,-1.4037228917886124,0.701277889711763,-0.9727773070335388,-0.1636781394481659,-0.16405454277992249
1732227339484,SW,4.761875967086646,1.1s : 0.3s,-15.891113508682409,3.627788592990451,5.436329266032981,2.283311870678543,6.351485729217529,-2.6037657260894775,-3.281360149383545,1.8658896684646606,0.28669488430023193,1.2844356298446655,0.20805345011882453,-1.4422859489776214,0.7591361600220505,-0.9703665971755981,-0.20655572414398193,-0.12539322674274445
1732227339494,SW,4.761875967086646,1.1s : 0.3s,-15.891113508682409,3.655050644195063,5.29815233302691,2.3193983988363955,6.511973857879639,-2.273653984069824,-3.022791624069214,1.7571022510528564,0.33404022455215454,1.476691484451294,0.2462818784145385,-1.4806556189356666,0.8212150771836493,-0.9658883213996887,-0.24379971623420715,-0.08730243891477585
1732227339504,SW,4.761875967086646,1.1s : 0.3s,-15.891113508682409,3.6802885904002025,5.1795745462011045,1.9839588396760999,6.523441314697266,-1.9840779304504395,-2.868764877319336,1.4454176425933838,0.3901093602180481,1.3017969131469727,0.2802217112338258,-1.5188902268398636,0.8864574169582782,-0.9596999287605286,-0.2765687108039856,-0.04985906556248665
1732227339514,SW,4.761875967086646,1.1s : 0.3s,-15.891113508682409,3.7033703755736087,5.062486959810992,1.7468188056113225,6.390498161315918,-1.716784119606018,-2.831101894378662,1.1979191303253174,0.5512336492538452,1.1456470489501953,0.31075833928967767,-1.5567868487242231,0.9531223596244864,-0.9520084261894226,-0.3057807385921478,-0.013338013552129269
1732227339524,SW,4.761875967086646,1.1s : 0.3s,-15.891113508682409,3.7252252685841882,4.990983423176226,1.8772725169703401,6.530875205993652,-1.4741510152816772,-2.768052816390991,1.1812314987182617,0.7767968773841858,1.2350833415985107,0.3382807923255365,-1.594019607622401,1.0210765908923145,-0.9430722594261169,-0.3318658173084259,0.021905168890953064
1732227339534,SW,4.761875967086646,1.1s : 0.3s,-15.891113508682409,3.746016224708147,4.911150334680218,1.8433355338533834,6.407525062561035,-1.2611814737319946,-2.7360923290252686,1.0922510623931885,0.8517717123031616,1.2162888050079346,0.36290477463819104,-1.6317683516182042,1.0913959243789673,-0.9331323504447937,-0.3549913167953491,0.056965578347444534
1732227339544,SW,4.761875967086646,1.1s : 0.3s,-15.891113508682409,3.7646271065102828,4.8317291464461105,1.4001534101362991,6.3174214363098145,-1.1004754304885864,-2.686892032623291,0.7676920890808105,0.6711636781692505,0.9594882726669312,0.3849791999126435,-1.6691778548907834,1.1615750748659184,-0.9223246574401855,-0.3755398690700531,0.09103360772132874
1732227339554,SW,4.761875967086646,1.1s : 0.3s,-15.891113508682409,3.780772089336094,4.748077481702377,1.2128841616203234,6.247190952301025,-1.0089081525802612,-2.5064029693603516,0.5054036974906921,0.4902558922767639,0.9875749349594116,0.4033734525141165,-1.7069800294236464,1.2326355701176595,-0.9112263321876526,-0.39252328872680664,0.12486706674098969
1732227339564,SW,4.761875967086646,1.1s : 0.3s,-15.891113508682409,3.7948644707868535,4.654656421294306,1.0517016810315363,6.136263370513916,-0.8872493505477905,-2.3482232093811035,0.4745861887931824,0.41312509775161743,0.8427170515060425,0.41782146658079583,-1.7448287306389223,1.303463061832603,-0.9001689553260803,-0.40577030181884766,0.1582595556974411
1732227339574,SW,4.761875967086646,1.1s : 0.3s,-15.891113508682409,3.8072848388097627,4.536166302927811,0.9838753718907606,5.964512825012207,-0.7351930737495422,-2.1051557064056396,0.40717291831970215,0.4491945803165436,0.7748839855194092,0.4281603525609996,-1.7814274520899993,1.3731540615401288,-0.8896251916885376,-0.4151979088783264,0.1902039349079132
1732227339584,SW,4.761875967086646,1.1s : 0.3s,-15.891113508682409,3.8185772326636926,4.39385606316506,1.0278876965381716,5.765040397644043,-0.6331068873405457,-1.8080356121063232,0.4028104543685913,0.4244598150253296,0.8450625538825989,0.4338534479397074,-1.8166899414741833,1.4411207231700296,-0.8800594210624695,-0.42037034034729004,0.22087059915065765
