timestamp,club,max_speed,tempo,w.rotation,l.speed,t.spped,acc,rotation.x,rotation.y,rotation.z,userAcceleration.x,userAcceleration.y,userAcceleration.z,pitch,roll,yaw,gravity.x,gravity.y,gravity.z
1732225579019,9i,4.871809506258674,1.0s : 0.3s,-7.467961684932817,2.698820000044691e-05,0.012416082396956645,0.021318569134340357,0.052067600190639496,-0.008089674636721611,0.03204610198736191,0.0009253621101379395,-0.018577009439468384,0.010417284443974495,-0.22357518270429036,1.5436634261219537,0.21763756250807534,0.9747520685195923,0.2217172384262085,-0.026454342529177666
1732225579029,9i,4.871809506258674,1.0s : 0.3s,-7.467961684932817,7.556725413783193e-05,0.02122488548625458,0.02201959098976055,0.05457576736807823,-0.008453728631138802,0.028853237628936768,-0.0017895102500915527,-0.0205991268157959,0.007572054862976074,-0.2232391024415954,1.5436884472810022,0.21716296275577143,0.974827229976654,0.221389502286911,-0.02643197402358055
1732225579039,9i,4.871809506258674,1.0s : 0.3s,-7.467961684932817,0.00012768010251573895,0.02967814712802041,0.008805241659342202,0.06462094187736511,-0.007264005485922098,0.03457443788647652,-0.003710627555847168,-0.00797899067401886,0.00031501054763793945,-0.22283116078338547,1.5436846732629521,0.21661205123983895,0.9749172329902649,0.22099167108535767,-0.026438096538186073
1732225579049,9i,4.871809506258674,1.0s : 0.3s,-7.467961684932817,0.00016678281584020575,0.0400591895431051,0.012424937448732165,0.08983469009399414,-0.007761749904602766,0.0338553860783577,-0.009538710117340088,0.007167816162109375,-0.0034661926329135895,-0.22241408679420188,1.5436372229010515,0.21587634476205092,0.9750081896781921,0.22058488428592682,-0.02648686245083809
1732225579059,9i,4.871809506258674,1.0s : 0.3s,-7.467961684932817,0.00018973577549473804,0.049224546719062845,0.022732059807851507,0.09758834540843964,-0.00859989132732153,0.03867027908563614,-0.015383362770080566,0.011591151356697083,-0.012072443962097168,-0.22197781334776484,1.5434837234454226,0.214935514678783,0.9751001000404358,0.22015933692455292,-0.026639146730303764
1732225579069,9i,4.871809506258674,1.0s : 0.3s,-7.467961684932817,0.00020079709397353415,0.05005751281143513,0.033606925733423054,0.07703433185815811,-0.003628834616392851,0.037935514003038406,-0.019254207611083984,0.01114240288734436,-0.025190232321619987,-0.22143673734295638,1.5434196015469814,0.2140826349351841,0.9752172231674194,0.21963150799274445,-0.026704926043748856
1732225579079,9i,4.871809506258674,1.0s : 0.3s,-7.467961684932817,0.00027630443843555376,0.049695494921951196,0.038074674385911625,0.055484965443611145,-0.008853469043970108,0.04389110952615738,-0.01924222707748413,0.010787904262542725,-0.03103286400437355,-0.2208617519211755,1.5433903207255275,0.21344448274320985,0.9753427505493164,0.21907052397727966,-0.026736944913864136
1732225579089,9i,4.871809506258674,1.0s : 0.3s,-7.467961684932817,0.00041978026584314125,0.04824018218129781,0.033096906369930734,0.038393065333366394,-0.0138860447332263,0.03829660639166832,-0.015937745571136475,0.00039884448051452637,-0.029004041105508804,-0.22032783486310914,1.5432690694204292,0.2130058167196987,0.9754562973976135,0.21854954957962036,-0.02685842104256153
1732225579099,9i,4.871809506258674,1.0s : 0.3s,-7.467961684932817,0.0005961277664095628,0.047438202121644873,0.0361044323715555,0.04825209081172943,-0.018364593386650085,0.03361004218459129,-0.00397878885269165,-0.008901149034500122,-0.03476303815841675,-0.21986625641601293,1.5430751635605267,0.2125955029396987,0.9755516052246094,0.21809910237789154,-0.027050353586673737
1732225579109,9i,4.871809506258674,1.0s : 0.3s,-7.467961684932817,0.0008055526300948423,0.04875737743126594,0.04205955709133885,0.0837182030081749,-0.02314603328704834,0.027652285993099213,-0.00013893842697143555,-0.005522608757019043,-0.04169517755508423,-0.21945328965338534,1.5427697028518572,0.21194981923918407,0.9756333231925964,0.21769605576992035,-0.02735086902976036
1732225579119,9i,4.871809506258674,1.0s : 0.3s,-7.467961684932817,0.001064654137620204,0.06381955373013048,0.0481321001911169,0.14470365643501282,-0.03276825323700905,0.026306355372071266,-0.004969358444213867,0.00888553261756897,-0.0470430850982666,-0.2191366878415375,1.5422474656188951,0.21079725920708794,0.9756877422332764,0.21738703548908234,-0.027862343937158585
1732225579129,9i,4.871809506258674,1.0s : 0.3s,-7.467961684932817,0.0014240786389975515,0.08576936528690476,0.06421301229089944,0.20173685252666473,-0.03167662397027016,0.027572955936193466,-0.00501936674118042,0.02925989031791687,-0.056938350200653076,-0.21888259520784678,1.5415218321736148,0.2090004783017807,0.9757224917411804,0.21713902056217194,-0.028571944683790207
1732225579139,9i,4.871809506258674,1.0s : 0.3s,-7.467961684932817,0.0018511583694499547,0.10150192461666942,0.06557434635211447,0.20227214694023132,-0.03633840009570122,0.023237328976392746,-0.008053719997406006,0.03430218994617462,-0.05530363693833351,-0.2186410967556311,1.5406925198922388,0.20690507623269272,0.9757509231567383,0.21690326929092407,-0.029382694512605667
1732225579149,9i,4.871809506258674,1.0s : 0.3s,-7.467961684932817,0.002311981282267707,0.10326161046387403,0.06142484312123495,0.17213794589042664,-0.029357723891735077,-0.015294083394110203,-0.01611149311065674,0.030257239937782288,-0.05096989870071411,-0.2185174317321733,1.5398329906535608,0.20494892949240182,0.9757519960403442,0.2167825549840927,-0.030222196131944656
1732225579169,9i,4.871809506258674,1.0s : 0.3s,-7.467961684932817,0.0026773562578043387,0.11567612369547801,0.09213037889224332,0.1848745197057724,-0.14659816026687622,-0.07470281422138214,0.08434784412384033,0.01488746702671051,-0.033938344568014145,-0.21824032645464758,1.5380494737395174,0.20197559256614375,0.9757564067840576,0.2165120244026184,-0.03196437656879425
1732225579159,9i,4.871809506258674,1.0s : 0.3s,-7.467961684932817,0.003096582180316393,0.12805931598486395,0.05100287631260931,0.18115514516830444,-0.060793761163949966,-0.21351556479930878,-0.01924043893814087,0.014746695756912231,-0.04487353190779686,-0.21815010881532465,1.5387639325385487,0.2033266806778982,0.9757985472679138,0.21642394363880157,-0.031267859041690826
1732225579179,9i,4.871809506258674,1.0s : 0.3s,-7.467961684932817,0.0035459937625275167,0.1231235805469445,0.07236196200662029,0.11046592891216278,-0.13343793153762817,0.08032914251089096,-0.059967100620269775,0.019922718405723572,-0.03526025637984276,-0.21838116570996016,1.5370261497492783,0.20081211441170024,0.9756927490234375,0.21664951741695404,-0.03296184539794922
1732225579189,9i,4.871809506258674,1.0s : 0.3s,-7.467961684932817,0.004085590995757603,0.11205354903571985,0.1180747475809135,0.12275189161300659,-0.05096594616770744,-0.000584079883992672,-0.10500097274780273,0.027142494916915894,-0.046687543392181396,-0.21850378459797068,1.5361478609625283,0.1996371270935336,0.9756369590759277,0.2167692333459854,-0.03381785750389099
1732225579199,9i,4.871809506258674,1.0s : 0.3s,-7.467961684932817,0.004654519017262153,0.11108856228397032,0.06807447190538593,0.1470034271478653,-0.04854779690504074,-0.009382564574480057,-0.030761003494262695,0.038233593106269836,-0.047181423753499985,-0.21839644910748596,1.5352942452106841,0.19830645978366496,0.9756308794021606,0.21666444838047028,-0.034651488065719604
1732225579209,9i,4.871809506258674,1.0s : 0.3s,-7.467961684932817,0.0052126840211099475,0.11145880740862237,0.04618063013447419,0.18197472393512726,-0.02181125618517399,0.013129934668540955,0.01652294397354126,0.031325533986091614,-0.029637034982442856,-0.218392177071503,1.534484273160561,0.19664392017753116,0.9756034016609192,0.216660276055336,-0.03544174134731293
1732225579219,9i,4.871809506258674,1.0s : 0.3s,-7.467961684932817,0.005624793530789108,0.11528435055592318,0.021487946334756754,0.19493193924427032,-0.03521250560879707,0.025789236649870872,0.019129812717437744,-0.005974069237709045,0.007751941680908203,-0.21818068761199513,1.5336989272125303,0.19461580018735009,0.9756211638450623,0.21645380556583405,-0.03620962053537369
1732225579229,9i,4.871809506258674,1.0s : 0.3s,-7.467961684932817,0.005661388093542173,0.11312188898349734,0.08549711413489748,0.1347074806690216,-0.0632806271314621,0.0031949791591614485,0.035636305809020996,-0.05809496343135834,0.051621560007333755,-0.21800552311210486,1.532761371784786,0.19288975262510405,0.9756245017051697,0.21628278493881226,-0.03712574020028114
1732225579239,9i,4.871809506258674,1.0s : 0.3s,-7.467961684932817,0.00538782093192614,0.09489503437669536,0.1088597394227022,0.044963348656892776,-0.08416571468114853,-0.036294806748628616,0.027118921279907227,-0.08463643491268158,0.06286239624023438,-0.21816843056380034,1.5317483646291055,0.1919523703887189,0.9755512475967407,0.21644183993339539,-0.038112662732601166
1732225579249,9i,4.871809506258674,1.0s : 0.3s,-7.467961684932817,0.005118918182674135,0.09124799442709146,0.05029860634077156,0.07859507948160172,-0.0736456960439682,-0.039297521114349365,-0.009838461875915527,-0.04219774901866913,0.025544166564941406,-0.2185550852565968,1.530770276625923,0.1913812320063417,0.9754298329353333,0.21681930124759674,-0.0390634685754776
1732225579259,9i,4.871809506258674,1.0s : 0.3s,-7.467961684932817,0.004927877374408906,0.09205358693096162,0.05088385305448045,0.13176481425762177,-0.06085097789764404,-0.030867215245962143,-0.026054203510284424,0.038773104548454285,-0.020174026489257812,-0.21889108583924888,1.5298002193592792,0.19022860943657396,0.9753187298774719,0.21714730560779572,-0.04000668600201607
1732225579289,9i,4.871809506258674,1.0s : 0.3s,-7.467961684932817,0.004788056599112725,0.07569145642177007,0.02172597033607677,0.013448568992316723,-0.06741682440042496,-0.04122504964470863,-0.012824177742004395,0.006266504526138306,-0.01637953519821167,-0.2200378623175055,1.5273221516199047,0.18789621887233246,0.9749670624732971,0.2182665765285492,-0.042412612587213516
1732225579299,9i,4.871809506258674,1.0s : 0.3s,-7.467961684932817,0.004672654249573041,0.07372470482211155,0.015036429673496316,0.029017141088843346,-0.05900540575385094,-0.09148456156253815,0.0004729628562927246,0.015015214681625366,-0.000643312931060791,-0.22056394182251482,1.5266394214984298,0.1876580300112048,0.9748230576515198,0.21877993643283844,-0.04307316616177559
1732225579309,9i,4.871809506258674,1.0s : 0.3s,-7.467961684932817,0.004581764148720976,0.1399617712204267,0.02858550257499315,0.09212739765644073,0.005944563541561365,-0.5351107120513916,0.005210518836975098,0.02738875150680542,-0.0063117146492004395,-0.22094064987878884,1.5259075443534833,0.18724930725741695,0.9747089147567749,0.21914750337600708,-0.04378290846943855
1732225579319,9i,4.871809506258674,1.0s : 0.3s,-7.467961684932817,0.0044140561066386965,0.2446300462471899,0.13009147918241434,0.14311349391937256,0.1641075313091278,-0.731623649597168,0.12653213739395142,0.030087456107139587,0.0028558969497680664,-0.22114609613375846,1.5255639997912234,0.18690787183522237,0.9746488928794861,0.21934795379638672,-0.04411572590470314
1732225579329,9i,4.871809506258674,1.0s : 0.3s,-7.467961684932817,0.004265789531532349,0.21268499596486515,0.0551937866552693,0.07229071110486984,0.026043927296996117,-0.19199074804782867,0.04860001802444458,0.011804565787315369,0.0233461894094944,-0.22150873631008156,1.5247328099885666,0.18661389616483773,0.9745322465896606,0.21970175206661224,-0.04492215812206268
1732225579339,9i,4.871809506258674,1.0s : 0.3s,-7.467961684932817,0.004149423787537454,0.15437041677768665,0.025296873294579296,0.05486245080828667,-0.05315803736448288,-0.011673382483422756,-0.013658761978149414,-0.010944753885269165,0.01826423779129982,-0.22227362151199206,1.5241305398628207,0.18617302266456845,0.9743367433547974,0.22044788300991058,-0.0455012246966362
1732225579349,9i,4.871809506258674,1.0s : 0.3s,-7.467961684932817,0.0040559691882715255,0.1225417010966069,0.02289949122458553,0.074482761323452,-0.060778677463531494,-0.04245632886886597,-0.013129234313964844,-0.010171771049499512,0.01576530933380127,-0.222560603509323,1.5232781655409282,0.1855315796269792,0.9742345809936523,0.22072778642177582,-0.04632871225476265
1732225579359,9i,4.871809506258674,1.0s : 0.3s,-7.467961684932817,0.003985739466309001,0.09919400304073293,0.03406607483926154,0.07889428734779358,-0.04142654687166214,-0.02578533999621868,0.03080272674560547,0.0008551478385925293,0.014524400234222412,-0.2228944667809567,1.5225277609740668,0.18474305947917374,0.974125862121582,0.22105340659618378,-0.04705620929598808
1732225579369,9i,4.871809506258674,1.0s : 0.3s,-7.467961684932817,0.003931676391825934,0.08079830869656018,0.015591568651404217,0.08201231062412262,-0.06526076793670654,0.01273462176322937,-0.006023824214935303,0.0022178441286087036,0.014208860695362091,-0.2230617614047536,1.5218473232402372,0.18388561729716668,0.9740564823150635,0.22121655941009521,-0.04771720990538597
1732225579379,9i,4.871809506258674,1.0s : 0.3s,-7.467961684932817,0.0038949701268289807,0.07025873554444942,0.011606357876783309,0.08204227685928345,-0.09759300947189331,0.08598163723945618,0.004309177398681641,-0.004029318690299988,0.009995155036449432,-0.22322477920565326,1.5212682411017076,0.1830239871791156,0.9739928841590881,0.22137553989887238,-0.04827948659658432
1732225579389,9i,4.871809506258674,1.0s : 0.3s,-7.467961684932817,0.003865600296124818,0.0722948388299931,0.019608427495820577,0.0643002986907959,-0.12993738055229187,0.14941972494125366,0.00014960765838623047,-0.01401132345199585,0.013716809451580048,-0.22335277050945598,1.5207826113367142,0.18225517942282612,0.9739410281181335,0.22150035202503204,-0.04875106364488602
1732225579399,9i,4.871809506258674,1.0s : 0.3s,-7.467961684932817,0.0038310146397150064,0.09559782618843517,0.033501428852727916,0.043638162314891815,-0.16613443195819855,0.2103678286075592,-0.012448430061340332,-0.026188194751739502,0.01677977293729782,-0.2233687787100242,1.5204262645380022,0.18169412530724832,0.9739200472831726,0.2215159684419632,-0.0490979440510273
1732225579409,9i,4.871809506258674,1.0s : 0.3s,-7.467961684932817,0.0037839823324970654,0.13049441690086286,0.04253731803894643,0.030753789469599724,-0.20373214781284332,0.2637935280799866,-0.018220603466033936,-0.034404635429382324,0.0171392560005188,-0.22336051555451103,1.520166956989267,0.18129859969849674,0.9739090800285339,0.22150790691375732,-0.04935057833790779
1732225579419,9i,4.871809506258674,1.0s : 0.3s,-7.467961684932817,0.0037126468919453474,0.16845418683469554,0.04380319027988001,0.024851158261299133,-0.23395776748657227,0.3117968738079071,-0.023774147033691406,-0.03240583837032318,0.017417550086975098,-0.22331367833204832,1.5199443596274278,0.18098928182180998,0.9739084243774414,0.22146223485469818,-0.04956789314746857
1732225579429,9i,4.871809506258674,1.0s : 0.3s,-7.467961684932817,0.0036141286742361195,0.20674984915796102,0.04366084724430145,0.023521175608038902,-0.26430103182792664,0.3564165234565735,-0.03250765800476074,-0.025371387600898743,0.014346234500408173,-0.22325095856512747,1.519777180841642,0.18071768605669206,0.9739140272140503,0.22140106558799744,-0.04973141849040985
1732225579439,9i,4.871809506258674,1.0s : 0.3s,-7.467961684932817,0.003478482632307816,0.24407621705888824,0.04807912212535755,0.022269356995821,-0.2943567931652069,0.39714905619621277,-0.04016751050949097,-0.024022802710533142,0.011003546416759491,-0.2231511130855569,1.519638376657728,0.1804308317214643,0.973929226398468,0.22130370140075684,-0.04986773431301117
1732225579449,9i,4.871809506258674,1.0s : 0.3s,-7.467961684932817,0.0033294576630023384,0.27938838305374303,0.05051188490721097,-0.0025904523208737373,-0.32582125067710876,0.4316154420375824,-0.04136019945144653,-0.028699278831481934,0.004139542579650879,-0.2230490239419517,1.5195430593257455,0.18029040210175673,0.9739468693733215,0.22120413184165955,-0.04996171593666077
1732225579459,9i,4.871809506258674,1.0s : 0.3s,-7.467961684932817,0.0031737313142361973,0.31185697340880897,0.059846682141743816,-0.015750862658023834,-0.3546421229839325,0.4572192430496216,-0.049572527408599854,-0.033378392457962036,0.0031737685203552246,-0.22294969387663524,1.5194704728756396,0.18036061416263632,0.9739652276039124,0.22110727429389954,-0.05003353953361511
1732225579469,9i,4.871809506258674,1.0s : 0.3s,-7.467961684932817,0.00303633694868813,0.3328302033302639,0.06865156906522452,-0.0057685356587171555,-0.3566474914550781,0.4435409605503082,-0.06330502033233643,-0.02648504078388214,-0.002013690769672394,-0.22287520569382618,1.51943942609061,0.18044579652450887,0.973980188369751,0.22103461623191833,-0.05006462708115578
1732225579479,9i,4.871809506258674,1.0s : 0.3s,-7.467961684932817,0.0029614185199752863,0.33535339385721286,0.07187650387107038,0.004623784683644772,-0.3319859206676483,0.40155595541000366,-0.07033324241638184,-0.010553672909736633,-0.010396480560302734,-0.2227487933905247,1.5193684518923074,0.18044503759031405,0.9740044474601746,0.22091133892536163,-0.050135187804698944
1732225579489,9i,4.871809506258674,1.0s : 0.3s,-7.467961684932817,0.00297784029578948,0.33254822088034347,0.06601958266392724,0.005779330153018236,-0.307127982378006,0.3606921434402466,-0.06458455324172974,-0.0044243186712265015,-0.012955546379089355,-0.22258148803797587,1.5193188560335324,0.18043230762966475,0.97403883934021,0.2207481563091278,-0.050185393542051315
1732225579499,9i,4.871809506258674,1.0s : 0.3s,-7.467961684932817,0.003090642369379197,0.31861619752348247,0.05990276469561247,0.011460118927061558,-0.2877699136734009,0.3152969479560852,-0.058570683002471924,-0.006128966808319092,-0.010965950787067413,-0.2224362828017041,1.5192517965395949,0.1804426589200568,0.9740676283836365,0.22060653567314148,-0.05025237053632736
1732225579509,9i,4.871809506258674,1.0s : 0.3s,-7.467961684932817,0.00329631790212747,0.3002356051902844,0.05688816135165937,0.030265232548117638,-0.26804468035697937,0.27466297149658203,-0.05402970314025879,-0.0014273226261138916,-0.017748713493347168,-0.22230911827052727,1.5191203945475191,0.18035326096455193,0.9740889072418213,0.2204824984073639,-0.05038180574774742
1732225579519,9i,4.871809506258674,1.0s : 0.3s,-7.467961684932817,0.003575635199298419,0.2788353567398631,0.053700339569261756,0.051731642335653305,-0.24481312930583954,0.23601190745830536,-0.046844661235809326,0.009738430380821228,-0.024381697177886963,-0.2221877197862535,1.518929090306994,0.1800808753526468,0.9741060137748718,0.22036409378051758,-0.05056954175233841
1732225579529,9i,4.871809506258674,1.0s : 0.3s,-7.467961684932817,0.003909624021966401,0.25656015005531185,0.05174417131355168,0.05253565311431885,-0.22596009075641632,0.20193170011043549,-0.04384315013885498,0.010366544127464294,-0.02545136958360672,-0.22204439352718092,1.5186974256645245,0.1797331870768296,0.974125862121582,0.2202242910861969,-0.05079685524106026
1732225579539,9i,4.871809506258674,1.0s : 0.3s,-7.467961684932817,0.004287135219630217,0.23286335804715574,0.04655494958607292,0.040920138359069824,-0.20255716145038605,0.16817963123321533,-0.039102375507354736,-0.0008900165557861328,-0.025250256061553955,-0.22189905592767112,1.518461386131915,0.179453514949314,0.9741456508636475,0.22008250653743744,-0.051028452813625336
1732225579549,9i,4.871809506258674,1.0s : 0.3s,-7.467961684932817,0.004694893303402294,0.20904390546736423,0.043477615910586,0.025509227067232132,-0.182929128408432,0.1376962959766388,-0.03647136688232422,-0.005899280309677124,-0.022920317947864532,-0.22174714989432673,1.5182799652754242,0.17935379226985979,0.9741698503494263,0.21993432939052582,-0.05120693892240524
1732225579559,9i,4.871809506258674,1.0s : 0.3s,-7.467961684932817,0.0051171073515686215,0.18633399947468804,0.03568496876469653,0.023164046928286552,-0.16899289190769196,0.10717280954122543,-0.029230892658233643,-0.009630531072616577,-0.018061693757772446,-0.22159901250087274,1.518087263426048,0.17937141498992926,0.9741923809051514,0.21978981792926788,-0.05139637365937233
1732225579569,9i,4.871809506258674,1.0s : 0.3s,-7.467961684932817,0.005544555315632006,0.16461850592835395,0.0322280249829884,0.033101897686719894,-0.15170179307460785,0.07845541089773178,-0.023603618144989014,-0.015399396419525146,-0.015632446855306625,-0.2214592826702509,1.517850823300669,0.17938165762431113,0.974210798740387,0.21965350210666656,-0.05162833258509636
1732225579579,9i,4.871809506258674,1.0s : 0.3s,-7.467961684932817,0.005971527940087496,0.14485015888663688,0.03325322120786868,0.057016950100660324,-0.135471373796463,0.051924701780080795,-0.024442315101623535,-0.0032999366521835327,-0.02230381965637207,-0.2213193203863942,1.5175426074698684,0.1792029428274444,0.974225640296936,0.21951694786548615,-0.05193023756146431
1732225579589,9i,4.871809506258674,1.0s : 0.3s,-7.467961684932817,0.006394155816875962,0.1268149437569779,0.040077022207558134,0.06456408649682999,-0.11841382831335068,0.02818315289914608,-0.02422797679901123,0.00973859429359436,-0.030402839183807373,-0.22117084846921253,1.5171963320037087,0.17887020678404988,0.9742401242256165,0.21937210857868195,-0.052269332110881805
1732225579599,9i,4.871809506258674,1.0s : 0.3s,-7.467961684932817,0.006805619142125913,0.11036239950134379,0.03572954455881695,0.0601741299033165,-0.10325706750154495,0.006030379794538021,-0.021462738513946533,0.012253895401954651,-0.025802969932556152,-0.22103255737221764,1.5168463065224589,0.1785386319027665,0.9742519855499268,0.21923717856407166,-0.05261196941137314
1732225579609,9i,4.871809506258674,1.0s : 0.3s,-7.467961684932817,0.0072054291635524625,0.09573616749735031,0.02937417014038101,0.052941784262657166,-0.08954844623804092,-0.011947820894420147,-0.021308064460754395,0.006168052554130554,-0.019255217164754868,-0.2208893174890262,1.51650167135557,0.1782717907559854,0.9742650985717773,0.21909742057323456,-0.05294942855834961
1732225579619,9i,4.871809506258674,1.0s : 0.3s,-7.467961684932817,0.0075937235317726495,0.08449347238150222,0.02527349777682556,0.058989956974983215,-0.07900015264749527,-0.02855905517935753,-0.018660783767700195,-0.0002890080213546753,-0.017042338848114014,-0.2207668949592796,1.5161425892633593,0.17803249656656878,0.9742729663848877,0.21897797286510468,-0.05330074205994606
1732225579629,9i,4.871809506258674,1.0s : 0.3s,-7.467961684932817,0.007967356614882497,0.08117271060193511,0.02330188402122327,0.07415212690830231,-0.062136486172676086,-0.03982901945710182,-0.015561044216156006,0.002684861421585083,-0.017135437577962875,-0.22061213115048928,1.5157545388117657,0.17766282980082082,0.9742859601974487,0.21882696449756622,-0.0536806620657444
1732225579639,9i,4.871809506258674,1.0s : 0.3s,-7.467961684932817,0.008322619916681739,0.07845047536220708,0.023268797771251966,0.07930055260658264,-0.054396361112594604,-0.05544852465391159,-0.01248842477798462,0.008877113461494446,-0.017512083053588867,-0.22045862978546674,1.5153129910575218,0.17718199398793424,0.9742956757545471,0.21867717802524567,-0.054112713783979416
1732225579649,9i,4.871809506258674,1.0s : 0.3s,-7.467961684932817,0.00866137139891049,0.07499052244094961,0.0234416048987331,0.058908458799123764,-0.043636392802000046,-0.06427663564682007,-0.013216257095336914,0.009580090641975403,-0.016824424266815186,-0.22030118353750697,1.5148753899284915,0.17677219268629024,0.9743063449859619,0.2185235321521759,-0.05454098805785179
1732225579659,9i,4.871809506258674,1.0s : 0.3s,-7.467961684932817,0.00897859293567326,0.07134302795499424,0.01353203609110124,0.043369051069021225,-0.04037389159202576,-0.06957563012838364,-0.006167352199554443,0.003163173794746399,-0.011622138321399689,-0.22018456058005825,1.51442366231269,0.17653530420155686,0.974307119846344,0.2184097319841385,-0.054982542991638184
1732225579669,9i,4.871809506258674,1.0s : 0.3s,-7.467961684932817,0.009256432269891993,0.0679763181257954,0.0063279771013458825,0.03450525179505348,-0.03618713468313217,-0.07380792498588562,0.0009583830833435059,-0.006114602088928223,-0.001317739486694336,-0.2201224136686356,1.5139028281054938,0.17640652712483207,0.9742918014526367,0.21834908425807953,-0.055490754544734955
1732225579679,9i,4.871809506258674,1.0s : 0.3s,-7.467961684932817,0.009513263352483734,0.0644394357716391,0.009210542156745985,0.022226747125387192,-0.028397832065820694,-0.07735918462276459,-0.000502169132232666,-0.00763547420501709,-0.005126543343067169,-0.22008604344967006,1.513411692491646,0.17635903958734706,0.9742723703384399,0.21831358969211578,-0.0559697151184082
1732225579689,9i,4.871809506258674,1.0s : 0.3s,-7.467961684932817,0.009756068182581004,0.06121492504184194,0.010617526233664654,0.01607191562652588,-0.024235840886831284,-0.08037868142127991,-0.006310582160949707,-0.0027133822441101074,-0.00809604674577713,-0.22006143754824353,1.5129517118176208,0.17640209664911294,0.9742519855499268,0.2182895839214325,-0.05641816928982735
1732225579699,9i,4.871809506258674,1.0s : 0.3s,-7.467961684932817,0.009985467088703282,0.058511697911189826,0.009944369392007548,0.01463314238935709,-0.02362140826880932,-0.07680268585681915,-0.005724310874938965,-0.0033959299325942993,-0.0073885321617126465,-0.2200415632605706,1.5124919821697955,0.17646759496495174,0.9742301106452942,0.2182701826095581,-0.056866299360990524
1732225579709,9i,4.871809506258674,1.0s : 0.3s,-7.467961684932817,0.010198272325416478,0.05610715517498587,0.006342657935195085,0.015201195143163204,-0.021414712071418762,-0.07013865560293198,-0.002416670322418213,-0.002782568335533142,-0.005162008106708527,-0.22003852103984772,1.512007772583399,0.17650527532388996,0.9742032289505005,0.21826721727848053,-0.05733807012438774
1732225579719,9i,4.871809506258674,1.0s : 0.3s,-7.467961684932817,0.010394830352121518,0.05392116007841134,0.005125109550797645,0.013197698630392551,-0.01930202730000019,-0.06738361716270447,-0.0018268823623657227,-0.0024368315935134888,-0.004122026264667511,-0.22009077030955634,1.5115034604932425,0.1765069870036669,0.9741628170013428,0.21831820905208588,-0.057828690856695175
1732225579729,9i,4.871809506258674,1.0s : 0.3s,-7.467961684932817,0.010581099913048501,0.05178326164187941,0.009293864480925208,0.015551933087408543,-0.019188042730093002,-0.05501403287053108,-0.004513561725616455,-0.0015618950128555298,-0.007972713559865952,-0.22016358188833085,1.5110068560646792,0.17648079274283696,0.9741179943084717,0.21838925778865814,-0.058311499655246735
1732225579739,9i,4.871809506258674,1.0s : 0.3s,-7.467961684932817,0.01075960984298864,0.04823588532942514,0.011305146738756142,0.011977171525359154,-0.018142929300665855,-0.04659951105713844,-0.00561147928237915,0.0001503676176071167,-0.009813003242015839,-0.22019148184943,1.5105773796693651,0.1764396742743503,0.9740867018699646,0.2184164822101593,-0.05872948467731476
1732225579749,9i,4.871809506258674,1.0s : 0.3s,-7.467961684932817,0.010930614569803512,0.042743969967588315,0.01068489276168548,0.009688451886177063,-0.018554653972387314,-0.032818183302879333,-0.006349503993988037,0.0013965517282485962,-0.008479408919811249,-0.22014973908821253,1.5102583692715168,0.176420926513119,0.974077045917511,0.21837575733661652,-0.05904077738523483
1732225579759,9i,4.871809506258674,1.0s : 0.3s,-7.467961684932817,0.011098121749670247,0.037719160471690404,0.01457439715217456,0.005861622281372547,-0.023894336074590683,-0.019280768930912018,-0.008973896503448486,0.003294721245765686,-0.011001229286193848,-0.22012791057843686,1.5099182932145332,0.17638847441323396,0.9740617871284485,0.21835444867610931,-0.05937233194708824
1732225579769,9i,4.871809506258674,1.0s : 0.3s,-7.467961684932817,0.011261087530019863,0.034097760112014576,0.012355060520590447,0.007381753996014595,-0.027330346405506134,-0.005373209249228239,-0.006953775882720947,0.0007230937480926514,-0.010186739265918732,-0.2201988152261155,1.5095667273632591,0.1763303656996962,0.9740254282951355,0.21842363476753235,-0.05971382558345795
1732225579779,9i,4.871809506258674,1.0s : 0.3s,-7.467961684932817,0.011417931662382084,0.0318773703458681,0.010821045241622895,0.005925271660089493,-0.02516537345945835,-0.009451841004192829,-0.006449401378631592,0.0023628920316696167,-0.008361637592315674,-0.22025406871592507,1.5092431202501841,0.17625202417162816,0.9739939570426941,0.21847756206989288,-0.060028281062841415
1732225579789,9i,4.871809506258674,1.0s : 0.3s,-7.467961684932817,0.011564746540561808,0.030539051650517256,0.00904679715195017,0.010384734719991684,-0.027882596477866173,-0.005341251380741596,-0.004803299903869629,0.005793899297714233,-0.005020316690206528,-0.2203032262732313,1.5089451072784,0.17617472709576784,0.9739652276039124,0.21852552890777588,-0.06031787395477295
1732225579799,9i,4.871809506258674,1.0s : 0.3s,-7.467961684932817,0.011701643346617817,0.029126391324426976,0.0062308465687088525,0.016452213749289513,-0.024082355201244354,0.00024166656658053398,-0.005609333515167236,0.002622067928314209,-0.000695403665304184,-0.22030118242666172,1.508640638478902,0.17602434491855362,0.973947286605835,0.2185235321521759,-0.060614440590143204
1732225579809,9i,4.871809506258674,1.0s : 0.3s,-7.467961684932817,0.01183278752080308,0.028132620478624592,0.008325261966641297,0.021690385416150093,-0.0243071261793375,-0.002266764873638749,-0.006567776203155518,0.002510175108909607,-0.004457950592041016,-0.220290761026455,1.508305237706949,0.17581391237686597,0.9739291667938232,0.2185133695602417,-0.060941245406866074
1732225579819,9i,4.871809506258674,1.0s : 0.3s,-7.467961684932817,0.01196805570124238,0.027218093947977244,0.018275321369984027,0.019678499549627304,-0.022521255537867546,-0.005292481742799282,-0.013543486595153809,0.005483880639076233,-0.010976720601320267,-0.2203238031349485,1.5079634068716745,0.17559614875075383,0.9739009737968445,0.21854561567306519,-0.06127369776368141
1732225579829,9i,4.871809506258674,1.0s : 0.3s,-7.467961684932817,0.012104387323591611,0.026654386467275946,0.016714874579201733,0.02597314864397049,-0.02237238548696041,-0.007029129192233086,-0.01463627815246582,0.0061298757791519165,-0.005252715200185776,-0.22039675757441043,1.5076313433445963,0.1753425429749193,0.973864734172821,0.2186167985200882,-0.0615960918366909
1732225579839,9i,4.871809506258674,1.0s : 0.3s,-7.467961684932817,0.012231154923202241,0.026277488355746823,0.005071982358270722,0.02850182168185711,-0.023154642432928085,-0.006140565499663353,-0.004771769046783447,0.0017097890377044678,-0.00017845630645751953,-0.22046987478963295,1.507277042356801,0.1750326544792182,0.9738269448280334,0.21868814527988434,-0.061940114945173264
1732225579849,9i,4.871809506258674,1.0s : 0.3s,-7.467961684932817,0.012347844630025933,0.025646132094353773,0.004366869241631207,0.018599122762680054,-0.02239936962723732,-0.008179215714335442,0.00013297796249389648,-0.0036406219005584717,-0.002407848834991455,-0.22054250567972195,1.506932955132134,0.17477914926979643,0.9737896919250488,0.21875901520252228,-0.062274180352687836
1732225579859,9i,4.871809506258674,1.0s : 0.3s,-7.467961684932817,0.012454687569638804,0.02500483846035281,0.007672902798456155,0.017776871100068092,-0.0232224203646183,-0.004719203338027,-0.00030297040939331055,-0.007577270269393921,0.0011690258979797363,-0.2206205735991924,1.5066119010947951,0.17457909240456781,0.9737526178359985,0.21883518993854523,-0.06258571892976761
1732225579869,9i,4.871809506258674,1.0s : 0.3s,-7.467961684932817,0.012550025968900895,0.024277800155802835,0.0073436014684061645,0.022908249869942665,-0.017518462613224983,-0.0025551188737154007,0.0031023025512695312,-0.006656140089035034,7.227063179016113e-07,-0.22069301857142368,1.5063376921343763,0.17436035002987516,0.9737194776535034,0.21890588104724884,-0.06285170465707779
1732225579879,9i,4.871809506258674,1.0s : 0.3s,-7.467961684932817,0.012637965415969067,0.023487938301718372,0.004692500950778726,0.015154856257140636,-0.018089577555656433,-0.006816808599978685,0.0009315609931945801,-0.0032229721546173096,-0.0032808855175971985,-0.22075565111211806,1.5061340700967376,0.174162577724109,0.9736931324005127,0.218967005610466,-0.06304909288883209
1732225579889,9i,4.871809506258674,1.0s : 0.3s,-7.467961684932817,0.012722373914789,0.022648655493324666,0.00928294712692032,0.010876753367483616,-0.01914365589618683,-0.005755805876106024,-0.0006996989250183105,0.0029406696557998657,-0.008777014911174774,-0.2208347249985696,1.5059008914633183,0.17402234174356357,0.9736610054969788,0.21904414892196655,-0.06327500939369202
1732225579899,9i,4.871809506258674,1.0s : 0.3s,-7.467961684932817,0.012803971215409495,0.021494692718876825,0.010329259173638814,0.003506322158500552,-0.018040087074041367,-0.0023380708880722523,0.0012126564979553223,-0.0011837780475616455,-0.010189294815063477,-0.2209176358782083,1.5056262788165955,0.1739324561666829,0.9736256003379822,0.21912504732608795,-0.06354121118783951
1732225579909,9i,4.871809506258674,1.0s : 0.3s,-7.467961684932817,0.012881347164708902,0.020114292382867133,0.012758146041938798,-0.005824595224112272,-0.017785754054784775,-0.0010110177099704742,0.0042185187339782715,-0.008674770593643188,-0.008350014686584473,-0.22099473481889115,1.505412941870011,0.1739378741299708,0.973595142364502,0.2192002683877945,-0.0637478157877922
1732225579919,9i,4.871809506258674,1.0s : 0.3s,-7.467961684932817,0.012958077587315183,0.019315070203393944,0.015527644715205454,1.8513354007154703e-05,-0.02106308564543724,-0.0025379748549312353,0.0028189420700073242,-0.011456131935119629,-0.010095462203025818,-0.22103031692393693,1.5052304357332058,0.1739769530544722,0.9735755324363708,0.21923498809337616,-0.06392497569322586
1732225579929,9i,4.871809506258674,1.0s : 0.3s,-7.467961684932817,0.013033326660745984,0.019156365906637173,0.014664407517198575,0.017409754917025566,-0.022596267983317375,0.0015856639947742224,0.0029655098915100098,-0.011381641030311584,-0.008758358657360077,-0.2210009153995806,1.504985964107793,0.1739005702830391,0.9735663533210754,0.219206303358078,-0.06416340917348862
1732225579939,9i,4.871809506258674,1.0s : 0.3s,-7.467961684932817,0.013108090630904705,0.01906661692310143,0.014238700834978628,0.020839108154177666,-0.020590374246239662,0.00023644021712243557,0.0024135708808898926,-0.01012641191482544,-0.009714476764202118,-0.22091862932960427,1.504746769192037,0.17370200125311286,0.9735689759254456,0.21912601590156555,-0.06439746916294098
1732225579949,9i,4.871809506258674,1.0s : 0.3s,-7.467961684932817,0.013189289023920449,0.01892453099694413,0.015719393885958517,0.0185069777071476,-0.02100849151611328,0.002091331873089075,-0.004681885242462158,-0.011049389839172363,-0.010153338313102722,-0.2208480533425769,1.5045089862156416,0.1735006097997165,0.9735690355300903,0.21905715763568878,-0.06462998688220978
1732225579959,9i,4.871809506258674,1.0s : 0.3s,-7.467961684932817,0.013279524500245476,0.018338770164631025,0.017448311578303045,0.007628496270626783,-0.01940988376736641,0.002600195351988077,-0.009010851383209229,-0.01212860643863678,-0.00872611254453659,-0.22079688596423389,1.5042662518284105,0.17336070961229516,0.973564624786377,0.2190072387456894,-0.0648670643568039
1732225579969,9i,4.871809506258674,1.0s : 0.3s,-7.467961684932817,0.013381103406273158,0.017373531583805432,0.022578721283592715,-0.00507398322224617,-0.01858164183795452,0.0018411943456158042,-0.008217453956604004,-0.01684124767780304,-0.012595415115356445,-0.22079452566580968,1.5040245886608594,0.17333573564227572,0.9735494256019592,0.21900492906570435,-0.06510236859321594
1732225579979,9i,4.871809506258674,1.0s : 0.3s,-7.467961684932817,0.013489959053575466,0.01632497907425248,0.021095013428551173,-0.014437391422688961,-0.01926243305206299,0.003625245997682214,-0.00688481330871582,-0.017670392990112305,-0.009238839149475098,-0.2207529229756707,1.503806122204378,0.17342800349970433,0.9735442996025085,0.2189643383026123,-0.06531567126512527
1732225579989,9i,4.871809506258674,1.0s : 0.3s,-7.467961684932817,0.013598553071232165,0.016111461071310368,0.019804911738919757,-0.016370046883821487,-0.028789624571800232,0.00048271589912474155,0.0006832480430603027,-0.017903879284858704,-0.008439123630523682,-0.220679455795074,1.5035657118807213,0.17357728808014877,0.9735446572303772,0.2188926488161087,-0.065550796687603
1732225579999,9i,4.871809506258674,1.0s : 0.3s,-7.467961684932817,0.013700105937405182,0.016277467875562234,0.01921740631492922,-0.010375671088695526,-0.029969628900289536,-0.0024714951869100332,0.009084105491638184,-0.01281292736530304,-0.011073239147663116,-0.2206225347762114,1.5032473102918018,0.17371023528175758,0.9735361933708191,0.21883711218833923,-0.06586162000894547
1732225580009,9i,4.871809506258674,1.0s : 0.3s,-7.467961684932817,0.013795073515934371,0.016592271137446237,0.019084474952915677,-0.011552255600690842,-0.03169935196638107,-0.0004134045448154211,0.01016223430633545,-0.0052553266286849976,-0.015275068581104279,-0.22057100536640536,1.5029247607185277,0.1738120323219145,0.9735262393951416,0.2187868356704712,-0.0661763921380043
1732225580019,9i,4.871809506258674,1.0s : 0.3s,-7.467961684932817,0.013886066639362347,0.01722639082224279,0.018633869105932007,-0.015156310983002186,-0.03596191853284836,-0.0015231436118483543,0.008572816848754883,-0.00676003098487854,-0.015100657939910889,-0.22051802611864613,1.502558339006526,0.1739410496634865,0.9735133647918701,0.21873512864112854,-0.0665338933467865
1732225580029,9i,4.871809506258674,1.0s : 0.3s,-7.467961684932817,0.013980241827718532,0.017886950485255047,0.02033567519532961,-0.01786714233458042,-0.03568574786186218,-0.004402820020914078,0.00384676456451416,-0.009309440851211548,-0.01766568422317505,-0.22048794302923186,1.5021685107629503,0.1740954640496006,0.9734938740730286,0.21870577335357666,-0.06691384315490723
1732225580039,9i,4.871809506258674,1.0s : 0.3s,-7.467961684932817,0.014084286925609393,0.01871687512685055,0.02059474740248977,-0.010926146060228348,-0.03803518787026405,-0.007744288071990013,-0.004607796669006348,-0.004577413201332092,-0.01954377442598343,-0.2205017732821505,1.5017777229743665,0.1742363468605225,0.9734647274017334,0.2187192738056183,-0.06729406118392944
1732225580049,9i,4.871809506258674,1.0s : 0.3s,-7.467961684932817,0.01420078025611175,0.019257943504940988,0.025916709785021346,0.004283432383090258,-0.03552968427538872,-0.0070353541523218155,-0.00693124532699585,0.001588582992553711,-0.02492208033800125,-0.2204846601840068,1.50133083001042,0.17423964234901312,0.9734383225440979,0.21870256960391998,-0.06772935390472412
1732225580059,9i,4.871809506258674,1.0s : 0.3s,-7.467961684932817,0.014323371532604276,0.019416557412369598,0.02398241685662592,0.025742651894688606,-0.029921336099505424,-0.0068140458315610886,-0.003539443016052246,0.0051368772983551025,-0.02315688133239746,-0.22044489045802834,1.500913172494803,0.17408630068682404,0.9734185338020325,0.2186637669801712,-0.06813651323318481
1732225580069,9i,4.871809506258674,1.0s : 0.3s,-7.467961684932817,0.014446230459663296,0.0193994938783238,0.026102865285880027,0.03552337735891342,-0.024572111666202545,-0.0010658791288733482,0.000414431095123291,0.011744305491447449,-0.0233079195022583,-0.22033505201371148,1.50053712565759,0.17374210265302903,0.9734167456626892,0.21855658292770386,-0.06850424408912659
1732225580079,9i,4.871809506258674,1.0s : 0.3s,-7.467961684932817,0.01456824616555111,0.01956079881871477,0.030135546379737834,0.03213583305478096,-0.024857336655259132,-9.702099487185478e-05,0.0020338892936706543,0.01610580086708069,-0.02538932114839554,-0.22022820863455064,1.5001689515867054,0.173377279766389,0.9734148383140564,0.2184523195028305,-0.06886427849531174
1732225580089,9i,4.871809506258674,1.0s : 0.3s,-7.467961684932817,0.014687725733818617,0.019999836519641167,0.024013675640631366,0.03496731072664261,-0.02643170766532421,0.0022873736452311277,0.005201458930969238,0.007983192801475525,-0.02204246073961258,-0.22013942365371506,1.499757477629788,0.17303601816359285,0.9734058380126953,0.21836568415164948,-0.0692661851644516
1732225580099,9i,4.871809506258674,1.0s : 0.3s,-7.467961684932817,0.01480557790728556,0.022128510982894343,0.0244783225831795,0.05376150459051132,-0.023951593786478043,0.0013416188303381205,0.005698680877685547,0.007316142320632935,-0.022653639316558838,-0.22004114312197132,1.4993209738341413,0.1725723119672502,0.9733967781066895,0.21826978027820587,-0.06969259679317474
1732225580109,9i,4.871809506258674,1.0s : 0.3s,-7.467961684932817,0.01492811375168576,0.028600562125121295,0.03219149936550597,0.06930530816316605,-0.02279125526547432,0.0036497805267572403,-0.0007976293563842773,0.016478851437568665,-0.027642428874969482,-0.21990846128318012,1.498851996524158,0.17190541680009588,0.9733928442001343,0.21814028918743134,-0.07015117257833481
1732225580119,9i,4.871809506258674,1.0s : 0.3s,-7.467961684932817,0.015052596714268111,0.03638767576837724,0.03723777848865951,0.08077900111675262,-0.02393082156777382,0.0015045376494526863,0.001947939395904541,0.02269679307937622,-0.0294569730758667,-0.21980682651244113,1.4983350233130523,0.17111317783311605,0.973378598690033,0.21804110705852509,-0.07065598666667938
1732225580129,9i,4.871809506258674,1.0s : 0.3s,-7.467961684932817,0.015181086416615993,0.04398796367633588,0.028608356767200867,0.08933733403682709,-0.02796178311109543,0.0016270430060103536,-0.00032520294189453125,0.01360994577407837,-0.025161512196063995,-0.21975239820092032,1.4977322344043287,0.1702220339461547,0.9733477234840393,0.21798798441886902,-0.07124359160661697
1732225580139,9i,4.871809506258674,1.0s : 0.3s,-7.467961684932817,0.015315569514191057,0.0485425980022196,0.02154851634188903,0.09413116425275803,-0.024506552144885063,0.005784603767096996,-0.003305375576019287,0.0043624043464660645,-0.020841844379901886,-0.21967494825960204,1.4971363392256294,0.16924449048407716,0.9733219742774963,0.21791239082813263,-0.07182483375072479
1732225580149,9i,4.871809506258674,1.0s : 0.3s,-7.467961684932817,0.015456705770139157,0.04912329970986549,0.02349214311823555,0.07750292122364044,-0.02358882687985897,0.006226422265172005,-0.006296813488006592,0.008484259247779846,-0.02098209410905838,-0.21962601715062277,1.4965758007623107,0.16834083693413693,0.9732921719551086,0.21786463260650635,-0.07237119972705841
1732225580159,9i,4.871809506258674,1.0s : 0.3s,-7.467961684932817,0.01560747377971126,0.048131805887132555,0.022679595945388608,0.05216427147388458,-0.026375913992524147,0.009797787293791771,-0.007989704608917236,0.001469433307647705,-0.021174736320972443,-0.2195904118432163,1.496037451484465,0.16764751225326466,0.9732608199119568,0.2178298830986023,-0.07289573550224304
1732225580169,9i,4.871809506258674,1.0s : 0.3s,-7.467961684932817,0.01576240566908918,0.04462872266581038,0.01880301942765772,0.03579036146402359,-0.024029403924942017,0.008126387372612953,-0.005820155143737793,-0.013230323791503906,-0.012026548385620117,-0.2195179044186953,1.4955755599985108,0.16718832297359207,0.9732425808906555,0.2177591174840927,-0.07334644347429276
1732225580179,9i,4.871809506258674,1.0s : 0.3s,-7.467961684932817,0.015918647822767803,0.04130181789595506,0.01803660168387615,0.026003774255514145,-0.02928621880710125,0.009005431085824966,-0.006548941135406494,-0.01467430591583252,-0.00819116085767746,-0.2194496057481193,1.4951164875650527,0.16684747546683087,0.9732235670089722,0.21769246459007263,-0.07379434257745743
1732225580189,9i,4.871809506258674,1.0s : 0.3s,-7.467961684932817,0.01607324290007446,0.03939691167723876,0.014003246312006992,0.021785859018564224,-0.0331408753991127,0.0100203612819314,-0.0036902427673339844,-0.00949104130268097,-0.009612135589122772,-0.21943878169412795,1.4946012407521467,0.16657930688436787,0.9731878042221069,0.2176818996667862,-0.07429596781730652
1732225580199,9i,4.871809506258674,1.0s : 0.3s,-7.467961684932817,0.016223403922105094,0.03816769944616545,0.014784832719093473,0.02668927237391472,-0.03456007316708565,0.00782831385731697,0.0003387331962585449,-0.011684224009513855,-0.009052924811840057,-0.21946589465110342,1.494057461131868,0.1663115485544696,0.9731413722038269,0.21770836412906647,-0.07482469826936722
1732225580209,9i,4.871809506258674,1.0s : 0.3s,-7.467961684932817,0.016362550225549288,0.0376260226740269,0.0047521715557138355,0.0351935438811779,-0.034904953092336655,0.0114347655326128,-5.418062210083008e-05,-0.003851383924484253,-0.002783350646495819,-0.21942944502297113,1.4934954658577477,0.1659618377680895,0.973107099533081,0.21767278015613556,-0.07537220418453217
1732225580219,9i,4.871809506258674,1.0s : 0.3s,-7.467961684932817,0.01648876001791557,0.037105469849481404,0.0027807632830030883,0.03284303843975067,-0.0366629958152771,0.013198045082390308,0.0005695819854736328,0.002053782343864441,-0.0017861127853393555,-0.21930437157988236,1.4929588921168337,0.16559534506687149,0.9730937480926514,0.21755070984363556,-0.07589645683765411
1732225580229,9i,4.871809506258674,1.0s : 0.3s,-7.467961684932817,0.016599177181908818,0.03668839436554859,0.004306274231426569,0.03393014147877693,-0.03558308631181717,0.01318073458969593,0.0035971999168395996,-0.0015461891889572144,0.001792609691619873,-0.2192094535022305,1.4924033515351203,0.16524018615672043,0.9730721116065979,0.2174580693244934,-0.07643866539001465
1732225580239,9i,4.871809506258674,1.0s : 0.3s,-7.467961684932817,0.016696424047237965,0.03676621538230126,0.003842167382095066,0.040237970650196075,-0.03888917714357376,0.009251473471522331,0.0028051137924194336,-0.0022489428520202637,0.0013549327850341797,-0.21908523641937092,1.4918360756466786,0.16484917058322704,0.9730554819107056,0.21733681857585907,-0.07699277997016907
1732225580249,9i,4.871809506258674,1.0s : 0.3s,-7.467961684932817,0.016781973247312145,0.03697959602642437,0.005715568122960702,0.04411446675658226,-0.03726145252585411,0.007504173554480076,0.0030958056449890137,0.004569917917251587,-0.0014830902218818665,-0.21889956431898888,1.4913060387824688,0.16439111709438461,0.9730547666549683,0.2171555757522583,-0.077511727809906
1732225580259,9i,4.871809506258674,1.0s : 0.3s,-7.467961684932817,0.01686105127436402,0.03710654511868923,0.009849389858371615,0.04172321781516075,-0.03903502598404884,0.00659756688401103,0.0006711483001708984,0.008117392659187317,-0.005537867546081543,-0.2187199529614,1.4907876110902087,0.16394483883083008,0.9730532169342041,0.2169802486896515,-0.07801928371191025
1732225580269,9i,4.871809506258674,1.0s : 0.3s,-7.467961684932817,0.01693446896107985,0.036716351177181146,0.005001258237909572,0.032772865146398544,-0.03927657753229141,0.001494683907367289,0.0006707310676574707,0.0029533803462982178,-0.003979980945587158,-0.2186016150611095,1.4902707022869088,0.16356382867491148,0.973038375377655,0.21686473488807678,-0.07852432131767273
1732225580279,9i,4.871809506258674,1.0s : 0.3s,-7.467961684932817,0.017004214987154376,0.03632841365586189,0.004728353659673353,0.031629569828510284,-0.03880537673830986,0.004260776098817587,0.00048536062240600586,-0.0030780434608459473,-0.0035563185811042786,-0.21848089656945213,1.4897747253696092,0.16321744890442327,0.9730254411697388,0.21674688160419464,-0.0790090411901474
1732225580289,9i,4.871809506258674,1.0s : 0.3s,-7.467961684932817,0.01707235753853256,0.035944313638209574,0.007725023248551079,0.02642974816262722,-0.04327469319105148,0.007166018709540367,-0.0027655363082885742,-0.00703546404838562,-0.0015906095504760742,-0.21837698180130066,1.4893089005858826,0.1629230672174997,0.9730108976364136,0.21664543449878693,-0.07946411520242691
1732225580299,9i,4.871809506258674,1.0s : 0.3s,-7.467961684932817,0.017139987712570377,0.03582387266094645,0.010634775798986192,0.03454546630382538,-0.038333550095558167,0.007830344140529633,-0.0025334954261779785,-0.010140612721443176,-0.0019615888595581055,-0.2182910102200796,1.488844867674042,0.16263232476544745,0.972992479801178,0.21656151115894318,-0.07991714030504227
1732225580309,9i,4.871809506258674,1.0s : 0.3s,-7.467961684932817,0.017212582243757744,0.03622834512953515,0.013813830266182351,0.04921761900186539,-0.0336165614426136,0.005102734547108412,-0.007528722286224365,-0.010826066136360168,-0.004115402698516846,-0.2181803690896672,1.4884258661125103,0.1622153158315411,0.9729828238487244,0.21645349264144897,-0.08032679557800293
1732225580319,9i,4.871809506258674,1.0s : 0.3s,-7.467961684932817,0.01728912264457168,0.03717780369538048,0.010170049180478511,0.059677980840206146,-0.03435896337032318,0.006267601158469915,-0.007777690887451172,-0.002567797899246216,-0.006028585135936737,-0.21806762003341446,1.4879948404348522,0.16166239769260338,0.9729723334312439,0.21634341776371002,-0.08074817806482315
1732225580329,9i,4.871809506258674,1.0s : 0.3s,-7.467961684932817,0.017368507690439274,0.037968437203208354,0.009559409792527914,0.060034047812223434,-0.03187689557671547,0.006667874287813902,-0.005439341068267822,-0.00047431886196136475,-0.007846713066101074,-0.2179863708189752,1.487543900387301,0.16105863128101677,0.9729533791542053,0.21626408398151398,-0.0811883881688118
1732225580339,9i,4.871809506258674,1.0s : 0.3s,-7.467961684932817,0.017449092126411495,0.038970522243223546,0.009800203342392495,0.06753590703010559,-0.028652075678110123,0.006291170138865709,-0.005768418312072754,-0.006935566663742065,-0.0038297846913337708,-0.21791522674442973,1.4870864819497815,0.16041171831451884,0.9729315638542175,0.21619462966918945,-0.08163472265005112
1732225580349,9i,4.871809506258674,1.0s : 0.3s,-7.467961684932817,0.017533380789957847,0.04113540883970006,0.013537324486490908,0.07934542745351791,-0.02429301291704178,0.0049321590922772884,-0.008606433868408203,-0.009773880243301392,-0.0036959052085876465,-0.21782158953741557,1.4866526276615812,0.15966346635759787,0.9729161262512207,0.216103196144104,-0.08205851912498474
1732225580359,9i,4.871809506258674,1.0s : 0.3s,-7.467961684932817,0.017623455246221744,0.04246088857389593,0.013309395885278486,0.07845832407474518,-0.02361985296010971,0.005317185539752245,-0.010388791561126709,-0.00023561716079711914,-0.008316099643707275,-0.2176794123642126,1.4862441860973161,0.1588580924361224,0.9729132056236267,0.21596437692642212,-0.0824584886431694
1732225580369,9i,4.871809506258674,1.0s : 0.3s,-7.467961684932817,0.01772029426317371,0.04319999912137112,0.01512035462859935,0.07217113673686981,-0.022029679268598557,0.00894281268119812,-0.012591004371643066,-0.0002828836441040039,-0.008367300033569336,-0.2175090326501523,1.4858608860058797,0.15809551408862846,0.9729181528091431,0.215798020362854,-0.08283451944589615
1732225580379,9i,4.871809506258674,1.0s : 0.3s,-7.467961684932817,0.017821685331574792,0.04381840789230329,0.015399471111386374,0.07080347090959549,-0.022217921912670135,0.009490392170846462,-0.01258939504623413,-0.007910609245300293,-0.004009127616882324,-0.2173041658641916,1.4854943542481618,0.15737820701816393,0.9729318022727966,0.2155979722738266,-0.08319488912820816
1732225580389,9i,4.871809506258674,1.0s : 0.3s,-7.467961684932817,0.017927416434759338,0.046391613417766084,0.016624601180223943,0.08822747319936752,-0.022086095064878464,0.0072376239113509655,-0.010461628437042236,-0.012050211429595947,-0.004660911858081818,-0.21710562630845104,1.4850858323442084,0.15658863640644882,0.9729403853416443,0.21540410816669464,-0.08359600603580475
1732225580399,9i,4.871809506258674,1.0s : 0.3s,-7.467961684932817,0.01803694684451216,0.05213052285920385,0.012963424006449217,0.102203868329525,-0.020563963800668716,0.007954047992825508,-0.008505821228027344,-0.00469440221786499,-0.008582770824432373,-0.2169482504146631,1.4846500568483074,0.15561204915744795,0.9729375839233398,0.2152504175901413,-0.0840228945016861
1732225580409,9i,4.871809506258674,1.0s : 0.3s,-7.467961684932817,0.018147038994136284,0.0586644576596445,0.01280495384975842,0.11152973026037216,-0.02587031200528145,0.004041597712785006,-0.007059872150421143,0.004786267876625061,-0.00955074280500412,-0.21680252227228247,1.484142150972902,0.1545238690931522,0.9729259014129639,0.21510809659957886,-0.08451974391937256
1732225580419,9i,4.871809506258674,1.0s : 0.3s,-7.467961684932817,0.018260835330467837,0.06910297261312036,0.014305366489538267,0.13627994060516357,-0.03128110244870186,-0.0017751783598214388,-0.008736848831176758,0.0021337419748306274,-0.011124663054943085,-0.21665932369001467,1.4835826203760694,0.15326791483316315,0.9729090929031372,0.2149682492017746,-0.0850667953491211
1732225580429,9i,4.871809506258674,1.0s : 0.3s,-7.467961684932817,0.018379370442362302,0.07942952840431235,0.021758457222411955,0.15260033309459686,-0.02647755853831768,-0.003296642331406474,-0.00955343246459961,0.011974483728408813,-0.015452317893505096,-0.21651994104520184,1.4829676681313533,0.15178274911351655,0.9728864431381226,0.2148321270942688,-0.0856676995754242
1732225580439,9i,4.871809506258674,1.0s : 0.3s,-7.467961684932817,0.018507462359745812,0.08045819052450333,0.03296791097160973,0.13099876046180725,-0.026972418650984764,0.00075898552313447,-0.011353254318237305,0.0222235769033432,-0.02154296636581421,-0.21641551653674523,1.4823447617708945,0.1502948568248682,0.972855269908905,0.2147301435470581,-0.08627568930387497
1732225580449,9i,4.871809506258674,1.0s : 0.3s,-7.467961684932817,0.018647542647821574,0.07915990429866215,0.02259542984430491,0.09583785384893417,-0.03152162954211235,0.0015784403076395392,-0.012787044048309326,-0.0011109709739685059,-0.01859598606824875,-0.21632572719310114,1.481764113935754,0.14914001430605392,0.972824215888977,0.2146424502134323,-0.08684227615594864
1732225580459,9i,4.871809506258674,1.0s : 0.3s,-7.467961684932817,0.018796674849615558,0.07079044568605325,0.02766699551457204,0.06804762780666351,-0.037715569138526917,0.009306434541940689,-0.008836865425109863,-0.022961795330047607,-0.01265418529510498,-0.21616977011644803,1.4812275706221913,0.14830702070456436,0.9728108644485474,0.2144901156425476,-0.0873672217130661
1732225580469,9i,4.871809506258674,1.0s : 0.3s,-7.467961684932817,0.018962372351778684,0.057423752654396136,0.03717965695120011,0.02470335178077221,-0.04312124848365784,0.014988820999860764,-0.005666136741638184,-0.03257128596305847,-0.01700979471206665,-0.2159474081364178,1.4807213821850276,0.14783193308358364,0.9728139042854309,0.21427293121814728,-0.08786391466856003
1732225580479,9i,4.871809506258674,1.0s : 0.3s,-7.467961684932817,0.019168213813280675,0.04842795272805302,0.047555285346843966,-0.031484417617321014,-0.04563691467046738,0.02467690221965313,-0.004341304302215576,-0.04085765779018402,-0.023943893611431122,-0.21574520209660508,1.4802616178958785,0.14787123232379254,0.972816526889801,0.21407541632652283,-0.08831508457660675
1732225580489,9i,4.871809506258674,1.0s : 0.3s,-7.467961684932817,0.01939949597487842,0.03655954301799524,0.05696190455450964,-0.0831630602478981,-0.047623101621866226,0.026052158325910568,-0.0023601651191711426,-0.05482695996761322,-0.015267372131347656,-0.2155810624563074,1.4798943696550426,0.1484827373334305,0.9728191494941711,0.21391507983207703,-0.08867554366588593
1732225580499,9i,4.871809506258674,1.0s : 0.3s,-7.467961684932817,0.019660958051372673,0.02990686857581819,0.06340384765486663,-0.11614098399877548,-0.044639118015766144,0.028386618942022324,-0.004170894622802734,-0.06126253306865692,-0.015797264873981476,-0.21542116933643282,1.4796266307634527,0.149542116750087,0.9728294610977173,0.21375888586044312,-0.0889391228556633
1732225580509,9i,4.871809506258674,1.0s : 0.3s,-7.467961684932817,0.01995764017356031,0.046080389090067155,0.0629725424105284,-0.1396780014038086,-0.047890305519104004,0.04059081897139549,-0.009055256843566895,-0.057034850120544434,-0.025111138820648193,-0.21524831179609147,1.479400989947569,0.1508636560139702,0.9728460907936096,0.21359001100063324,-0.08916199952363968
1732225580519,9i,4.871809506258674,1.0s : 0.3s,-7.467961684932817,0.020284657512261398,0.06556976923686568,0.06352027270352052,-0.15698708593845367,-0.053064871579408646,0.04490191489458084,-0.008834302425384521,-0.05516496300697327,-0.030225932598114014,-0.2150367433266654,1.47915749282843,0.15240194180841288,0.9728692770004272,0.21338333189487457,-0.08940300345420837
1732225580529,9i,4.871809506258674,1.0s : 0.3s,-7.467961684932817,0.020634533878316614,0.08123901948879209,0.05949323732397893,-0.15910029411315918,-0.05765216797590256,0.051235444843769073,-0.008038997650146484,-0.0493178516626358,-0.032288841903209686,-0.21472129811069351,1.4789002526259463,0.15404273944387983,0.9729132056236267,0.21307513117790222,-0.0896594300866127
1732225580539,9i,4.871809506258674,1.0s : 0.3s,-7.467961684932817,0.02100939976116186,0.09688001602932747,0.05875860301824144,-0.1804845631122589,-0.06303232908248901,0.0565323680639267,-0.0064923763275146484,-0.04050649702548981,-0.042067162692546844,-0.21427683503091707,1.4786399563793373,0.1558102247772158,0.9729839563369751,0.21264085173606873,-0.08992137759923935
1732225580549,9i,4.871809506258674,1.0s : 0.3s,-7.467961684932817,0.021395471245209127,0.10726043039756485,0.051656928197770076,-0.17720940709114075,-0.062138572335243225,0.05659814924001694,0.0005400180816650391,-0.03827787935733795,-0.034683577716350555,-0.21379190916483487,1.478369144774721,0.15771469285284523,0.9730621576309204,0.21216699481010437,-0.09019438177347183
1732225580559,9i,4.871809506258674,1.0s : 0.3s,-7.467961684932817,0.021779728695638687,0.10719270580403416,0.03758920620627368,-0.13785213232040405,-0.056475359946489334,0.05587144196033478,-6.431341171264648e-05,-0.02874697744846344,-0.024218909442424774,-0.21325142992617804,1.4780536404906435,0.1593825619901876,0.9731477499008179,0.21163879334926605,-0.0905119851231575
1732225580569,9i,4.871809506258674,1.0s : 0.3s,-7.467961684932817,0.022140924822895,0.09758764086249139,0.021975504580821044,-0.08135663717985153,-0.0636533796787262,0.05390150099992752,-0.0007379055023193359,-0.00029781460762023926,-0.021961092948913574,-0.21263567900915517,1.4776588936666413,0.16053730372101788,0.9732415676116943,0.21103695034980774,-0.0909082368016243
1732225580579,9i,4.871809506258674,1.0s : 0.3s,-7.467961684932817,0.022462966713239198,0.08655646836950316,0.03259558721988871,-0.04293481260538101,-0.07461179792881012,0.059250958263874054,0.013392508029937744,0.025079846382141113,-0.015940964221954346,-0.21194651218002847,1.47706869766493,0.16119414590456982,0.9733322858810425,0.2103632539510727,-0.09149621427059174
1732225580589,9i,4.871809506258674,1.0s : 0.3s,-7.467961684932817,0.022739649253013576,0.0809084696515233,0.03221702358490199,-0.022724350914359093,-0.07459288835525513,0.06376688182353973,0.02232813835144043,0.02122609317302704,-0.009425699710845947,-0.21122172401019268,1.4763154742149704,0.16156134011589954,0.9734145998954773,0.20965462923049927,-0.09224367886781693
1732225580599,9i,4.871809506258674,1.0s : 0.3s,-7.467961684932817,0.022981060304799027,0.07562142642778982,0.01824367705282672,0.018832415342330933,-0.07638386636972427,0.05834268406033516,0.013745665550231934,0.010992005467414856,-0.004802525043487549,-0.2104524721338425,1.4754850059808662,0.16162718802683063,0.9734979867935181,0.20890240371227264,-0.09306736290454865
1732225580609,9i,4.871809506258674,1.0s : 0.3s,-7.467961684932817,0.02320650294439154,0.07068712365539728,0.015899724046138656,0.06141742691397667,-0.07724380493164062,0.05580921843647957,-0.0009250044822692871,0.009466990828514099,-0.012740552425384521,-0.2097026932856366,1.474547782768427,0.1612574018057875,0.9735659956932068,0.2081691175699234,-0.09399473667144775
1732225580619,9i,4.871809506258674,1.0s : 0.3s,-7.467961684932817,0.023427678342296053,0.06564277149175275,0.02713228151667868,0.08669694513082504,-0.07421977818012238,0.053723499178886414,-0.0072779059410095215,0.012947484850883484,-0.022705845534801483,-0.2089835812979545,1.47351387796661,0.1605303294738087,0.9736169576644897,0.20746570825576782,-0.09501577168703079
1732225580629,9i,4.871809506258674,1.0s : 0.3s,-7.467961684932817,0.02364642870771387,0.05941406944843191,0.021472769617638277,0.11318740993738174,-0.07516546547412872,0.05002596601843834,-0.006838023662567139,0.00378476083278656,-0.019999921321868896,-0.2082737395063192,1.4724890040034535,0.15954796231278703,0.9736653566360474,0.20677125453948975,-0.09602798521518707
1732225580639,9i,4.871809506258674,1.0s : 0.3s,-7.467961684932817,0.02386722100499352,0.06703743962287458,0.02158589442299625,0.14144834876060486,-0.08036529272794724,0.04377659410238266,-0.007526099681854248,-0.006090804934501648,-0.019292764365673065,-0.20760634425409433,1.471400647215247,0.158299362171109,0.973697304725647,0.20611824095249176,-0.09710128605365753
1732225580649,9i,4.871809506258674,1.0s : 0.3s,-7.467961684932817,0.02408701933165685,0.08269395008845205,0.02027209577203825,0.17650513350963593,-0.08007580786943436,0.04384716600179672,-0.0031487345695495605,-0.005817681550979614,-0.019162409007549286,-0.2070309842088007,1.4702132796694811,0.15671584974622113,0.9736992120742798,0.20555520057678223,-0.0982692539691925
1732225580659,9i,4.871809506258674,1.0s : 0.3s,-7.467961684932817,0.02430635785366991,0.10121558037209873,0.02184675364968312,0.20617127418518066,-0.0798148587346077,0.04374873265624046,-0.0036263465881347656,-0.0020280182361602783,-0.02144801616668701,-0.2064953267865742,1.468999045911208,0.15480742601519326,0.973688542842865,0.20503094792366028,-0.09946265071630478
1732225580669,9i,4.871809506258674,1.0s : 0.3s,-7.467961684932817,0.0245260074342132,0.12205523721073096,0.02034945137162118,0.24004694819450378,-0.08506368845701218,0.04795066639780998,-0.0069290995597839355,-0.00491468608379364,-0.01849144697189331,-0.2059057487522425,1.467714756490445,0.15259929134120417,0.9736801981925964,0.20445385575294495,-0.10072550177574158
1732225580679,9i,4.871809506258674,1.0s : 0.3s,-7.467961684932817,0.024752974865224705,0.14524068178342783,0.02738945970597849,0.2836591601371765,-0.08333288878202438,0.053507816046476364,-0.005317270755767822,-0.013913914561271667,-0.02298504114151001,-0.20520079298531624,1.4663586656828982,0.14999431626634582,0.9736857414245605,0.20376373827457428,-0.10206080228090286
1732225580689,9i,4.871809506258674,1.0s : 0.3s,-7.467961684932817,0.024986285996316367,0.16874326288509156,0.027679948687490484,0.32105764746665955,-0.08189798146486282,0.05337412655353546,-0.004499316215515137,-0.00963205099105835,-0.025556981563568115,-0.2044275510561206,1.4648955749881172,0.14699069793545697,0.9736918210983276,0.20300666987895966,-0.10350190848112106
1732225580699,9i,4.871809506258674,1.0s : 0.3s,-7.467961684932817,0.025223280453441226,0.19448002920805743,0.02622256983645916,0.3702668845653534,-0.07384800165891647,0.05638686195015907,-0.006114304065704346,-0.003917291760444641,-0.025197088718414307,-0.20362474990913668,1.463321392549114,0.14351551882892957,0.9736893773078918,0.20222051441669464,-0.10505199432373047
1732225580709,9i,4.871809506258674,1.0s : 0.3s,-7.467961684932817,0.02546331056870405,0.22354218603932477,0.025551741984248772,0.4261924624443054,-0.0749920979142189,0.053627025336027145,-0.0035368800163269043,-0.00957934558391571,-0.023422598838806152,-0.20269107200409636,1.461707964061962,0.13955061855687165,0.9737058877944946,0.2013060450553894,-0.10664334893226624
1732225580719,9i,4.871809506258674,1.0s : 0.3s,-7.467961684932817,0.025696446280049415,0.2652151776466258,0.01905559056814047,0.5359693169593811,-0.06931140273809433,0.04968002438545227,0.0028079748153686523,-0.010106325149536133,-0.015908896923065186,-0.20165582136702706,1.4599540327063498,0.13475910578720185,0.9737239480018616,0.20029187202453613,-0.10837399214506149
1732225580729,9i,4.871809506258674,1.0s : 0.3s,-7.467961684932817,0.025920891638863092,0.32514245699829347,0.023507811562638786,0.6916339993476868,-0.052236273884773254,0.05809934064745903,0.0034809112548828125,0.0064055174589157104,-0.02234882116317749,-0.20045484760905433,1.4580391431556465,0.1285888272179,0.9737529754638672,0.1991150975227356,-0.110265351831913
1732225580739,9i,4.871809506258674,1.0s : 0.3s,-7.467961684932817,0.026133419025820753,0.38887910671375653,0.048196576346486844,0.8014230728149414,-0.04427129030227661,0.04114019498229027,0.0028961896896362305,0.03178754448890686,-0.03611196577548981,-0.19912476803191503,1.4560011988057358,0.12103320955182369,0.9737884998321533,0.19781146943569183,-0.11227981001138687
1732225580749,9i,4.871809506258674,1.0s : 0.3s,-7.467961684932817,0.026353307785800896,0.45482558117837735,0.045421372153879015,0.9074246287345886,-0.030634308233857155,0.04167842119932175,-0.0022500157356262207,0.02064228057861328,-0.04039721190929413,-0.1977148355612168,1.4538693227464912,0.11228737931950827,0.9738227725028992,0.19642920792102814,-0.11438795179128647
1732225580759,9i,4.871809506258674,1.0s : 0.3s,-7.467961684932817,0.026588183821084074,0.513201405845033,0.0369609051498206,0.9679403305053711,-0.012129290029406548,0.04588751494884491,-0.007395684719085693,-0.0009865611791610718,-0.036199986934661865,-0.19616622042114779,1.4518209570372858,0.10289759759195506,0.9738873839378357,0.19491052627563477,-0.11641843616962433
1732225580769,9i,4.871809506258674,1.0s : 0.3s,-7.467961684932817,0.0268151958898983,0.5689750340107981,0.017540898204581393,1.041612982749939,-0.011661372147500515,0.04108690097928047,0.001550912857055664,-0.00023271143436431885,-0.017470650374889374,-0.19452665859249393,1.4497379918413411,0.09276001488520785,0.9739586710929871,0.19330213963985443,-0.11848518997430801
1732225580779,9i,4.871809506258674,1.0s : 0.3s,-7.467961684932817,0.027027627970849427,0.6234303338832283,0.030024179638435546,1.118032693862915,0.0032342644408345222,0.04550604894757271,0.006996512413024902,0.01917281746864319,-0.02202051877975464,-0.19277331791671695,1.44758976645537,0.08188919547160149,0.9740367531776428,0.1915815770626068,-0.12061866372823715
1732225580789,9i,4.871809506258674,1.0s : 0.3s,-7.467961684932817,0.02722307032141115,0.6704456129241277,0.032439017021122944,1.1625349521636963,0.0085494015365839,0.03268878906965256,0.014649629592895508,0.01913478970527649,-0.02171492576599121,-0.190962312869822,1.4454558487093405,0.07038891634842652,0.9741199016571045,0.189803808927536,-0.12274008989334106
1732225580799,9i,4.871809506258674,1.0s : 0.3s,-7.467961684932817,0.02740392563757781,0.7134755602213443,0.02586909440912686,1.2133091688156128,-0.0032260315492749214,0.006995010189712048,0.012668848037719727,0.013494998216629028,-0.01807194948196411,-0.18926250704930705,1.4432301487514763,0.058439907257458915,0.9741628170013428,0.18813462555408478,-0.12494873255491257
1732225580809,9i,4.871809506258674,1.0s : 0.3s,-7.467961684932817,0.027565244532526886,0.759720764395065,0.044808700495024514,1.2935693264007568,-0.0010646102018654346,-0.017728179693222046,0.01692366600036621,0.0344509482383728,-0.023120149970054626,-0.18771888955600227,1.4408535942177931,0.045793380869584434,0.9741498231887817,0.18661834299564362,-0.12730099260807037
1732225580819,9i,4.871809506258674,1.0s : 0.3s,-7.467961684932817,0.027606740807388213,0.8050752028732775,0.09061877558212166,1.3576574325561523,-0.0007533312309533358,-0.03997153416275978,0.021982669830322266,0.08437635004520416,-0.02468109130859375,-0.18626053071929197,1.4383413998764223,0.03237017165818238,0.9740957617759705,0.18518540263175964,-0.12978366017341614
1732225580829,9i,4.871809506258674,1.0s : 0.3s,-7.467961684932817,0.02750507458210986,0.8494954314782042,0.11367560280552444,1.419579029083252,0.017992127686738968,-0.07847791165113449,0.025850951671600342,0.10996715724468231,-0.01269233226776123,-0.1850010833924736,1.4358245255119721,0.018302101262614702,0.9739964008331299,0.1839475929737091,-0.13226620852947235
1732225580839,9i,4.871809506258674,1.0s : 0.3s,-7.467961684932817,0.027260304194249445,0.8980191799157192,0.1402708403189799,1.5042579174041748,0.03113771229982376,-0.10820281505584717,0.0009645223617553711,0.1398964375257492,0.010196328163146973,-0.1839387122466479,1.4333444278846112,0.0034346142209407465,0.9738584160804749,0.1829032450914383,-0.13470810651779175
1732225580849,9i,4.871809506258674,1.0s : 0.3s,-7.467961684932817,0.026931548423016722,0.9461093216674008,0.1849568596190066,1.571414589881897,0.04280475527048111,-0.1478370577096939,-0.0183221697807312,0.18383429944515228,0.008848071098327637,-0.18307716460173892,1.4308495146075866,-0.012266833720799718,0.9736749529838562,0.18205617368221283,-0.1371593028306961
1732225580859,9i,4.871809506258674,1.0s : 0.3s,-7.467961684932817,0.026544874741090834,0.9833430363140504,0.20894425392127036,1.5851001739501953,0.06295853853225708,-0.18445107340812683,-0.022517263889312744,0.2066272795200348,0.021350443363189697,-0.18250673931239975,1.4284452647341577,-0.029771255524878495,0.9734449982643127,0.18149524927139282,-0.13951456546783447
1732225580869,9i,4.871809506258674,1.0s : 0.3s,-7.467961684932817,0.02618643314815504,1.0156980699063745,0.23384333088331108,1.6133626699447632,0.07752656191587448,-0.20075654983520508,-0.046863436698913574,0.22715766727924347,0.029764339327812195,-0.18212696494993727,1.4261757543923759,-0.04615856030317811,0.9731941223144531,0.18112176656723022,-0.14173339307308197
1732225580879,9i,4.871809506258674,1.0s : 0.3s,-7.467961684932817,0.025941938592945957,1.0367875197008491,0.2425214319405842,1.6009557247161865,0.07702379673719406,-0.2363855540752411,-0.05773627758026123,0.23324139416217804,0.032887980341911316,-0.18192983872802043,1.423958875246086,-0.06396805964425303,0.9729127287864685,0.18092790246009827,-0.1438957154750824
1732225580889,9i,4.871809506258674,1.0s : 0.3s,-7.467961684932817,0.025846409733737877,1.0502937519360256,0.23900407096415427,1.5892969369888306,0.08123372495174408,-0.27019280195236206,-0.0657845139503479,0.22490055859088898,0.04706466197967529,-0.1820946814992828,1.421788293077828,-0.0816473873459059,0.9725685715675354,0.18109001219272614,-0.14600272476673126
1732225580899,9i,4.871809506258674,1.0s : 0.3s,-7.467961684932817,0.025970814507536973,1.0660295482872117,0.25565078662060237,1.6139742136001587,0.09432697296142578,-0.30618637800216675,-0.08043241500854492,0.23762749135494232,0.04920494556427002,-0.18255902513196814,1.419652762744898,-0.09820310234048339,0.9721713066101074,0.1815466582775116,-0.1480666548013687
1732225580909,9i,4.871809506258674,1.0s : 0.3s,-7.467961684932817,0.02636507176229475,1.0730263424393043,0.26351946851518987,1.5863945484161377,0.10142030566930771,-0.3490979075431824,-0.08753830194473267,0.2435857057571411,0.04945260286331177,-0.18335855583387167,1.4176169081808376,-0.11609350522321837,0.9717240929603577,0.1823328584432602,-0.15002334117889404
1732225580919,9i,4.871809506258674,1.0s : 0.3s,-7.467961684932817,0.027112560753067366,1.0740394768466164,0.2868239370883293,1.5628657341003418,0.11364284157752991,-0.40864184498786926,-0.1083674430847168,0.2617819309234619,0.04466193914413452,-0.1847009603578765,1.4156926631683002,-0.13385531729925232,0.9711909294128418,0.1836525946855545,-0.1518549621105194
1732225580929,9i,4.871809506258674,1.0s : 0.3s,-7.467961684932817,0.028249611833546573,1.0746440340777406,0.3039368586348728,1.5501408576965332,0.1248859092593193,-0.445424884557724,-0.12683236598968506,0.2724795341491699,0.04523348808288574,-0.1865007278843959,1.4138563487568379,-0.1515436966911936,0.9705823659896851,0.18542145192623138,-0.15358619391918182
1732225580939,9i,4.871809506258674,1.0s : 0.3s,-7.467961684932817,0.029778471517808023,1.0740022794296533,0.3156177172442199,1.5201232433319092,0.14442133903503418,-0.49139517545700073,-0.13355398178100586,0.2828601598739624,0.04204767942428589,-0.1887014763762581,1.4121824128903944,-0.16903463853917527,0.9699187278747559,0.1875835806131363,-0.15514586865901947
1732225580949,9i,4.871809506258674,1.0s : 0.3s,-7.467961684932817,0.031686219688623125,1.0724363447554015,0.33497635621288535,1.4860179424285889,0.15769612789154053,-0.5643417835235596,-0.1519898772239685,0.294131338596344,0.050941064953804016,-0.19151906766902674,1.4106813674505236,-0.1863070730305368,0.9691590070724487,0.19035041332244873,-0.1565166711807251
1732225580959,9i,4.871809506258674,1.0s : 0.3s,-7.467961684932817,0.03394335048618507,1.0786503287378346,0.35231804112360393,1.5118073225021362,0.18522538244724274,-0.6312594413757324,-0.1789693832397461,0.2957906723022461,0.06786634027957916,-0.195036956961302,1.4093061798547322,-0.20231968475717851,0.9682759046554565,0.19380278885364532,-0.15774065256118774
1732225580969,9i,4.871809506258674,1.0s : 0.3s,-7.467961684932817,0.036583904615765314,1.090427523001381,0.3882686804083027,1.5107743740081787,0.2236577272415161,-0.7092178463935852,-0.18804150819778442,0.332160085439682,0.0711522102355957,-0.19918366851074124,1.4081563550481009,-0.22001670004563462,0.9672926068305969,0.197869211435318,-0.1587224155664444
1732225580979,9i,4.871809506258674,1.0s : 0.3s,-7.467961684932817,0.039695839505081036,1.1177175265466246,0.4420942618053323,1.5542820692062378,0.27423644065856934,-0.8194461464881897,-0.19477635622024536,0.39134663343429565,0.0660099983215332,-0.20424776770174116,1.407291447355324,-0.23805659390826847,0.9661539196968079,0.20283062756061554,-0.1593938171863556
1732225580989,9i,4.871809506258674,1.0s : 0.3s,-7.467961684932817,0.04333355438335723,1.1582851157464664,0.5009625886448814,1.6109453439712524,0.31918686628341675,-0.9191005825996399,-0.22564834356307983,0.4386864900588989,0.08718086779117584,-0.21022799035421094,1.4066971642215609,-0.2567923430987818,0.9648450016975403,0.20868287980556488,-0.15976694226264954
1732225580999,9i,4.871809506258674,1.0s : 0.3s,-7.467961684932817,0.047532923035435236,1.207212255025434,0.5457061224802567,1.6603955030441284,0.3456597626209259,-1.024666428565979,-0.2427452802658081,0.48119646310806274,0.08555620908737183,-0.2171460162322473,1.4061548924528762,-0.2763089033735905,0.9633110165596008,0.21544353663921356,-0.1600496768951416
1732225581009,9i,4.871809506258674,1.0s : 0.3s,-7.467961684932817,0.05219686692736,1.2624735538592975,0.5626554121028624,1.7128376960754395,0.3623031973838806,-1.1295257806777954,-0.23341619968414307,0.5032005310058594,0.09427203238010406,-0.2249961032023796,1.4055726779296085,-0.2964791130094313,0.9615197777748108,0.22310256958007812,-0.16032738983631134
1732225581019,9i,4.871809506258674,1.0s : 0.3s,-7.467961684932817,0.057319885489202665,1.3251939511812771,0.5924325563779608,1.7853645086288452,0.3660121560096741,-1.2324776649475098,-0.24542635679244995,0.5313342809677124,0.09179389476776123,-0.23377437170309973,1.4047281435932515,-0.31621337501798613,0.9594155550003052,0.23165087401866913,-0.16080942749977112
1732225581029,9i,4.871809506258674,1.0s : 0.3s,-7.467961684932817,0.0628317514914806,1.3732494535371245,0.5966312385185656,1.7338746786117554,0.383428156375885,-1.3392051458358765,-0.2566705346107483,0.5337165594100952,0.07235817611217499,-0.2434931885352948,1.4037213489152764,-0.3375539509193424,0.9569879770278931,0.24109423160552979,-0.16139326989650726
1732225581039,9i,4.871809506258674,1.0s : 0.3s,-7.467961684932817,0.06858406937874507,1.4257783273991582,0.5924519431728091,1.7408565282821655,0.38713133335113525,-1.4838987588882446,-0.2559950351715088,0.5247011184692383,0.10076995193958282,-0.25454319201611303,1.402655165228653,-0.358799588740322,0.9541303515434265,0.25180333852767944,-0.1619577258825302
1732225581049,9i,4.871809506258674,1.0s : 0.3s,-7.467961684932817,0.07459841114666263,1.4919957573812872,0.6216963355682407,1.8379665613174438,0.3848316967487335,-1.5903112888336182,-0.28214675188064575,0.5401180982589722,0.12317460775375366,-0.26671321724169317,1.4011033891284148,-0.3809390110074998,0.9507868885993958,0.26356229186058044,-0.16290852427482605
1732225581059,9i,4.871809506258674,1.0s : 0.3s,-7.467961684932817,0.08088058909440854,1.5583608601372076,0.6393863807126337,1.860426664352417,0.3781612515449524,-1.7185354232788086,-0.25371837615966797,0.5792999863624573,0.09409280121326447,-0.27983722370809827,1.3990203355738533,-0.4040014259256176,0.9469556212425232,0.27619922161102295,-0.16428326070308685
1732225581069,9i,4.871809506258674,1.0s : 0.3s,-7.467961684932817,0.08739872059174318,1.6348082518543625,0.6571619331451802,1.9319071769714355,0.39343130588531494,-1.8567314147949219,-0.22919094562530518,0.6086863279342651,0.09399080276489258,-0.29420594894976304,1.3964487536214916,-0.42782638897997666,0.9425240755081177,0.2899799942970276,-0.16601230204105377
1732225581079,9i,4.871809506258674,1.0s : 0.3s,-7.467961684932817,0.09414078783623778,1.7176844876967927,0.6666926534915194,2.0069422721862793,0.40251362323760986,-1.9867218732833862,-0.24249780178070068,0.6156951189041138,0.08119994401931763,-0.30968720990315873,1.3933558208242225,-0.45279457272834744,0.9374745488166809,0.30476075410842896,-0.16811403632164001
1732225581089,9i,4.871809506258674,1.0s : 0.3s,-7.467961684932817,0.10104425708216044,1.7924375751712232,0.6707232945604685,1.9892604351043701,0.4029597043991089,-2.1241953372955322,-0.2207147479057312,0.6281523704528809,0.08111311495304108,-0.3263396867938106,1.389679752815905,-0.478469656497391,0.9317284822463989,0.32057806849479675,-0.17062120139598846
1732225581099,9i,4.871809506258674,1.0s : 0.3s,-7.467961684932817,0.1079841687031721,1.8632898361277523,0.6557099156805702,1.9851346015930176,0.3877423107624054,-2.257395029067993,-0.1886393427848816,0.6202114820480347,0.09853126108646393,-0.34428276592014956,1.3854558330071522,-0.5043787963598934,0.9251962900161743,0.33752161264419556,-0.17346715927124023
1732225581109,9i,4.871809506258674,1.0s : 0.3s,-7.467961684932817,0.11491395524540501,1.9372965653088838,0.6321262193275,2.025899887084961,0.3771945834159851,-2.3832345008850098,-0.1482158899307251,0.6012054681777954,0.12715184688568115,-0.3633403750898768,1.3803972048749733,-0.5310850010623093,0.9178234338760376,0.3553985059261322,-0.17689555883407593
1732225581119,9i,4.871809506258674,1.0s : 0.3s,-7.467961684932817,0.1218342499268978,2.009018722984219,0.6407264190158107,2.05194354057312,0.3714650869369507,-2.490520477294922,-0.10598063468933105,0.6223498582839966,0.10944908857345581,-0.38333830901800614,1.3744405698369142,-0.5587346121903372,0.909600019454956,0.3740185797214508,-0.18093657493591309
1732225581129,9i,4.871809506258674,1.0s : 0.3s,-7.467961684932817,0.12874164673169677,2.078583268241568,0.6482259192859401,2.052406072616577,0.35240721702575684,-2.617861032485962,-0.06942486763000488,0.6355149745941162,0.10722754895687103,-0.40431075693365465,1.3676280938777927,-0.58697839561826,0.9004644155502319,0.3933851718902588,-0.1855051964521408
1732225581139,9i,4.871809506258674,1.0s : 0.3s,-7.467961684932817,0.13550620318554008,2.1435378751727616,0.6098642288135177,2.031848430633545,0.3195168673992157,-2.7412633895874023,-0.04037290811538696,0.5951701402664185,0.1267947554588318,-0.42632472933049015,1.359736832081608,-0.61583669275893,0.890287458896637,0.41352730989456177,-0.19074437022209167
1732225581149,9i,4.871809506258674,1.0s : 0.3s,-7.467961684932817,0.14196144436497174,2.201198670670003,0.586115330516404,1.980329155921936,0.3087446391582489,-2.85591197013855,0.003497779369354248,0.5747393369674683,0.1148635745048523,-0.44937277040860774,1.3508709759308768,-0.6450410244915363,0.8790248036384583,0.43440064787864685,-0.1964981108903885
1732225581159,9i,4.871809506258674,1.0s : 0.3s,-7.467961684932817,0.14835574192612846,2.2588370294881597,0.5944772001448858,1.9367164373397827,0.28438007831573486,-2.9931094646453857,0.05181777477264404,0.5796506404876709,0.12133917212486267,-0.4735401117260691,1.3411408220883316,-0.6744945149210237,0.866593599319458,0.456039696931839,-0.20259225368499756
1732225581169,9i,4.871809506258674,1.0s : 0.3s,-7.467961684932817,0.15470228206111047,2.318942097678196,0.6122216756296748,1.9695416688919067,0.23290492594242096,-3.089589834213257,0.07757961750030518,0.5936143398284912,0.12813585996627808,-0.4986139594765484,1.329971218623153,-0.7049641859246313,0.8529013395309448,0.4782087206840515,-0.20946523547172546
1732225581179,9i,4.871809506258674,1.0s : 0.3s,-7.467961684932817,0.1608816822910012,2.3702556449318535,0.6473759470901952,1.9082887172698975,0.18749171495437622,-3.1863338947296143,0.13834762573242188,0.6268545389175415,0.083719402551651,-0.5242413640439652,1.3171339218743887,-0.7364577861270094,0.8380013704299927,0.5005564093589783,-0.21724915504455566
1732225581189,9i,4.871809506258674,1.0s : 0.3s,-7.467961684932817,0.16685182499664922,2.42206659289076,0.6465048800201907,1.8468260765075684,0.15484482049942017,-3.3168141841888428,0.21260285377502441,0.6057911515235901,0.07606357336044312,-0.5508600331931066,1.3031144251877802,-0.7681745928253517,0.8217294216156006,0.5234202146530151,-0.2253708690404892
1732225581199,9i,4.871809506258674,1.0s : 0.3s,-7.467961684932817,0.17279216625965596,2.484033694943146,0.631816691219477,1.8948084115982056,0.10732724517583847,-3.434018135070801,0.22109442949295044,0.5862566232681274,0.08131885528564453,-0.5782823267792639,1.2872317672237223,-0.8012901366038614,0.8039605021476746,0.5465863347053528,-0.23428824543952942
1732225581209,9i,4.871809506258674,1.0s : 0.3s,-7.467961684932817,0.17859658838469866,2.5414376917285444,0.6773156621989027,1.8929532766342163,0.036049868911504745,-3.5153565406799316,0.2690672278404236,0.6197211742401123,0.048010408878326416,-0.6061053649452286,1.2689685398459496,-0.8363286016660731,0.7847199440002441,0.5696709156036377,-0.2443147748708725
1732225581219,9i,4.871809506258674,1.0s : 0.3s,-7.467961684932817,0.18436661082681668,2.5849736165245476,0.7561402223757119,1.8196090459823608,-0.027629153802990913,-3.5741963386535645,0.36735838651657104,0.6600749492645264,0.03311967849731445,-0.6341254812123983,1.2485618330950325,-0.8725139714865038,0.7641265988349915,0.5924732089042664,-0.25511980056762695
1732225581229,9i,4.871809506258674,1.0s : 0.3s,-7.467961684932817,0.19000152586543903,2.6190525791633172,0.7755577323886472,1.6566007137298584,-0.07311034947633743,-3.6778738498687744,0.4466579556465149,0.628348708152771,0.08464258909225464,-0.6627710415520219,1.2266306739216428,-0.9088328751417285,0.7420627474784851,0.6153035759925842,-0.2659780979156494
1732225581239,9i,4.871809506258674,1.0s : 0.3s,-7.467961684932817,0.1955042144752591,2.6524069133997075,0.7744184284224955,1.6405364274978638,-0.11491274833679199,-3.7310030460357666,0.4701629877090454,0.5961663722991943,0.1525002419948578,-0.6919510073229586,1.2028551147700297,-0.946080766945938,0.7184661030769348,0.6380406618118286,-0.2769662141799927
1732225581249,9i,4.871809506258674,1.0s : 0.3s,-7.467961684932817,0.2010043390356712,2.6817407037518395,0.8197835043955024,1.6471551656723022,-0.18892067670822144,-3.754639148712158,0.517315149307251,0.6115191578865051,0.1745690405368805,-0.7206098699247209,1.1763886350651254,-0.9852669083251903,0.6937138438224792,0.6598430275917053,-0.2887353301048279
1732225581259,9i,4.871809506258674,1.0s : 0.3s,-7.467961684932817,0.2064475158532573,2.703658528819899,0.8539763743616162,1.5810447931289673,-0.2186780720949173,-3.7884438037872314,0.5984219908714294,0.5885077118873596,0.15756091475486755,-0.7487843816251635,1.1473288987991115,-1.0263769758877836,0.6678133010864258,0.6807488203048706,-0.30100879073143005
1732225581269,9i,4.871809506258674,1.0s : 0.3s,-7.467961684932817,0.21166901575007763,2.719874064825376,0.8074408709696903,1.4600083827972412,-0.24839869141578674,-3.8420701026916504,0.607269287109375,0.5049210786819458,0.16804605722427368,-0.7768790798320542,1.1163627992354639,-1.0687566714998835,0.6407317519187927,0.7010573148727417,-0.31301984190940857
1732225581279,9i,4.871809506258674,1.0s : 0.3s,-7.467961684932817,0.21694222047156614,2.731527819868603,0.7589956495340607,1.4054641723632812,-0.3090330958366394,-3.8587214946746826,0.5990418791770935,0.4390200972557068,0.1564754843711853,-0.804714274244452,1.0830189733026299,-1.112598677846581,0.612460196018219,0.7206325531005859,-0.3249325156211853
1732225581289,9i,4.871809506258674,1.0s : 0.3s,-7.467961684932817,0.2222272422964963,2.7396575573729702,0.7862626814348465,1.266292691230774,-0.3616954982280731,-3.9057059288024902,0.6641881465911865,0.4073629379272461,0.1054445207118988,-0.8321729978575044,1.0470489165313868,-1.157939489563915,0.5830195546150208,0.7393961548805237,-0.3367220461368561
1732225581299,9i,4.871809506258674,1.0s : 0.3s,-7.467961684932817,0.2271299390734419,2.7534212943245504,0.8203814921470302,1.1831607818603516,-0.3782930374145508,-3.9713683128356934,0.7149480581283569,0.3961943984031677,0.07003617286682129,-0.8596266432808177,1.0085733747478998,-1.20522763066378,0.5522485971450806,0.7575989365577698,-0.3479445278644562
1732225581309,9i,4.871809506258674,1.0s : 0.3s,-7.467961684932817,0.23190878692132907,2.772175954017164,0.8150416048971868,1.1748908758163452,-0.40773746371269226,-4.0141401290893555,0.7046360969543457,0.4064035415649414,0.05115613341331482,-0.8865350314854217,0.9667529276627898,-1.2554093668537594,0.5202479958534241,0.7748861908912659,-0.3590175211429596
1732225581319,9i,4.871809506258674,1.0s : 0.3s,-7.467961684932817,0.23664567360930222,2.783891900125027,0.8491515280718976,1.0946139097213745,-0.48226338624954224,-4.022321701049805,0.746015727519989,0.4046313762664795,0.028147846460342407,-0.912444412016176,0.9212274984761312,-1.3085584937877934,0.48721492290496826,0.7910016179084778,-0.3700515627861023
1732225581329,9i,4.871809506258674,1.0s : 0.3s,-7.467961684932817,0.24141417589768652,2.8003742019734186,0.9138593659115261,1.1441506147384644,-0.53638756275177,-4.040830612182617,0.8228445649147034,0.3954773545265198,0.04078510403633118,-0.9369499323785562,0.8709479868986022,-1.365746052148563,0.45303431153297424,0.8057554364204407,-0.3814680874347687
1732225581339,9i,4.871809506258674,1.0s : 0.3s,-7.467961684932817,0.24633520135481987,2.8006959454846254,0.9256177668950759,1.014729619026184,-0.5598990321159363,-4.020949840545654,0.8314244747161865,0.4067590832710266,-0.006974339485168457,-0.959789711699819,0.8167895755684289,-1.426361715335541,0.418194055557251,0.8190709352493286,-0.39272966980934143
1732225581349,9i,4.871809506258674,1.0s : 0.3s,-7.467961684932817,0.2513063698258595,2.8010524125865546,0.8928154251144524,0.9389171600341797,-0.5594961047172546,-4.043083190917969,0.8237835168838501,0.34418076276779175,0.0063010454177856445,-0.9816536670608222,0.7596387512711411,-1.4894579597578903,0.38265261054039,0.8314173817634583,-0.40289226174354553
1732225581359,9i,4.871809506258674,1.0s : 0.3s,-7.467961684932817,0.2564627377978024,2.809045267089962,0.8587479927557982,1.0983690023422241,-0.5848795771598816,-4.027899265289307,0.7923411130905151,0.3277241587638855,0.0473344624042511,-1.000978532781242,0.6975856436759449,-1.557487938893466,0.34654438495635986,0.8419992923736572,-0.4134538173675537
1732225581369,9i,4.871809506258674,1.0s : 0.3s,-7.467961684932817,0.26186373781641836,2.8148007013701553,0.8834957518522794,1.2089011669158936,-0.6196796298027039,-3.99672269821167,0.7916297912597656,0.3913860321044922,-0.02653282880783081,-1.0165800460204635,0.6300392747019707,-1.6308958347460574,0.31007006764411926,0.850313127040863,-0.4252341687679291
1732225581379,9i,4.871809506258674,1.0s : 0.3s,-7.467961684932817,0.26749024413032124,2.8238210325944406,0.9072491592796015,1.381205677986145,-0.5999960899353027,-3.9672787189483643,0.8146674633026123,0.39401769638061523,-0.0645601749420166,-1.028363473230555,0.5580250320115768,-1.7087139404751097,0.2733452618122101,0.8564553260803223,-0.4379118084907532
1732225581389,9i,4.871809506258674,1.0s : 0.3s,-7.467961684932817,0.2733144994924885,2.841861334100369,0.8825441040470866,1.4926424026489258,-0.6679328083992004,-3.9808647632598877,0.8015515208244324,0.3635272979736328,-0.06517022848129272,-1.035595999872003,0.4825282504396817,-1.7904843948036475,0.23665648698806763,0.8601664900779724,-0.45178231596946716
1732225581399,9i,4.871809506258674,1.0s : 0.3s,-7.467961684932817,0.279585776003228,2.887160118631667,0.9374477886214972,1.7441039085388184,-0.75550776720047,-4.049411773681641,0.792906641960144,0.4727242588996887,-0.16321516036987305,-1.0378942441783159,0.4019098901700547,-1.876256517483956,0.19873154163360596,0.861336350440979,-0.46755266189575195
1732225581409,9i,4.871809506258674,1.0s : 0.3s,-7.467961684932817,0.28625513075984466,2.903234436938886,0.9615511882356804,1.4946805238723755,-0.8729395866394043,-4.030472278594971,0.7873218059539795,0.4897726774215698,-0.2546130120754242,-1.036955363251066,0.32000146420381836,-1.962545022616793,0.16006587445735931,0.8608589768409729,-0.4830120801925659
1732225581419,9i,4.871809506258674,1.0s : 0.3s,-7.467961684932817,0.2926062200066316,2.8902822736566907,0.8600840897912626,1.1873400211334229,-0.9921881556510925,-3.9843344688415527,0.816787600517273,0.26577121019363403,-0.044365763664245605,-1.03510388677453,0.23933498861064115,-2.0461259940380043,0.12100235372781754,0.8599153757095337,-0.4958869516849518
1732225581429,9i,4.871809506258674,1.0s : 0.3s,-7.467961684932817,0.29855716541575794,2.870605819416823,0.8353911375705995,1.1940865516662598,-1.0440524816513062,-3.907505750656128,0.810016393661499,0.1948755383491516,-0.06144362688064575,-1.0315932957415812,0.16029417773404359,-2.1268707285585275,0.08195140212774277,0.8581181764602661,-0.5068699717521667
1732225581439,9i,4.871809506258674,1.0s : 0.3s,-7.467961684932817,0.3045971229017811,2.8557309824806207,0.8455121336470599,1.2405720949172974,-1.083834171295166,-3.872743844985962,0.7911415100097656,0.2638207674026489,-0.13922816514968872,-1.0241097622822837,0.08324238301791635,-2.205024231104001,0.04322438687086105,0.8542517423629761,-0.5180594325065613
1732225581449,9i,4.871809506258674,1.0s : 0.3s,-7.467961684932817,0.31083291867143653,2.8557968104558196,0.8647330432280712,1.381353735923767,-1.1147459745407104,-3.8738772869110107,0.7629836201667786,0.35054755210876465,-0.20672601461410522,-1.0129487036030596,0.008391167959546765,-2.2805992627588014,0.004441907629370689,0.8483964800834656,-0.5293427109718323
1732225581459,9i,4.871809506258674,1.0s : 0.3s,-7.467961684932817,0.3172822169422883,2.863163352170602,0.8529872235427993,1.474972128868103,-1.151995062828064,-3.8691539764404297,0.747313380241394,0.38349419832229614,-0.14846587181091309,-0.997482451737018,-0.06313770700661156,-2.3525392195889316,-0.03422434628009796,0.8401080965995789,-0.5413382649421692
1732225581469,9i,4.871809506258674,1.0s : 0.3s,-7.467961684932817,0.3239184602954516,2.8812414557597643,0.849510734539387,1.5734974145889282,-1.218284010887146,-3.882704257965088,0.7443678379058838,0.37716782093048096,-0.15915226936340332,-0.9785620639345028,-0.13141845996543788,-2.4206453913496784,-0.0731489285826683,0.8296955227851868,-0.5534026622772217
1732225581479,9i,4.871809506258674,1.0s : 0.3s,-7.467961684932817,0.3307526440611206,2.8962025618136513,0.8491597867296274,1.6570056676864624,-1.2753623723983765,-3.8433499336242676,0.7269691228866577,0.410345196723938,-0.15557974576950073,-0.9563136192949896,-0.19538839362262386,-2.4837000314323445,-0.11193305999040604,0.817071795463562,-0.5655658841133118
1732225581489,9i,4.871809506258674,1.0s : 0.3s,-7.467961684932817,0.3377545478802126,2.9053590947280727,0.8717742049980831,1.621707797050476,-1.3408178091049194,-3.825617551803589,0.7757718563079834,0.37591975927352905,-0.1298176646232605,-0.9317057345469496,-0.2549660830261062,-2.5416482484504845,-0.1504361480474472,0.8026385307312012,-0.5771830677986145
1732225581499,9i,4.871809506258674,1.0s : 0.3s,-7.467961684932817,0.3448384135923476,2.908991143688922,0.8357971365021064,1.5566534996032715,-1.4177772998809814,-3.818049669265747,0.7673671841621399,0.3203734755516052,-0.08405530452728271,-0.9059107456165904,-0.3110526635022077,-2.595369021319769,-0.1888301521539688,0.7869873642921448,-0.5873619318008423
1732225581509,9i,4.871809506258674,1.0s : 0.3s,-7.467961684932817,0.3520107551253729,2.920157286182804,0.8193883174623007,1.6674611568450928,-1.4490829706192017,-3.7995107173919678,0.736029863357544,0.35056793689727783,-0.08221542835235596,-0.8781349264884993,-0.36336225463808064,-2.644722683355165,-0.22696609795093536,0.7695491909980774,-0.596892237663269
1732225581519,9i,4.871809506258674,1.0s : 0.3s,-7.467961684932817,0.35930363451174063,2.926173080064697,0.8376266302413827,1.6121840476989746,-1.5404974222183228,-3.7802741527557373,0.7467646598815918,0.36816203594207764,-0.09174764156341553,-0.8485496426488757,-0.4120296836231327,-2.689683584152334,-0.2647395133972168,0.7503224015235901,-0.605746865272522
1732225581529,9i,4.871809506258674,1.0s : 0.3s,-7.467961684932817,0.36667433893751666,2.931378900910823,0.8383392978298205,1.593638300895691,-1.5980592966079712,-3.7720580101013184,0.768680989742279,0.32248950004577637,-0.08912259340286255,-0.8181443450707946,-0.4580800634813269,-2.7311617873973857,-0.3022960126399994,0.7298786044120789,-0.61310213804245
1732225581539,9i,4.871809506258674,1.0s : 0.3s,-7.467961684932817,0.37410967406283513,2.931841756362176,0.8338294728316291,1.6201119422912598,-1.6374413967132568,-3.725883722305298,0.7677634954452515,0.3127296566963196,-0.08950400352478027,-0.7865424031351466,-0.5009985153542461,-2.7687355986938678,-0.33923566341400146,0.7079154253005981,-0.619495689868927
1732225581549,9i,4.871809506258674,1.0s : 0.3s,-7.467961684932817,0.3816000233988111,2.932095854369927,0.8273044521082124,1.6019196510314941,-1.6837868690490723,-3.711602210998535,0.7665082216262817,0.3051369786262512,-0.06155669689178467,-0.7540673062811218,-0.5410906223058697,-2.802879378108411,-0.37544068694114685,0.6846091151237488,-0.6247836947441101
1732225581559,9i,4.871809506258674,1.0s : 0.3s,-7.467961684932817,0.38900701196862936,2.931954504262181,0.7986093461687166,1.5701326131820679,-1.7561583518981934,-3.6885387897491455,0.7433693408966064,0.2916548252105713,-0.010787665843963623,-0.7209476839261568,-0.5790915229653494,-2.8342112756083577,-0.41109389066696167,0.6600968241691589,-0.6287081241607666
1732225581569,9i,4.871809506258674,1.0s : 0.3s,-7.467961684932817,0.3963644755309538,2.9309216331919035,0.7888051308313797,1.5493698120117188,-1.8042590618133545,-3.660064220428467,0.7311882972717285,0.29419100284576416,-0.03207588195800781,-0.6873674842791255,-0.6152389142507511,-2.86281637183308,-0.44609302282333374,0.6345046758651733,-0.6311931610107422
1732225581579,9i,4.871809506258674,1.0s : 0.3s,-7.467961684932817,0.4034533126602854,2.9143610375495763,0.7480200554984109,1.4461803436279297,-1.8613793849945068,-3.593635082244873,0.7158370018005371,0.2164475917816162,0.01618117094039917,-0.6538657893696734,-0.6497643497680936,-2.888955629235891,-0.48021069169044495,0.608259379863739,-0.6319953203201294
1732225581589,9i,4.871809506258674,1.0s : 0.3s,-7.467961684932817,0.4105775320688164,2.8925233814655775,0.7875390651988865,1.2722567319869995,-1.9179338216781616,-3.5705645084381104,0.7490322589874268,0.24278956651687622,0.014888942241668701,-0.621084393358341,-0.6832324028184921,-2.913753184990896,-0.513405978679657,0.581917405128479,-0.6307031512260437
1732225581599,9i,4.871809506258674,1.0s : 0.3s,-7.467961684932817,0.4177343091610407,2.870487454579938,0.7839581564585668,1.2401148080825806,-1.9465782642364502,-3.5212349891662598,0.7460464239120483,0.240797221660614,-0.004671454429626465,-0.5886131037737834,-0.7157565663576588,-2.937256239389591,-0.5457594990730286,0.5552080869674683,-0.627606987953186
1732225581609,9i,4.871809506258674,1.0s : 0.3s,-7.467961684932817,0.42494579582000436,2.8473989850390127,0.8088872074633664,1.1753724813461304,-2.0034327507019043,-3.4654734134674072,0.7702244520187378,0.2470797896385193,0.0020941495895385742,-0.5563043383826516,-0.7470207440226706,-2.958843489589074,-0.5770023465156555,0.5280514359474182,-0.6230810880661011
1732225581619,9i,4.871809506258674,1.0s : 0.3s,-7.467961684932817,0.43226359352991717,2.819923415562821,0.8547790487634306,1.0811268091201782,-2.0328502655029297,-3.4110662937164307,0.8215993046760559,0.2358396053314209,0.0012187361717224121,-0.5243568200396402,-0.7774640796281498,-2.9790759834044254,-0.6072285175323486,0.5006563663482666,-0.6169413924217224
1732225581629,9i,4.871809506258674,1.0s : 0.3s,-7.467961684932817,0.43965829818557983,2.788484610343496,0.8804193931633625,0.9709700345993042,-2.04250431060791,-3.3653993606567383,0.8567220568656921,0.20217552781105042,0.01704937219619751,-0.4930337904190808,-0.8070278445067931,-2.9982382242452887,-0.6362172961235046,0.4733005166053772,-0.6092734932899475
1732225581639,9i,4.871809506258674,1.0s : 0.3s,-7.467961684932817,0.4471145428007542,2.756865003242948,0.9008870132810143,0.8973106741905212,-2.0474798679351807,-3.3236660957336426,0.8812248706817627,0.1760982871055603,0.06347858905792236,-0.46224289564038124,-0.8357817113580036,-3.0165235425442956,-0.6639701724052429,0.4459567368030548,-0.6002217531204224
1732225581649,9i,4.871809506258674,1.0s : 0.3s,-7.467961684932817,0.45472625711476766,2.722777939700563,0.9169884963349791,0.9057472944259644,-2.032209634780884,-3.254434585571289,0.8935782313346863,0.19730716943740845,0.058785438537597656,-0.43159923306253833,-0.8633549610303993,-3.0333093612670674,-0.6903311610221863,0.41832390427589417,-0.5902948975563049
1732225581659,9i,4.871809506258674,1.0s : 0.3s,-7.467961684932817,0.46258478859178687,2.6844933348012394,0.9602226017265092,0.9320463538169861,-1.9784009456634521,-3.1904451847076416,0.9374738335609436,0.2044547200202942,0.036993563175201416,-0.40095993667769675,-0.8894268378264728,-3.0482955778992884,-0.7151073813438416,0.3903023302555084,-0.5799012780189514
1732225581669,9i,4.871809506258674,1.0s : 0.3s,-7.467961684932817,0.47064871748280673,2.640972095440634,0.9670282839722723,1.0127017498016357,-1.9020936489105225,-3.1112072467803955,0.9432708024978638,0.20071855187416077,0.07138597965240479,-0.3702108150677053,-0.913706889788063,-3.061350444372467,-0.738131582736969,0.36181196570396423,-0.5694328546524048
1732225581679,9i,4.871809506258674,1.0s : 0.3s,-7.467961684932817,0.47878455601697884,2.583793352322643,0.9514216130627761,1.0777350664138794,-1.831252098083496,-2.9722888469696045,0.9286642074584961,0.1723707616329193,0.11434245109558105,-0.3396293592935753,-0.9360848288771931,-3.0720513130537013,-0.7592458724975586,0.3331376314163208,-0.559075117111206
1732225581689,9i,4.871809506258674,1.0s : 0.3s,-7.467961684932817,0.48689787084351666,2.5123485402993753,0.9541788246819604,1.0832949876785278,-1.769323706626892,-2.816534996032715,0.9319247007369995,0.10735416412353516,0.17449545860290527,-0.30976149504689016,-0.9568008073525642,-3.0807119185870726,-0.778451681137085,0.30483150482177734,-0.5487172603607178
1732225581699,9i,4.871809506258674,1.0s : 0.3s,-7.467961684932817,0.49493327362682726,2.424956120078454,0.9482118762352545,1.0204235315322876,-1.7009974718093872,-2.6513636112213135,0.9142866134643555,-0.01992088556289673,0.2505771517753601,-0.28127502863343395,-0.9762207279969111,-3.087967223630924,-0.7958325743675232,0.27758079767227173,-0.5381442904472351
1732225581709,9i,4.871809506258674,1.0s : 0.3s,-7.467961684932817,0.502316760663085,2.3208366859672287,0.9821457277372688,0.989071786403656,-1.6096763610839844,-2.4556045532226562,0.9130663275718689,-0.1426377296447754,0.3325275778770447,-0.2544441822917512,-0.9943812409929154,-3.0940750269031794,-0.8114274740219116,0.251707524061203,-0.5274738669395447
1732225581719,9i,4.871809506258674,1.0s : 0.3s,-7.467961684932817,0.5090345019402225,2.197861839731197,1.0442235195539031,0.9382386803627014,-1.5073297023773193,-2.229196786880493,0.920128345489502,-0.2589120864868164,0.42039400339126587,-0.22948798737932294,-1.0110776590580988,-3.098804500224436,-0.8251881003379822,0.2274789661169052,-0.5170279145240784
1732225581729,9i,4.871809506258674,1.0s : 0.3s,-7.467961684932817,0.5150252781841462,2.053971049251757,1.085413627937597,0.8555374145507812,-1.3873600959777832,-1.9776581525802612,0.9001250863075256,-0.3781083822250366,0.4742695689201355,-0.20683522024679296,-1.0262915422750019,-3.1022828048211,-0.8371520042419434,0.20536360144615173,-0.5069538354873657
1732225581739,9i,4.871809506258674,1.0s : 0.3s,-7.467961684932817,0.520256990054666,1.890591194058198,1.169747053281013,0.7630858421325684,-1.2486754655838013,-1.7113953828811646,0.8958380818367004,-0.5166233777999878,0.5467015504837036,-0.1868835106233282,-1.04000658867847,-3.104926737921078,-0.8473913669586182,0.1857975721359253,-0.4974004030227661
1732225581749,9i,4.871809506258674,1.0s : 0.3s,-7.467961684932817,0.5248115241973724,1.7124970815208362,1.2561719105895175,0.716724693775177,-1.0730628967285156,-1.443668007850647,0.8963772058486938,-0.6268490552902222,0.6176860332489014,-0.16953009608088238,-1.0518848308559878,-3.1064392243049195,-0.8559108972549438,0.16871920228004456,-0.48882558941841125
1732225581759,9i,4.871809506258674,1.0s : 0.3s,-7.467961684932817,0.5288124461785384,1.5167267352044635,1.3258995677926533,0.7014490962028503,-0.8626600503921509,-1.136128544807434,0.8843958377838135,-0.705941915512085,0.691013514995575,-0.15478617404423436,-1.061600009895159,-3.1065959307804034,-0.8626978397369385,0.15416882932186127,-0.48164767026901245
1732225581769,9i,4.871809506258674,1.0s : 0.3s,-7.467961684932817,0.5323260521021923,1.3034193654547148,1.3919438712463184,0.6654210686683655,-0.6309389472007751,-0.8106934428215027,0.8638296127319336,-0.7922785878181458,0.750733494758606,-0.1429541993779037,-1.0688816458997354,-3.105311121322315,-0.8677205443382263,0.14246779680252075,-0.47619739174842834
1732225581779,9i,4.871809506258674,1.0s : 0.3s,-7.467961684932817,0.5353843894520217,1.0805673517623322,1.4675541756668626,0.6807366013526917,-0.37906110286712646,-0.469830721616745,0.839195191860199,-0.8898876309394836,0.810904860496521,-0.13414025522218573,-1.0735298526150943,-3.1024612628072332,-0.8709943890571594,0.13373833894729614,-0.4727395474910736
1732225581789,9i,4.871809506258674,1.0s : 0.3s,-7.467961684932817,0.5381018396500207,0.8535258963018855,1.537537735388765,0.7298503518104553,-0.08146163076162338,-0.08934411406517029,0.8269971013069153,-0.9691262245178223,0.8607510924339294,-0.12830670365534236,-1.075229576413186,-3.097644063964803,-0.8724682331085205,0.12795494496822357,-0.47162145376205444
1732225581799,9i,4.871809506258674,1.0s : 0.3s,-7.467961684932817,0.5406230423955993,0.6398044921907092,1.6358033768953244,0.7243349552154541,0.22671572864055634,0.3102550804615021,0.8312369585037231,-1.0534255504608154,0.9355171918869019,-0.1258091388356368,-1.0736026474396954,-3.0907521667937337,-0.8719778656959534,0.12547752261161804,-0.47319117188453674
1732225581809,9i,4.871809506258674,1.0s : 0.3s,-7.467961684932817,0.5430391139473683,0.5028697023393458,1.7547030328960829,0.7290295362472534,0.5376073122024536,0.6887505054473877,0.837918758392334,-1.1635336875915527,1.011466383934021,-0.1267327372016139,-1.068677606204976,-3.0818748648826957,-0.8695348501205444,0.12639376521110535,-0.4774239659309387
1732225581819,9i,4.871809506258674,1.0s : 0.3s,-7.467961684932817,0.5456668043842069,0.5323279262797089,1.8762333504251267,0.7436321973800659,0.8629314303398132,1.0822930335998535,0.8986439108848572,-1.24003005027771,1.0839816331863403,-0.13089108729037804,-1.0602794491436283,-3.0709541797694753,-0.8650287985801697,0.13051766157150269,-0.4844485819339752
1732225581829,9i,4.871809506258674,1.0s : 0.3s,-7.467961684932817,0.5489030458338326,0.7193858112290602,1.9960469940095926,0.7239913940429688,1.1921201944351196,1.4974167346954346,0.9954310059547424,-1.2959802150726318,1.146191954612732,-0.13846330246728986,-1.0482743824031713,-3.0579919045430373,-0.8582696914672852,0.1380212903022766,-0.49429070949554443
1732225581839,9i,4.871809506258674,1.0s : 0.3s,-7.467961684932817,0.5530249226049366,0.9883189208339966,2.1095456275157463,0.6936877369880676,1.5230802297592163,1.9237221479415894,1.0787789821624756,-1.3527649641036987,1.2068328857421875,-0.14963319521674465,-1.032574893686313,-3.043088456915199,-0.8490273356437683,0.1490754336118698,-0.5068817138671875
1732225581849,9i,4.871809506258674,1.0s : 0.3s,-7.467961684932817,0.5583238950824323,1.3059478100774993,2.22114501337852,0.7007021903991699,1.8775379657745361,2.386460542678833,1.1789195537567139,-1.397620439529419,1.2610673904418945,-0.16438149718917647,-1.0128805287289933,-3.0257331280064346,-0.8369241952896118,0.16364219784736633,-0.5222824811935425
1732225581859,9i,4.871809506258674,1.0s : 0.3s,-7.467961684932817,0.565077721556101,1.6614655630816464,2.328168219386001,0.741540789604187,2.2744338512420654,2.879835844039917,1.3034822940826416,-1.441965103149414,1.2814202308654785,-0.18266421115579623,-0.9885802193860151,-3.0053635462488213,-0.8213503360748291,0.1816501021385193,-0.5407280921936035
1732225581869,9i,4.871809506258674,1.0s : 0.3s,-7.467961684932817,0.5735266357224089,2.0508845477117474,2.461374675866353,0.7904574871063232,2.6929593086242676,3.4238319396972656,1.441184163093567,-1.5011217594146729,1.3145291805267334,-0.20440064030243332,-0.9590633742111493,-2.980902876655181,-0.8016119599342346,0.20298030972480774,-0.5623319745063782
1732225581879,9i,4.871809506258674,1.0s : 0.3s,-7.467961684932817,0.5840109779537838,2.474084733883076,2.6349465949405855,0.8258775472640991,3.169553756713867,3.9988176822662354,1.6327390670776367,-1.5688986778259277,1.3474656343460083,-0.229617787504973,-0.9235297555829836,-2.9519794220387174,-0.7767972350120544,0.22760535776615143,-0.5871812105178833
1732225581889,9i,4.871809506258674,1.0s : 0.3s,-7.467961684932817,0.5969918345915458,2.9315531650673448,2.9030506010542614,0.8070311546325684,3.682742118835449,4.627265453338623,1.8828645944595337,-1.6721525192260742,1.4444478750228882,-0.25834493503003425,-0.8810292125947142,-2.9179380277790012,-0.7457948327064514,0.2554807662963867,-0.6152394413948059
1732225581899,9i,4.871809506258674,1.0s : 0.3s,-7.467961684932817,0.6129937689227704,3.4325880563631315,3.2323778746317453,0.8535654544830322,4.26438570022583,5.3095622062683105,2.1923434734344482,-1.8071541786193848,1.5414572954177856,-0.29043779832740874,-0.8303960416758369,-2.877676678862657,-0.7072818279266357,0.28637170791625977,-0.6463309526443481
1732225581909,9i,4.871809506258674,1.0s : 0.3s,-7.467961684932817,0.632746721775756,3.9870925010541742,3.6290917752005467,0.9069700837135315,4.91851282119751,6.081026554107666,2.5898826122283936,-1.9275095462799072,1.6575651168823242,-0.32512946741866444,-0.7699278628788817,-2.829524742034326,-0.6596152186393738,0.31943148374557495,-0.6803464889526367
1732225581919,9i,4.871809506258674,1.0s : 0.3s,-7.467961684932817,0.657060829499397,4.606136007736829,4.074184470470481,0.8795713782310486,5.711355686187744,6.928064346313477,3.0684335231781006,-2.0216798782348633,1.7596889734268188,-0.36197613470200374,-0.6974275218924373,-2.771815031508328,-0.6006296277046204,0.35412299633026123,-0.7168270349502563
1732225581929,9i,4.871809506258674,1.0s : 0.3s,-7.467961684932817,0.6868492552430422,5.293792260307665,4.607545263010076,0.6717388033866882,6.594845771789551,7.871443271636963,3.622586488723755,-2.0903759002685547,1.933046579360962,-0.4007115178154845,-0.6104941782419763,-2.703529417934352,-0.5278599262237549,0.39007359743118286,-0.7544577717781067
1732225581939,9i,4.871809506258674,1.0s : 0.3s,-7.467961684932817,0.7231577133030265,6.075968672098753,5.294265469041352,0.25684604048728943,7.663744926452637,8.965587615966797,4.2747602462768555,-2.2029409408569336,2.2142093181610107,-0.44144354537486713,-0.5060691668236388,-2.6224593578902002,-0.43827342987060547,0.4272450804710388,-0.7908084988594055
1732225581949,9i,4.871809506258674,1.0s : 0.3s,-7.467961684932817,0.7672753552682602,6.929938144756603,6.151098007666294,-0.13200797140598297,8.701428413391113,10.088019371032715,5.1124267578125,-2.3528213500976562,2.4826056957244873,-0.481554841518521,-0.38136940049371465,-2.526199365538236,-0.32986465096473694,0.4631577432155609,-0.8226020932197571
1732225581959,9i,4.871809506258674,1.0s : 0.3s,-7.467961684932817,0.8203537131973022,7.816474812762462,7.058461853625577,-0.7471171021461487,9.650979995727539,11.152551651000977,6.106328964233398,-2.4546000957489014,2.5513856410980225,-0.5180517017000016,-0.23471174649278234,-2.412197706088305,-0.20204706490039825,0.4951884150505066,-0.8449646830558777
1732225581969,9i,4.871809506258674,1.0s : 0.3s,-7.467961684932817,0.8840726022874607,8.663789953350193,8.199315246861804,-1.4106038808822632,10.346787452697754,11.990976333618164,7.417035102844238,-2.383371114730835,2.5565412044525146,-0.5461703373045358,-0.06797521402423763,-2.2812006144088413,-0.05804145708680153,0.5194185376167297,-0.8525465130805969
1732225581979,9i,4.871809506258674,1.0s : 0.3s,-7.467961684932817,0.9604256965101389,9.379852335811668,9.585798739875246,-2.3498010635375977,10.585142135620117,12.483795166015625,9.010380744934082,-1.9970207214355469,2.590846300125122,-0.5617105527520762,0.11326096794706285,-2.1365706120360786,0.09565306454896927,0.5326346755027771,-0.8409225344657898
1732225581989,9i,4.871809506258674,1.0s : 0.3s,-7.467961684932817,1.0506341040826517,9.987982225059707,11.00774450546234,-4.305247783660889,10.491106986999512,12.919513702392578,10.648571968078613,-1.228377103805542,2.5038857460021973,-0.5674391620414682,0.30208751773480247,-1.9813066768515728,0.25088751316070557,0.5374743342399597,-0.805094301700592
1732225581999,9i,4.871809506258674,1.0s : 0.3s,-7.467961684932817,1.1546031843704383,10.514830039034035,12.27315181299692,-7.334611892700195,9.679604530334473,13.301698684692383,12.038559913635254,-0.26517951488494873,2.373396396636963,-0.5695011863185232,0.49518014723786846,-1.8111137543651623,0.40019091963768005,0.5392120480537415,-0.7410112023353577
1732225582009,9i,4.871809506258674,1.0s : 0.3s,-7.467961684932817,1.2720005263937495,11.006773814618134,13.625126884779517,-10.543042182922363,8.253447532653809,13.468587875366211,13.423613548278809,1.1397206783294678,2.037576675415039,-0.5688213094981491,0.6885152647713979,-1.619534292121893,0.535340428352356,0.5386393070220947,-0.6505984663963318
1732225582019,9i,4.871809506258674,1.0s : 0.3s,-7.467961684932817,1.4018934265631393,11.490426944660642,15.054090274689614,-13.218730926513672,6.213387489318848,13.53144645690918,14.594057083129883,3.351574659347534,1.5511541366577148,-0.5580629667536532,0.8755278468171553,-1.4064331156798564,0.6513805985450745,0.5295440554618835,-0.5434026718139648
1732225582029,9i,4.871809506258674,1.0s : 0.3s,-7.467961684932817,1.541503418760076,11.945494546289197,16.344522860164314,-14.897643089294434,4.333417892456055,13.28223705291748,14.98257064819336,6.463809013366699,0.940838634967804,-0.5282884527074448,1.0445837721954137,-1.181677178546729,0.7468298077583313,0.5040558576583862,-0.43378907442092896
1732225582039,9i,4.871809506258674,1.0s : 0.3s,-7.467961684932817,1.6864976057390837,12.401930425377522,17.482063439206602,-16.37568473815918,2.414407730102539,12.987616539001465,14.244987487792969,10.121633529663086,0.505379319190979,-0.4784780443747628,1.188780989066764,-0.9547543836913153,0.8237072825431824,0.4604286849498749,-0.3309256136417389
1732225582049,9i,4.871809506258674,1.0s : 0.3s,-7.467961684932817,1.8299428360460968,12.864414203744667,17.46673447462667,-17.80733299255371,-0.3082761764526367,12.658102035522461,11.700094223022461,12.948137283325195,0.7350845336914062,-0.41194053958964966,1.2966245459391847,-0.7291752170065535,0.8821198344230652,0.40038830041885376,-0.24810032546520233
1732225582059,9i,4.871809506258674,1.0s : 0.3s,-7.467961684932817,1.9667876151321535,13.298388164268955,16.78036410274538,-18.412790298461914,-3.0304954051971436,12.352307319641113,8.71182632446289,14.243109703063965,1.678847074508667,-0.3333907453853664,1.3606224092220887,-0.5069615686430726,0.9241443872451782,0.3272489607334137,-0.19714243710041046
1732225582069,9i,4.871809506258674,1.0s : 0.3s,-7.467961684932817,2.0941079401551748,13.491343546307357,16.049785117522468,-17.265478134155273,-4.2213616371154785,12.00466251373291,5.797388553619385,14.628432273864746,3.1614644527435303,-0.2487119518713263,1.3825512609690143,-0.3003730340181517,0.9521079659461975,0.2461557537317276,-0.18137714266777039
1732225582079,9i,4.871809506258674,1.0s : 0.3s,-7.467961684932817,2.211003781897208,14.009242423422998,14.719818577340387,-19.76004409790039,-4.686596870422363,11.179238319396973,2.7298169136047363,13.772445678710938,4.420508861541748,-0.16886181294855465,1.3805055707997331,-0.09531438814191291,0.9679827094078064,0.16806046664714813,-0.1864541471004486
1732225582089,9i,4.871809506258674,1.0s : 0.3s,-7.467961684932817,2.309762502878805,15.125344963053307,11.445285742255106,-23.74947166442871,-7.944587707519531,10.632763862609863,0.24158692359924316,10.436788558959961,4.691443920135498,-0.10381840017673734,1.3593467724850552,0.14304190245900059,0.9724632501602173,0.10363200306892395,-0.20874732732772827
1732225582099,9i,4.871809506258674,1.0s : 0.3s,-7.467961684932817,2.385847864665892,15.170849617446766,4.732995070349339,-21.19399070739746,-2.993065595626831,8.418718338012695,-0.6726219058036804,3.906365156173706,2.5863358974456787,-0.03335349190790894,1.3068374272144965,0.2900185509999403,0.964827835559845,0.03334730863571167,-0.26075929403305054
1732225582109,9i,4.871809506258674,1.0s : 0.3s,-7.467961684932817,2.4353247707867,16.49642795236241,8.378823874415456,-30.99593162536621,-5.321302890777588,0.3742871582508087,1.8792376518249512,-5.778724670410156,-5.768838405609131,-0.08084539029297591,1.3080008800615612,0.6541694266646249,0.9625135660171509,0.08075734972953796,-0.25893256068229675
1732225582119,9i,4.871809506258674,1.0s : 0.3s,-7.467961684932817,2.505948748062148,17.71412411981439,20.094385339290156,-29.098852157592773,-12.31228256225586,2.6281425952911377,6.941458702087402,-2.4676711559295654,18.695215225219727,-0.15116850955738534,1.2273319482769252,0.9200446390146655,0.9308555722236633,0.15059341490268707,-0.33291077613830566
1732225582129,9i,4.871809506258674,1.0s : 0.3s,-7.467961684932817,2.586220316125867,16.82685319834158,9.901198725695842,-22.064241409301758,-7.548440933227539,-6.189653396606445,8.908684730529785,4.167967319488525,-1.1389122009277344,-0.2617855596510775,1.187531220204081,1.1736142713369064,0.8958499431610107,0.25880569219589233,-0.3612099885940552
1732225582139,9i,4.871809506258674,1.0s : 0.3s,-7.467961684932817,2.6648817368356044,14.71141340410934,13.920089300685701,-11.539213180541992,-11.98888874053955,-5.372438430786133,0.716804027557373,8.008377075195312,11.363141059875488,-0.3832937016640927,1.1227990126742244,1.2997047607782222,0.8359150886535645,0.3739771842956543,-0.4017302989959717
1732225582149,9i,4.871809506258674,1.0s : 0.3s,-7.467961684932817,2.7362097842418818,12.226512554917154,11.600663666798715,-4.735527992248535,-11.169410705566406,-6.716784954071045,0.5640856027603149,11.56666088104248,0.6852452158927917,-0.46089821505410405,1.024752716615201,1.3452174571316622,0.7654126286506653,0.4447527825832367,-0.46512195467948914
1732225582159,9i,4.871809506258674,1.0s : 0.3s,-7.467961684932817,2.8033710890877694,11.750317057365057,6.560521649600485,-8.868976593017578,-13.854286193847656,-5.914170742034912,3.655371904373169,5.3871750831604,-0.810583233833313,-0.5503087817462077,0.9133176796849801,1.3762770579295163,0.674675703048706,0.5229504704475403,-0.520898699760437
1732225582169,9i,4.871809506258674,1.0s : 0.3s,-7.467961684932817,2.8597676210771956,11.7985236775515,5.598432720568438,-10.260274887084961,-13.613603591918945,-6.999925136566162,4.70482063293457,-2.601440906524658,-1.561927318572998,-0.6611170938202642,0.7959149799862105,1.4142495764626966,0.5639629364013672,0.6139989495277405,-0.5522237420082092
1732225582178,9i,4.871809506258674,1.0s : 0.3s,-7.467961684932817,2.9162988340076565,11.612129351534982,6.444754410416043,-8.814220428466797,-12.433307647705078,-8.066335678100586,6.126171588897705,-1.6866724491119385,1.0770409107208252,-0.78315229876043,0.6711978906762889,1.4244235680074322,0.4407535195350647,0.7055169343948364,-0.5549613237380981
1732225582188,9i,4.871809506258674,1.0s : 0.3s,-7.467961684932817,2.9685691633421887,11.17813110016589,4.236783743707254,-7.452770709991455,-10.243459701538086,-9.495798110961914,4.0055999755859375,-0.37051862478256226,1.329744815826416,-0.8992932640138177,0.528106303093463,1.3850046576544186,0.3135072588920593,0.7828873991966248,-0.5374016761779785
1732225582198,9i,4.871809506258674,1.0s : 0.3s,-7.467961684932817,3.019027814703893,10.619090232323007,4.4861562230814735,-5.447413444519043,-8.299744606018066,-11.218720436096191,3.5756874084472656,0.40886789560317993,2.6782240867614746,-1.0019739707219204,0.3422407133025257,1.270920405256105,0.1807669699192047,0.8425359129905701,-0.5074018239974976
1732225582208,9i,4.871809506258674,1.0s : 0.3s,-7.467961684932817,3.068790668838973,9.96999291623458,4.66019841945426,-2.183472156524658,-6.945095539093018,-12.25594711303711,3.495328187942505,0.7787410020828247,2.982229471206665,-1.06507117264382,0.08733353145264859,1.063340397756284,0.04225426912307739,0.8748233914375305,-0.4825957119464874
1732225582218,9i,4.871809506258674,1.0s : 0.3s,-7.467961684932817,3.1208898441057524,9.336613592669057,5.367871107611116,1.3920100927352905,-6.405248641967773,-12.088820457458496,4.272067070007324,1.1490899324417114,3.0402426719665527,-1.0608606006828583,-0.2011759515909564,0.8092804369528701,-0.09753718972206116,0.8727759122848511,-0.478276789188385
1732225582228,9i,4.871809506258674,1.0s : 0.3s,-7.467961684932817,3.175290346856935,8.923836430641853,5.514716217774922,3.4498679637908936,-6.676628112792969,-11.277949333190918,4.732326507568359,0.8779572248458862,2.691908597946167,-0.9980978779991352,-0.44535718037829053,0.6004803684216758,-0.2334405928850174,0.8404417634010315,-0.4890429973602295
1732225582238,9i,4.871809506258674,1.0s : 0.3s,-7.467961684932817,3.230506606609209,8.830509135942235,5.466282268789919,3.420961856842041,-7.193777561187744,-11.06546401977539,4.739737033843994,0.14701372385025024,2.7191030979156494,-0.9073786869375177,-0.6317718052577462,0.45978362830546515,-0.36368414759635925,0.78789222240448,-0.49695032835006714
1732225582248,9i,4.871809506258674,1.0s : 0.3s,-7.467961684932817,3.2847316667646065,8.80692034953072,5.308799453181988,3.302419900894165,-7.2248616218566895,-10.801421165466309,4.636722087860107,-0.734174907207489,2.478940725326538,-0.8108634149750368,-0.7775725335120458,0.3651530183205311,-0.4832797646522522,0.7248822450637817,-0.49090349674224854
1732225582258,9i,4.871809506258674,1.0s : 0.3s,-7.467961684932817,3.33641572518537,8.704918334672044,4.943729844960738,3.742844343185425,-6.9845051765441895,-10.151453971862793,4.00747013092041,-1.0258013010025024,2.7070980072021484,-0.7099061116673111,-0.8912146453519421,0.30417021879562334,-0.5899285674095154,0.6517625451087952,-0.4766444265842438
1732225582268,9i,4.871809506258674,1.0s : 0.3s,-7.467961684932817,3.385137740552857,8.551086395857594,4.297664890825313,4.096940517425537,-6.624240875244141,-9.652548789978027,3.435215950012207,-0.49316883087158203,2.5349555015563965,-0.6068177915526403,-0.980398724402978,0.26974968142740074,-0.6824085116386414,0.5702562928199768,-0.45730355381965637
1732225582278,9i,4.871809506258674,1.0s : 0.3s,-7.467961684932817,3.432057231558928,8.359807579690704,4.212393134097586,4.732121467590332,-6.5274481773376465,-8.885689735412598,3.293105125427246,-0.01638653874397278,2.6266796588897705,-0.5048623139372829,-1.053222737416891,0.25617971877702045,-0.7606040239334106,0.4836869239807129,-0.4330456852912903
1732225582288,9i,4.871809506258674,1.0s : 0.3s,-7.467961684932817,3.4769513114044184,8.117905448234799,3.9542286203313353,5.138935089111328,-6.429433345794678,-7.97418212890625,3.1219727993011475,-0.06321266293525696,2.425945997238159,-0.4069978959329336,-1.1160586780930966,0.26154876307364067,-0.82499098777771,0.39585423469543457,-0.4033477306365967
1732225582298,9i,4.871809506258674,1.0s : 0.3s,-7.467961684932817,3.5179381772262626,7.7290581227193105,3.2220229518981873,4.851933479309082,-5.722602844238281,-7.050271034240723,2.728818416595459,-0.46198955178260803,1.6497113704681396,-0.31816022852145315,-1.171731089165316,0.27721219924718127,-0.8751806616783142,0.3128196597099304,-0.3690565228462219
