timestamp,club,max_speed,tempo,w.rotation,l.speed,t.spped,acc,rotation.x,rotation.y,rotation.z,userAcceleration.x,userAcceleration.y,userAcceleration.z,pitch,roll,yaw,gravity.x,gravity.y,gravity.z
1732227251060,SW,4.5392810904174326,0.9s : 0.3s,-15.991779120841414,0.000333715491403528,0.11438875479298186,0.013312669758918287,-0.5185624361038208,-0.10251253843307495,-0.09181012958288193,-0.013298869132995605,0.0003161579370498657,-0.0005170106887817383,-0.1800527157353234,1.6378770627973973,2.973173226407433,0.9816216826438904,0.17908143997192383,0.06594685465097427
1732227251070,SW,4.5392810904174326,0.9s : 0.3s,-15.991779120841414,0.000609268340774545,0.17771523312877044,0.034028800649634816,-0.49617671966552734,-0.0802561417222023,-0.07649648934602737,-0.017514288425445557,0.027606338262557983,-0.009439229965209961,-0.18054146930261936,1.6378789001113223,2.978111501772063,0.9815341234207153,0.1795622706413269,0.06594277918338776
1732227251080,SW,4.5392810904174326,0.9s : 0.3s,-15.991779120841414,0.0008336530872426912,0.22147476451273085,0.023435171899029904,-0.47034379839897156,-0.08013603836297989,-0.10803790390491486,-0.02132028341293335,0.004844501614570618,-0.008437037467956543,-0.18115758586296316,1.637953652369154,2.982944096441535,0.9814186096191406,0.18016833066940308,0.06600871682167053
1732227251090,SW,4.5392810904174326,0.9s : 0.3s,-15.991779120841414,0.001020658795850913,0.23439090638709692,0.034323889674111256,-0.3780200183391571,-0.0670245885848999,-0.10157527774572372,-0.03191488981246948,-0.00445808470249176,0.011819250881671906,-0.18195894634580131,1.6380020886191229,2.9870434460064508,0.9812711477279663,0.18095652759075165,0.06604653596878052
1732227251100,SW,4.5392810904174326,0.9s : 0.3s,-15.991779120841414,0.0011022938343501528,0.23432014597715375,0.05222770015754822,-0.3292529881000519,-0.057815372943878174,-0.10721638053655624,-0.026807010173797607,0.044613778591156006,-0.004327543079853058,-0.18278168206807233,1.6379998388870076,2.990438728625083,0.9811221361160278,0.181765615940094,0.06603429466485977
1732227251110,SW,4.5392810904174326,0.9s : 0.3s,-15.991779120841414,0.0011499789744753163,0.22052993832180456,0.061348314122627784,-0.25909507274627686,-0.03658292070031166,-0.11228866875171661,-0.0027070045471191406,0.057646527886390686,-0.020812630653381348,-0.18371102546554288,1.6380793530486384,2.9933284874400616,0.9809480309486389,0.18267939984798431,0.06610093265771866
1732227251120,SW,4.5392810904174326,0.9s : 0.3s,-15.991779120841414,0.001260807737722588,0.1945859795299739,0.03734515579700785,-0.17183181643486023,-0.011361456476151943,-0.11944219470024109,-0.013817012310028076,0.033922284841537476,0.007282130420207977,-0.1847166846752834,1.6382752884835954,2.9953626125214963,0.9807511568069458,0.18366804718971252,0.06628070026636124
1732227251130,SW,4.5392810904174326,0.9s : 0.3s,-15.991779120841414,0.0014269800216604965,0.16180928668003344,0.05117672914568659,-0.10080290585756302,0.003503243438899517,-0.09345880150794983,-0.026425063610076904,0.04364372789859772,0.003999829292297363,-0.1857396892082582,1.6383676943494456,2.9964882404652387,0.9805572032928467,0.18467354774475098,0.06635861843824387
1732227251140,SW,4.5392810904174326,0.9s : 0.3s,-15.991779120841414,0.0016905018664168001,0.13821354950394377,0.060948394866158016,-0.09353354573249817,0.013518682681024075,-0.09422405064105988,-0.024383544921875,0.054578036069869995,0.011890649795532227,-0.1866155512211463,1.638641439846527,2.997261016999433,0.9803772568702698,0.1855342835187912,0.06661605089902878
1732227251150,SW,4.5392810904174326,0.9s : 0.3s,-15.991779120841414,0.001995476011113407,0.11926746181163117,0.046812599921024704,-0.0849754735827446,0.02757156267762184,-0.0782950222492218,-0.03243255615234375,0.033146440982818604,0.006392359733581543,-0.18741596499345411,1.6390460590873364,2.9980533937430183,0.980201780796051,0.1863207370042801,0.06700257211923599
1732227251160,SW,4.5392810904174326,0.9s : 0.3s,-15.991779120841414,0.002318356114258815,0.09762041510876449,0.041842416509082415,-0.04152626544237137,0.013458938337862492,-0.06488893926143646,-0.032295167446136475,0.026394814252853394,-0.003335230052471161,-0.18812226854553757,1.6393590565810379,2.9985977943430706,0.9800492525100708,0.1870146244764328,0.06730034202337265
1732227251170,SW,4.5392810904174326,0.9s : 0.3s,-15.991779120841414,0.002646630095235626,0.09061409708496558,0.047877010276697975,0.007158448453992605,-0.2621105909347534,0.4493653178215027,-0.026281654834747314,0.02937948703765869,-0.02717220038175583,-0.1880818348772325,1.6392678766655078,2.9987374257558854,0.9800629019737244,0.18697489798069,0.06721150130033493
1732227251180,SW,4.5392810904174326,0.9s : 0.3s,-15.991779120841414,0.0029888900727852693,0.2863943805896315,0.10493702832202573,0.056688714772462845,-0.4794345796108246,1.0760765075683594,0.09555363655090332,0.03719654679298401,-0.02230917662382126,-0.18891604735952994,1.6395792550953958,2.9982491135250844,0.979885995388031,0.18779434263706207,0.06750591844320297
1732227251190,SW,4.5392810904174326,0.9s : 0.3s,-15.991779120841414,0.0033736574870966967,0.2993526420389588,0.06230926142986145,0.20693667232990265,-0.1999821811914444,0.4493752717971802,0.0117301344871521,0.05481867492198944,-0.02719854563474655,-0.18944606568711217,1.639810991093662,2.9961739014308915,0.9797708988189697,0.18831489980220795,0.06772612035274506
1732227251200,SW,4.5392810904174326,0.9s : 0.3s,-15.991779120841414,0.003777286748444637,0.222477690958447,0.11852222240374441,0.35563185811042786,0.02846110239624977,-0.01058272086083889,-0.08658993244171143,0.057951465249061584,-0.05649184435606003,-0.18934803558952223,1.6392921215527436,2.992551179962154,0.9798243641853333,0.1882186233997345,0.06721900403499603
1732227251210,SW,4.5392810904174326,0.9s : 0.3s,-15.991779120841414,0.004184130058737107,0.2138012788802318,0.0854008147481467,0.44848963618278503,0.011991403065621853,0.046739354729652405,-0.04575091600418091,0.03310541808605194,-0.0640639066696167,-0.1893372930208319,1.6387350810707084,2.988172982733533,0.9798635244369507,0.18820807337760925,0.06667331606149673
1732227251220,SW,4.5392810904174326,0.9s : 0.3s,-15.991779120841414,0.004637941331770385,0.2590934661944385,0.07870296469446886,0.6227330565452576,0.007532739080488682,0.06078620254993439,-0.012952566146850586,0.035918161273002625,-0.06882058829069138,-0.1891922745137431,1.6378727275980338,2.9826927690131804,0.9799479246139526,0.18806564807891846,0.06583014130592346
1732227251230,SW,4.5392810904174326,0.9s : 0.3s,-15.991779120841414,0.005129597483455467,0.34886477342244226,0.0867367512344712,0.8555858731269836,0.004188563674688339,0.09682931751012802,-0.044029414653778076,0.03097441792488098,-0.06800926476716995,-0.18892802470654832,1.6363719925776825,2.9748477686183383,0.9800950884819031,0.18780609965324402,0.06436266750097275
1732227251240,SW,4.5392810904174326,0.9s : 0.3s,-15.991779120841414,0.00585382911145449,0.47410323331322457,0.12655871386381437,1.151801347732544,0.031367186456918716,0.09790443629026413,-0.03663724660873413,0.08510293066501617,-0.08621085435152054,-0.18858058134123135,1.6346219481866906,2.964522515069394,0.9802712202072144,0.18746483325958252,0.06265151500701904
1732227251250,SW,4.5392810904174326,0.9s : 0.3s,-15.991779120841414,0.006869346415359551,0.58132585385304,0.14775175005373253,1.2430340051651,0.05483771860599518,0.07342898845672607,-0.052850425243377686,0.12357760965824127,-0.06136763468384743,-0.18851103394541893,1.6327202555407987,2.952151238803362,0.9804016947746277,0.18739651143550873,0.06078804284334183
1732227251260,SW,4.5392810904174326,0.9s : 0.3s,-15.991779120841414,0.008069969271206422,0.6588800002753435,0.1455992641257853,1.2526741027832031,0.057942427694797516,0.0534273199737072,-0.06353867053985596,0.11985103785991669,-0.05289340019226074,-0.18865434000617295,1.6308797241854054,2.9393672554412733,0.9804851412773132,0.187537282705307,0.058981869369745255
1732227251270,SW,4.5392810904174326,0.9s : 0.3s,-15.991779120841414,0.009267152653232823,0.6838501593607935,0.09502570961102698,1.1061766147613525,0.042917050421237946,0.035040389746427536,-0.04279351234436035,0.07261306047439575,-0.04388558119535446,-0.18891518210837943,1.6291345456560147,2.927274299961223,0.9805377721786499,0.18779349327087402,0.05726781114935875
1732227251280,SW,4.5392810904174326,0.9s : 0.3s,-15.991779120841414,0.010323811994870858,0.6724941941274104,0.06595310808293967,0.9637347459793091,0.030413242056965828,0.00687586423009634,-0.014085888862609863,0.06422877311706543,-0.005105379968881607,-0.18935749598111712,1.6274976525540754,2.9168650615009946,0.9805470705032349,0.18822792172431946,0.05565797910094261
1732227251290,SW,4.5392810904174326,0.9s : 0.3s,-15.991779120841414,0.011220426334725185,0.6404646580121472,0.0523951958106107,0.8422785997390747,0.01489225123077631,0.034406423568725586,-0.0019948482513427734,0.05225464701652527,0.0032755136489868164,-0.18966414250625135,1.6260030829627006,2.9077335391711974,0.9805715680122375,0.18852907419204712,0.05418923869729042
1732227251300,SW,4.5392810904174326,0.9s : 0.3s,-15.991779120841414,0.011841876480751171,0.5802429249431491,0.02285701239490822,0.6565183401107788,-0.030065366998314857,-1.1203344911336899e-05,0.015207648277282715,-0.004285052418708801,-0.016516923904418945,-0.18988767212659835,1.6244668300445015,2.9001659282322696,0.9806115031242371,0.1887485831975937,0.05268050357699394
1732227251310,SW,4.5392810904174326,0.9s : 0.3s,-15.991779120841414,0.012273437061575757,0.5025282082655449,0.022899000346070036,0.47919735312461853,-0.06622186303138733,-0.023392358794808388,0.012172281742095947,-0.0190306156873703,-0.0037463903427124023,-0.19032842211815534,1.6228852425431322,2.8945028225770644,0.9806103706359863,0.1891814023256302,0.0511251762509346
1732227251320,SW,4.5392810904174326,0.9s : 0.3s,-15.991779120841414,0.012650388478402332,0.47647418939839886,0.020153122114646635,0.31054627895355225,-0.4233919680118561,0.5118598341941833,0.010565042495727539,-0.013259679079055786,-0.010895371437072754,-0.19026309342974315,1.6209010064160951,2.89054073734046,0.980722188949585,0.18911725282669067,0.049179933965206146
1732227251330,SW,4.5392810904174326,0.9s : 0.3s,-15.991779120841414,0.012857210575667442,0.4845799284065647,0.14466079474354931,0.15601889789104462,-0.8016444444656372,1.1428343057632446,0.14342659711837769,0.011152341961860657,-0.015204671770334244,-0.1915395278235146,1.61944142013158,2.888208762697209,0.9805510640144348,0.19037050008773804,0.04773665592074394
1732227251340,SW,4.5392810904174326,0.9s : 0.3s,-15.991779120841414,0.013114285226931002,0.4368737175994401,0.11018619087968788,0.14784565567970276,-0.38475266098976135,0.37651652097702026,0.09776502847671509,0.050802648067474365,-0.0014445818960666656,-0.1921997907298897,1.6182370700130526,2.885787359128755,0.9804819226264954,0.19101864099502563,0.0465497188270092
1732227251350,SW,4.5392810904174326,0.9s : 0.3s,-15.991779120841414,0.013421836350011514,0.32566396538169173,0.04123517303263899,0.13421520590782166,-0.09849777817726135,-0.07291150838136673,0.011054754257202148,0.039623528718948364,-0.002847433090209961,-0.19273825050056898,1.6167780768044597,2.8844029092490233,0.9804461002349854,0.19154715538024902,0.0451144278049469
1732227251360,SW,4.5392810904174326,0.9s : 0.3s,-15.991779120841414,0.013608858637399978,0.234906644958279,0.0216224556576028,0.01754983514547348,-0.11427674442529678,-0.08727579563856125,0.0048171281814575195,-0.007117748260498047,0.01984095573425293,-0.19351931088683602,1.6155413995537369,2.8839007806506367,0.9803513884544373,0.19231370091438293,0.04389519244432449
1732227251370,SW,4.5392810904174326,0.9s : 0.3s,-15.991779120841414,0.013537034360173745,0.1628009125861579,0.0853388240614793,-0.09776636958122253,-0.12906163930892944,-0.09143446385860443,0.056042373180389404,-0.047046512365341187,0.043915748596191406,-0.19441767434961466,1.6144009898631688,2.884594196741856,0.9802278280258179,0.19319520890712738,0.04276961460709572
1732227251380,SW,4.5392810904174326,0.9s : 0.3s,-15.991779120841414,0.013241600023529549,0.123424728086286,0.08513708983978024,-0.08296531438827515,-0.12642377614974976,-0.08097276091575623,0.030341744422912598,-0.06170928478240967,0.05019628256559372,-0.19527213233701796,1.6132624701384566,2.885693257782473,0.9801104068756104,0.19403350353240967,0.04164654761552811
1732227251390,SW,4.5392810904174326,0.9s : 0.3s,-15.991779120841414,0.01294125786892469,0.10695467904635624,0.06764504043106292,-0.05452116206288338,-0.12810830771923065,-0.03830346465110779,0.04504626989364624,-0.032691314816474915,0.03844428434967995,-0.19611652727859738,1.6121201518095725,2.886640019053595,0.9799935817718506,0.1948617845773697,0.04052015021443367
1732227251400,SW,4.5392810904174326,0.9s : 0.3s,-15.991779120841414,0.012648996545216062,0.10220239505521275,0.059044352199895886,-0.08441541343927383,-0.11006779223680496,0.0025691334158182144,0.029115021228790283,-0.020620018243789673,0.04704642295837402,-0.19707950175198774,1.6112131748117793,2.8876261279453415,0.979841947555542,0.19580620527267456,0.039623700082302094
1732227251410,SW,4.5392810904174326,0.9s : 0.3s,-15.991779120841414,0.012295853094734834,0.1002895125722494,0.08131859193988626,-0.0910368263721466,-0.13144880533218384,0.048516783863306046,0.015530943870544434,-0.04105246067047119,0.06845581531524658,-0.19813862492066725,1.6104883051547394,2.8887905693726132,0.9796625971794128,0.19684471189975739,0.03890518099069595
1732227251420,SW,4.5392810904174326,0.9s : 0.3s,-15.991779120841414,0.011911733311714487,0.09904766183440364,0.08270587871460104,-0.05984561890363693,-0.12683674693107605,0.10527992993593216,0.028689086437225342,-0.04110689461231232,0.06578314304351807,-0.19928371279032966,1.6099079007994208,2.8899878067631453,0.9794591665267944,0.1979672759771347,0.03832773491740227
1732227251430,SW,4.5392810904174326,0.9s : 0.3s,-15.991779120841414,0.011552588182270783,0.10770130272784821,0.08179183441629505,-0.06852472573518753,-0.1343310922384262,0.17711853981018066,0.01942431926727295,-0.01556020975112915,0.07791328430175781,-0.20041671368133326,1.6095435751545915,2.8910084836512926,0.9792483448982239,0.19907772541046143,0.0379621796309948
1732227251440,SW,4.5392810904174326,0.9s : 0.3s,-15.991779120841414,0.011139072773158754,0.13223796506322288,0.10097241027526686,-0.09675796329975128,-0.1580798327922821,0.24540679156780243,0.009245574474334717,-0.03773300349712372,0.09319961071014404,-0.2015241519665445,1.6093216226648293,2.892150859994137,0.9790358543395996,0.200162872672081,0.03773631528019905
1732227251450,SW,4.5392810904174326,0.9s : 0.3s,-15.991779120841414,0.010733758248564913,0.17380309764617557,0.09262533663513807,-0.1551058292388916,-0.1908319592475891,0.33894848823547363,0.011200964450836182,-0.05177944898605347,0.07597947120666504,-0.20254508849482153,1.6092133073909893,2.893698597217842,0.9788352251052856,0.20116303861141205,0.03762240335345268
1732227251460,SW,4.5392810904174326,0.9s : 0.3s,-15.991779120841414,0.010307988306151239,0.23171337643022397,0.10232960383973931,-0.21969494223594666,-0.24814799427986145,0.4426368176937103,0.01794034242630005,-0.06292997300624847,0.07867217063903809,-0.20330468417396483,1.6090717599811193,2.895732201758428,0.9786875247955322,0.20190705358982086,0.037477992475032806
1732227251470,SW,4.5392810904174326,0.9s : 0.3s,-15.991779120841414,0.009802271961844964,0.29632487784214284,0.11298509625695852,-0.24885109066963196,-0.28685957193374634,0.5509809255599976,0.013847053050994873,-0.08807049691677094,0.06940805912017822,-0.2037659678622381,1.6089215369784036,2.8982602218758684,0.9785997867584229,0.20235881209373474,0.03732740879058838
1732227251480,SW,4.5392810904174326,0.9s : 0.3s,-15.991779120841414,0.009349959690975428,0.35643282244145436,0.07719987362753593,-0.2505358159542084,-0.31558921933174133,0.6225488781929016,0.0006121397018432617,-0.05824601650238037,0.050664063543081284,-0.20413095717959956,1.6088371084081738,2.9004048530827164,0.9785289764404297,0.20271623134613037,0.03724197298288345
1732227251490,SW,4.5392810904174326,0.9s : 0.3s,-15.991779120841414,0.009018758111642973,0.40148229498697113,0.04056589035903315,-0.2623145878314972,-0.3214953541755676,0.6311786770820618,-0.016659140586853027,-0.01798965036869049,0.03231775015592575,-0.20443884931874162,1.6088448895498189,2.9027983115284965,0.978466272354126,0.2030177265405655,0.03724721074104309
1732227251500,SW,4.5392810904174326,0.9s : 0.3s,-15.991779120841414,0.008785264067128208,0.43454166960871865,0.027596100536745355,-0.24879848957061768,-0.32870134711265564,0.6417815089225769,-0.01616114377975464,-0.009619191288948059,0.0201948843896389,-0.20463262519574696,1.608869649238881,2.904990859814093,0.9784260988235474,0.20320746302604675,0.037269942462444305
1732227251510,SW,4.5392810904174326,0.9s : 0.3s,-15.991779120841414,0.008581775413838099,0.4587187124605191,0.01907728597566651,-0.23081190884113312,-0.3427847921848297,0.6474428772926331,-0.007240235805511475,-0.015711471438407898,-0.008041858673095703,-0.20469908955864005,1.6087691452223174,2.9068168721200536,0.9784164428710938,0.20327253639698029,0.037171099334955215
1732227251520,SW,4.5392810904174326,0.9s : 0.3s,-15.991779120841414,0.008386853599824776,0.4769604894718128,0.038580688082974615,-0.24625398218631744,-0.3585784137248993,0.6405493021011353,0.002640962600708008,-0.01988556981086731,-0.03295540809631348,-0.2047077131025437,1.6085467251579237,2.9085083395372826,0.9784229397773743,0.2032809853553772,0.036953411996364594
1732227251530,SW,4.5392810904174326,0.9s : 0.3s,-15.991779120841414,0.008200865452576036,0.4943985426855718,0.04202597509415741,-0.28787094354629517,-0.3750225305557251,0.642869770526886,0.011023402214050293,-0.014966696500778198,-0.037691712379455566,-0.20463971235329964,1.6082405120536019,2.9102817407243156,0.9784480929374695,0.20321440696716309,0.03665432333946228
1732227251540,SW,4.5392810904174326,0.9s : 0.3s,-15.991779120841414,0.007997620923885175,0.5153478060568659,0.05785775265627636,-0.3584444522857666,-0.4139116108417511,0.6427991986274719,0.02661299705505371,-0.031187251210212708,-0.040824297815561295,-0.20440641063038287,1.6077287612893345,2.9125632732486513,0.9785139560699463,0.2029859572649002,0.0361553430557251
1732227251550,SW,4.5392810904174326,0.9s : 0.3s,-15.991779120841414,0.007723514219135914,0.5380951829341166,0.06986250668927685,-0.4445834457874298,-0.4397277235984802,0.6320077180862427,0.03258955478668213,-0.047322869300842285,-0.039739612489938736,-0.20405522124546444,1.6070229965757052,2.915507789082295,0.9786103367805481,0.2026420682668686,0.03546731173992157
1732227251560,SW,4.5392810904174326,0.9s : 0.3s,-15.991779120841414,0.0074612093283297955,0.5648749846512227,0.05610348926370299,-0.5340973734855652,-0.47502952814102173,0.6209825277328491,0.028303146362304688,-0.02545197308063507,-0.04121565818786621,-0.20361382099770803,1.6061269510586504,2.919406302519268,0.9787311553955078,0.20220981538295746,0.034593578428030014
1732227251570,SW,4.5392810904174326,0.9s : 0.3s,-15.991779120841414,0.007248858051277543,0.5949184437658466,0.056730523481175785,-0.6288589835166931,-0.5040087103843689,0.6022867560386658,0.04137939214706421,0.003564506769180298,-0.03864443674683571,-0.20304321010199258,1.605008140096867,2.9242919214745604,0.9788842797279358,0.2016509473323822,0.033502478152513504
1732227251580,SW,4.5392810904174326,0.9s : 0.3s,-15.991779120841414,0.007098804715536604,0.6137982783807154,0.050204693192927606,-0.6298984289169312,-0.5014840364456177,0.5745203495025635,0.043054044246673584,0.01173439621925354,-0.023003574460744858,-0.2024758778460742,1.603725442536062,2.9297880654328874,0.9790408611297607,0.20109523832798004,0.03225060552358627
1732227251590,SW,4.5392810904174326,0.9s : 0.3s,-15.991779120841414,0.007031064615415997,0.6127096804716008,0.055979201732265615,-0.5304033160209656,-0.45720383524894714,0.5641157627105713,0.020792007446289062,0.04495854675769806,-0.026078583672642708,-0.20190921628246594,1.602514318865281,2.9346990958226224,0.9791927337646484,0.20054012537002563,0.03106844611465931
1732227251600,SW,4.5392810904174326,0.9s : 0.3s,-15.991779120841414,0.007177165023218232,0.5812434939892142,0.08787723658403196,-0.3679533898830414,-0.4008162021636963,0.5293660163879395,0.0048133134841918945,0.08138030767440796,-0.032809849828481674,-0.20138070799797825,1.6013912510208594,2.938296529531406,0.9793329834938049,0.20002232491970062,0.02997197024524212
1732227251610,SW,4.5392810904174326,0.9s : 0.3s,-15.991779120841414,0.007506178530690335,0.5281221291291448,0.09897712298095536,-0.14683005213737488,-0.3314768970012665,0.5166497826576233,-0.009267747402191162,0.09690280258655548,-0.017900463193655014,-0.20092470254126577,1.6004365069825028,2.940028830904692,0.9794522523880005,0.1995755136013031,0.029039645567536354
1732227251620,SW,4.5392810904174326,0.9s : 0.3s,-15.991779120841414,0.007964335040320143,0.46798850785598217,0.09416036011024065,0.0678444355726242,-0.2925625145435333,0.48508626222610474,-0.010983288288116455,0.09189409017562866,-0.017349841073155403,-0.20049257246268304,1.5994823286963604,2.9395744022638586,0.979565441608429,0.19915206730365753,0.028107525780797005
1732227251630,SW,4.5392810904174326,0.9s : 0.3s,-15.991779120841414,0.008477977818190024,0.4141443115241652,0.08469051153726948,0.29204583168029785,-0.2531319260597229,0.4473419189453125,-0.013795018196105957,0.08245395123958588,-0.013547182083129883,-0.2002383160181107,1.59840272077125,2.9370609375613825,0.9796459078788757,0.198902890086174,0.02705136314034462
1732227251640,SW,4.5392810904174326,0.9s : 0.3s,-15.991779120841414,0.009055071837520452,0.3858650958141406,0.09430870771823986,0.6042535901069641,-0.19142408668994904,0.4040466547012329,-0.02548503875732422,0.09002001583576202,-0.011876106262207031,-0.2002406524727909,1.5971643257043526,2.9317703355067466,0.979678213596344,0.19890518486499786,0.02583814226090908
1732227251650,SW,4.5392810904174326,0.9s : 0.3s,-15.991779120841414,0.009668227252615715,0.40599451030365646,0.10096534414971424,0.7684746980667114,-0.1272880584001541,0.3953658640384674,-0.03836721181869507,0.08755636215209961,-0.0324937105178833,-0.20029447930051966,1.59598385558476,2.9240019738604,0.9796971678733826,0.19895793497562408,0.024681370705366135
1732227251660,SW,4.5392810904174326,0.9s : 0.3s,-15.991779120841414,0.010280779792244623,0.44276488315265633,0.05898060406592084,0.794283390045166,-0.10657612234354019,0.36403724551200867,-0.03312122821807861,0.04721967875957489,-0.01232874020934105,-0.20025566185113472,1.594916376610937,2.9154733052181734,0.9797308444976807,0.1989198923110962,0.02363574132323265
1732227251670,SW,4.5392810904174326,0.9s : 0.3s,-15.991779120841414,0.010639354582830439,0.4741445052332672,0.029258378418235094,0.7750244736671448,-0.11144012212753296,0.33978909254074097,-0.016658425331115723,-0.02176302671432495,0.010243058204650879,-0.20022216811467985,1.5938218113995295,2.907047186844326,0.9797627329826355,0.19888706505298615,0.022563500329852104
1732227251680,SW,4.5392810904174326,0.9s : 0.3s,-15.991779120841414,0.010928863737347696,0.507181985767355,0.046299843887405066,0.8278666138648987,-0.11299674212932587,0.3173639476299286,0.0011917948722839355,-0.042413368821144104,0.01853001117706299,-0.20011850445394758,1.5925584469464973,2.8987072611517406,0.9798110723495483,0.1987854689359665,0.021326132118701935
1732227251690,SW,4.5392810904174326,0.9s : 0.3s,-15.991779120841414,0.011168447196449795,0.5499992068964626,0.010512253759901578,0.9381507039070129,-0.08741063624620438,0.2990908622741699,0.0022882819175720215,-0.0061921626329422,0.008180975914001465,-0.19995045729725855,1.5911131730934436,2.88952405519651,0.9798742532730103,0.1986207813024521,0.019910693168640137
1732227251700,SW,4.5392810904174326,0.9s : 0.3s,-15.991779120841414,0.011415930583177612,0.5897574271121647,0.03674275722727139,0.9890069365501404,-0.052151985466480255,0.28664058446884155,-0.013747572898864746,0.03091934323310852,-0.01431882195174694,-0.19963694722626035,1.5896411143980187,2.8794127190072225,0.9799647927284241,0.19831350445747375,0.018469413742423058
1732227251710,SW,4.5392810904174326,0.9s : 0.3s,-15.991779120841414,0.011664392575823204,0.591960485305116,0.03964516807228886,0.8674506545066833,-0.03746988624334335,0.25659602880477905,-0.02629232406616211,0.028158321976661682,-0.009357454255223274,-0.19920017796892703,1.588391612897067,2.8696741041371907,0.9800733923912048,0.1978853940963745,0.01724645122885704
1732227251720,SW,4.5392810904174326,0.9s : 0.3s,-15.991779120841414,0.011870738680654818,0.5649917956877282,0.03320988076335627,0.7189855575561523,-0.032366205006837845,0.2156054824590683,-0.0309029221534729,-0.011515215039253235,-0.003912212327122688,-0.19881172888449486,1.587364947037537,2.8614333049524494,0.9801673889160156,0.19750460982322693,0.01624150760471821
1732227251730,SW,4.5392810904174326,0.9s : 0.3s,-15.991779120841414,0.01184818114176844,0.5279839006262593,0.06854677560425734,0.6321046352386475,-0.04219935089349747,0.18328778445720673,-0.01862955093383789,-0.04720161855220795,-0.04608261585235596,-0.1984497571562448,1.586424782208489,2.8544411473223708,0.9802536368370056,0.19714975357055664,0.0153210973367095
1732227251740,SW,4.5392810904174326,0.9s : 0.3s,-15.991779120841414,0.011684621544918802,0.4925678347079788,0.06734254769376273,0.592390775680542,-0.02717512845993042,0.15409740805625916,-0.0007385611534118652,-0.04714319109916687,-0.04808318614959717,-0.19809446154972649,1.5854915311624511,2.848109432415153,0.9803375601768494,0.19680142402648926,0.014407297596335411
1732227251750,SW,4.5392810904174326,0.9s : 0.3s,-15.991779120841414,0.011504409704704064,0.4610618799648485,0.06328969309794884,0.5676705241203308,-0.025242473930120468,0.1178203597664833,0.012380242347717285,-0.03069537878036499,-0.05394542217254639,-0.19775326264336715,1.5845596065605876,2.8420834743657273,0.9804176092147827,0.19646687805652618,0.013494613580405712
1732227251760,SW,4.5392810904174326,0.9s : 0.3s,-15.991779120841414,0.011336188998414933,0.4378287862943459,0.05895857728721061,0.5721539855003357,-0.007837384007871151,0.07632271945476532,0.02268397808074951,-0.025178641080856323,-0.04824507236480713,-0.19752691609443357,1.583600585021766,2.8362331661547078,0.980474591255188,0.19624494016170502,0.012554936110973358
1732227251770,SW,4.5392810904174326,0.9s : 0.3s,-15.991779120841414,0.011190680489555327,0.4269979234782387,0.049209944778666054,0.6048925518989563,0.010003531351685524,0.04195459187030792,0.023184001445770264,-0.01681177318096161,-0.040018558502197266,-0.1974128444675881,1.5826334574135417,2.8301778836909204,0.9805086255073547,0.1961330771446228,0.011606951244175434
1732227251780,SW,4.5392810904174326,0.9s : 0.3s,-15.991779120841414,0.01108853105700163,0.4255013792341512,0.030487762283286847,0.6237162947654724,0.025291141122579575,0.011473379097878933,0.026501119136810303,0.005577564239501953,-0.014003039337694645,-0.1973458160121995,1.5816069447386651,2.823841898809486,0.9805330634117126,0.19606736302375793,0.010600581765174866
1732227251790,SW,4.5392810904174326,0.9s : 0.3s,-15.991779120841414,0.01105445452667315,0.41437761091042963,0.044940686379507766,0.5849363207817078,0.026787349954247475,0.007652974687516689,0.026475071907043457,0.03631429374217987,8.90493392944336e-05,-0.1973401973446474,1.5806491868744654,2.817652070973263,0.9805440306663513,0.1960618495941162,0.009661475196480751
1732227251800,SW,4.5392810904174326,0.9s : 0.3s,-15.991779120841414,0.011065170143825343,0.3936465292022115,0.03613304797052052,0.517594039440155,0.021440787240862846,0.0018605992663651705,0.019086182117462158,0.027974635362625122,0.012598991394042969,-0.197364267721715,1.5797490273754249,2.8119994137036235,0.9805476665496826,0.19608545303344727,0.008778784424066544
1732227251810,SW,4.5392810904174326,0.9s : 0.3s,-15.991779120841414,0.011097270829442583,0.3628800408245781,0.022965306913757585,0.4354541301727295,0.016823044046759605,-0.003686964511871338,0.008383750915527344,0.016100600361824036,0.014067292213439941,-0.19744483432295806,1.578967511069477,2.8073193444071687,0.9805383682250977,0.19616445899009705,0.008012338541448116
1732227251820,SW,4.5392810904174326,0.9s : 0.3s,-15.991779120841414,0.011157508691892885,0.3265764980778268,0.03810560420414855,0.3611290454864502,0.009053004905581474,-0.0014730789698660374,-0.0007451176643371582,0.0315365344285965,0.02137589454650879,-0.19752871651936185,1.5782678196380173,2.803259439411926,0.9805272817611694,0.1962466984987259,0.007326139137148857
1732227251830,SW,4.5392810904174326,0.9s : 0.3s,-15.991779120841414,0.011245362442560152,0.28625687958804935,0.04018103931253429,0.28625521063804626,0.012990621849894524,0.0056813363917171955,-0.006447970867156982,0.033678680658340454,0.020944833755493164,-0.19756935591061425,1.5776959059594733,2.799960893691303,0.9805232286453247,0.19628655910491943,0.0067653050646185875
1732227251840,SW,4.5392810904174326,0.9s : 0.3s,-15.991779120841414,0.011328086702527647,0.2475277499938386,0.0401973532198541,0.23365750908851624,0.0044357492588460445,0.015658870339393616,-0.013100743293762207,0.018358945846557617,0.03327381610870361,-0.19750702197943049,1.5772446792264239,2.7974979965751507,0.980538547039032,0.19622543454170227,0.0063229454681277275
1732227251850,SW,4.5392810904174326,0.9s : 0.3s,-15.991779120841414,0.011377079225154317,0.22052624790712788,0.04803125408565697,0.2342279553413391,0.00821477547287941,0.01327906921505928,-0.014317035675048828,0.013654083013534546,0.043767452239990234,-0.19738778956005196,1.5767976890949882,2.7952606564944413,0.980564534664154,0.19610852003097534,0.00588479358702898
1732227251860,SW,4.5392810904174326,0.9s : 0.3s,-15.991779120841414,0.011464763306105215,0.20696183927807055,0.05080825011534107,0.26051095128059387,0.026718683540821075,0.005177732557058334,-0.014545083045959473,0.031385958194732666,0.03721344470977783,-0.19732435290867462,1.5764479281657564,2.792839786282573,0.9805790185928345,0.19604630768299103,0.005541900638490915
1732227251870,SW,4.5392810904174326,0.9s : 0.3s,-15.991779120841414,0.011654027561325912,0.20413159885225682,0.07245385293519774,0.2799339294433594,0.04020830616354942,-0.009904547594487667,-0.016350507736206055,0.0540483295917511,0.04539823532104492,-0.19738349477936346,1.5762238638082646,2.7901040814902416,0.9805687069892883,0.19610430300235748,0.0053221252746880054
1732227251880,SW,4.5392810904174326,0.9s : 0.3s,-15.991779120841414,0.011944476963176307,0.20510072773135393,0.07473647070361651,0.3163987398147583,0.051768820732831955,-0.010215871036052704,-0.008265137672424316,0.06067512929439545,0.042845726013183594,-0.19753450260818575,1.5760572343118702,2.787067585088428,0.9805399179458618,0.19625237584114075,0.005158577114343643
1732227251890,SW,4.5392810904174326,0.9s : 0.3s,-15.991779120841414,0.012246568143497385,0.20809441175287402,0.04354010017600318,0.326551616191864,0.06676432490348816,-0.008910555392503738,-0.002976834774017334,0.030188724398612976,0.03123331069946289,-0.1976583014388374,1.5759957051297593,2.783927708189544,0.9805158376693726,0.19637376070022583,0.0050981189124286175
1732227251900,SW,4.5392810904174326,0.9s : 0.3s,-15.991779120841414,0.012524379944041838,0.2167113149515521,0.04230597101171893,0.3483477234840393,0.06098233908414841,-0.02420428954064846,-0.008859455585479736,0.0005189627408981323,0.04136466979980469,-0.19785189947845086,1.5759496189469047,2.78051950593814,0.9804781079292297,0.19656358659267426,0.005052735097706318
1732227251910,SW,4.5392810904174326,0.9s : 0.3s,-15.991779120841414,0.012800390389599837,0.23395238356050432,0.046782169085920554,0.402990460395813,0.06198564171791077,-0.04001061990857124,-0.011215150356292725,0.018489181995391846,0.04148423671722412,-0.19821455927984286,1.5757658681851776,2.7766989530730246,0.9804076552391052,0.19691915810108185,0.0048722168430686
1732227251920,SW,4.5392810904174326,0.9s : 0.3s,-15.991779120841414,0.013107562585808238,0.25628243933278116,0.050782082779909504,0.45044028759002686,0.07506521791219711,-0.06365922093391418,-0.011334657669067383,0.045803219079971313,0.018772602081298828,-0.1987740841437721,1.5755707187652177,2.7724836053820403,0.9802982807159424,0.19746769964694977,0.004680363927036524
1732227251930,SW,4.5392810904174326,0.9s : 0.3s,-15.991779120841414,0.013469780840662011,0.28010391806892226,0.06811220314068979,0.48750776052474976,0.08022749423980713,-0.08818081021308899,-0.017857074737548828,0.06346476078033447,0.017106175422668457,-0.19959181767594875,1.5753723741841903,2.7679836367634274,0.980137288570404,0.19826926290988922,0.004485186189413071
1732227251940,SW,4.5392810904174326,0.9s : 0.3s,-15.991779120841414,0.013992950076661782,0.3096537822184621,0.08965375525470728,0.5501368045806885,0.08889315277338028,-0.09069989621639252,-0.02407968044281006,0.08308088779449463,0.023569703102111816,-0.20053280740735716,1.575161665760733,2.7626917632673496,0.9799512624740601,0.19919149577617645,0.004277846775949001
1732227251950,SW,4.5392810904174326,0.9s : 0.3s,-15.991779120841414,0.014612968525466312,0.3460352691120497,0.09106683067749534,0.6296111345291138,0.08078914880752563,-0.09859517216682434,-0.025105774402618408,0.08646667003631592,0.013652205467224121,-0.20151556133295678,1.5747879667158966,2.7566916214820116,0.9797567129135132,0.20015445351600647,0.0039108567871153355
1732227251960,SW,4.5392810904174326,0.9s : 0.3s,-15.991779120841414,0.015273860044934983,0.3935055688094192,0.08730116500936684,0.7381898164749146,0.10395625233650208,-0.09475009888410568,-0.026638388633728027,0.08293022215366364,0.005870938301086426,-0.20255545542676656,1.5742896143500442,2.749710870606811,0.979549765586853,0.20117320120334625,0.003421862842515111
1732227251970,SW,4.5392810904174326,0.9s : 0.3s,-15.991779120841414,0.016012856923174043,0.4519615426962761,0.09751302117755342,0.8663961887359619,0.11122464388608932,-0.08105751872062683,-0.025830507278442383,0.09401404857635498,-0.0017125604208558798,-0.20346859534160347,1.573682514408844,2.7417744514462914,0.9793676733970642,0.20206758379936218,0.0028266466688364744
1732227251980,SW,4.5392810904174326,0.9s : 0.3s,-15.991779120841414,0.016773576236343617,0.506246528107196,0.08631023248539618,0.9305376410484314,0.13552358746528625,-0.07725612819194794,-0.01901090145111084,0.08268596231937408,-0.015845298767089844,-0.20430054684377788,1.573031691345024,2.732534607798934,0.9792007207870483,0.2028823047876358,0.002188874175772071
1732227251990,SW,4.5392810904174326,0.9s : 0.3s,-15.991779120841414,0.01751767700796784,0.5427517291273494,0.05473975875590943,0.9209535717964172,0.14312101900577545,-0.08441872894763947,-0.02096933126449585,0.05051107704639435,-0.002315044403076172,-0.20510490747170745,1.5725221903065798,2.7233605257740447,0.9790381789207458,0.20366987586021423,0.0016896879533305764
1732227252000,SW,4.5392810904174326,0.9s : 0.3s,-15.991779120841414,0.01809803378906797,0.5417201015600858,0.025542796828790522,0.7780928611755371,0.14120779931545258,-0.0697907879948616,-0.017500698566436768,0.017331525683403015,0.006765961647033691,-0.20595366185449937,1.572208556393185,2.7149977907818617,0.978865385055542,0.20450076460838318,0.001382383517920971
1732227252010,SW,4.5392810904174326,0.9s : 0.3s,-15.991779120841414,0.018554531477802505,0.5292165278751252,0.023325520125982605,0.7335869073867798,0.1094808503985405,-0.07128594815731049,0.002390444278717041,0.0020889490842819214,0.023108482360839844,-0.20666983712468018,1.5718342515688168,2.707578864013615,0.978719174861908,0.20520174503326416,0.0010158373042941093
1732227252020,SW,4.5392810904174326,0.9s : 0.3s,-15.991779120841414,0.018977690401186523,0.518947370222466,0.03208876717201645,0.7258930206298828,0.11384550482034683,-0.06495987623929977,0.01459360122680664,0.010687083005905151,-0.0265047550201416,-0.20739505566901362,1.5713892991166136,2.7004361648571145,0.9785705208778381,0.20591147243976593,0.0005802653031423688
1732227252030,SW,4.5392810904174326,0.9s : 0.3s,-15.991779120841414,0.019374335238002915,0.5079474857576515,0.05456082788171563,0.7076884508132935,0.11584163457155228,-0.0501844584941864,-0.007806360721588135,0.016928106546401978,-0.0512775182723999,-0.2079874081488365,1.5710074317233562,2.6933263510475354,0.9784483909606934,0.20649109780788422,0.00020655528351198882
1732227252040,SW,4.5392810904174326,0.9s : 0.3s,-15.991779120841414,0.01967953209517589,0.48524625504074287,0.06609033631471808,0.6341359615325928,0.10562814772129059,-0.042685531079769135,-0.016952693462371826,-0.003979220986366272,-0.06375503540039062,-0.20847375815010527,1.570675629398912,2.6864243885164636,0.9783480167388916,0.20696695148944855,-0.00011808405542979017
1732227252050,SW,4.5392810904174326,0.9s : 0.3s,-15.991779120841414,0.01982930914980456,0.451745612853916,0.0659383963706261,0.547982394695282,0.09106305241584778,-0.037192292511463165,-0.012608885765075684,-0.02770373225212097,-0.05849266052246094,-0.2088919344503893,1.570381238315842,2.680725601972481,0.978261411190033,0.20737604796886444,-0.00040606505353935063
1732227252060,SW,4.5392810904174326,0.9s : 0.3s,-15.991779120841414,0.019833276514910646,0.4192931343492377,0.0636336413855384,0.5026924014091492,0.08682649582624435,-0.04370292276144028,-0.00727158784866333,-0.03715208172798157,-0.0511476993560791,-0.20931631970851156,1.5701416043761538,2.67578727576328,0.9781731367111206,0.20779119431972504,-0.000640431942883879
1732227252070,SW,4.5392810904174326,0.9s : 0.3s,-15.991779120841414,0.019803065818176514,0.39763657649825385,0.05188815257031991,0.5087751746177673,0.0879688635468483,-0.031952690333127975,-0.0026441216468811035,-0.03006739914417267,-0.04220592975616455,-0.20970155722622985,1.569923049007322,2.6710006692440498,0.9780926704406738,0.20816799998283386,-0.0008541468414478004
1732227252080,SW,4.5392810904174326,0.9s : 0.3s,-15.991779120841414,0.019759025718900303,0.3729055891541819,0.04040307519973482,0.46177470684051514,0.07921770960092545,-0.03324352577328682,0.012148737907409668,-0.019735604524612427,-0.03309565782546997,-0.21002755595490316,1.5696881443141657,2.6663249705318375,0.9780245423316956,0.20848685503005981,-0.001083830138668418
1732227252090,SW,4.5392810904174326,0.9s : 0.3s,-15.991779120841414,0.01971090855034676,0.3444558351973025,0.02584841271011589,0.40821027755737305,0.05759337544441223,-0.04442187771201134,0.013013184070587158,-0.012447714805603027,-0.018543243408203125,-0.2104392125328582,1.5694429572255968,2.661900649993163,0.9779384732246399,0.208889439702034,-0.001323512988165021
1732227252100,SW,4.5392810904174326,0.9s : 0.3s,-15.991779120841414,0.019666844393007827,0.3282010661503564,0.015650526325179895,0.428466796875,0.03489738702774048,-0.05961787328124046,0.008865892887115479,-0.0052225589752197266,-0.011792361736297607,-0.21096178349633823,1.568999256027403,2.658014318095623,0.9778284430503845,0.2094004601240158,-0.001757228747010231
1732227252110,SW,4.5392810904174326,0.9s : 0.3s,-15.991779120841414,0.01965733394286415,0.3397818435770662,0.026011542503165917,0.5417249202728271,0.06309591233730316,-0.03926146775484085,0.003744184970855713,0.02268776297569275,-0.012159228324890137,-0.21149037759299133,1.5684066360522682,2.653462862419165,0.9777165651321411,0.20991730690002441,-0.00233644456602633
1732227252120,SW,4.5392810904174326,0.9s : 0.3s,-15.991779120841414,0.01980252287208152,0.3489763921683581,0.060569182059364506,0.5456839799880981,0.06902463734149933,-0.04655826464295387,-0.0024251341819763184,0.053326621651649475,-0.028618454933166504,-0.21189692205866767,1.5678862576442048,2.648231688589446,0.977629542350769,0.2103147655725479,-0.0028449776582419872
1732227252130,SW,4.5392810904174326,0.9s : 0.3s,-15.991779120841414,0.02000458951550556,0.3522901291314177,0.051996080841715836,0.5422728657722473,0.07196091115474701,-0.030646909028291702,-0.014849424362182617,0.04959835112094879,-0.0048052663914859295,-0.21230798229545372,1.5674236189654007,2.642997632958975,0.9775415658950806,0.2107166200876236,-0.003296974580734968
1732227252140,SW,4.5392810904174326,0.9s : 0.3s,-15.991779120841414,0.0202126494179417,0.35055765509150966,0.024459072822153115,0.49916398525238037,0.05684560537338257,-0.028546206653118134,-0.011964857578277588,0.02003951370716095,-0.007314801216125488,-0.21259162100071588,1.566899916919494,2.6380200911478755,0.9774800539016724,0.21099388599395752,-0.0038086820859462023
1732227252150,SW,4.5392810904174326,0.9s : 0.3s,-15.991779120841414,0.020418137515545217,0.337058047585134,0.020784290642934553,0.4500749111175537,0.06725994497537613,-0.021143455058336258,-0.004463851451873779,0.01538415253162384,0.013243436813354492,-0.21284287322494339,1.5664891019702412,2.6335439920823487,0.9774254560470581,0.21123947203159332,-0.004210017155855894
1732227252160,SW,4.5392810904174326,0.9s : 0.3s,-15.991779120841414,0.02062453777081993,0.312140364151437,0.023350840422611596,0.37363338470458984,0.061872899532318115,-0.01071451511234045,-0.0020171403884887695,0.01914513111114502,0.013215780258178711,-0.2130070973474612,1.5662206301852826,2.6297517924990967,0.9773895144462585,0.21139998733997345,-0.004472269210964441
1732227252170,SW,4.5392810904174326,0.9s : 0.3s,-15.991779120841414,0.02079955518031663,0.28003053592928245,0.01505698607809506,0.30231377482414246,0.045946527272462845,-0.005938034970313311,0.0070945024490356445,-0.00934283435344696,0.009438872337341309,-0.21308495050987594,1.5660101357866736,2.6267693378286117,0.9773720502853394,0.21147607266902924,-0.004677925258874893
1732227252180,SW,4.5392810904174326,0.9s : 0.3s,-15.991779120841414,0.020920717749805105,0.25317315486478004,0.035860251998651366,0.28117308020591736,0.040831927210092545,-0.00104580819606781,0.013651669025421143,-0.03181980550289154,0.00933218002319336,-0.2131326224945083,1.5657913607266838,2.6242468500617666,0.9773610234260559,0.2115226686000824,-0.004891699645668268
1732227252190,SW,4.5392810904174326,0.9s : 0.3s,-15.991779120841414,0.02100451716192774,0.24097705502845485,0.02495035331764946,0.3153280019760132,0.02955535054206848,-0.012902900576591492,0.00707244873046875,-0.023478716611862183,-0.004609822761267424,-0.21318498350221368,1.5654900601162989,2.621220770865146,0.977348268032074,0.21157385408878326,-0.005186119116842747
1732227252200,SW,4.5392810904174326,0.9s : 0.3s,-15.991779120841414,0.021084927540160434,0.24183145404965628,0.032528486167968086,0.3707566261291504,0.02491825446486473,-0.028863757848739624,0.000863492488861084,0.00024209916591644287,-0.03251612186431885,-0.21339469309672798,1.5649880952888218,2.6177076008627744,0.9773010611534119,0.21177880465984344,-0.0056764548644423485
1732227252210,SW,4.5392810904174326,0.9s : 0.3s,-15.991779120841414,0.02125381609317454,0.2501867380432931,0.05738004021112302,0.3991118371486664,0.03662719577550888,-0.03392862156033516,-0.000712275505065918,0.026902243494987488,-0.050677716732025146,-0.21371948988040246,1.5644293060051704,2.6137251895164235,0.9772289991378784,0.2120962291955948,-0.00622212141752243
1732227252220,SW,4.5392810904174326,0.9s : 0.3s,-15.991779120841414,0.02146365365338041,0.25326593318847723,0.052175381497210425,0.39644068479537964,0.04542841017246246,-0.024864554405212402,-0.008902668952941895,0.031684890389442444,-0.04048556089401245,-0.21400931529953615,1.5639455767395962,2.609984245220032,0.9771642684936523,0.21237945556640625,-0.006694412790238857
1732227252230,SW,4.5392810904174326,0.9s : 0.3s,-15.991779120841414,0.02166674117136165,0.252353347365864,0.037488187169311786,0.3610251843929291,0.041573040187358856,-0.01724432036280632,-0.008079230785369873,0.0040544867515563965,-0.03638201951980591,-0.21420904384359746,1.5635403299363981,2.606527090479129,0.9771192073822021,0.21257461607456207,-0.007090098224580288
1732227252240,SW,4.5392810904174326,0.9s : 0.3s,-15.991779120841414,0.02184073135075558,0.24990349895731725,0.03286157404148412,0.3501695990562439,0.02926178090274334,-0.005647317506372929,0.0019875764846801758,-0.015781790018081665,-0.0287553071975708,-0.21431821153696548,1.563090037815081,2.603278842850105,0.9770926833152771,0.21268129348754883,-0.007529907394200563
1732227252250,SW,4.5392810904174326,0.9s : 0.3s,-15.991779120841414,0.021979202488804993,0.24907656076018742,0.03807208407474925,0.3602699041366577,0.022617461159825325,0.0027408404275774956,0.01009291410446167,-0.02421461045742035,-0.02759110927581787,-0.21431282136404559,1.5625700659163329,2.600115814364499,0.9770898222923279,0.2126760184764862,-0.008037976920604706
1732227252260,SW,4.5392810904174326,0.9s : 0.3s,-15.991779120841414,0.022091730677802898,0.2658695779198376,0.029489736674636568,0.4544438123703003,0.030482042580842972,0.015282997861504555,0.004370272159576416,-0.01842544972896576,-0.022606372833251953,-0.21421285882806668,1.5619193650707162,2.5964112023503967,0.9771055579185486,0.21257834136486053,-0.008673956617712975
1732227252270,SW,4.5392810904174326,0.9s : 0.3s,-15.991779120841414,0.02220484974313908,0.29919596345537997,0.04299169240911663,0.5601510405540466,0.04266999661922455,0.0375632680952549,0.00013124942779541016,-0.001418188214302063,-0.04296809434890747,-0.2139070371767903,1.561161485279435,2.5911851421845014,0.9771637916564941,0.21227949857711792,-0.009415109641849995
1732227252280,SW,4.5392810904174326,0.9s : 0.3s,-15.991779120841414,0.022324801999898745,0.32817708450897504,0.043288969458063396,0.5868388414382935,0.04317227005958557,0.05545784533023834,0.003447413444519043,0.003527998924255371,-0.0430070161819458,-0.21338934197554707,1.5603435943806625,2.5856378284571564,0.977265477180481,0.2117735743522644,-0.01021546684205532
1732227252290,SW,4.5392810904174326,0.9s : 0.3s,-15.991779120841414,0.022420213639468514,0.3518512049466362,0.04200704474594214,0.6043990850448608,0.028250712901353836,0.05078522861003876,0.0019745826721191406,-0.023665502667427063,-0.034650206565856934,-0.21279851154598967,1.559397741802466,2.5795916015172615,0.9773803949356079,0.21119610965251923,-0.011141235940158367
1732227252300,SW,4.5392810904174326,0.9s : 0.3s,-15.991779120841414,0.022462542016859353,0.3744104002843163,0.05188209905135164,0.6338853240013123,0.02904380112886429,0.050835296511650085,-0.00452035665512085,-0.04495541751384735,-0.025501549243927002,-0.21225615095046121,1.5582975422019036,2.573771601904395,0.9774818420410156,0.21066595613956451,-0.012217971496284008
1732227252310,SW,4.5392810904174326,0.9s : 0.3s,-15.991779120841414,0.02247253850836562,0.37857283555950977,0.03782664021683467,0.5857919454574585,0.021439900621771812,0.0513126365840435,-0.0027227401733398438,-0.03449356555938721,-0.015285134315490723,-0.21166883850062532,1.5572136521786821,2.567951353780319,0.9775915741920471,0.21009178459644318,-0.013279125094413757
1732227252320,SW,4.5392810904174326,0.9s : 0.3s,-15.991779120841414,0.022458283764610794,0.3674147874662924,0.033468888430743644,0.5081600546836853,-0.002259304514154792,0.03498532995581627,-0.004902005195617676,-0.029921099543571472,-0.014172672294080257,-0.21117469244623924,1.55613968434813,2.562862215710293,0.9776802659034729,0.20960864424705505,-0.014330536127090454
1732227252330,SW,4.5392810904174326,0.9s : 0.3s,-15.991779120841414,0.022423471668008368,0.35266557651597047,0.03799093568692881,0.47433269023895264,-0.023657670244574547,0.026091136038303375,-0.009273529052734375,-0.0309000164270401,-0.02006244845688343,-0.21083384934360427,1.5549233128307385,2.5583213974447223,0.9777337312698364,0.20927536487579346,-0.015520884655416012
1732227252340,SW,4.5392810904174326,0.9s : 0.3s,-15.991779120841414,0.022407452205312758,0.3435475657066591,0.03089003763494947,0.4800336956977844,-0.025465158745646477,0.01998104527592659,-0.004022479057312012,0.0005303919315338135,-0.030622422695159912,-0.21052452316146467,1.5536300440257735,2.553882127511503,0.9777774214744568,0.20897287130355835,-0.016786452382802963
1732227252350,SW,4.5392810904174326,0.9s : 0.3s,-15.991779120841414,0.022549068745097305,0.33742588628823866,0.06237418630560496,0.47528690099716187,-0.04268648847937584,-0.00546812079846859,-0.005509138107299805,0.045730337500572205,-0.042058587074279785,-0.21038061160623894,1.5522804372525854,2.549568897944431,0.9777839779853821,0.20883212983608246,-0.018106609582901
1732227252360,SW,4.5392810904174326,0.9s : 0.3s,-15.991779120841414,0.022959082780692162,0.3486120696879116,0.0932893264917548,0.5576350688934326,-0.05395885184407234,-0.02503729611635208,-0.01666080951690674,0.0826018899679184,-0.04002803564071655,-0.21046773365565966,1.5506870862403372,2.54478650625816,0.9777356386184692,0.20891733467578888,-0.01966417208313942
1732227252370,SW,4.5392810904174326,0.9s : 0.3s,-15.991779120841414,0.023642839781242677,0.3791909920120056,0.11814261005083583,0.6704822182655334,-0.036987677216529846,-0.01771639846265316,-0.009579896926879883,0.10717448592185974,-0.04878044128417969,-0.2105865049834612,1.5488854978882924,2.5388883278073657,0.9776738286018372,0.20903348922729492,-0.021425072103738785
1732227252380,SW,4.5392810904174326,0.9s : 0.3s,-15.991779120841414,0.024569778582225737,0.4139517594451044,0.13335248770580807,0.736265242099762,-0.044748395681381226,-0.020624570548534393,-0.0019769668579101562,0.12490622699260712,-0.046662747859954834,-0.2106166869473596,1.5469377633206676,2.532061926965708,0.9776241183280945,0.20906299352645874,-0.023329133167862892
1732227252390,SW,4.5392810904174326,0.9s : 0.3s,-15.991779120841414,0.025637176653582856,0.4445555961967795,0.12460058273077139,0.7677854299545288,-0.04041681066155434,-0.004295830149203539,-0.0045583248138427734,0.11649955809116364,-0.043958842754364014,-0.21058450434811996,1.5448900950699762,2.524726298194303,0.9775807857513428,0.20903152227401733,-0.025331102311611176
1732227252400,SW,4.5392810904174326,0.9s : 0.3s,-15.991779120841414,0.026707389971702192,0.4584052502423261,0.09860341718693555,0.7295147776603699,-0.05204257369041443,0.00864899717271328,0.0029134750366210938,0.08758057653903961,-0.04520827531814575,-0.21036970882836017,1.5427978688691733,2.517441983611011,0.9775705337524414,0.20882147550582886,-0.027377622202038765
1732227252410,SW,4.5392810904174326,0.9s : 0.3s,-15.991779120841414,0.02767406357799432,0.45832654603362105,0.06250611279757509,0.679619312286377,-0.05861698463559151,0.018075022846460342,0.010381758213043213,0.044532909989356995,-0.04261517524719238,-0.21004475573274936,1.540709235248556,2.5106225623824097,0.9775790572166443,0.20850367844104767,-0.02942138910293579
1732227252420,SW,4.5392810904174326,0.9s : 0.3s,-15.991779120841414,0.02843205872891687,0.44529096092768206,0.040972627758694743,0.6147281527519226,-0.07005766034126282,0.020123258233070374,0.009235262870788574,0.011368095874786377,-0.03826529160141945,-0.2096623930132283,1.5386659044587911,2.50438643964561,0.9775965213775635,0.20812970399856567,-0.03142140433192253
1732227252430,SW,4.5392810904174326,0.9s : 0.3s,-15.991779120841414,0.029063893784004802,0.4264749845490915,0.041711606128647646,0.5657103061676025,-0.07342122495174408,0.01936252787709236,0.0012728571891784668,-0.00968906283378601,-0.04055070877075195,-0.20928800547282364,1.5366515815597044,2.498747663551115,0.9776090383529663,0.20776349306106567,-0.03339318931102753
1732227252440,SW,4.5392810904174326,0.9s : 0.3s,-15.991779120841414,0.02957028866354245,0.40145920481154923,0.03436184846270701,0.5062320232391357,-0.07115834951400757,0.02850862219929695,-0.005476057529449463,-0.024641796946525574,-0.02331375703215599,-0.20888151681640169,1.5347716240804499,2.493744767495674,0.977628767490387,0.20736585557460785,-0.035234030336141586
1732227252450,SW,4.5392810904174326,0.9s : 0.3s,-15.991779120841414,0.030003642065718948,0.3755006423898412,0.031410925958363554,0.4626287817955017,-0.08033164590597153,0.02588031440973282,-0.0033666491508483887,-0.028815343976020813,-0.012041091918945312,-0.20843730854828138,1.5329682888978362,2.4892440791622574,0.9776556491851807,0.20693127810955048,-0.037000443786382675
1732227252460,SW,4.5392810904174326,0.9s : 0.3s,-15.991779120841414,0.030365154291176782,0.348696440649814,0.035855890794947394,0.4176977872848511,-0.09018534421920776,0.020283948630094528,-0.007695376873016357,-0.03380990028381348,-0.009127799421548843,-0.20805247351996772,1.5311465356886436,2.4851729630150867,0.9776662588119507,0.20655477046966553,-0.03878458961844444
1732227252470,SW,4.5392810904174326,0.9s : 0.3s,-15.991779120841414,0.030667647869341168,0.3209046571941028,0.027812893722529528,0.37120485305786133,-0.09127706289291382,0.02472117356956005,-0.010185956954956055,-0.02572588622570038,-0.002825263887643814,-0.20769703016209531,1.5293852172094964,2.481592492817071,0.9776696562767029,0.20620697736740112,-0.04050954431295395
1732227252480,SW,4.5392810904174326,0.9s : 0.3s,-15.991779120841414,0.030922551143993726,0.29433229835514874,0.019715980366697156,0.33316531777381897,-0.0969911441206932,0.02903948910534382,-0.006108224391937256,-0.018745869398117065,4.309415817260742e-05,-0.20730025157259976,1.5276879019981886,2.478403397586746,0.9776811599731445,0.20581871271133423,-0.042172420769929886
1732227252490,SW,4.5392810904174326,0.9s : 0.3s,-15.991779120841414,0.031129841534576756,0.2686903134066437,0.023760703056441575,0.29531392455101013,-0.10075884312391281,0.03207259625196457,0.0012940168380737305,-0.02367641031742096,-0.001524507999420166,-0.2068812697906986,1.5260020427919057,2.475618812312675,0.9776946902275085,0.20540867745876312,-0.0438244491815567
1732227252500,SW,4.5392810904174326,0.9s : 0.3s,-15.991779120841414,0.031297091885949486,0.23841003495972496,0.01958811589510516,0.23006436228752136,-0.10214502364397049,0.03515760228037834,0.0027083158493041992,-0.01933586597442627,0.0015759430825710297,-0.20643757454783954,1.5244114375620532,2.4734148523415445,0.9777147769927979,0.20497442781925201,-0.045383747667074203
1732227252510,SW,4.5392810904174326,0.9s : 0.3s,-15.991779120841414,0.03143589610637837,0.20643183865564413,0.012176366062981402,0.1737133413553238,-0.09565307199954987,0.03714967891573906,-0.0031894445419311523,-0.011416926980018616,0.002783004194498062,-0.20600141549166007,1.5229782963795075,2.471800959347388,0.9777377843856812,0.20454750955104828,-0.04678916186094284
1732227252520,SW,4.5392810904174326,0.9s : 0.3s,-15.991779120841414,0.031549119637687334,0.17427391842784962,0.013206490658722944,0.11928551644086838,-0.0925518274307251,0.04526885971426964,-0.00357663631439209,-0.007766634225845337,0.010064713656902313,-0.20553031652958867,1.521715633929924,2.4707925637936237,0.9777742028236389,0.20408634841442108,-0.048028405755758286
1732227252530,SW,4.5392810904174326,0.9s : 0.3s,-15.991779120841414,0.03164028402959007,0.14730690014600364,0.0194260726445148,0.090781569480896,-0.09040465205907822,0.05007603392004967,0.0018864870071411133,-0.0018615275621414185,0.01924443244934082,-0.2050315650350343,1.5205566169450262,2.470208883409437,0.9778193235397339,0.20359806716442108,-0.0491667315363884
1732227252540,SW,4.5392810904174326,0.9s : 0.3s,-15.991779120841414,0.03172097894813343,0.12723624301512587,0.021289924219367585,0.0796133354306221,-0.08636144548654556,0.05593205615878105,-0.0008767247200012207,0.007884413003921509,0.019756726920604706,-0.20445950258728532,1.5194769971590374,2.4697561227366878,0.977881908416748,0.20303794741630554,-0.05022834613919258
1732227252550,SW,4.5392810904174326,0.9s : 0.3s,-15.991779120841414,0.031787700847459695,0.11463381268439261,0.02288876963974563,0.08719576150178909,-0.07907268404960632,0.059382613748311996,-0.005936861038208008,0.004263833165168762,0.021690301597118378,-0.20385612599880695,1.5184580498996143,2.4693337289398554,0.9779524207115173,0.2024471014738083,-0.051231130957603455
1732227252560,SW,4.5392810904174326,0.9s : 0.3s,-15.991779120841414,0.03183477423141206,0.1054979400713885,0.02426804297044904,0.08534086495637894,-0.07526702433824539,0.0590587742626667,-0.0012843608856201172,-0.0012034028768539429,0.024204134941101074,-0.2032219830418383,1.5174859910214311,2.4688667585943453,0.9780299663543701,0.2018260508775711,-0.052188556641340256
1732227252570,SW,4.5392810904174326,0.9s : 0.3s,-15.991779120841414,0.03185846314463578,0.09696793141304615,0.02598448032561797,0.08162123709917068,-0.0628727599978447,0.052798882126808167,-0.0017015337944030762,-0.0036136656999588013,0.025675658136606216,-0.20266049967259958,1.5165961349675368,2.46846383670359,0.9780961871147156,0.20127609372138977,-0.053064972162246704
1732227252580,SW,4.5392810904174326,0.9s : 0.3s,-15.991779120841414,0.03181442842306349,0.09599543610508153,0.03874985501086981,0.09195083379745483,-0.063691146671772,0.07048892974853516,-0.01189333200454712,-0.006560221314430237,0.036291368305683136,-0.20199232333004172,1.5157813324999998,2.467620864581973,0.9781865477561951,0.20062154531478882,-0.05386928841471672
1732227252590,SW,4.5392810904174326,0.9s : 0.3s,-15.991779120841414,0.03175949929259557,0.091831680594163,0.015379751626344864,0.06484317779541016,-0.08076205849647522,0.047418396919965744,-0.0035152435302734375,-0.010599493980407715,0.01057499647140503,-0.20136498769816977,1.5148579512850298,2.466819769593174,0.9782620072364807,0.20000691711902618,-0.0547795370221138
1732227252600,SW,4.5392810904174326,0.9s : 0.3s,-15.991779120841414,0.03170684160119319,0.08665442362265263,0.007765775234086283,0.05591946467757225,-0.07398484647274017,0.04871349036693573,-0.004038810729980469,-0.005491703748703003,-0.003719739615917206,-0.20085506439356385,1.5142058929784064,2.4667274942216215,0.9783276915550232,0.19950728118419647,-0.05542316287755966
1732227252610,SW,4.5392810904174326,0.9s : 0.3s,-15.991779120841414,0.03166448577745566,0.0853253600944853,0.015402873479840453,0.07853449136018753,-0.06153128668665886,0.044839926064014435,-0.013188958168029785,0.006315961480140686,0.004838235676288605,-0.20039061388541793,1.5138236529674545,2.4661676209314627,0.978398859500885,0.1990521401166916,-0.05580238997936249
1732227252620,SW,4.5392810904174326,0.9s : 0.3s,-15.991779120841414,0.03163701242913541,0.08504562835733194,0.031681436619470614,0.10971717536449432,-0.05207120254635811,0.03718014061450958,-0.03042435646057129,0.007754474878311157,0.00423557311296463,-0.20010608245374756,1.5135071765133647,2.4653185738348253,0.978437602519989,0.19877329468727112,-0.05611526221036911
1732227252630,SW,4.5392810904174326,0.9s : 0.3s,-15.991779120841414,0.03163376550090756,0.09173930073283484,0.032391474314585354,0.15134012699127197,-0.05778239294886589,0.03815788775682449,-0.021174192428588867,0.02190735936164856,0.010996762663125992,-0.19978658195554613,1.5131350166232862,2.464099548603162,0.9784801006317139,0.1984601616859436,-0.056483056396245956
1732227252640,SW,4.5392810904174326,0.9s : 0.3s,-15.991779120841414,0.03167296837245316,0.10674492771736618,0.036539323602428196,0.20654985308647156,-0.06534337252378464,0.026896975934505463,0.0010257363319396973,0.03486098349094391,0.010898709297180176,-0.19939847703145508,1.5126160251613372,2.462403154720523,0.9785275459289551,0.19807976484298706,-0.05699535086750984
1732227252650,SW,4.5392810904174326,0.9s : 0.3s,-15.991779120841414,0.03179668278256129,0.13290754549388042,0.045415040100460276,0.29347968101501465,-0.05861471965909004,0.003460693173110485,-0.006512999534606934,0.04447953402996063,0.006455831229686737,-0.19912827271083938,1.5119669208622577,2.4599934301032804,0.9785438179969788,0.1978149116039276,-0.0576336532831192
1732227252660,SW,4.5392810904174326,0.9s : 0.3s,-15.991779120841414,0.032099384730802275,0.16969162481601777,0.06918437936471275,0.3852916359901428,-0.047623321413993835,-0.0044507598504424095,-0.01811915636062622,0.06645965576171875,-0.006425626575946808,-0.1989805565409778,1.511363683018364,2.4565944359986145,0.9785380363464355,0.1976701021194458,-0.05822567641735077
1732227252670,SW,4.5392810904174326,0.9s : 0.3s,-15.991779120841414,0.03254968480371404,0.20335030708829271,0.0769904220299298,0.4226769506931305,-0.028118109330534935,0.015287891030311584,-0.011900901794433594,0.07604499161243439,-0.0017472468316555023,-0.1986351892836839,1.5103292653597482,2.452542670174377,0.9785451889038086,0.19733154773712158,-0.059241969138383865
1732227252680,SW,4.5392810904174326,0.9s : 0.3s,-15.991779120841414,0.03303762922043463,0.23466283600294296,0.07288306801925659,0.4584408104419708,-0.03002679906785488,0.022748736664652824,0.0016058087348937988,0.07132810354232788,0.014888405799865723,-0.19813912921487647,1.5091622421907094,2.448033853329736,0.9785730838775635,0.19684520363807678,-0.06038994342088699
1732227252690,SW,4.5392810904174326,0.9s : 0.3s,-15.991779120841414,0.0335309958632886,0.26053475193019526,0.051327179609650476,0.4774557650089264,-0.029070189222693443,0.022156449034810066,0.002932310104370117,0.05124334990978241,3.762543201446533e-06,-0.19769203865785426,1.5079902891237476,2.443314718874366,0.9785892367362976,0.19640684127807617,-0.06154225394129753
1732227252700,SW,4.5392810904174326,0.9s : 0.3s,-15.991779120841414,0.034011307547953125,0.2851349510676572,0.03491452175787479,0.5110198855400085,-0.014564750716090202,0.013848451897501945,-0.002050638198852539,0.03471513092517853,0.003111012279987335,-0.19729046690856775,1.5068627735536577,2.438296588631432,0.97859787940979,0.19601307809352875,-0.06265062093734741
1732227252710,SW,4.5392810904174326,0.9s : 0.3s,-15.991779120841414,0.03448158499509711,0.3075940178126222,0.03573346543433793,0.5369403958320618,-0.011111252941191196,0.007855075411498547,-0.00939035415649414,0.034477218985557556,-0.00015222281217575073,-0.19703517927484684,1.5058347497562694,2.4329813117268944,0.9785828590393066,0.1957627385854721,-0.06365986168384552
1732227252720,SW,4.5392810904174326,0.9s : 0.3s,-15.991779120841414,0.03495380059549664,0.3247697922176748,0.04403118216020666,0.5439711213111877,-0.0075293006375432014,0.007022837642580271,-0.014291167259216309,0.03957931697368622,-0.01296091079711914,-0.19662486927900977,1.504630633862568,2.4274815448239524,0.9785856604576111,0.19536034762859344,-0.06484345346689224
1732227252730,SW,4.5392810904174326,0.9s : 0.3s,-15.991779120841414,0.03541976901666597,0.3334569685917896,0.03983010031069316,0.5272892713546753,-0.004596938379108906,0.005787496455013752,-0.01951313018798828,0.029495522379875183,-0.01832181215286255,-0.19621803685945546,1.5034717623810643,2.42200080777638,0.9785891175270081,0.1949613392353058,-0.06598280370235443
1732227252740,SW,4.5392810904174326,0.9s : 0.3s,-15.991779120841414,0.035864163741927,0.3332518764819211,0.03311054115627614,0.4938439428806305,-0.005006798543035984,0.008522562682628632,-0.022312700748443604,0.013236939907073975,-0.020572669804096222,-0.19580617336716669,1.5023782377234158,2.4168218520097646,0.9785964488983154,0.19455736875534058,-0.06705836206674576
1732227252750,SW,4.5392810904174326,0.9s : 0.3s,-15.991779120841414,0.03626124481008924,0.32460477156696566,0.028442816160851696,0.4534393846988678,-0.008679963648319244,0.011021973565220833,-0.016041040420532227,-0.012551471590995789,-0.01985294371843338,-0.19537170697994238,1.5013524266727152,2.412544248971093,0.978611409664154,0.19413118064403534,-0.06806804239749908
1732227252760,SW,4.5392810904174326,0.9s : 0.3s,-15.991779120841414,0.03660281958751807,0.30907092790456264,0.0348966897008048,0.4062228798866272,-0.016505928710103035,0.005026665050536394,-0.010046243667602539,-0.02508498728275299,-0.022081561386585236,-0.19500457111585653,1.5003449059029754,2.4087535610960917,0.9786133170127869,0.19377101957798004,-0.06905899196863174
1732227252770,SW,4.5392810904174326,0.9s : 0.3s,-15.991779120841414,0.036896379739071866,0.2922616782857551,0.036148296698377345,0.3764376938343048,-0.020955316722393036,0.010325256735086441,-0.010869979858398438,-0.024139806628227234,-0.024613261222839355,-0.19464771112735318,1.4993506946715986,2.4053401049394405,0.9786129593849182,0.1934209167957306,-0.07003682851791382
1732227252780,SW,4.5392810904174326,0.9s : 0.3s,-15.991779120841414,0.03714667670528749,0.28149472693609806,0.0339391173463442,0.38145482540130615,-0.020425347611308098,0.007110555190593004,-0.008274078369140625,-0.023371070623397827,-0.02317749708890915,-0.19429962915446644,1.4983718407293753,2.402108792715322,0.9786109924316406,0.1930793970823288,-0.07099957764148712
1732227252790,SW,4.5392810904174326,0.9s : 0.3s,-15.991779120841414,0.03737382594001344,0.27553640426792264,0.03879568932604555,0.3833697736263275,-0.02689483016729355,0.0018110314849764109,-0.011664271354675293,-0.013025224208831787,-0.03463226556777954,-0.1939882505264519,1.4973581357335264,2.3988244042868017,0.9785984754562378,0.19277386367321014,-0.07199598103761673
1732227252800,SW,4.5392810904174326,0.9s : 0.3s,-15.991779120841414,0.03758841298262804,0.27177383070363687,0.03470541709196263,0.3801654577255249,-0.031458158046007156,0.0015945164486765862,-0.005934357643127441,-0.004368573427200317,-0.03391408175230026,-0.1937033231760971,1.496285351793408,2.395482442571387,0.9785753488540649,0.19249427318572998,-0.07304984331130981
1732227252810,SW,4.5392810904174326,0.9s : 0.3s,-15.991779120841414,0.03779387515613875,0.270376497195065,0.03383814275658109,0.38363462686538696,-0.028813418000936508,0.003734732512384653,-0.007011115550994873,-0.002230599522590637,-0.033028602600097656,-0.19340613110158317,1.495213344099765,2.3921574574048448,0.9785535335540771,0.192202627658844,-0.07410316169261932
1732227252820,SW,4.5392810904174326,0.9s : 0.3s,-15.991779120841414,0.03798757308830677,0.26958173479975484,0.03224285299530501,0.3901212811470032,-0.025953980162739754,0.008864246308803558,-0.0123099684715271,-0.005039021372795105,-0.029371321201324463,-0.19304933644516165,1.494147633244993,2.3887161349310726,0.9785423278808594,0.19185248017311096,-0.0751512199640274
1732227252830,SW,4.5392810904174326,0.9s : 0.3s,-15.991779120841414,0.03816472798019764,0.2667695295515938,0.0291865631649022,0.3740653395652771,-0.03290669620037079,0.01242209691554308,-0.01283729076385498,-0.009207934141159058,-0.024541258811950684,-0.19266399706273574,1.4930846511185203,2.385406022783968,0.9785355925559998,0.19147427380084991,-0.07619708776473999
1732227252840,SW,4.5392810904174326,0.9s : 0.3s,-15.991779120841414,0.03832569747162996,0.26648722749610815,0.029134411260058543,0.39207229018211365,-0.028116468340158463,0.017002999782562256,-0.01285243034362793,-0.010495379567146301,-0.02394735813140869,-0.192234500714493,1.4920164592335143,2.3815265196653588,0.9785354733467102,0.19105270504951477,-0.07724876701831818
1732227252850,SW,4.5392810904174326,0.9s : 0.3s,-15.991779120841414,0.03848383503966776,0.26691559116368474,0.03417627845880422,0.4026852548122406,-0.016216043382883072,0.02923123724758625,-0.017638325691223145,-0.0020982474088668823,-0.029197685420513153,-0.19168557791903046,1.4909971026787114,2.377891463046563,0.9785605669021606,0.19051386415958405,-0.07825455069541931
1732227252860,SW,4.5392810904174326,0.9s : 0.3s,-15.991779120841414,0.038638729400294745,0.2666439649155519,0.027394998566673406,0.3928731083869934,-0.010780798271298409,0.0356539823114872,-0.017057716846466064,0.00021073222160339355,-0.021435387432575226,-0.19105890872014952,1.4900602494901198,2.3742561383770986,0.9786057472229004,0.18989863991737366,-0.07918090373277664
1732227252870,SW,4.5392810904174326,0.9s : 0.3s,-15.991779120841414,0.03878333293731274,0.2658503825904469,0.024657083925415782,0.38431063294410706,-0.009160131216049194,0.04264521226286888,-0.014878988265991211,-0.0058078765869140625,-0.01878446340560913,-0.19035078944871797,1.489186855819281,2.3708871726720973,0.9786698818206787,0.18920336663722992,-0.08004651963710785
1732227252880,SW,4.5392810904174326,0.9s : 0.3s,-15.991779120841414,0.03891372170685398,0.2652185725160217,0.01587377709815284,0.385917067527771,-0.0026170110795646906,0.03648798540234566,-0.009287357330322266,-0.006753206253051758,-0.010959744453430176,-0.18963531019826926,1.4883749389535248,2.3675108067257935,0.9787392616271973,0.1885007619857788,-0.0808522179722786
1732227252890,SW,4.5392810904174326,0.9s : 0.3s,-15.991779120841414,0.03904175852152016,0.26552327870365294,0.012511940613344926,0.3991239666938782,0.003046112135052681,0.03482956811785698,-0.00982576608657837,0.006071493029594421,-0.004810400307178497,-0.18895983257548615,1.4876217176734692,2.36398924947479,0.9788048267364502,0.18783734738826752,-0.08159996569156647
1732227252900,SW,4.5392810904174326,0.9s : 0.3s,-15.991779120841414,0.039184970301925706,0.2654971873649761,0.024651064907477562,0.3944988548755646,0.004112974274903536,0.034975241869688034,-0.005634963512420654,0.023207083344459534,-0.006111748516559601,-0.1882763171084481,1.4868732612537663,2.360371174162604,0.97887122631073,0.18716594576835632,-0.08234328031539917
1732227252910,SW,4.5392810904174326,0.9s : 0.3s,-15.991779120841414,0.03933917685997979,0.26469769479448424,0.024233334134088163,0.3828290104866028,-0.0018231673166155815,0.030129188671708107,-0.0015622973442077637,0.024181395769119263,0.00027167797088623047,-0.18761069823806456,1.4861304036111507,2.356872125057158,0.978933572769165,0.1865120530128479,-0.08308092504739761
1732227252920,SW,4.5392810904174326,0.9s : 0.3s,-15.991779120841414,0.03949567950461153,0.26275969086021744,0.01564127159516143,0.3705020248889923,-0.003788047470152378,0.03080083802342415,-0.003687620162963867,0.014617279171943665,-0.004169650375843048,-0.18700182271145657,1.4853775210778224,2.353470838434179,0.9789838194847107,0.1859138309955597,-0.08382760733366013
1732227252930,SW,4.5392810904174326,0.9s : 0.3s,-15.991779120841414,0.03965215393945432,0.2520644208703064,0.016147082784936602,0.33671262860298157,-0.013228952884674072,0.033411867916584015,-0.0008846521377563477,0.008885711431503296,-0.013453245162963867,-0.18637484244726804,1.4845991775693508,2.35026424250204,0.9790340662002563,0.18529774248600006,-0.0845995768904686
1732227252940,SW,4.5392810904174326,0.9s : 0.3s,-15.991779120841414,0.03980482528748173,0.24034659299918426,0.02481648088597543,0.31494662165641785,-0.01959364116191864,0.037449222058057785,0.0005168318748474121,0.00022527575492858887,-0.024810075759887695,-0.1857471039534739,1.483803378994044,2.347406663655996,0.9790821671485901,0.18468083441257477,-0.08538875728845596
1732227252950,SW,4.5392810904174326,0.9s : 0.3s,-15.991779120841414,0.039950417070182535,0.2324279483062964,0.032814809044463135,0.3163700997829437,-0.02006111666560173,0.03047739714384079,-0.008083581924438477,-0.007592350244522095,-0.0308840349316597,-0.18514683733756607,1.48298827681311,2.34455910732803,0.9791225790977478,0.18409086763858795,-0.08619648963212967
1732227252960,SW,4.5392810904174326,0.9s : 0.3s,-15.991779120841414,0.04010990242843684,0.22811191857443378,0.04455097408215308,0.3120557963848114,-0.02006005123257637,0.04301183298230171,-0.014114141464233398,0.0013909339904785156,-0.04223322868347168,-0.18449906900029428,1.4821852042394845,2.341698097653514,0.9791715741157532,0.18345412611961365,-0.08699329942464828
1732227252970,SW,4.5392810904174326,0.9s : 0.3s,-15.991779120841414,0.040282923617909666,0.22618335281705967,0.04718975954724282,0.31287601590156555,-0.028672093525528908,0.045290831476449966,-0.008860230445861816,0.0016189664602279663,-0.04632222652435303,-0.18378597361999643,1.4813396384731818,2.3390369587694786,0.9792277216911316,0.1827530860900879,-0.08783289045095444
1732227252980,SW,4.5392810904174326,0.9s : 0.3s,-15.991779120841414,0.04044661025333769,0.22519421178541427,0.05150835521403112,0.3178955316543579,-0.031481191515922546,0.04674758017063141,-0.0003827214241027832,-0.013232707977294922,-0.049778103828430176,-0.18306151603801485,1.4804399941473219,2.3362997308094715,0.9792798757553101,0.18204078078269958,-0.0887257307767868
1732227252990,SW,4.5392810904174326,0.9s : 0.3s,-15.991779120841414,0.04059871023261369,0.2167407959619111,0.051220157015567515,0.28793326020240784,-0.032652053982019424,0.052184656262397766,0.0027655959129333496,-0.01746402680873871,-0.048071444034576416,-0.18230590162523694,1.479535768858542,2.33370475012222,0.9793359041213989,0.18129774928092957,-0.08962368965148926
1732227253000,SW,4.5392810904174326,0.9s : 0.3s,-15.991779120841414,0.04073203505952894,0.2107259783355137,0.04191235992971931,0.2790191173553467,-0.038591168820858,0.060712896287441254,0.003934204578399658,-0.022505849599838257,-0.03513765335083008,-0.18149016853457342,1.4786516779645944,2.3312927814546085,0.9794032573699951,0.1804954707622528,-0.09050305932760239
1732227253010,SW,4.5392810904174326,0.9s : 0.3s,-15.991779120841414,0.04084525877066046,0.20977111271574558,0.047592256964409406,0.2904243767261505,-0.043903641402721405,0.0660838931798935,0.0071108341217041016,-0.02738310396671295,-0.038270413875579834,-0.1806002924416847,1.4777057488984489,2.328890471666401,0.9794767498970032,0.17962013185024261,-0.09144435822963715
1732227253020,SW,4.5392810904174326,0.9s : 0.3s,-15.991779120841414,0.04094935636606227,0.20918811331113368,0.05260550514923953,0.29121825098991394,-0.04624509438872337,0.0838831290602684,0.0018169283866882324,-0.02395893633365631,-0.04679751396179199,-0.17958589578659492,1.4767234945195484,2.326463211302209,0.9795674085617065,0.17862214148044586,-0.09242348372936249
1732227253030,SW,4.5392810904174326,0.9s : 0.3s,-15.991779120841414,0.041013090822702325,0.20894249822148214,0.06352573246357461,0.29328301548957825,-0.054681453853845596,0.08816849440336227,-0.00024044513702392578,-0.03872877359390259,-0.05035417526960373,-0.17845319181955566,1.4756851196704162,2.323984556674719,0.9796715974807739,0.17750754952430725,-0.09345973283052444
1732227253040,SW,4.5392810904174326,0.9s : 0.3s,-15.991779120841414,0.041009737319241825,0.21077105597772072,0.0717838870034985,0.3143449127674103,-0.06636340916156769,0.09393689781427383,-0.0018366575241088867,-0.05229659378528595,-0.04913877695798874,-0.17726225383628527,1.4745273916739434,2.3213510935810517,0.9797724485397339,0.1763353943824768,-0.09461411833763123
1732227253050,SW,4.5392810904174326,0.9s : 0.3s,-15.991779120841414,0.04100090905638392,0.2195876788006101,0.07523178937601656,0.3362567126750946,-0.07215849310159683,0.1071479395031929,0.005670011043548584,-0.04034174978733063,-0.06324726343154907,-0.175952923872979,1.4732515261304195,2.3184965935040664,0.9798799157142639,0.1750464290380478,-0.09588650614023209
1732227253060,SW,4.5392810904174326,0.9s : 0.3s,-15.991779120841414,0.04097267989405743,0.2373657163161998,0.0846996433867616,0.3920603096485138,-0.08147849142551422,0.11340237408876419,0.01442331075668335,-0.04905761778354645,-0.06752294301986694,-0.1744994454221948,1.4718009478563638,2.3152533373379898,0.9799920320510864,0.1736152023077011,-0.09733285009860992
1732227253070,SW,4.5392810904174326,0.9s : 0.3s,-15.991779120841414,0.040910748444225126,0.2679149607531851,0.09982757218983167,0.4817984700202942,-0.08743447810411453,0.12538054585456848,0.008027970790863037,-0.06283560395240784,-0.07715427875518799,-0.17287208022150435,1.4702134489889078,2.3114207858436457,0.9801160097122192,0.1720123291015625,-0.0989166870713234
1732227253080,SW,4.5392810904174326,0.9s : 0.3s,-15.991779120841414,0.0408632409360282,0.3110561502036392,0.12078304340306921,0.5903782248497009,-0.09714702516794205,0.13625794649124146,0.00019240379333496094,-0.06858530640602112,-0.09942113608121872,-0.17102622622162128,1.4683667984295887,2.306459646918654,0.98024582862854,0.17019368708133698,-0.10075873881578445
1732227253090,SW,4.5392810904174326,0.9s : 0.3s,-15.991779120841414,0.04088125208806845,0.36025103700427275,0.15438062025584398,0.6819518804550171,-0.13204585015773773,0.13868992030620575,-0.008302748203277588,-0.07830865681171417,-0.13278627395629883,-0.16898616045939865,1.46615580619357,2.3004988844234617,0.9803639650344849,0.16818304359912872,-0.10296186804771423
1732227253100,SW,4.5392810904174326,0.9s : 0.3s,-15.991779120841414,0.04101431870143441,0.41571215502828485,0.16893019190532718,0.7876647710800171,-0.15756212174892426,0.1279648393392563,-0.010001957416534424,-0.07519356906414032,-0.1509413719177246,-0.16687901896828933,1.4634361060075636,2.2935497401374643,0.9804304838180542,0.16610553860664368,-0.10566551983356476
1732227253110,SW,4.5392810904174326,0.9s : 0.3s,-15.991779120841414,0.04123556301982971,0.4582828968845516,0.1572092327633644,0.8026311993598938,-0.18751709163188934,0.11541669070720673,0.003962099552154541,-0.06772404909133911,-0.14181853830814362,-0.16481329112198806,1.460394330021708,2.2858817685464463,0.9804435968399048,0.16406816244125366,-0.10868486016988754
1732227253120,SW,4.5392810904174326,0.9s : 0.3s,-15.991779120841414,0.04149196151950047,0.48715968296763773,0.11133060853906399,0.7900158166885376,-0.2275310903787613,0.10385670512914658,0.033477067947387695,-0.05466686189174652,-0.0910237580537796,-0.16280714483084358,1.456993897807876,2.278343721177809,0.9803933501243591,0.16208887100219727,-0.11205530166625977
1732227253130,SW,4.5392810904174326,0.9s : 0.3s,-15.991779120841414,0.04177346911210771,0.4919340379154574,0.13059765644822668,0.7095088958740234,-0.25389358401298523,0.0967831164598465,0.0819818377494812,-0.05264188349246979,-0.08696871995925903,-0.16095631770573818,1.4533440003683011,2.2711582514381283,0.9802740812301636,0.16026224195957184,-0.11566784232854843
1732227253140,SW,4.5392810904174326,0.9s : 0.3s,-15.991779120841414,0.0420417913954155,0.4797430236455505,0.12274522455372693,0.6301671862602234,-0.23193448781967163,0.07050517201423645,0.0813744068145752,-0.07163076102733612,-0.0575641393661499,-0.1592940489977312,1.4497792592594705,2.2647947737516243,0.9801185727119446,0.15862123668193817,-0.11919350922107697
1732227253150,SW,4.5392810904174326,0.9s : 0.3s,-15.991779120841414,0.0421988064735783,0.4578414687334581,0.04579531975102515,0.5789997577667236,-0.1865050047636032,0.020939916372299194,0.032423317432403564,-0.030232757329940796,-0.011485651135444641,-0.15810324784417104,1.4467230522554146,2.2588058932071386,0.9799364805221558,0.15744540095329285,-0.12221168726682663
1732227253160,SW,4.5392810904174326,0.9s : 0.3s,-15.991779120841414,0.042376379175256516,0.44535449649506875,0.08782439230991827,0.611699640750885,-0.13604982197284698,-0.03499631583690643,-0.008933007717132568,0.07098174095153809,0.05094033479690552,-0.15745133228481845,1.4440864042614592,2.252794923302102,0.9797124862670898,0.15680158138275146,-0.12480795383453369
1732227253170,SW,4.5392810904174326,0.9s : 0.3s,-15.991779120841414,0.042775457442701,0.4579641408660303,0.2314859540051756,0.7302849888801575,-0.08401115983724594,-0.05621102452278137,-0.015307247638702393,0.21246680617332458,0.09060513973236084,-0.1570594472321154,1.441875161359226,2.246102883291906,0.9794949293136597,0.15641452372074127,-0.1269819140434265
1732227253180,SW,4.5392810904174326,0.9s : 0.3s,-15.991779120841414,0.043587569284064126,0.5259866334119386,0.3781930315273574,1.032475471496582,-0.01895572617650032,-0.09111255407333374,-0.024127423763275146,0.35563087463378906,0.12639033794403076,-0.15662069669608,1.4399177582994982,2.237262448516319,0.9793124198913574,0.1559811681509018,-0.12890787422657013
1732227253190,SW,4.5392810904174326,0.9s : 0.3s,-15.991779120841414,0.04495626767899199,0.6186738092663167,0.43449526490638435,1.250535011291504,0.03889785334467888,-0.1240779235959053,-0.05591994524002075,0.4161989092826843,0.1115238219499588,-0.15619764895330585,1.4381859048965724,2.2255583296729884,0.9791529178619385,0.15556327998638153,-0.13061241805553436
1732227253200,SW,4.5392810904174326,0.9s : 0.3s,-15.991779120841414,0.046853554332526935,0.6933297859002475,0.43805720993527897,1.2895601987838745,0.11264557391405106,-0.16490711271762848,-0.10623711347579956,0.4127817749977112,0.10108907520771027,-0.1559187492592442,1.4368803695324255,2.212519132026683,0.9790245294570923,0.15528777241706848,-0.13189640641212463
1732227253210,SW,4.5392810904174326,0.9s : 0.3s,-15.991779120841414,0.049084513097391966,0.7638558875643104,0.42948092658759457,1.3674850463867188,0.1625632494688034,-0.2091202437877655,-0.15945202112197876,0.3766348361968994,0.1310538798570633,-0.15599481768680032,1.4361029541184889,2.1989561956787456,0.978909969329834,0.15536291897296906,-0.13265588879585266
1732227253220,SW,4.5392810904174326,0.9s : 0.3s,-15.991779120841414,0.051696586837045845,0.8346121570321776,0.4209151500589497,1.4575645923614502,0.20874033868312836,-0.27487635612487793,-0.1794944405555725,0.3694685101509094,0.0918930321931839,-0.15648376835919295,1.4356941450247755,2.1844913541376694,0.9787803292274475,0.15584591031074524,-0.13304582238197327
1732227253230,SW,4.5392810904174326,0.9s : 0.3s,-15.991779120841414,0.05478349708699862,0.9182303219454717,0.45596291448852894,1.6062123775482178,0.2440842092037201,-0.3697283864021301,-0.19412243366241455,0.4066380560398102,0.06974346935749054,-0.1575969751999574,1.435461099471278,2.1686700864113098,0.9785767197608948,0.15694542229175568,-0.1332504153251648
1732227253240,SW,4.5392810904174326,0.9s : 0.3s,-15.991779120841414,0.05838882623293052,0.999069756627334,0.48256960974628027,1.6947808265686035,0.2712087631225586,-0.45867422223091125,-0.2047334909439087,0.4354715943336487,0.03636091947555542,-0.15948786131427203,1.435322606687196,2.1517859747225363,0.9782625436782837,0.15881258249282837,-0.13334563374519348
1732227253250,SW,4.5392810904174326,0.9s : 0.3s,-15.991779120841414,0.06234770235408323,1.0500146161596837,0.4644962832253775,1.6449939012527466,0.2684646546840668,-0.5312390327453613,-0.18595939874649048,0.42460155487060547,0.029823124408721924,-0.162121602862118,1.4352091481643943,2.1346118327601613,0.9778295755386353,0.1614123433828354,-0.1333996206521988
1732227253260,SW,4.5392810904174326,0.9s : 0.3s,-15.991779120841414,0.0664191457261804,1.0831132588640269,0.43799288688955557,1.6039657592773438,0.26513224840164185,-0.6166988015174866,-0.1925458312034607,0.3888801336288452,0.059465229511260986,-0.16561752840706392,1.4350580520229381,2.1178687374719893,0.9772443771362305,0.16486144065856934,-0.13347019255161285
1732227253270,SW,4.5392810904174326,0.9s : 0.3s,-15.991779120841414,0.07063469637785919,1.1282557974084166,0.46141531394306823,1.6800382137298584,0.28547197580337524,-0.7129614949226379,-0.2259598970413208,0.3980228304862976,0.05851532518863678,-0.17001005444193165,1.4348821822327977,2.100804461330128,0.9764939546585083,0.16919225454330444,-0.13354265689849854
1732227253280,SW,4.5392810904174326,0.9s : 0.3s,-15.991779120841414,0.07522682699602139,1.1761735851437847,0.5246721336047123,1.7221801280975342,0.32770705223083496,-0.8029728531837463,-0.2347075343132019,0.46758055686950684,0.03951764106750488,-0.17519060150249227,1.4347747637714772,2.0829537632692996,0.9755980372428894,0.1742958277463913,-0.13352689146995544
1732227253290,SW,4.5392810904174326,0.9s : 0.3s,-15.991779120841414,0.08019469338821131,1.214924977308119,0.5712175973830669,1.6947358846664429,0.35111114382743835,-0.9148744940757751,-0.2575504183769226,0.5038387179374695,0.07812727987766266,-0.18137353038922227,1.4349146620877176,2.0650499959796096,0.9745303392410278,0.18038074672222137,-0.13324186205863953
1732227253300,SW,4.5392810904174326,0.9s : 0.3s,-15.991779120841414,0.08555346531796806,1.2694286486836541,0.6228564794537621,1.772896647453308,0.3951209485530853,-1.0393764972686768,-0.3179035782814026,0.5255804657936096,0.10321183502674103,-0.18871838238932487,1.4351507924879778,2.046547658872025,0.9732227921485901,0.18760018050670624,-0.1328289955854416
1732227253310,SW,4.5392810904174326,0.9s : 0.3s,-15.991779120841414,0.09140972434599888,1.331928354747444,0.6720791736467228,1.843581199645996,0.42913004755973816,-1.142885446548462,-0.3249884247779846,0.5814478397369385,0.08939434587955475,-0.19710886445370537,1.4354693748582839,2.027166875014074,0.9716711044311523,0.19583499431610107,-0.1323019117116928
1732227253320,SW,4.5392810904174326,0.9s : 0.3s,-15.991779120841414,0.09770587334146907,1.406794988592271,0.6877144295416213,1.9424049854278564,0.4723861813545227,-1.2614108324050903,-0.29811739921569824,0.6128957867622375,0.09184719622135162,-0.20646977603512712,1.4357944692546627,2.0067044845256614,0.9698550701141357,0.205005943775177,-0.1317335069179535
1732227253330,SW,4.5392810904174326,0.9s : 0.3s,-15.991779120841414,0.10435527785375902,1.4731026544412733,0.6946281350290292,1.9315075874328613,0.510349690914154,-1.3937129974365234,-0.3284856081008911,0.6079061627388,0.07110238075256348,-0.21700480470483047,1.4361414124439138,1.9854503414300808,0.9677067995071411,0.2153056412935257,-0.13109980523586273
1732227253340,SW,4.5392810904174326,0.9s : 0.3s,-15.991779120841414,0.11124179879547545,1.5275534231306025,0.6971898815830035,1.8779280185699463,0.5276205539703369,-1.5318865776062012,-0.35793936252593994,0.5925906300544739,0.08239835500717163,-0.2289697671575304,1.436622460368905,1.964592182366282,0.9651476144790649,0.22697429358959198,-0.13028033077716827
1732227253350,SW,4.5392810904174326,0.9s : 0.3s,-15.991779120841414,0.11830361484834391,1.5832662953944687,0.6987619082192735,1.8944865465164185,0.5382699370384216,-1.6435105800628662,-0.3461773991584778,0.5985846519470215,0.10062716901302338,-0.24221698714204612,1.436975320607885,1.9436249480167611,0.9621291160583496,0.23985548317432404,-0.12952719628810883
1732227253360,SW,4.5392810904174326,0.9s : 0.3s,-15.991779120841414,0.12549093314220702,1.6367745240739537,0.6953237234843062,1.9064334630966187,0.5233423709869385,-1.741955041885376,-0.2978690266609192,0.6246591806411743,0.06745392084121704,-0.25645403925335397,1.4368849499788787,1.9222069956893106,0.958635687828064,0.2536521553993225,-0.12914510071277618
1732227253370,SW,4.5392810904174326,0.9s : 0.3s,-15.991779120841414,0.13273506662404577,1.6884891047687007,0.6815549935701396,1.8902803659439087,0.5281611084938049,-1.8638900518417358,-0.2637102007865906,0.6249845623970032,0.06609414517879486,-0.27175007512432564,1.4363763176913125,1.9005767079158666,0.9546130299568176,0.26841768622398376,-0.129097580909729
1732227253380,SW,4.5392810904174326,0.9s : 0.3s,-15.991779120841414,0.14003457702446814,1.7427989314688084,0.6926269776316547,1.8726938962936401,0.52822345495224,-2.0114784240722656,-0.2764015793800354,0.6292698383331299,0.08575411140918732,-0.28842415422059764,1.4355584698815982,1.8789041154596993,0.9499397277832031,0.28444182872772217,-0.12925678491592407
1732227253390,SW,4.5392810904174326,0.9s : 0.3s,-15.991779120841414,0.14758595407946237,1.813530780799069,0.7383209569874133,1.960803508758545,0.5260955095291138,-2.1491520404815674,-0.2630589008331299,0.6852912902832031,0.07933282852172852,-0.3064679646605374,1.4341385336431698,1.856516170420582,0.9445164203643799,0.30169305205345154,-0.12988509237766266
1732227253400,SW,4.5392810904174326,0.9s : 0.3s,-15.991779120841414,0.15536045737335127,1.8942902777719381,0.7496752820629196,2.0377182960510254,0.5236648321151733,-2.2894864082336426,-0.20022451877593994,0.721392035484314,0.03894485533237457,-0.32568658977081855,1.4319033508650834,1.8328130272269192,0.9383073449134827,0.3199593722820282,-0.13116885721683502
1732227253410,SW,4.5392810904174326,0.9s : 0.3s,-15.991779120841414,0.1632373988515313,1.972413249084934,0.7412030215837493,2.0532407760620117,0.5111979246139526,-2.423258066177368,-0.1760825514793396,0.7196316719055176,0.022519126534461975,-0.3461866662108799,1.4288260793846954,1.8081810646053442,0.9312094449996948,0.33931317925453186,-0.13309946656227112
1732227253420,SW,4.5392810904174326,0.9s : 0.3s,-15.991779120841414,0.17110211559609734,2.037722111858053,0.6970580531664197,2.0181686878204346,0.48876214027404785,-2.527200937271118,-0.15922224521636963,0.6782242059707642,0.023454904556274414,-0.3677764157214832,1.4250045612768223,1.783309926729392,0.9232298135757446,0.3595414459705353,-0.13556113839149475
1732227253430,SW,4.5392810904174326,0.9s : 0.3s,-15.991779120841414,0.17874843759924955,2.0951012338835553,0.6555650266922697,2.004080295562744,0.4575966000556946,-2.617771863937378,-0.10725796222686768,0.6457147002220154,0.03624582290649414,-0.3902709649096745,1.4203251035724265,1.7583137999671377,0.9143563508987427,0.38043901324272156,-0.13863219320774078
1732227253440,SW,4.5392810904174326,0.9s : 0.3s,-15.991779120841414,0.1861516359721516,2.1505664573288086,0.6377238757653275,2.0329349040985107,0.43228912353515625,-2.6936070919036865,-0.060047149658203125,0.6338866949081421,0.03568948805332184,-0.41343578023623756,1.4145495191076334,1.7327547346042038,0.9045905470848083,0.40175798535346985,-0.14250090718269348
1732227253450,SW,4.5392810904174326,0.9s : 0.3s,-15.991779120841414,0.19327265245560152,2.195692253414705,0.6132006726662964,1.9605803489685059,0.3968852162361145,-2.7939791679382324,-0.024296998977661133,0.6106008291244507,0.05090528726577759,-0.4373084516263864,1.4077482760174047,1.7068381768380736,0.8938801288604736,0.42350274324417114,-0.14705082774162292
1732227253460,SW,4.5392810904174326,0.9s : 0.3s,-15.991779120841414,0.2000805632873582,2.237496097026505,0.5900178134994419,1.8910025358200073,0.3500005304813385,-2.9123053550720215,-0.0012319684028625488,0.5820515751838684,0.09662021696567535,-0.4622676392292606,1.4000650728786421,1.6810265554318393,0.882030189037323,0.44597887992858887,-0.15207058191299438
1732227253470,SW,4.5392810904174326,0.9s : 0.3s,-15.991779120841414,0.20681672370504858,2.2793919121904795,0.6091041590884847,1.8480874300003052,0.30195677280426025,-3.0197184085845947,0.045018553733825684,0.6013524532318115,0.0857696533203125,-0.48823405071989795,1.3911659380291121,1.6551123414680908,0.8689523935317993,0.4690670073032379,-0.15779107809066772
1732227253480,SW,4.5392810904174326,0.9s : 0.3s,-15.991779120841414,0.21348444169558908,2.322856395361697,0.6547491812598285,1.8295952081680298,0.26838362216949463,-3.1140124797821045,0.11877721548080444,0.6388833522796631,0.08010321855545044,-0.5150242799719714,1.381026201431074,1.6287236894721637,0.8546572327613831,0.49255597591400146,-0.16416381299495697
1732227253490,SW,4.5392810904174326,0.9s : 0.3s,-15.991779120841414,0.22009605738358906,2.3669544333944095,0.6869855301810671,1.8232691287994385,0.2182193547487259,-3.1984331607818604,0.15849268436431885,0.6641196012496948,0.07598909735679626,-0.54247193045454,1.369410229542956,1.601492855578157,0.8391267657279968,0.5162546038627625,-0.1713106632232666
1732227253500,SW,4.5392810904174326,0.9s : 0.3s,-15.991779120841414,0.2266139026411442,2.4072372792382155,0.6881584871412838,1.797582983970642,0.17142175137996674,-3.2684662342071533,0.20263797044754028,0.6536116003990173,0.07274498045444489,-0.570391369447649,1.3561311708681398,1.5733753451942833,0.8223710656166077,0.5399615168571472,-0.17929698526859283
1732227253510,SW,4.5392810904174326,0.9s : 0.3s,-15.991779120841414,0.23309497489988765,2.4464181407536705,0.6680757872407991,1.743499755859375,0.14156284928321838,-3.361269474029541,0.24318867921829224,0.6163827180862427,0.08518725633621216,-0.5988789997615268,1.3413796053854974,1.5445558390387162,0.804327130317688,0.5637168884277344,-0.1878330558538437
1732227253520,SW,4.5392810904174326,0.9s : 0.3s,-15.991779120841414,0.23952391528484518,2.471446199790912,0.6661712797350077,1.5832586288452148,0.08244945853948593,-3.434847116470337,0.27377915382385254,0.6008163690567017,0.08859367668628693,-0.6281641433526844,1.3252840348301471,1.5155432187463402,0.7848449945449829,0.5876603722572327,-0.19665630161762238
1732227253530,SW,4.5392810904174326,0.9s : 0.3s,-15.991779120841414,0.2456778801115853,2.4766261856360186,0.6840398463393831,1.3243615627288818,0.0053237807005643845,-3.491917848587036,0.3444334864616394,0.5810166001319885,0.10814709961414337,-0.6581331520252421,1.3085514339268278,1.4877658555925815,0.764086902141571,0.611640989780426,-0.2051013559103012
1732227253540,SW,4.5392810904174326,0.9s : 0.3s,-15.991779120841414,0.25145947060948787,2.462908387721482,0.6977272952326042,0.9668716788291931,-0.07658520340919495,-3.526096820831299,0.4100469946861267,0.5504881143569946,0.12509067356586456,-0.6889146674726454,1.291779221376292,1.4622310138459846,0.7420830726623535,0.6356997489929199,-0.2125997096300125
1732227253550,SW,4.5392810904174326,0.9s : 0.3s,-15.991779120841414,0.25699627136775943,2.4223388722071384,0.683205941464737,0.4149973392486572,-0.17383664846420288,-3.5564823150634766,0.45046234130859375,0.49408620595932007,0.14047369360923767,-0.7209370043917227,1.2763056642763886,1.4409744645911235,0.7188491821289062,0.660088837146759,-0.21803410351276398
1732227253560,SW,4.5392810904174326,0.9s : 0.3s,-15.991779120841414,0.26241179666669395,2.4091886391067834,0.6578352057863724,-0.06578712910413742,-0.2159081995487213,-3.602267265319824,0.4644494652748108,0.42949360609054565,0.1804690957069397,-0.7546571891075651,1.263221726700259,1.4251838939393142,0.6943181753158569,0.6850389838218689,-0.22055386006832123
1732227253570,SW,4.5392810904174326,0.9s : 0.3s,-15.991779120841414,0.26754757376912247,2.394545845689953,0.6851972326144965,-0.26798656582832336,-0.23228567838668823,-3.673246383666992,0.4610276222229004,0.4669371247291565,0.1972777247428894,-0.7897855532495447,1.2518335052259493,1.412829795642211,0.6684889197349548,0.7102023363113403,-0.22076092660427094
1732227253580,SW,4.5392810904174326,0.9s : 0.3s,-15.991779120841414,0.27282206779538687,2.4335176406391428,0.7780535865098847,-0.12510798871517181,-0.17232327163219452,-3.8159701824188232,0.487216055393219,0.576914370059967,0.1875038892030716,-0.8259454136079039,1.2393722031882888,1.399197675121754,0.6409729719161987,0.7351889610290527,-0.22056959569454193
1732227253590,SW,4.5392810904174326,0.9s : 0.3s,-15.991779120841414,0.27906429204216543,2.493609808977309,0.9655281659351516,0.1345004290342331,-0.07833853363990784,-3.9302616119384766,0.4952348470687866,0.8272133469581604,0.052011191844940186,-0.862524553541049,1.2235674637032397,1.3806332682728955,0.6116986870765686,0.7594872713088989,-0.22136841714382172
1732227253600,SW,4.5392810904174326,0.9s : 0.3s,-15.991779120841414,0.2859435791237253,2.557010255066786,0.9623984462476786,0.3778614103794098,-0.030672747641801834,-4.013401031494141,0.5259789824485779,0.8041151762008667,0.05436600744724274,-0.8988078748119428,1.2032038887167409,1.355827832409848,0.5809544920921326,0.7825853228569031,-0.22372324764728546
1732227253610,SW,4.5392810904174326,0.9s : 0.3s,-15.991779120841414,0.29314516304921817,2.6149186263550304,0.9694974911878792,0.47183358669281006,-0.016443876549601555,-4.07191801071167,0.5994139909744263,0.7602270245552063,0.051798880100250244,-0.9347318686199492,1.178136736695145,1.3253248278073666,0.5488250255584717,0.8044398427009583,-0.22730538249015808
1732227253620,SW,4.5392810904174326,0.9s : 0.3s,-15.991779120841414,0.3002886296292373,2.6672639522430304,0.8970059489144154,0.5065199136734009,0.018458446487784386,-4.126951694488525,0.6352710127830505,0.6263236999511719,0.09364312887191772,-0.970473843857209,1.1490520876761654,1.2904281844037506,0.5154094696044922,0.8251534700393677,-0.23124682903289795
1732227253630,SW,4.5392810904174326,0.9s : 0.3s,-15.991779120841414,0.30729800372179794,2.7133165676446627,0.9027223690339281,0.6173945069313049,0.04860534146428108,-4.16061544418335,0.6773461103439331,0.5863284468650818,0.11103546619415283,-1.005637611204942,1.114982603369388,1.2499878502898694,0.48087215423583984,0.8445035815238953,-0.23574548959732056
1732227253640,SW,4.5392810904174326,0.9s : 0.3s,-15.991779120841414,0.3141735670969193,2.7523500910564507,0.9476242904763885,0.7728109955787659,0.12407240271568298,-4.171875476837158,0.7353135347366333,0.5934995412826538,0.07116246223449707,-1.0395148224343014,1.0744547605853545,1.2022253109054861,0.44550302624702454,0.8621585369110107,-0.2412673532962799
1732227253650,SW,4.5392810904174326,0.9s : 0.3s,-15.991779120841414,0.3210238373241488,2.7930128935385494,0.9644348011133519,0.9920666217803955,0.12878264486789703,-4.199535369873047,0.7576011419296265,0.5941113233566284,0.05662800371646881,-1.0713398906314975,1.0253540161996537,1.1452267621574062,0.40945199131965637,0.8778430223464966,-0.24847665429115295
1732227253660,SW,4.5392810904174326,0.9s : 0.3s,-15.991779120841414,0.3278944191388338,2.8443879960714016,0.9772266768595836,1.0599132776260376,0.08065133541822433,-4.295982837677002,0.7814511060714722,0.5867536067962646,0.005133390426635742,-1.1015281473101273,0.9662607378513274,1.078148644844609,0.3720826804637909,0.8918994665145874,-0.25704067945480347
1732227253670,SW,4.5392810904174326,0.9s : 0.3s,-15.991779120841414,0.33485609796402216,2.8814303327493627,1.012403794415787,1.2398496866226196,0.04928582161664963,-4.25851583480835,0.8237139582633972,0.5886046886444092,0.0011306703090667725,-1.1289871083788416,0.8955918841499751,0.9996246122934787,0.33375662565231323,0.9039795398712158,-0.2672590911388397
1732227253680,SW,4.5392810904174326,0.9s : 0.3s,-15.991779120841414,0.3417550040861701,2.904774712970198,1.0336017708415746,1.1991976499557495,-0.026104537770152092,-4.248950481414795,0.8887382745742798,0.5270788073539734,-0.025784313678741455,-1.1530161755906942,0.8147993208756927,0.9115887153687644,0.29520630836486816,0.9139918684959412,-0.27833855152130127
1732227253690,SW,4.5392810904174326,0.9s : 0.3s,-15.991779120841414,0.3487209483847953,2.9312780309275923,0.9669511797639717,1.2488895654678345,-0.08619815111160278,-4.285627365112305,0.8515384197235107,0.4574761986732483,-0.024339914321899414,-1.1739897430464132,0.7234005685462878,0.8136782551700865,0.2558223307132721,0.922299861907959,-0.2896859347820282
1732227253700,SW,4.5392810904174326,0.9s : 0.3s,-15.991779120841414,0.355599209759162,2.954302712950373,0.9403429400763288,1.323055386543274,-0.15155690908432007,-4.285619735717773,0.8206825852394104,0.4535120725631714,-0.07107558846473694,-1.1906592050947657,0.6206426170814443,0.7050016740868055,0.21578575670719147,0.9286137819290161,-0.3018490970134735
1732227253710,SW,4.5392810904174326,0.9s : 0.3s,-15.991779120841414,0.36258773872867484,2.981486675970681,0.9941280903838068,1.4658104181289673,-0.21754223108291626,-4.2974371910095215,0.8498474955558777,0.5074707865715027,-0.09232169389724731,-1.2018693184399905,0.5075853654932267,0.5854879816979137,0.17528358101844788,0.9327148199081421,-0.3151489198207855
1732227253720,SW,4.5392810904174326,0.9s : 0.3s,-15.991779120841414,0.3697340996119037,3.0149065120754828,1.0029724237641866,1.5851218700408936,-0.2959888279438019,-4.327947616577148,0.8499037027359009,0.523356020450592,-0.09856903553009033,-1.2067212225272124,0.38636429568436725,0.4593856908654875,0.13418126106262207,0.9344534873962402,-0.3298366963863373
1732227253730,SW,4.5392810904174326,0.9s : 0.3s,-15.991779120841414,0.3771223143858532,3.0497257227521986,1.041055992958331,1.6896098852157593,-0.3778398931026459,-4.343549728393555,0.8815082311630249,0.5435084700584412,-0.10648643970489502,-1.205065870641743,0.2617698462560102,0.33059502149834863,0.09255165606737137,0.9338628053665161,-0.3454483151435852
1732227253740,SW,4.5392810904174326,0.9s : 0.3s,-15.991779120841414,0.3848683330733982,3.091861325555581,1.0700566353764511,1.868436574935913,-0.4308743476867676,-4.364120006561279,0.8964118957519531,0.5796428918838501,-0.07403400540351868,-1.1962455526751339,0.13848242247800915,0.20376002305101565,0.05050263553857803,0.9306720495223999,-0.36235201358795166
1732227253750,SW,4.5392810904174326,0.9s : 0.3s,-15.991779120841414,0.3928173979860353,3.1179945456387657,1.0522953034873972,1.8872785568237305,-0.5203615427017212,-4.324538707733154,0.8934837579727173,0.5511760711669922,-0.07222962379455566,-1.1808882614808278,0.022146683503893854,0.08445647588964582,0.008417344652116299,0.9249439835548401,-0.38001030683517456
1732227253760,SW,4.5392810904174326,0.9s : 0.3s,-15.991779120841414,0.4008694836373015,3.1377589118504274,1.0229482003873882,1.8763768672943115,-0.6285958886146545,-4.320694446563721,0.9027289152145386,0.4781830906867981,-0.05333346128463745,-1.1607721119836194,-0.08439785106652321,-0.023879971405916696,-0.0336037278175354,0.9171111583709717,-0.39721277356147766
1732227253770,SW,4.5392810904174326,0.9s : 0.3s,-15.991779120841414,0.4089094538258557,3.1594825987056443,0.9923704494395338,1.9246770143508911,-0.712159276008606,-4.329161167144775,0.8662993311882019,0.4741036891937256,-0.09772548079490662,-1.1361406236679683,-0.18096169049772634,-0.1214220104405364,-0.07578741014003754,0.9070150852203369,-0.4142220616340637
1732227253780,SW,4.5392810904174326,0.9s : 0.3s,-15.991779120841414,0.4170516890944088,3.172530760210099,0.9921925207620077,1.8637769222259521,-0.8006752729415894,-4.326822280883789,0.8458107709884644,0.5015539526939392,-0.13226401805877686,-1.1081385439801956,-0.2674121422616248,-0.20795081655462114,-0.11793617904186249,0.8948693871498108,-0.4304647743701935
1732227253790,SW,4.5392810904174326,0.9s : 0.3s,-15.991779120841414,0.42533027465665646,3.1866806924867714,1.0053765009606686,1.8914676904678345,-0.8705904483795166,-4.328237533569336,0.8577756285667419,0.5159983038902283,-0.09353411197662354,-1.0771119029107097,-0.34449463059511953,-0.2843400069273279,-0.16003713011741638,0.8805928826332092,-0.4460318684577942
1732227253800,SW,4.5392810904174326,0.9s : 0.3s,-15.991779120841414,0.43370064900792804,3.1961731207323405,0.9895910763721891,1.873799204826355,-0.927951991558075,-4.320623874664307,0.8550117015838623,0.4917791485786438,-0.07999223470687866,-1.0436660050529052,-0.41289938148653876,-0.35143840968660117,-0.20185935497283936,0.8642542362213135,-0.4607791602611542
1732227253810,SW,4.5392810904174326,0.9s : 0.3s,-15.991779120841414,0.4421022265157993,3.204880034225812,0.9784926096485627,1.8339005708694458,-1.0359481573104858,-4.325976848602295,0.8529813289642334,0.477059543132782,-0.047799915075302124,-1.0083511253781834,-0.47400811171765744,-0.41043037914532693,-0.24340809881687164,0.8459537029266357,-0.4744625687599182
1732227253820,SW,4.5392810904174326,0.9s : 0.3s,-15.991779120841414,0.45061784683795675,3.213950488161353,0.9950049104225267,1.9102147817611694,-1.12149977684021,-4.2884321212768555,0.854529619216919,0.5037453174591064,-0.07781103253364563,-0.971265401134746,-0.5287256119484068,-0.46198436444499463,-0.284629225730896,0.8256003856658936,-0.4872066080570221
1732227253830,SW,4.5392810904174326,0.9s : 0.3s,-15.991779120841414,0.4592745536248793,3.2239144130682784,1.0280041321188587,1.9582533836364746,-1.1668713092803955,-4.2735595703125,0.8862100839614868,0.5145562887191772,-0.08158436417579651,-0.9323025458582417,-0.5769921618761482,-0.5061448871270955,-0.32511401176452637,0.8029943704605103,-0.49950075149536133
1732227253840,SW,4.5392810904174326,0.9s : 0.3s,-15.991779120841414,0.4680258325212351,3.2257540154681834,1.0103438989305704,1.914879322052002,-1.239774227142334,-4.255623817443848,0.8829696178436279,0.48729413747787476,-0.06085944175720215,-0.8921974776166239,-0.6204235670700796,-0.5447664291874814,-0.36493390798568726,0.77845299243927,-0.5107194781303406
1732227253850,SW,4.5392810904174326,0.9s : 0.3s,-15.991779120841414,0.47684157949520145,3.2199826847443123,1.001107092710303,1.8662893772125244,-1.301892638206482,-4.197517395019531,0.8847535848617554,0.46077048778533936,-0.0843626856803894,-0.8518059492991908,-0.6601422186930833,-0.5788433606778203,-0.4038883149623871,0.7524710893630981,-0.5202515125274658
1732227253860,SW,4.5392810904174326,0.9s : 0.3s,-15.991779120841414,0.4856867945381637,3.2003327514438493,1.0026488900141404,1.8069099187850952,-1.3555891513824463,-4.129656791687012,0.9120832681655884,0.4152917265892029,-0.03068697452545166,-0.8113188839391108,-0.6962799820129495,-0.6085551285749188,-0.4416092336177826,0.7251958847045898,-0.5282729268074036
1732227253870,SW,4.5392810904174326,0.9s : 0.3s,-15.991779120841414,0.49454092351253087,3.1785321197113907,1.0012062354262368,1.7593735456466675,-1.416804552078247,-4.083564281463623,0.9236326217651367,0.3855850100517273,0.02531611919403076,-0.7710288469959204,-0.7298277860926509,-0.6349613057826011,-0.47818297147750854,0.6968734860420227,-0.5345171093940735
1732227253880,SW,4.5392810904174326,0.9s : 0.3s,-15.991779120841414,0.5033757192882737,3.1505363105262685,0.9922983612994072,1.6701072454452515,-1.5110045671463013,-4.017210483551025,0.9291765093803406,0.3480207920074463,-0.012983858585357666,-0.7308837514637007,-0.7613620417629665,-0.6583892221660647,-0.5136951208114624,0.6675279140472412,-0.5390027761459351
1732227253890,SW,4.5392810904174326,0.9s : 0.3s,-15.991779120841414,0.5121644892237721,3.1129035447186943,0.9961345972196587,1.6248146295547485,-1.5424718856811523,-3.9191980361938477,0.9472219347953796,0.3022227883338928,-0.06096005439758301,-0.6913941364270216,-0.7911298419850235,-0.6792426964096465,-0.5478385090827942,0.6376118063926697,-0.5415942072868347
1732227253900,SW,4.5392810904174326,0.9s : 0.3s,-15.991779120841414,0.5208474095788969,3.0714130733524367,0.9816697349242384,1.534892201423645,-1.608086347579956,-3.84364652633667,0.9555571675300598,0.22427845001220703,-0.016886234283447266,-0.65238254373312,-0.8191603100518247,-0.6976438482463588,-0.5805420279502869,0.607081413269043,-0.5426076650619507
1732227253910,SW,4.5392810904174326,0.9s : 0.3s,-15.991779120841414,0.5293767290937154,3.0284884424840604,0.9783820921671399,1.470192790031433,-1.6579785346984863,-3.7677180767059326,0.9659456610679626,0.149103045463562,-0.04414498805999756,-0.6141750269327353,-0.8462233402917536,-0.7143283129095402,-0.6119418740272522,0.5762845277786255,-0.5416856408119202
1732227253920,SW,4.5392810904174326,0.9s : 0.3s,-15.991779120841414,0.537623689781661,2.987893273024373,1.0180317486969264,1.4677168130874634,-1.7090067863464355,-3.6834003925323486,1.00693678855896,0.14274823665618896,-0.045715272426605225,-0.5763295867143895,-0.8720016485283838,-0.7287866579584674,-0.6419466733932495,0.5449500679969788,-0.5393828749656677
1732227253930,SW,4.5392810904174326,0.9s : 0.3s,-15.991779120841414,0.5454362615487407,2.9399665155451324,1.0530632382144938,1.4484543800354004,-1.7276545763015747,-3.5670361518859863,1.0462603569030762,0.10584867000579834,-0.05547529458999634,-0.5390517496012756,-0.8964693602081296,-0.7425762855138129,-0.6703602075576782,0.5133224129676819,-0.5358332395553589
1732227253940,SW,4.5392810904174326,0.9s : 0.3s,-15.991779120841414,0.5529293154134999,2.8931629089378843,1.09309656196344,1.4351543188095093,-1.7506605386734009,-3.48199725151062,1.0916088819503784,0.05690518021583557,-0.0034558773040771484,-0.5023492280216673,-0.9197673424042491,-0.7544640642417123,-0.6971845626831055,0.48148584365844727,-0.531135618686676
1732227253950,SW,4.5392810904174326,0.9s : 0.3s,-15.991779120841414,0.5601144343654132,2.8431884171543462,1.1038530682085557,1.4907976388931274,-1.7561309337615967,-3.352827548980713,1.1034302711486816,0.00041738152503967285,0.03054600954055786,-0.4662433011829387,-0.9419208248668393,-0.7643193407317038,-0.7223727107048035,0.44953373074531555,-0.5254494547843933
1732227253960,SW,4.5392810904174326,0.9s : 0.3s,-15.991779120841414,0.5670219203372658,2.781368003740798,1.102806104789283,1.452850341796875,-1.7507599592208862,-3.209803342819214,1.1005216836929321,-0.04110157489776611,0.05782723426818848,-0.43089969439328146,-0.9627793674045406,-0.7720703474714334,-0.7457550168037415,0.41768842935562134,-0.5190240144729614
1732227253970,SW,4.5392810904174326,0.9s : 0.3s,-15.991779120841414,0.573593478138236,2.702820360840456,1.1093834798968236,1.3898745775222778,-1.7514632940292358,-3.02306866645813,1.0944507122039795,-0.10836037993431091,0.1454901099205017,-0.39714533441642325,-0.9828458504655554,-0.7783978093796946,-0.7673175930976868,0.38678744435310364,-0.5114872455596924
1732227253980,SW,4.5392810904174326,0.9s : 0.3s,-15.991779120841414,0.5798065291685346,2.6025398221125298,1.1585230827552904,1.2500697374343872,-1.7437140941619873,-2.8114380836486816,1.1163661479949951,-0.18926823139190674,0.24511200189590454,-0.3654223185395574,-1.0022628551556987,-0.783635889780118,-0.7870510816574097,0.35734376311302185,-0.5028480887413025
1732227253990,SW,4.5392810904174326,0.9s : 0.3s,-15.991779120841414,0.5855414519731763,2.464307431726875,1.2088871377544734,1.0315277576446533,-1.6833077669143677,-2.52103328704834,1.1217763423919678,-0.3017492890357971,0.33462414145469666,-0.3367651568704357,-1.021076336959593,-0.7884129009273858,-0.804775059223175,0.33043569326400757,-0.4931017756462097
1732227254000,SW,4.5392810904174326,0.9s : 0.3s,-15.991779120841414,0.5905907352282292,2.3105527270872392,1.3001979968309103,0.915803074836731,-1.5912727117538452,-2.267885684967041,1.1189069747924805,-0.4602923095226288,0.4761228859424591,-0.31133638589538676,-1.0388389305862746,-0.7927535993452197,-0.82038414478302,0.3063310384750366,-0.48283660411834717
1732227254010,SW,4.5392810904174326,0.9s : 0.3s,-15.991779120841414,0.5948160001343717,2.1412426586943747,1.309292213579976,0.8999285101890564,-1.4401094913482666,-1.9796297550201416,1.05615234375,-0.5816234946250916,0.5103943943977356,-0.2883938336527358,-1.0548910636619637,-0.7956588326274726,-0.8339235186576843,0.28441277146339417,-0.47294920682907104
1732227254020,SW,4.5392810904174326,0.9s : 0.3s,-15.991779120841414,0.5983582604618306,1.9492259720565916,1.3598030182907144,0.8653087019920349,-1.2404214143753052,-1.6567918062210083,1.0499917268753052,-0.6598936319351196,0.5577831268310547,-0.26821564887889005,-1.068601774246055,-0.7968676404899944,-0.8451883792877197,0.2650113105773926,-0.46413978934288025
1732227254030,SW,4.5392810904174326,0.9s : 0.3s,-15.991779120841414,0.6011473554788833,1.73347662863976,1.485707843823367,0.7498272657394409,-1.0727661848068237,-1.2970569133758545,1.03658127784729,-0.8054528832435608,0.6957533359527588,-0.25145366634160826,-1.080137377214504,-0.7967687121124,-0.8542845845222473,0.24881216883659363,-0.45638859272003174
1732227254040,SW,4.5392810904174326,0.9s : 0.3s,-15.991779120841414,0.6031500308827005,1.5157384369133318,1.5667112949493733,0.7104297876358032,-0.8946858644485474,-0.9984305500984192,1.0179200172424316,-0.949616014957428,0.7187854647636414,-0.23789476761533682,-1.0897254916879506,-0.7956637094903731,-0.8615327477455139,0.2356572151184082,-0.4496965706348419
1732227254050,SW,4.5392810904174326,0.9s : 0.3s,-15.991779120841414,0.6046199658750726,1.29750872406194,1.623568213302862,0.7258985042572021,-0.6807601451873779,-0.6921629905700684,1.0184708833694458,-1.0111490488052368,0.7591234445571899,-0.2270692673071999,-1.0970261553365193,-0.7931509955622702,-0.8670122027397156,0.22512298822402954,-0.4445327818393707
1732227254060,SW,4.5392810904174326,0.9s : 0.3s,-15.991779120841414,0.6057938159377128,1.0738649853001498,1.6693847709355005,0.7200493812561035,-0.429971307516098,-0.36275869607925415,1.0082038640975952,-1.04686439037323,0.8212462663650513,-0.21903692249046974,-1.101690705254162,-0.7889372124392358,-0.870661199092865,0.21728965640068054,-0.44128701090812683
1732227254070,SW,4.5392810904174326,0.9s : 0.3s,-15.991779120841414,0.6067802365477433,0.8514249733292368,1.7312928022165535,0.7283992171287537,-0.15555439889431,-0.009887070395052433,1.0026955604553223,-1.1148444414138794,0.8655046224594116,-0.21413329764874675,-1.1033655595343177,-0.7832292766840145,-0.8723398447036743,0.21250060200691223,-0.4403029978275299
1732227254080,SW,4.5392810904174326,0.9s : 0.3s,-15.991779120841414,0.6077856182199661,0.6532860276326815,1.8259428579847796,0.7517721652984619,0.12146653980016708,0.36642852425575256,1.0286083221435547,-1.1727046966552734,0.9491026997566223,-0.21238367827703417,-1.10165562688546,-0.7755683099658407,-0.8719160556793213,0.21079061925411224,-0.44196146726608276
1732227254090,SW,4.5392810904174326,0.9s : 0.3s,-15.991779120841414,0.6090531477504574,0.5292329061683959,1.9531083779166605,0.7744132876396179,0.4594128131866455,0.7908751368522644,1.0906600952148438,-1.2420909404754639,1.0403379201889038,-0.21399637986416248,-1.0967599289746197,-0.7659093472054616,-0.8694382905960083,0.21236680448055267,-0.44606903195381165
1732227254100,SW,4.5392810904174326,0.9s : 0.3s,-15.991779120841414,0.6107206262858548,0.5761227447375645,2.0960009201812104,0.7957449555397034,0.8264986872673035,1.255361557006836,1.1397485733032227,-1.3352112770080566,1.1451654434204102,-0.2194450523466148,-1.0877419598334428,-0.7539553219258948,-0.8643427491188049,0.21768802404403687,-0.4533471167087555
1732227254110,SW,4.5392810904174326,0.9s : 0.3s,-15.991779120841414,0.612861081121029,0.8013335960149155,2.223438681798321,0.8503720760345459,1.2080544233322144,1.7461085319519043,1.1946649551391602,-1.457363247871399,1.1800625324249268,-0.22884073076009734,-1.074327026460006,-0.7392969541677871,-0.8563472628593445,0.22684863209724426,-0.46390631794929504
1732227254120,SW,4.5392810904174326,0.9s : 0.3s,-15.991779120841414,0.6157723372910305,1.121954467348989,2.363398992077729,0.9318339228630066,1.5940519571304321,2.2455482482910156,1.3184175491333008,-1.5640631914138794,1.1836960315704346,-0.24198545323491508,-1.056150309670548,-0.7213486905250431,-0.8451052308082581,0.23963069915771484,-0.47788530588150024
1732227254130,SW,4.5392810904174326,0.9s : 0.3s,-15.991779120841414,0.6198468650643053,1.4913411701917854,2.5136720602687195,1.0004429817199707,2.013758897781372,2.7629542350769043,1.463667869567871,-1.6415766477584839,1.2171481847763062,-0.2587738422926874,-1.0327556449244297,-0.6997437449510492,-0.8301230669021606,0.2558954060077667,-0.4953920543193817
1732227254140,SW,4.5392810904174326,0.9s : 0.3s,-15.991779120841414,0.6254629453154652,1.8973093333915496,2.6618809787164115,1.1050759553909302,2.4399330615997314,3.319505214691162,1.6176648139953613,-1.7038100957870483,1.2513201236724854,-0.27913718393377984,-1.0036585540302967,-0.6739150504368048,-0.8107954859733582,0.27552634477615356,-0.5164262652397156
1732227254150,SW,4.5392810904174326,0.9s : 0.3s,-15.991779120841414,0.6330491357656265,2.3264124478522388,2.8406013661702523,1.1861368417739868,2.8761520385742188,3.8810296058654785,1.827994465827942,-1.7754261493682861,1.255115270614624,-0.3027820498205894,-0.9682738581515752,-0.6431687924606252,-0.7864296436309814,0.2981768548488617,-0.5409427285194397
1732227254160,SW,4.5392810904174326,0.9s : 0.3s,-15.991779120841414,0.6431015504923511,2.7900085092664586,3.095055250205223,1.2869998216629028,3.3760387897491455,4.510555267333984,2.0837254524230957,-1.8661351203918457,1.324762225151062,-0.3296217238383012,-0.9257845999922943,-0.6069209298358913,-0.7560734152793884,0.3236851394176483,-0.5688416957855225
1732227254170,SW,4.5392810904174326,0.9s : 0.3s,-15.991779120841414,0.6562373571481437,3.2917133812763644,3.395656354791267,1.3293386697769165,3.929253578186035,5.208879470825195,2.3963873386383057,-1.9441783428192139,1.417032241821289,-0.3595438549258895,-0.8747798685680168,-0.5638146585559191,-0.7183327078819275,0.3518472909927368,-0.6001680493354797
1732227254180,SW,4.5392810904174326,0.9s : 0.3s,-15.991779120841414,0.6730763469269021,3.818624955168464,3.7642615436828524,1.24152672290802,4.507625102996826,5.909711837768555,2.761136770248413,-2.0543856620788574,1.524889588356018,-0.39239636002979406,-0.8142412194973309,-0.5137517020509683,-0.6719340085983276,0.38240373134613037,-0.6342492699623108
1732227254190,SW,4.5392810904174326,0.9s : 0.3s,-15.991779120841414,0.6944514279412861,4.389598660795457,4.231232134267151,1.0338844060897827,5.162285804748535,6.733642101287842,3.2141053676605225,-2.163707971572876,1.7003587484359741,-0.428602341741025,-0.742856905131758,-0.45588626992284526,-0.6152133345603943,0.4155999720096588,-0.6699174046516418
1732227254200,SW,4.5392810904174326,0.9s : 0.3s,-15.991779120841414,0.7215565903595255,5.022718912925708,4.80304254017237,0.6918836832046509,5.958248615264893,7.64704704284668,3.812804937362671,-2.208789110183716,1.9112788438796997,-0.4683209006496733,-0.6582086416253277,-0.3887789403503773,-0.5458373427391052,0.4513886272907257,-0.7059106826782227
1732227254210,SW,4.5392810904174326,0.9s : 0.3s,-15.991779120841414,0.7557168762524218,5.7505907313679,5.50419657518614,0.2865608036518097,6.896650791168213,8.7454833984375,4.518204212188721,-2.218839168548584,2.226828098297119,-0.5109908859703693,-0.556681016328985,-0.30940208973361616,-0.46087729930877686,0.489041805267334,-0.74056077003479
1732227254220,SW,4.5392810904174326,0.9s : 0.3s,-15.991779120841414,0.7986956864838806,6.548012029786333,6.4410864368334035,-0.2616945803165436,7.825799942016602,9.84631633758545,5.515905380249023,-2.2197556495666504,2.4769067764282227,-0.5550384300568196,-0.43461926605103096,-0.21431765094997937,-0.3578548729419708,0.5269759893417358,-0.7708671689033508
1732227254230,SW,4.5392810904174326,0.9s : 0.3s,-15.991779120841414,0.8519414324202077,7.363010360526158,7.419524749695378,-0.7946147918701172,8.505134582519531,10.907245635986328,6.655378341674805,-2.1196367740631104,2.502484083175659,-0.5969545555858935,-0.29074727535765604,-0.10069112728640593,-0.2370893508195877,0.5621263384819031,-0.7923399806022644
1732227254240,SW,4.5392810904174326,0.9s : 0.3s,-15.991779120841414,0.9163440858557164,8.093401435118565,8.340512448177902,-1.1802490949630737,8.906156539916992,11.555675506591797,7.841017246246338,-1.7047312259674072,2.2751896381378174,-0.6301525776376563,-0.12740834966760134,0.03142611805686664,-0.10265973210334778,0.5892680287361145,-0.8013889193534851
1732227254250,SW,4.5392810904174326,0.9s : 0.3s,-15.991779120841414,0.9921948906251082,8.734520150577938,9.225063509222942,-1.6210986375808716,9.331912994384766,11.98816967010498,8.95849323272705,-0.8780770897865295,2.018954277038574,-0.648241029238468,0.05126796866808167,0.17753598718054478,0.040850214660167694,0.6037851572036743,-0.7960997223854065
1732227254260,SW,4.5392810904174326,0.9s : 0.3s,-15.991779120841414,1.0796553602330694,9.228643074465213,10.24634127471438,-3.2702369689941406,9.019046783447266,12.305242538452148,10.072028160095215,0.2459096908569336,1.8658206462860107,-0.6541192172403606,0.2377447729012573,0.3329424407871765,0.1868981570005417,0.6084604859352112,-0.7712619304656982
1732227254270,SW,4.5392810904174326,0.9s : 0.3s,-15.991779120841414,1.1790110917149883,9.616158293825501,11.450854557009572,-5.9102463722229,8.265168190002441,12.472389221191406,11.218276023864746,1.3248050212860107,1.8754318952560425,-0.656400059720792,0.4263211761860607,0.4996751858601749,0.3275914192199707,0.6102689504623413,-0.7212875485420227
1732227254280,SW,4.5392810904174326,0.9s : 0.3s,-15.991779120841414,1.289916129481161,10.054592739477233,12.673199752562779,-9.2378568649292,6.995553493499756,12.915063858032227,12.282549858093262,2.760201930999756,1.4595363140106201,-0.6584592570013175,0.6170402037014403,0.6864102359517291,0.45765429735183716,0.6118989586830139,-0.6450831294059753
1732227254290,SW,4.5392810904174326,0.9s : 0.3s,-15.991779120841414,1.4116539967759216,10.719755728534851,14.021032018132393,-12.553284645080566,5.936620235443115,13.467327117919922,13.061444282531738,4.992588996887207,1.0305664539337158,-0.6540736830439525,0.8135171554557696,0.9025214237658251,0.5767239928245544,0.6084243655204773,-0.5451691746711731
1732227254300,SW,4.5392810904174326,0.9s : 0.3s,-15.991779120841414,1.5415033839891992,11.535856615531861,15.037976809786247,-15.199831008911133,4.697713851928711,13.743718147277832,12.957109451293945,7.610144138336182,0.5828956961631775,-0.6307253932132587,1.012765910212664,1.1441995514865388,0.6850869059562683,0.5897307395935059,-0.42763751745224
1732227254310,SW,4.5392810904174326,0.9s : 0.3s,-15.991779120841414,1.6755848855713866,12.295431504789988,15.605161723870475,-17.048242568969727,2.2899281978607178,13.655462265014648,11.891493797302246,10.090559005737305,0.5422791242599487,-0.581019470022473,1.1929749398942773,1.3965506153371912,0.7769477963447571,0.5488764047622681,-0.30836182832717896
