timestamp,club,max_speed,tempo,w.rotation,l.speed,t.spped,acc,rotation.x,rotation.y,rotation.z,userAcceleration.x,userAcceleration.y,userAcceleration.z,pitch,roll,yaw,gravity.x,gravity.y,gravity.z
1732225895852,9i,4.95078432358323,0.9s : 0.3s,-10.678880456661702,0.00038453191726430815,0.25086615203526746,0.03690776327353875,-0.8157775402069092,-0.1137760654091835,-0.009345080703496933,0.011068165302276611,0.00946071743965149,-0.03391420841217041,-0.16708160485828555,1.5815453321262292,2.9762893195037288,0.9860177040100098,0.1663053035736084,0.01059911772608757
1732225895862,9i,4.95078432358323,0.9s : 0.3s,-10.678880456661702,0.0007087922576336828,0.3543954445414472,0.032992390896585545,-0.8827179074287415,-0.11383501440286636,-0.01021253876388073,0.008799731731414795,-0.0028190314769744873,-0.031672000885009766,-0.16709345074282073,1.5818401633914387,2.9849378334138046,0.9860124588012695,0.16631698608398438,0.010889803059399128
1732225895872,9i,4.95078432358323,0.9s : 0.3s,-10.678880456661702,0.0009916993160550595,0.4214360070854584,0.049444082578979656,-0.8559664487838745,-0.1006704792380333,-0.0032366549130529165,0.016596317291259766,-0.039990514516830444,-0.02387547492980957,-0.16706361961947386,1.5822277599188703,2.9937687904319423,0.9860132336616516,0.16628757119178772,0.011272035539150238
1732225895882,9i,4.95078432358323,0.9s : 0.3s,-10.678880456661702,0.0012491129424272269,0.4585219681913331,0.03547750148348437,-0.8079349994659424,-0.08667626976966858,-0.0012065269984304905,0.017917215824127197,-0.024247676134109497,-0.0186996441334486,-0.16699052592506872,1.5827041600613116,3.002191823613033,0.9860198497772217,0.16621549427509308,0.01174191478639841
1732225895892,9i,4.95078432358323,0.9s : 0.3s,-10.678880456661702,0.0014666283410556785,0.4757200824270446,0.03867375190160368,-0.7643910050392151,-0.08358780294656754,0.007265787106007338,0.012807130813598633,0.008901327848434448,-0.03538930416107178,-0.1668751701023876,1.5831646608580026,3.0101848038131567,0.9860334396362305,0.16610173881053925,0.012196213006973267
1732225895902,9i,4.95078432358323,0.9s : 0.3s,-10.678880456661702,0.0016417532995653926,0.47622756988182313,0.03911530183761121,-0.7112901210784912,-0.08654813468456268,0.0015317682409659028,0.0036334991455078125,0.015249401330947876,-0.03583657741546631,-0.16673548022812457,1.5835560642021547,3.0176965294970697,0.9860517978668213,0.16596399247646332,0.012582444585859776
1732225895912,9i,4.95078432358323,0.9s : 0.3s,-10.678880456661702,0.0017909975487809162,0.4567882684799169,0.0332626223387039,-0.6060957908630371,-0.09507397562265396,0.002038035076111555,0.0096626877784729,0.00212782621383667,-0.03175699710845947,-0.16664168020121026,1.5837360076812048,3.024373293798612,0.986065149307251,0.1658714860677719,0.012760080397129059
1732225895922,9i,4.95078432358323,0.9s : 0.3s,-10.678880456661702,0.0019277333184791019,0.41935522097944977,0.02837793984582908,-0.48678016662597656,-0.09218183159828186,-0.004969174042344093,0.013286352157592773,0.004443839192390442,-0.024678586050868034,-0.16659863685142545,1.583675770527279,3.0303428192940047,0.9860730767250061,0.16582904756069183,0.01270077470690012
1732225895932,9i,4.95078432358323,0.9s : 0.3s,-10.678880456661702,0.002029053267229838,0.3738909206468436,0.042491537892059006,-0.39056679606437683,-0.08609303832054138,-0.0071135517209768295,0.009898066520690918,0.020488649606704712,-0.03588557243347168,-0.16660615424623296,1.5835126966310622,3.0352478279125,0.9860738515853882,0.16583645343780518,0.012539955787360668
1732225895942,9i,4.95078432358323,0.9s : 0.3s,-10.678880456661702,0.0020644577787707,0.3306994534386371,0.04963424607547362,-0.3334333598613739,-0.08263319730758667,-0.010111038573086262,-0.004731297492980957,0.033325985074043274,-0.036476731300354004,-0.16664782447828472,1.5832611333450446,3.0393247527045513,0.9860700368881226,0.1658775508403778,0.012291808612644672
1732225895952,9i,4.95078432358323,0.9s : 0.3s,-10.678880456661702,0.0020771708732649206,0.29582975492769464,0.04445619667586465,-0.30890750885009766,-0.08576799929141998,-0.011485762894153595,-0.014563918113708496,0.028761640191078186,-0.03061068058013916,-0.16672716077690522,1.5829450903033282,3.0430010552560725,0.9860606789588928,0.1659557819366455,0.011980007402598858
1732225895962,9i,4.95078432358323,0.9s : 0.3s,-10.678880456661702,0.0020947948552437006,0.26698919605114324,0.03336174510679438,-0.28680020570755005,-0.07813222706317902,-0.03385155647993088,-0.01132124662399292,0.00940568745136261,-0.02993941307067871,-0.16688981553920462,1.5826051458644101,3.0464498673026523,0.9860376119613647,0.16611617803573608,0.011644480749964714
1732225895972,9i,4.95078432358323,0.9s : 0.3s,-10.678880456661702,0.002123851926857054,0.24215203882912234,0.03321074646154686,-0.2210180014371872,-0.21334730088710785,-0.05225479602813721,-0.009408056735992432,0.011250615119934082,-0.029797077178955078,-0.16687574641858413,1.5819810064327007,3.0505054459366456,0.9860469698905945,0.1661023050546646,0.011029079556465149
1732225895982,9i,4.95078432358323,0.9s : 0.3s,-10.678880456661702,0.0024265780317827834,0.24590928679292115,0.08719617962101202,-0.19032827019691467,-0.41940316557884216,0.2491309493780136,0.07477998733520508,0.023942559957504272,-0.03791940212249756,-0.16765289623273552,1.5818014281052777,3.0527022760545846,0.9859196543693542,0.16686861217021942,0.010850583203136921
1732225895992,9i,4.95078432358323,0.9s : 0.3s,-10.678880456661702,0.0024014977113377034,0.2420803765331456,0.09933266802088418,-0.16461624205112457,-0.24698932468891144,0.19683897495269775,-0.0901898741722107,0.013153865933418274,-0.039493560791015625,-0.16819531870023677,1.581216880874316,3.054311784107441,0.9858352541923523,0.1674034148454666,0.010273321531713009
1732225896002,9i,4.95078432358323,0.9s : 0.3s,-10.678880456661702,0.0022208844393488483,0.19032993455335606,0.09889366526005898,-0.0886630192399025,-0.06516081839799881,-0.028463682159781456,-0.08811110258102417,0.01274709403514862,-0.04305696487426758,-0.1685305227543647,1.580529089467929,3.055356306486834,0.985785722732544,0.16773387789726257,0.009594721719622612
1732225896012,9i,4.95078432358323,0.9s : 0.3s,-10.678880456661702,0.0022063349963400867,0.15220509626589326,0.04926226879293605,-0.05897223576903343,-0.08377844095230103,-0.030498867854475975,0.003221452236175537,0.01821465790271759,-0.04565763473510742,-0.16871127279285536,1.5798395930928537,3.056076678319252,0.9857618808746338,0.1679120659828186,0.008914750069379807
1732225896022,9i,4.95078432358323,0.9s : 0.3s,-10.678880456661702,0.0023398287806866277,0.12750831571216997,0.038745000988080154,-0.07156432420015335,-0.07874786853790283,-0.019499247893691063,0.02084970474243164,0.0014028549194335938,-0.03262662887573242,-0.16895554549159458,1.5791123827285893,3.057195457530694,0.9857271909713745,0.16815285384655,0.008197551593184471
1732225896032,9i,4.95078432358323,0.9s : 0.3s,-10.678880456661702,0.002550463396659778,0.10987346157985901,0.02683782816813144,-0.06267096847295761,-0.08382251858711243,-0.012822968885302544,0.013133108615875244,-0.015162810683250427,-0.017829179763793945,-0.16910485431971975,1.5784196961516368,3.058346896566759,0.9857072830200195,0.16830003261566162,0.0075145564042031765
1732225896042,9i,4.95078432358323,0.9s : 0.3s,-10.678880456661702,0.002802138646206738,0.09107729512744334,0.01963727697670349,-0.006873480975627899,-0.08933508396148682,-0.009894091635942459,-0.0014547109603881836,-0.004846781492233276,-0.01897406578063965,-0.16922757928424623,1.5775998468694261,3.059099160619055,0.9856924414634705,0.16842101514339447,0.006706282030791044
1732225896052,9i,4.95078432358323,0.9s : 0.3s,-10.678880456661702,0.003096023233776626,0.08185919760410158,0.03199480471686611,0.06519192457199097,-0.09055428206920624,-0.008899932727217674,0.007146954536437988,0.015531271696090698,-0.027043819427490234,-0.16932824219734727,1.5766380629164158,3.059178161185368,0.9856815338134766,0.1685202419757843,0.0057581569999456406
1732225896062,9i,4.95078432358323,0.9s : 0.3s,-10.678880456661702,0.0034217317356203926,0.06593877231968681,0.04093147754706132,0.13677875697612762,-0.08490677922964096,-0.00931012723594904,0.005709171295166016,0.032015830278396606,-0.02485513687133789,-0.16943148932888838,1.5755631166864525,3.0585608381553344,0.985669732093811,0.1686220020055771,0.004698516335338354
1732225896072,9i,4.95078432358323,0.9s : 0.3s,-10.678880456661702,0.003771130701808383,0.07002431887218095,0.045109672811299385,0.16235709190368652,-0.0851624459028244,-0.006152416579425335,-0.001222372055053711,0.03653144836425781,-0.02643561363220215,-0.16952539187411556,1.574457639902699,3.0574366528636387,0.9856586456298828,0.16871456801891327,0.0036088209599256516
1732225896082,9i,4.95078432358323,0.9s : 0.3s,-10.678880456661702,0.004130196709857393,0.08251235913253832,0.03543919831083218,0.16181021928787231,-0.09169965982437134,-0.0019549087155610323,-0.0034763216972351074,0.025057420134544373,-0.024818897247314453,-0.16966412598229677,1.5731735022160682,3.055766834138241,0.9856389760971069,0.16885130107402802,0.0023430411238223314
1732225896092,9i,4.95078432358323,0.9s : 0.3s,-10.678880456661702,0.0044765884827551485,0.09507550526070169,0.01908936976583036,0.16533944010734558,-0.09718816727399826,0.0025128102861344814,0.0014438033103942871,-0.0010114014148712158,-0.01900780200958252,-0.16971747625108977,1.5718136846141646,3.054101828067214,0.9856321811676025,0.1689038872718811,0.0010027409298345447
1732225896102,9i,4.95078432358323,0.9s : 0.3s,-10.678880456661702,0.004797053188537358,0.10485390148195005,0.01819936775605759,0.1742895245552063,-0.08676792681217194,0.008129749447107315,0.0018286705017089844,-0.013152271509170532,-0.012445509433746338,-0.16965033018418216,1.5705122038482666,3.0523812200917435,0.9856440424919128,0.16883771121501923,-0.0002800440997816622
1732225896112,9i,4.95078432358323,0.9s : 0.3s,-10.678880456661702,0.005099882954472751,0.11370093507381955,0.01303259688229825,0.1932016909122467,-0.06995299458503723,-0.004086436238139868,-0.004383563995361328,1.5273690223693848e-05,-0.012273252010345459,-0.16954279945499312,1.5693776439234588,3.0508377209661264,0.9856613874435425,0.1687317192554474,-0.001398341846652329
1732225896122,9i,4.95078432358323,0.9s : 0.3s,-10.678880456661702,0.005394015897758898,0.14013489860416914,0.020457596743975626,0.2140602320432663,-0.19124963879585266,-0.1515214592218399,-0.01046741008758545,0.00888010859489441,-0.015168726444244385,-0.1693730274851123,1.5681045785095085,3.047245797089362,0.9856873154640198,0.16856437921524048,-0.002653228584676981
1732225896132,9i,4.95078432358323,0.9s : 0.3s,-10.678880456661702,0.0056080306245544,0.1867778894363981,0.0871854589263233,0.24919450283050537,-0.2348240166902542,-0.3348875641822815,0.08706218004226685,0.004148691892623901,-0.0020662550814449787,-0.16996253802545738,1.5672576644798513,3.0460388444299644,0.9855852723121643,0.16914542019367218,-0.003487668000161648
1732225896142,9i,4.95078432358323,0.9s : 0.3s,-10.678880456661702,0.005804563714405001,0.167239160598035,0.03942362610129778,0.10042700916528702,-0.12352035194635391,-0.09196329116821289,-0.03055751323699951,-0.023126870393753052,-0.009252488613128662,-0.17007913686207463,1.5658480570821214,3.045335302998037,0.9855596423149109,0.16926033794879913,-0.004876854829490185
1732225896152,9i,4.95078432358323,0.9s : 0.3s,-10.678880456661702,0.005841738916815456,0.14275819725969027,0.07413783289194124,0.1055876836180687,-0.09140928089618683,-0.0052550313994288445,-0.06851714849472046,-0.013530611991882324,0.024874508380889893,-0.17060705444033847,1.5646933341798093,3.0447057374143003,0.9854637384414673,0.16978062689304352,-0.006014352664351463
1732225896162,9i,4.95078432358323,0.9s : 0.3s,-10.678880456661702,0.005863998943715478,0.13262206614490632,0.04731764380147246,0.10424105823040009,-0.12082580476999283,-0.04199829697608948,-0.03484606742858887,0.02752991020679474,0.016334474086761475,-0.17088666472028483,1.5634183427410804,3.0440340103751327,0.9854077696800232,0.17005616426467896,-0.00727045489475131
1732225896172,9i,4.95078432358323,0.9s : 0.3s,-10.678880456661702,0.0058879861244918435,0.13143949844643288,0.025755051576623562,0.11529344320297241,-0.13233253359794617,-0.0473504513502121,0.007293581962585449,0.02125421166419983,0.012585103511810303,-0.17132466385870637,1.5619422388068025,3.0433601638556,0.9853214025497437,0.17048776149749756,-0.008724350482225418
1732225896182,9i,4.95078432358323,0.9s : 0.3s,-10.678880456661702,0.005849330198059722,0.14395088133424172,0.04451209750751553,0.2155638486146927,-0.15875482559204102,-0.012301255948841572,-0.016178131103515625,0.007089778780937195,0.04085743427276611,-0.17165419182127006,1.5602249118233602,3.041961855989425,0.9852487444877625,0.1708124577999115,-0.010415861383080482
1732225896192,9i,4.95078432358323,0.9s : 0.3s,-10.678880456661702,0.005809356833835924,0.18256406657998583,0.05055390256002565,0.3905183672904968,-0.17804676294326782,0.0652872771024704,-0.015293300151824951,0.03713028132915497,0.030710816383361816,-0.17215386760204526,1.5583648721883758,3.0389774791291453,0.9851421117782593,0.17130477726459503,-0.012247379869222641
1732225896202,9i,4.95078432358323,0.9s : 0.3s,-10.678880456661702,0.005928484388204092,0.25366874551320406,0.08615689151883356,0.6047661900520325,-0.18895825743675232,0.15342959761619568,-0.028185486793518066,0.08102399110794067,0.007981300354003906,-0.1726399526729467,1.556467830314135,3.0337954183091473,0.9850338101387024,0.1717836558818817,-0.01411501970142126
1732225896212,9i,4.95078432358323,0.9s : 0.3s,-10.678880456661702,0.006303841426842077,0.332292444418827,0.11036027902616882,0.7150021195411682,-0.21656832098960876,0.2309800386428833,-0.046052634716033936,0.09888987243175507,-0.016713442280888557,-0.1729209794579444,1.5545522816466688,3.026769738864728,0.9849568009376526,0.17206048965454102,-0.01600109040737152
1732225896222,9i,4.95078432358323,0.9s : 0.3s,-10.678880456661702,0.006898223712460242,0.3974648719011618,0.10452998191828265,0.7208191156387329,-0.27571502327919006,0.29558736085891724,-0.04429131746292114,0.0899868756532669,-0.029447555541992188,-0.173361920182602,1.552359383737677,3.0188282386688376,0.9848432540893555,0.17249484360218048,-0.01815955713391304
1732225896232,9i,4.95078432358323,0.9s : 0.3s,-10.678880456661702,0.007556395858998554,0.4402926879432813,0.0843338706043297,0.657361626625061,-0.3082450032234192,0.37685316801071167,-0.0436701774597168,0.061755046248435974,-0.03730189800262451,-0.17372137805856666,1.5502624096922133,3.0115264604090646,0.9847410321235657,0.1728489100933075,-0.020223433151841164
1732225896242,9i,4.95078432358323,0.9s : 0.3s,-10.678880456661702,0.008228895442225562,0.4729208987245924,0.06011926357841628,0.6100767850875854,-0.3484814465045929,0.45244166254997253,-0.045269668102264404,0.02609582245349884,-0.029731987044215202,-0.17403059237892882,1.5483381722314236,3.004792189245449,0.9846466183662415,0.17315346002578735,-0.022117065265774727
1732225896252,9i,4.95078432358323,0.9s : 0.3s,-10.678880456661702,0.008884214125042856,0.49881208536653265,0.059848852982357384,0.5449694395065308,-0.39208856225013733,0.5337953567504883,-0.055299341678619385,0.0005369633436203003,-0.02288186363875866,-0.17420140934162928,1.546509848694863,2.9985333271686656,0.9845749735832214,0.1733216941356659,-0.023916561156511307
1732225896262,9i,4.95078432358323,0.9s : 0.3s,-10.678880456661702,0.00950585230852,0.5294476369875506,0.07272616157069108,0.5331404805183411,-0.43445029854774475,0.6048766374588013,-0.06100434064865112,-0.024770915508270264,-0.030886352062225342,-0.17430334818159166,1.5446896195895712,2.9926825824735186,0.984512209892273,0.17342208325862885,-0.025708213448524475
1732225896272,9i,4.95078432358323,0.9s : 0.3s,-10.678880456661702,0.01007288099642342,0.5654171679102823,0.08778852230083548,0.5391062498092651,-0.46962907910346985,0.6733151078224182,-0.07517820596694946,-0.0323362797498703,-0.03177148103713989,-0.17430027187579153,1.5428918725375091,2.9868202729795064,0.9844648241996765,0.1734190583229065,-0.027478085830807686
1732225896282,9i,4.95078432358323,0.9s : 0.3s,-10.678880456661702,0.010592798754879413,0.5971061086089184,0.09570115318518758,0.5658636689186096,-0.4758073687553406,0.6806143522262573,-0.08833730220794678,-0.022842347621917725,-0.028869688510894775,-0.1743282586141959,1.541122050073132,2.9807377389721554,0.9844098687171936,0.17344661056995392,-0.029220227152109146
1732225896292,9i,4.95078432358323,0.9s : 0.3s,-10.678880456661702,0.011138247623365906,0.618861826217924,0.10236250740411684,0.6148812770843506,-0.4625224769115448,0.635433554649353,-0.09691411256790161,-0.011497899889945984,-0.03087937831878662,-0.17427451792918217,1.5393351801585713,2.974318862411776,0.9843654632568359,0.17339369654655457,-0.030979488044977188
1732225896302,9i,4.95078432358323,0.9s : 0.3s,-10.678880456661702,0.011720186180574873,0.630597164430421,0.09779126872701993,0.6571898460388184,-0.4320799708366394,0.5875297784805298,-0.09193795919418335,-0.009180411696434021,-0.032035354524850845,-0.174214431097934,1.5375181219673686,2.9673963621241484,0.9843180775642395,0.1733345091342926,-0.03276843577623367
1732225896312,9i,4.95078432358323,0.9s : 0.3s,-10.678880456661702,0.012330729055304914,0.630666488693485,0.08779088205534058,0.6576548218727112,-0.41885125637054443,0.531562089920044,-0.08160895109176636,-0.009890154004096985,-0.030812382698059082,-0.17420688141129936,1.535702095555454,2.9602991534269925,0.9842581152915955,0.17332707345485687,-0.03455596789717674
1732225896322,9i,4.95078432358323,0.9s : 0.3s,-10.678880456661702,0.012967212958661661,0.6235031669887848,0.08042816519478452,0.6390617489814758,-0.4144543707370758,0.48525291681289673,-0.07487517595291138,-0.0038371235132217407,-0.029114846140146255,-0.17428913998117174,1.533821788603141,2.9533572969246893,0.9841772317886353,0.17340809106826782,-0.03640608862042427
1732225896332,9i,4.95078432358323,0.9s : 0.3s,-10.678880456661702,0.013621997461012201,0.6103910603023992,0.07637903104785021,0.634428083896637,-0.39324334263801575,0.4426066279411316,-0.06927865743637085,-0.007372558116912842,-0.03130286559462547,-0.17437740386282796,1.5318736789497505,2.94657406460128,0.9840890169143677,0.17349500954151154,-0.038322705775499344
1732225896342,9i,4.95078432358323,0.9s : 0.3s,-10.678880456661702,0.014284703208609811,0.5953052689518129,0.06855316394812554,0.6445430517196655,-0.36469799280166626,0.39640378952026367,-0.06288117170333862,-0.008204430341720581,-0.026041924953460693,-0.1744939086412266,1.5299534692966241,2.9397902285943256,0.983993411064148,0.17360974848270416,-0.04021146520972252
1732225896352,9i,4.95078432358323,0.9s : 0.3s,-10.678880456661702,0.01496462522447184,0.582399548624501,0.07050432208668014,0.6685628890991211,-0.3426899015903473,0.3537828326225281,-0.0664975643157959,0.009349822998046875,-0.021482881158590317,-0.17465756626407317,1.5280482087617326,2.932858975561879,0.9838865995407104,0.17377091944217682,-0.042084939777851105
1732225896362,9i,4.95078432358323,0.9s : 0.3s,-10.678880456661702,0.015667643859714583,0.5722485000725456,0.07253853325065893,0.6816427707672119,-0.3239329755306244,0.3308764696121216,-0.06209903955459595,0.02065935730934143,-0.03128480538725853,-0.17473223875048946,1.5261303561584656,2.9257634986012193,0.9837910532951355,0.17384445667266846,-0.0439712256193161
1732225896372,9i,4.95078432358323,0.9s : 0.3s,-10.678880456661702,0.016369901146831494,0.5671447718460615,0.05500018674534092,0.7058849930763245,-0.30400773882865906,0.2945599853992462,-0.046469032764434814,0.013471633195877075,-0.02615654096007347,-0.17468659036962456,1.524143993457089,2.9185344320176405,0.9837097525596619,0.17379949986934662,-0.045925676822662354
1732225896382,9i,4.95078432358323,0.9s : 0.3s,-10.678880456661702,0.017061144386397425,0.5653951727812121,0.051187960352345165,0.7464447617530823,-0.2782246470451355,0.2519804537296295,-0.043238043785095215,0.008606597781181335,-0.026011638343334198,-0.17465305095949674,1.522150980168828,2.91107498890245,0.9836220145225525,0.17376647889614105,-0.04788641259074211
1732225896392,9i,4.95078432358323,0.9s : 0.3s,-10.678880456661702,0.017758310125920242,0.5599255126457636,0.06181195977578715,0.7436146140098572,-0.25246870517730713,0.2174839973449707,-0.04863935708999634,0.020683258771896362,-0.03204893320798874,-0.17463050770950156,1.5201912254795584,2.9036527108202748,0.9835302233695984,0.17374427616596222,-0.04981417581439018
1732225896402,9i,4.95078432358323,0.9s : 0.3s,-10.678880456661702,0.01844278657632392,0.5413501599189247,0.048266727412061505,0.6846585273742676,-0.24321550130844116,0.19502300024032593,-0.03844410181045532,0.015714198350906372,-0.02459251880645752,-0.17453215031463779,1.5183045106936008,2.896863260280853,0.9834516048431396,0.1736474186182022,-0.0516706258058548
1732225896412,9i,4.95078432358323,0.9s : 0.3s,-10.678880456661702,0.018975200763334647,0.5128259387187726,0.027606298361403336,0.5996834635734558,-0.2432389259338379,0.17004521191120148,-0.02219635248184204,-0.014518707990646362,-0.0076574645936489105,-0.1743825149499046,1.5164151791442528,2.8910162384693066,0.9833781719207764,0.17350004613399506,-0.0535300113260746
1732225896422,9i,4.95078432358323,0.9s : 0.3s,-10.678880456661702,0.019451226986864713,0.4729421374049135,0.049278964398303815,0.5005917549133301,-0.22491808235645294,0.1458280235528946,-0.0187222957611084,-0.04558119177818298,-0.0004969201982021332,-0.17422309922180457,1.5145969895109264,2.8862553250434995,0.9833068251609802,0.17334304749965668,-0.055319443345069885
1732225896432,9i,4.95078432358323,0.9s : 0.3s,-10.678880456661702,0.01987219300740101,0.4248952984557693,0.05396331473150636,0.39714524149894714,-0.21112237870693207,0.1276700645685196,-0.02241617441177368,-0.04712136089801788,0.013752520084381104,-0.1740362355478622,1.5129562069919702,2.882730308877157,0.9832470417022705,0.17315901815891266,-0.05693463236093521
1732225896442,9i,4.95078432358323,0.9s : 0.3s,-10.678880456661702,0.020248115433218302,0.37158377453821306,0.05296117690786622,0.2916466295719147,-0.20448333024978638,0.11027885228395462,-0.024881064891815186,-0.044495776295661926,0.014350775629281998,-0.17383373155493523,1.511434217617421,2.8802855509208087,0.9831942319869995,0.172959566116333,-0.058433134108781815
1732225896452,9i,4.95078432358323,0.9s : 0.3s,-10.678880456661702,0.020582166361857345,0.32075678711869254,0.05548674698690149,0.21476517617702484,-0.2021791636943817,0.0975516065955162,-0.022409796714782715,-0.049396246671676636,0.011687211692333221,-0.17358830844261247,1.5099555963880444,2.878889951166249,0.9831492304801941,0.1727178394794464,-0.05988943204283714
1732225896462,9i,4.95078432358323,0.9s : 0.3s,-10.678880456661702,0.020878765440462785,0.27998523659779895,0.05750980733244021,0.1984449177980423,-0.1790383905172348,0.08361092954874039,-0.02135002613067627,-0.05239763855934143,0.010297659784555435,-0.173304765233327,1.5085317528748845,2.8780002602837937,0.9831116795539856,0.17243854701519012,-0.06129225715994835
1732225896472,9i,4.95078432358323,0.9s : 0.3s,-10.678880456661702,0.021156736990046925,0.248802799431644,0.050596952979684445,0.20102205872535706,-0.1591925024986267,0.0627455934882164,-0.031022846698760986,-0.0379604697227478,0.012515485286712646,-0.17300809122136304,1.507194826956988,2.8771237137073324,0.9830799102783203,0.17214630544185638,-0.06260979920625687
1732225896482,9i,4.95078432358323,0.9s : 0.3s,-10.678880456661702,0.021444541360670418,0.21743403460235922,0.04550506881735096,0.15405108034610748,-0.14638084173202515,0.048058923333883286,-0.04201042652130127,-0.01745721697807312,-0.0010396763682365417,-0.1727184039539357,1.5059462596078759,2.876420599850813,0.9830505847930908,0.171860933303833,-0.06384041905403137
1732225896492,9i,4.95078432358323,0.9s : 0.3s,-10.678880456661702,0.02173657135568045,0.18057850578588203,0.044797323463278235,0.05844360589981079,-0.14484979212284088,0.03708803281188011,-0.037114500999450684,-0.024621129035949707,-0.004807703197002411,-0.17244726219112075,1.5047842719892763,2.8763544726205956,0.983022153377533,0.1715938299894333,-0.0649857372045517
1732225896502,9i,4.95078432358323,0.9s : 0.3s,-10.678880456661702,0.021999990419611738,0.1430025566490802,0.05467410385366471,-0.043823909014463425,-0.14447757601737976,0.032560788094997406,-0.0221787691116333,-0.0472201406955719,0.016359038650989532,-0.17220018069908874,1.503713243039077,2.877289550022702,0.9829943180084229,0.1713504046201706,-0.06604138761758804
1732225896512,9i,4.95078432358323,0.9s : 0.3s,-10.678880456661702,0.022215860324228568,0.11676197718837632,0.06622473088936408,-0.08267037570476532,-0.13764628767967224,0.02044473960995674,-0.01845794916152954,-0.05927957594394684,0.02304237335920334,-0.17197299827690643,1.5027069236118327,2.878850639560275,0.9829663038253784,0.1711265742778778,-0.06703321635723114
1732225896522,9i,4.95078432358323,0.9s : 0.3s,-10.678880456661702,0.022411166453196872,0.10210404229423928,0.061344343879475606,-0.044161465018987656,-0.1205902025103569,0.005231131799519062,-0.021394729614257812,-0.05483996868133545,0.017261862754821777,-0.17181879158544852,1.50174372392705,2.8802599062104517,0.9829275608062744,0.17097464203834534,-0.0679817944765091
1732225896532,9i,4.95078432358323,0.9s : 0.3s,-10.678880456661702,0.02261362066581741,0.09125198957457008,0.032532654905817145,0.027756666764616966,-0.09908092021942139,-0.012385411188006401,-0.026253223419189453,-0.01918494701385498,0.0010390877723693848,-0.17176168441828352,1.5008001567349198,2.8811139964495593,0.982872724533081,0.17091837525367737,-0.0689099058508873
1732225896542,9i,4.95078432358323,0.9s : 0.3s,-10.678880456661702,0.02283632629685802,0.08922549149842963,0.0367089379341179,0.12381342798471451,-0.08061279356479645,-0.01787911355495453,-0.02111518383026123,0.028428569436073303,-0.009670138359069824,-0.1717090424309155,1.4998513020723125,2.880917718468283,0.9828158020973206,0.17086650431156158,-0.0698431134223938
1732225896552,9i,4.95078432358323,0.9s : 0.3s,-10.678880456661702,0.023081773731068338,0.0958345536449181,0.06698895120802463,0.21869626641273499,-0.06754705309867859,-0.01649373583495617,-0.008002281188964844,0.06504610180854797,-0.01387399435043335,-0.17160425993080097,1.4988667518869798,2.8796684505055383,0.9827644228935242,0.1707632690668106,-0.07081199437379837
1732225896562,9i,4.95078432358323,0.9s : 0.3s,-10.678880456661702,0.0233186724644002,0.1157047173816316,0.062463310350467635,0.2591584622859955,-0.07014496624469757,-0.020166568458080292,0.0026221871376037598,0.06108961999416351,-0.012761175632476807,-0.17143842089414765,1.497767548246975,2.8776105084266765,0.9827142953872681,0.17059986293315887,-0.07189428061246872
1732225896572,9i,4.95078432358323,0.9s : 0.3s,-10.678880456661702,0.023544931361508335,0.13794024495209592,0.043269992623132685,0.28812435269355774,-0.06246600300073624,-0.02527184970676899,0.005119502544403076,0.04016341269016266,-0.015263788402080536,-0.1713674953773675,1.496619541418161,2.875132589818038,0.9826430678367615,0.17052997648715973,-0.07302328199148178
1732225896582,9i,4.95078432358323,0.9s : 0.3s,-10.678880456661702,0.02376752827151499,0.1555258283684888,0.03636054473124024,0.29346543550491333,-0.053901057690382004,-0.016358615830540657,-0.0030086636543273926,0.03416910767555237,-0.012062720954418182,-0.1712101930954706,1.4955689550195217,2.872172908264759,0.9825925230979919,0.17037497460842133,-0.07405760884284973
1732225896592,9i,4.95078432358323,0.9s : 0.3s,-10.678880456661702,0.023992573672973628,0.1677096680095543,0.04181286696949786,0.28918227553367615,-0.05472157895565033,-0.009382997639477253,-0.004363536834716797,0.03726102411746979,-0.018463246524333954,-0.17098363484215698,1.4946007981809473,2.8694461499684487,0.9825587868690491,0.1701517254114151,-0.07501181215047836
1732225896602,9i,4.95078432358323,0.9s : 0.3s,-10.678880456661702,0.02421131255069392,0.16979499911543794,0.029349508255295836,0.2682029604911804,-0.0538092702627182,-0.004455350339412689,0.0015655755996704102,0.0161065012216568,-0.024485163390636444,-0.17069537171528648,1.4936363644939006,2.8668487396465028,0.9825348854064941,0.1698676496744156,-0.07596316933631897
1732225896612,9i,4.95078432358323,0.9s : 0.3s,-10.678880456661702,0.02441616517885232,0.17012493172502582,0.02982883163517988,0.2548868954181671,-0.04600514471530914,-0.003078229958191514,0.0032504796981811523,-0.011120542883872986,-0.027486853301525116,-0.17049952133332902,1.4927183350321866,2.86449111686312,0.9824979305267334,0.16967464983463287,-0.0768677294254303
1732225896622,9i,4.95078432358323,0.9s : 0.3s,-10.678880456661702,0.024622604772682504,0.17116211214088822,0.0372619486166005,0.26623407006263733,-0.04557131603360176,-0.0014863256365060806,-0.009905457496643066,-0.014411777257919312,-0.03290342539548874,-0.17041737907937443,1.4917872622543678,2.8620411546012736,0.9824398159980774,0.1695936918258667,-0.07778356969356537
1732225896632,9i,4.95078432358323,0.9s : 0.3s,-10.678880456661702,0.024857265867381753,0.17388531759190085,0.05051281764969489,0.27851682901382446,-0.039997316896915436,-0.001912964042276144,-0.012823104858398438,-0.006773129105567932,-0.048386335372924805,-0.17042349270066967,1.4908659779740023,2.8594448252744624,0.9823667407035828,0.1695997267961502,-0.07868856191635132
1732225896642,9i,4.95078432358323,0.9s : 0.3s,-10.678880456661702,0.025106155608294267,0.18036413043344884,0.04799446212259762,0.29406866431236267,-0.035337671637535095,-0.0003438293933868408,-0.009580850601196289,0.0007466375827789307,-0.04702252894639969,-0.17041088232571225,1.489974874971486,2.8567793531777554,0.9822984933853149,0.16958729922771454,-0.07956410199403763
1732225896652,9i,4.95078432358323,0.9s : 0.3s,-10.678880456661702,0.02535673753970678,0.1840607910120715,0.04090582847670207,0.29546308517456055,-0.038878876715898514,0.002769938437268138,-0.006282150745391846,-0.004560708999633789,-0.04016243666410446,-0.1702687337489346,1.4890668042204536,2.853989823307139,0.9822496771812439,0.16944719851016998,-0.08045802265405655
1732225896662,9i,4.95078432358323,0.9s : 0.3s,-10.678880456661702,0.025598093820741626,0.1844671769109573,0.040505297925805685,0.2773395776748657,-0.04218035563826561,0.0024818177334964275,0.005123436450958252,-0.005772456526756287,-0.03976315259933472,-0.17013581220423585,1.4881340202522269,2.851364829402354,0.9821966886520386,0.16931620240211487,-0.0813760757446289
1732225896672,9i,4.95078432358323,0.9s : 0.3s,-10.678880456661702,0.025823050716726772,0.18256465682377088,0.027944993762715933,0.24905337393283844,-0.04045595973730087,0.005363890901207924,0.006118059158325195,-0.0074211955070495605,-0.026237718760967255,-0.17005920029927168,1.4871966827175853,2.8489002311332725,0.9821328520774841,0.16924069821834564,-0.08229776471853256
1732225896682,9i,4.95078432358323,0.9s : 0.3s,-10.678880456661702,0.02602862142488531,0.17077966969660147,0.019919409443587163,0.20959743857383728,-0.04082502797245979,0.007096243556588888,0.0034806132316589355,-0.012175023555755615,-0.015376508235931396,-0.16989738152953288,1.4862854732961877,2.8468594162402296,0.9820847511291504,0.1690812110900879,-0.08319497853517532
1732225896692,9i,4.95078432358323,0.9s : 0.3s,-10.678880456661702,0.02621199218759153,0.1571005345620871,0.026007493519069953,0.18152186274528503,-0.04350550100207329,0.009212391451001167,0.004006922245025635,-0.022176772356033325,-0.012981720268726349,-0.1695951146011664,1.4854051088396538,2.845107735761123,0.9820621609687805,0.1687832921743393,-0.08406390249729156
1732225896702,9i,4.95078432358323,0.9s : 0.3s,-10.678880456661702,0.026378087323254317,0.14607117462080443,0.031245712631780317,0.17402400076389313,-0.04335254430770874,0.008955663070082664,0.004394710063934326,-0.024224773049354553,-0.019239060580730438,-0.16927336444848506,1.4845099235667707,2.8435929535139763,0.9820403456687927,0.16846615076065063,-0.08494765311479568
1732225896712,9i,4.95078432358323,0.9s : 0.3s,-10.678880456661702,0.026538656791580642,0.13791537401580595,0.029676780576814638,0.17301173508167267,-0.03788880258798599,0.004087937064468861,0.0027045607566833496,-0.011838555335998535,-0.027078501880168915,-0.16904514205886897,1.483484171107931,2.8420191227434985,0.9819909930229187,0.16824117302894592,-0.08595829457044601
1732225896722,9i,4.95078432358323,0.9s : 0.3s,-10.678880456661702,0.0267012273562737,0.137048704288134,0.026510202268648815,0.1877809464931488,-0.04200796037912369,0.009958908893167973,-0.0014604926109313965,-0.0009596049785614014,-0.02645254135131836,-0.16884449520944406,1.4823834976004722,2.840297602880259,0.9819294214248657,0.16804338991641998,-0.08704207092523575
1732225896732,9i,4.95078432358323,0.9s : 0.3s,-10.678880456661702,0.026859314476654763,0.13320470492891204,0.024176113829851523,0.16813215613365173,-0.047891948372125626,0.005298643372952938,0.0036565661430358887,-0.0019917190074920654,-0.0238148495554924,-0.16857577510582117,1.4812863702271915,2.8385814768671382,0.9818782806396484,0.16777847707271576,-0.08812335878610611
1732225896742,9i,4.95078432358323,0.9s : 0.3s,-10.678880456661702,0.027004381179550237,0.12313620753136813,0.014616847948825484,0.14053913950920105,-0.050835803151130676,-0.0024715287145227194,0.005566775798797607,-0.004807189106941223,-0.012631475925445557,-0.16836707751182536,1.480171966090428,2.837194003018757,0.981814444065094,0.1675727367401123,-0.08922068774700165
1732225896752,9i,4.95078432358323,0.9s : 0.3s,-10.678880456661702,0.02713933614296011,0.11431640881128266,0.008654787269117665,0.13081753253936768,-0.05111170932650566,0.0006528920494019985,-1.0251998901367188e-05,-0.005003407597541809,-0.007061950862407684,-0.1681791475984883,1.4792267593866666,2.8360038567166757,0.9817609190940857,0.1673874706029892,-0.09015153348445892
1732225896762,9i,4.95078432358323,0.9s : 0.3s,-10.678880456661702,0.02726150814079941,0.10672357674526585,0.008051094865933141,0.12007062137126923,-0.05426773428916931,0.0013644886203110218,-0.0009233951568603516,-0.00790223479270935,-0.0012337565422058105,-0.16793120189706193,1.478407602364573,2.834973165211765,0.9817280173301697,0.16714301705360413,-0.09095954895019531
1732225896772,9i,4.95078432358323,0.9s : 0.3s,-10.678880456661702,0.02737234829793038,0.10373646148396867,0.0092616707862855,0.1208471953868866,-0.05459876358509064,-0.0018094666302204132,-0.003698289394378662,-0.008239418268203735,0.002052605152130127,-0.16759221924705972,1.4775988771513076,2.8339557143257816,0.9817105531692505,0.16680878400802612,-0.09175874292850494
1732225896782,9i,4.95078432358323,0.9s : 0.3s,-10.678880456661702,0.02748592172720203,0.10091355108087864,0.01396527229553293,0.11660145223140717,-0.05446440726518631,-0.002926562912762165,-0.010754227638244629,-0.004804447293281555,-0.007502846419811249,-0.16725000138788074,1.4767218119763033,2.832946961043737,0.9816862940788269,0.16647136211395264,-0.09262506663799286
1732225896792,9i,4.95078432358323,0.9s : 0.3s,-10.678880456661702,0.02760682861872592,0.0990458753402275,0.016303601679738718,0.11633513122797012,-0.053599946200847626,-0.0030986033380031586,-0.012437522411346436,0.0013232529163360596,-0.010457746684551239,-0.16705523869174604,1.4757713486752615,2.831995313675052,0.9816300868988037,0.16627930104732513,-0.09356115758419037
1732225896802,9i,4.95078432358323,0.9s : 0.3s,-10.678880456661702,0.027736009743582583,0.09782327170006333,0.01914630876790023,0.11892905831336975,-0.05134344846010208,-0.004502022638916969,-0.013659179210662842,-0.002485722303390503,-0.013184428215026855,-0.1669875648748501,1.4748505672592795,2.8307899841392685,0.9815548658370972,0.16621257364749908,-0.09446607530117035
1732225896812,9i,4.95078432358323,0.9s : 0.3s,-10.678880456661702,0.02787050289482061,0.0979021769633861,0.01822679769729826,0.136133074760437,-0.05530756339430809,-0.010454719886183739,-0.015869081020355225,-0.0046392083168029785,-0.007672429084777832,-0.16692769311255345,1.4739151336215677,2.8294778679779333,0.9814759492874146,0.16615353524684906,-0.09538517892360687
1732225896822,9i,4.95078432358323,0.9s : 0.3s,-10.678880456661702,0.02801387065862005,0.10156376251296102,0.020215144726017025,0.16445299983024597,-0.05820636823773384,-0.012446930631995201,-0.0153694748878479,-0.00024335086345672607,-0.013129055500030518,-0.16684898579084353,1.4730241244111197,2.8279352406759757,0.9814035892486572,0.1660759299993515,-0.0962609201669693
1732225896832,9i,4.95078432358323,0.9s : 0.3s,-10.678880456661702,0.02816736135684229,0.11162052642991127,0.02213923474564538,0.1940540373325348,-0.05404384806752205,-0.01351965218782425,-0.014368653297424316,0.00913238525390625,-0.014152280986309052,-0.16676466325252995,1.4721556888246685,2.826105661762701,0.9813334941864014,0.16599276661872864,-0.09711454063653946
1732225896842,9i,4.95078432358323,0.9s : 0.3s,-10.678880456661702,0.028327098763621942,0.12527678174116663,0.020750238175662926,0.23129527270793915,-0.0432242713868618,-0.012615942396223545,-0.012911319732666016,0.012365132570266724,-0.010534405708312988,-0.16661209481601574,1.471348099001486,2.8239415729055035,0.9812800288200378,0.16584230959415436,-0.09790954738855362
1732225896852,9i,4.95078432358323,0.9s : 0.3s,-10.678880456661702,0.028490071835559214,0.1388895596567644,0.017123045950933374,0.25223278999328613,-0.03995870426297188,-0.00476281251758337,-0.013346970081329346,0.005997970700263977,-0.00889277458190918,-0.16639978597912503,1.4706116983374662,2.821535932610782,0.9812426567077637,0.1656329482793808,-0.09863565117120743
1732225896862,9i,4.95078432358323,0.9s : 0.3s,-10.678880456661702,0.028654690811939307,0.13990378153403119,0.01628112033291089,0.21994130313396454,-0.035935331135988235,0.006728095002472401,-0.01369631290435791,0.0057844072580337524,-0.00663524866104126,-0.16612121465642932,1.469824134213847,2.819119132545813,0.9812105298042297,0.16535821557044983,-0.09941305965185165
1732225896872,9i,4.95078432358323,0.9s : 0.3s,-10.678880456661702,0.028813425064302074,0.1383790794498681,0.01736445524096034,0.18400034308433533,-0.03631269931793213,0.00963866338133812,-0.010119616985321045,-0.01216648519039154,-0.007148027420043945,-0.1658803387654576,1.4690601141072148,2.8170968538351406,0.9811739325523376,0.16512064635753632,-0.10016673803329468
1732225896882,9i,4.95078432358323,0.9s : 0.3s,-10.678880456661702,0.028960334700095697,0.13272851005543398,0.027516848615185708,0.16970926523208618,-0.025239720940589905,0.0149356909096241,-0.012877345085144043,-0.02422766387462616,0.002090752124786377,-0.16557775075790965,1.4683736411264472,2.8153198273803475,0.9811545014381409,0.16482220590114594,-0.10084536671638489
1732225896892,9i,4.95078432358323,0.9s : 0.3s,-10.678880456661702,0.029112103366928554,0.12737447024891366,0.025376437444078827,0.1626867949962616,-0.02117760106921196,0.009513229131698608,-0.02080482244491577,-0.012932449579238892,-0.006623797118663788,-0.16528002430362512,1.4678207137543575,2.8136722469439808,0.9811473488807678,0.16452854871749878,-0.10139289498329163
1732225896902,9i,4.95078432358323,0.9s : 0.3s,-10.678880456661702,0.02927075359053496,0.12613733599123236,0.02252139871268984,0.1708628237247467,-0.018498685210943222,0.003434463869780302,-0.019363343715667725,-0.006102040410041809,-0.00974881649017334,-0.165069094226548,1.4672613787354816,2.8119908653591272,0.9811250567436218,0.16432048380374908,-0.10194525867700577
1732225896912,9i,4.95078432358323,0.9s : 0.3s,-10.678880456661702,0.02943506844223841,0.12635204941251257,0.0190556289443553,0.19036409258842468,-0.02129952982068062,0.0041202278807759285,-0.014915049076080322,0.004236072301864624,-0.011077634990215302,-0.16493730321498218,1.466673994112555,2.810153653251699,0.9810864329338074,0.16419048607349396,-0.10252378135919571
1732225896922,9i,4.95078432358323,0.9s : 0.3s,-10.678880456661702,0.029605851200054507,0.1261638432247603,0.021542171741780008,0.18346263468265533,-0.027024216949939728,0.007894625887274742,-0.01154935359954834,0.005134329199790955,-0.017444662749767303,-0.16480009803743334,1.466073988838308,2.808252345752899,0.9810471534729004,0.16405513882637024,-0.1031147688627243
1732225896932,9i,4.95078432358323,0.9s : 0.3s,-10.678880456661702,0.029766188433837423,0.12534970283555316,0.01540975616252474,0.17365634441375732,-0.027733150869607925,0.003089750884100795,-0.004234194755554199,-0.012085214257240295,-0.008572034537792206,-0.16463769076509932,1.4654628273619743,2.806453853865019,0.9810104966163635,0.16389493644237518,-0.103717140853405
1732225896942,9i,4.95078432358323,0.9s : 0.3s,-10.678880456661702,0.029908747276809367,0.1254027678642953,0.01828841830139568,0.18646734952926636,-0.021085767075419426,0.012326358817517757,-0.004220068454742432,-0.01763559877872467,0.002375483512878418,-0.16444824525328802,1.4648835428530564,2.8046310236049363,0.980981171131134,0.16370804607868195,-0.10428868979215622
1732225896952,9i,4.95078432358323,0.9s : 0.3s,-10.678880456661702,0.030041245610798958,0.12479112464196031,0.015171478002981388,0.1762876808643341,-0.021553151309490204,0.014263808727264404,-0.0041367411613464355,-0.013622000813484192,-0.005244255065917969,-0.16404556591979028,1.4643364129649263,2.802811898456336,0.9809893369674683,0.16331078112125397,-0.10483238846063614
1732225896962,9i,4.95078432358323,0.9s : 0.3s,-10.678880456661702,0.030158826208152422,0.12475678910575676,0.02276231494881434,0.18539489805698395,-0.011248315684497356,0.020077556371688843,-0.002407252788543701,-0.022583022713661194,-0.001528136432170868,-0.16352388626506964,1.4639172785340693,2.8010370123258115,0.9810298085212708,0.16279608011245728,-0.10525260865688324
1732225896972,9i,4.95078432358323,0.9s : 0.3s,-10.678880456661702,0.03026497465957637,0.12586687329829524,0.030724074603071038,0.20268148183822632,-0.006537450477480888,0.026716550812125206,-0.0060572028160095215,-0.030062511563301086,-0.0018773525953292847,-0.16301625280217436,1.4634579236753562,2.7990977531916115,0.9810634255409241,0.16229520738124847,-0.10571207851171494
1732225896982,9i,4.95078432358323,0.9s : 0.3s,-10.678880456661702,0.030371636490705484,0.12705909420713046,0.028999039681608687,0.20481666922569275,0.003686469281092286,0.03687194734811783,-0.008712053298950195,-0.024670526385307312,-0.012506380677223206,-0.162469377453435,1.4630567829356094,2.7970543597659545,0.9811092019081116,0.16175556182861328,-0.10611516237258911
1732225896992,9i,4.95078432358323,0.9s : 0.3s,-10.678880456661702,0.030486170616242127,0.1286111113775057,0.030558366885928574,0.20682016015052795,0.0069035678170621395,0.045933619141578674,-0.013540208339691162,-0.022183313965797424,-0.01607411354780197,-0.16191269202964312,1.4627060546058663,2.795009678247293,0.9811612367630005,0.1612061709165573,-0.10646895319223404
1732225897002,9i,4.95078432358323,0.9s : 0.3s,-10.678880456661702,0.03060754856567344,0.13020698440329623,0.03157468907207897,0.20763854682445526,0.0004971562884747982,0.05222220718860626,-0.011233985424041748,-0.022928506135940552,-0.018575310707092285,-0.16126087718092916,1.462280928687648,2.7929463926446827,0.9812201261520386,0.16056285798549652,-0.10689741373062134
1732225897012,9i,4.95078432358323,0.9s : 0.3s,-10.678880456661702,0.030724143441422852,0.13137657213277143,0.026208801734322554,0.20693360269069672,-0.004631825722754002,0.05424141883850098,-0.002074718475341797,-0.0223207026720047,-0.01357877254486084,-0.160444152996321,1.4618840419641788,2.791160684994773,0.9813076853752136,0.15975667536258698,-0.10730106383562088
1732225897022,9i,4.95078432358323,0.9s : 0.3s,-10.678880456661702,0.03083154575205701,0.13713011205033696,0.017517779318488448,0.2230001986026764,-0.010022330097854137,0.06022234261035919,0.0031757354736328125,-0.013767063617706299,-0.010356411337852478,-0.15952338551258094,1.4615087442175838,2.7890539691703444,0.9814130067825317,0.1588476598262787,-0.10768532007932663
1732225897032,9i,4.95078432358323,0.9s : 0.3s,-10.678880456661702,0.0309343676938957,0.14058308014382317,0.020833616853668753,0.22379355132579803,-0.01079384796321392,0.06425170600414276,0.006800472736358643,-0.00654350221157074,-0.018573522567749023,-0.15857450319947505,1.4610360493606047,2.787150590593274,0.9815114736557007,0.15791074931621552,-0.1081656888127327
1732225897042,9i,4.95078432358323,0.9s : 0.3s,-10.678880456661702,0.031035305354900625,0.14172150721728596,0.023034004563219728,0.21789957582950592,-0.01212218776345253,0.06405360251665115,0.006776332855224609,-0.005032151937484741,-0.021431848406791687,-0.15753847900879356,1.4606084559580992,2.7850045385154427,0.9816270470619202,0.15688765048980713,-0.10860328376293182
1732225897052,9i,4.95078432358323,0.9s : 0.3s,-10.678880456661702,0.031144393727093274,0.14187280486235154,0.027804487950578043,0.20216721296310425,-0.01759897917509079,0.07267345488071442,-0.002687990665435791,-0.011372461915016174,-0.025229573249816895,-0.15640329761589397,1.4601448098961933,2.7829525596686593,0.9817531108856201,0.15576642751693726,-0.10907801240682602
1732225897062,9i,4.95078432358323,0.9s : 0.3s,-10.678880456661702,0.03126435449915125,0.13814436564821964,0.03637373436640052,0.16502544283866882,-0.024257324635982513,0.07748052477836609,-0.0016536116600036621,-0.01597774028778076,-0.032634735107421875,-0.15528828673722475,1.4595784546145265,2.7811839404261587,0.9818632006645203,0.15466491878032684,-0.10965321958065033
1732225897072,9i,4.95078432358323,0.9s : 0.3s,-10.678880456661702,0.031384885515483275,0.13259874687321052,0.03561691832245164,0.14866936206817627,-0.03631984815001488,0.08275145292282104,0.0035779476165771484,-0.02304445207118988,-0.026920557022094727,-0.15419372546471186,1.4589063345373794,2.779697594126382,0.9819568991661072,0.15358343720436096,-0.1103319600224495
1732225897082,9i,4.95078432358323,0.9s : 0.3s,-10.678880456661702,0.03151809616197472,0.13173730048778667,0.04463061635276654,0.16382981836795807,-0.0419907383620739,0.08332167565822601,0.0005314350128173828,-0.024946585297584534,-0.03700374811887741,-0.15306125953327399,1.45813069925074,2.7782358552095845,0.9820431470870972,0.15246431529521942,-0.1111130490899086
1732225897092,9i,4.95078432358323,0.9s : 0.3s,-10.678880456661702,0.03167182887971463,0.13861849096204448,0.045668668516433863,0.21466796100139618,-0.048530664294958115,0.07974132150411606,-0.002191305160522461,-0.011780977249145508,-0.04406851530075073,-0.1519062014752242,1.4573118279036532,2.7764206491286587,0.9821261763572693,0.15132266283035278,-0.11193704605102539
1732225897102,9i,4.95078432358323,0.9s : 0.3s,-10.678880456661702,0.031883671566235595,0.15476071804289154,0.05551198705932241,0.2720188796520233,-0.052884310483932495,0.07533478736877441,-0.007352471351623535,0.008530035614967346,-0.054357707500457764,-0.1507932633650495,1.4564039168669278,2.7740486589608317,0.9821909070014954,0.15022243559360504,-0.11284784227609634
1732225897112,9i,4.95078432358323,0.9s : 0.3s,-10.678880456661702,0.03216936765074181,0.17742294516780419,0.0638165171459086,0.3323133885860443,-0.05435783788561821,0.07087026536464691,-0.007876217365264893,0.019649863243103027,-0.060202956199645996,-0.149716871576007,1.4553053828211235,2.771255684965313,0.9822264313697815,0.14915817975997925,-0.11394531279802322
1732225897122,9i,4.95078432358323,0.9s : 0.3s,-10.678880456661702,0.03248777649213617,0.20864365429716164,0.06130446488015167,0.4132380485534668,-0.04555555433034897,0.06743165850639343,-0.006500899791717529,0.02325698733329773,-0.05634792149066925,-0.14861523216718006,1.4541340621464895,2.767580966527965,0.9822549819946289,0.14806877076625824,-0.11511480808258057
1732225897132,9i,4.95078432358323,0.9s : 0.3s,-10.678880456661702,0.03282334285468373,0.24950939186313664,0.05786357276845647,0.5115326642990112,-0.04149796441197395,0.05680164694786072,-0.0066187381744384766,0.022959023714065552,-0.052699796855449677,-0.14741998131041384,1.4528488699746223,2.7630003187157515,0.9822811484336853,0.14688658714294434,-0.11639782041311264
1732225897142,9i,4.95078432358323,0.9s : 0.3s,-10.678880456661702,0.033186515205886884,0.3024622109265585,0.06473250597580614,0.6357595324516296,-0.028114425018429756,0.043776191771030426,-0.006939709186553955,0.02937459945678711,-0.057264916598796844,-0.14617905285083754,1.451444403370542,2.7572682998083624,0.982296884059906,0.14565901458263397,-0.11779890209436417
1732225897152,9i,4.95078432358323,0.9s : 0.3s,-10.678880456661702,0.0335918985268504,0.36937637513551275,0.07159560248387041,0.7848965525627136,-0.008926883339881897,0.03758833929896355,-0.011144280433654785,0.038408324122428894,-0.05938464403152466,-0.1449293729873155,1.4502536060106106,2.7502001957207693,0.9823359251022339,0.14442254602909088,-0.11899033188819885
1732225897162,9i,4.95078432358323,0.9s : 0.3s,-10.678880456661702,0.03403575527713187,0.44397445535598534,0.07438503309837581,0.9224874377250671,0.00922167208045721,0.03112764284014702,-0.0149461030960083,0.043552666902542114,-0.05842013657093048,-0.14355494579564204,1.4490165110853417,2.7416586802556635,0.982384204864502,0.14306238293647766,-0.12022949755191803
1732225897172,9i,4.95078432358323,0.9s : 0.3s,-10.678880456661702,0.03452675586934424,0.5162878258234748,0.08175185586325626,1.0214874744415283,0.03832309693098068,0.02805941551923752,-0.013672113418579102,0.049680620431900024,-0.06346869468688965,-0.14206573419214438,1.4478447516642992,2.731897400658692,0.9824528098106384,0.14158834517002106,-0.12140651047229767
1732225897182,9i,4.95078432358323,0.9s : 0.3s,-10.678880456661702,0.03502158520625153,0.5812359757468701,0.05477478719400846,1.0907083749771118,0.06685185432434082,0.03712954372167587,-0.012725234031677246,0.028736665844917297,-0.04486145079135895,-0.1404718583417395,1.4468875160237382,2.721371579543758,0.9825589656829834,0.14001034200191498,-0.12237463891506195
1732225897192,9i,4.95078432358323,0.9s : 0.3s,-10.678880456661702,0.03543721329798469,0.6271622132368837,0.020498728957226313,1.0915862321853638,0.06336311250925064,0.05261662229895592,-0.015448510646820068,-0.00933811068534851,-0.009712934494018555,-0.13867318081557228,1.446041896887437,2.7106479574644413,0.9827033281326294,0.1382291615009308,-0.12323659658432007
1732225897202,9i,4.95078432358323,0.9s : 0.3s,-10.678880456661702,0.03579476165014999,0.6574662995438235,0.054190818275704815,1.0833033323287964,0.041258834302425385,0.046506367623806,0.0076073408126831055,-0.05347433686256409,0.004389584064483643,-0.13680170144932005,1.4450929313601295,2.700020502600566,0.982840895652771,0.13637539744377136,-0.12420131266117096
1732225897212,9i,4.95078432358323,0.9s : 0.3s,-10.678880456661702,0.0360816842421896,0.7023767956190291,0.05000959281248277,1.2016446590423584,0.023103531450033188,0.0498875193297863,0.0291861891746521,-0.03975200653076172,0.008300825953483582,-0.13487191964221326,1.4438483533020903,2.688589976560326,0.9829448461532593,0.13446339964866638,-0.1254575252532959
1732225897222,9i,4.95078432358323,0.9s : 0.3s,-10.678880456661702,0.036335994367192925,0.7636851096932071,0.04529941784304302,1.349879503250122,0.03483613207936287,0.04838479310274124,0.03169667720794678,0.025130435824394226,-0.020391643047332764,-0.13276048218295178,1.4424162235935274,2.675838869819509,0.9830435514450073,0.13237082958221436,-0.12690116465091705
1732225897232,9i,4.95078432358323,0.9s : 0.3s,-10.678880456661702,0.036608425254368755,0.8220011490529089,0.10212900302853178,1.426544189453125,0.0753401443362236,0.006356118246912956,0.022817611694335938,0.08970281481742859,-0.04316358268260956,-0.13068536990745203,1.441123005417574,2.661955356642109,0.9831487536430359,0.1303136944770813,-0.12820757925510406
1732225897242,9i,4.95078432358323,0.9s : 0.3s,-10.678880456661702,0.036952652807812555,0.8906142301434731,0.13137745558439334,1.5623456239700317,0.12763811647891998,-0.03025585599243641,-0.0181734561920166,0.12920840084552765,-0.015328094363212585,-0.12886899369553872,1.4401882639991697,2.6471268584823555,0.9832614660263062,0.12851259112358093,-0.12915712594985962
1732225897252,9i,4.95078432358323,0.9s : 0.3s,-10.678880456661702,0.03741358080226916,0.9612537908411264,0.20369235287774176,1.6716086864471436,0.1564559042453766,-0.07757170498371124,-0.05059391260147095,0.19689658284187317,0.01275014877319336,-0.12729956398993772,1.4395610685984388,2.630898212744192,0.9833791255950928,0.1269560307264328,-0.12980003654956818
1732225897262,9i,4.95078432358323,0.9s : 0.3s,-10.678880456661702,0.0380271629371896,1.0253795044103173,0.27437126609642687,1.7414623498916626,0.1714596301317215,-0.10264910012483597,-0.03760218620300293,0.27160125970840454,0.009920835494995117,-0.12594833190591903,1.4390317788911686,2.6137388162317055,0.9834794402122498,0.12561561167240143,-0.13034293055534363
1732225897272,9i,4.95078432358323,0.9s : 0.3s,-10.678880456661702,0.038843611810933536,1.0767839343368284,0.319391787935823,1.7706143856048584,0.17347218096256256,-0.15270958840847015,-0.02174079418182373,0.31864506006240845,0.0019436478614807129,-0.12488617834077222,1.4385498690212473,2.5960483692790337,0.9835482239723206,0.12456180155277252,-0.13083438575267792
1732225897282,9i,4.95078432358323,0.9s : 0.3s,-10.678880456661702,0.03989119230267109,1.1018872918288898,0.3047491806867071,1.7132078409194946,0.16796275973320007,-0.1884651631116867,-0.03560608625411987,0.3025544285774231,0.008067682385444641,-0.12427895293915292,1.438058205792489,2.5784829365233453,0.9835584759712219,0.12395928055047989,-0.13132791221141815
1732225897292,9i,4.95078432358323,0.9s : 0.3s,-10.678880456661702,0.04116814659464805,1.1107422531634026,0.3045896078096236,1.6673951148986816,0.1559215486049652,-0.21237608790397644,-0.04956245422363281,0.29959625005722046,0.02367444336414337,-0.1240309177338542,1.4375534123119333,2.561392540267288,0.9835225343704224,0.12371315062046051,-0.13182847201824188
1732225897302,9i,4.95078432358323,0.9s : 0.3s,-10.678880456661702,0.04266346881057187,1.1007896378855044,0.3002686981516992,1.5828614234924316,0.1358126401901245,-0.2540275454521179,-0.05712670087814331,0.2932623028755188,0.029917433857917786,-0.12417083144463713,1.436959335254242,2.544927405741414,0.9834269285202026,0.12385199218988419,-0.1324104368686676
1732225897312,9i,4.95078432358323,0.9s : 0.3s,-10.678880456661702,0.04434734961654953,1.0858679776999662,0.2889710383751784,1.5338735580444336,0.1320762187242508,-0.31397369503974915,-0.08072447776794434,0.2769696116447449,0.016602829098701477,-0.12488989792893429,1.4363045204397127,2.529154136010459,0.9832514524459839,0.124565489590168,-0.13304239511489868
1732225897322,9i,4.95078432358323,0.9s : 0.3s,-10.678880456661702,0.04622181611759234,1.0750429750281578,0.29146595123033886,1.5155657529830933,0.13316331803798676,-0.39791300892829895,-0.12329071760177612,0.2633097469806671,0.020488455891609192,-0.12635425703943678,1.4356795943667304,2.513487442191073,0.982986330986023,0.12601831555366516,-0.1336321085691452
1732225897332,9i,4.95078432358323,0.9s : 0.3s,-10.678880456661702,0.04848367800620992,1.072995345166923,0.3364067909133544,1.5045660734176636,0.1359814703464508,-0.47950348258018494,-0.16326558589935303,0.29350605607032776,0.01918521523475647,-0.12869339798741222,1.4350085018586631,2.4978021334916654,0.9826015830039978,0.12833845615386963,-0.13425147533416748
1732225897342,9i,4.95078432358323,0.9s : 0.3s,-10.678880456661702,0.051190902793255916,1.0723321854277827,0.3921543574065174,1.507280707359314,0.1309131681919098,-0.5448481440544128,-0.1806168556213379,0.34767770767211914,0.016816750168800354,-0.13173752029990485,1.4343049512089743,2.4821598616574096,0.9821153879165649,0.13135680556297302,-0.13488897681236267
1732225897352,9i,4.95078432358323,0.9s : 0.3s,-10.678880456661702,0.05423937738431368,1.0843219009472707,0.40024371503451506,1.5528926849365234,0.12517964839935303,-0.6171931624412537,-0.1758946180343628,0.3585359454154968,0.02660997211933136,-0.1354077751047087,1.4334318176453857,2.466147458974602,0.9815129637718201,0.13499435782432556,-0.13567949831485748
1732225897362,9i,4.95078432358323,0.9s : 0.3s,-10.678880456661702,0.057639010498974665,1.1193825595026816,0.41730657387264086,1.6551438570022583,0.15078656375408173,-0.697323203086853,-0.19112205505371094,0.37085801362991333,0.009026095271110535,-0.1397127101171165,1.4324529600929743,2.449255031170594,0.9807952046394348,0.13925862312316895,-0.13655881583690643
1732225897372,9i,4.95078432358323,0.9s : 0.3s,-10.678880456661702,0.06154058046626076,1.1506163369401539,0.4821043556664216,1.6472615003585815,0.1912519633769989,-0.7889095544815063,-0.2305738925933838,0.423006147146225,-0.018057942390441895,-0.14475975282763065,1.4316668968106014,2.4316195032965844,0.9799790382385254,0.14425469934940338,-0.1372305303812027
1732225897382,9i,4.95078432358323,0.9s : 0.3s,-10.678880456661702,0.06589228563527622,1.179300339777947,0.5292923142725392,1.6277263164520264,0.20802949368953705,-0.903370201587677,-0.255279541015625,0.46272197365760803,0.029514148831367493,-0.15088712471672544,1.4310764426248919,2.414155731166284,0.9790039658546448,0.15031524002552032,-0.1376834213733673
1732225897392,9i,4.95078432358323,0.9s : 0.3s,-10.678880456661702,0.07064025889191587,1.2079536049300714,0.5605204179916153,1.6215171813964844,0.2027556300163269,-0.9980908036231995,-0.25764209032058716,0.49474674463272095,0.05503953993320465,-0.15802509045483548,1.430423349104613,2.3967323202953135,0.9778265357017517,0.15736821293830872,-0.13816913962364197
1732225897402,9i,4.95078432358323,0.9s : 0.3s,-10.678880456661702,0.07572180910408646,1.2446195767064576,0.5706778681218249,1.654805302619934,0.21407131850719452,-1.0928188562393188,-0.22059524059295654,0.5250016450881958,0.037205398082733154,-0.16608384634017503,1.4295928960856537,2.378939335535655,0.9764242768287659,0.16532136499881744,-0.13879816234111786
1732225897412,9i,4.95078432358323,0.9s : 0.3s,-10.678880456661702,0.08109789474736248,1.2802853135082186,0.5807897148977332,1.63270103931427,0.24683192372322083,-1.2093156576156616,-0.21299880743026733,0.5397608280181885,0.024626195430755615,-0.17513773421644757,1.4288135946302878,2.3608951217219554,0.9747940301895142,0.17424376308918,-0.13934151828289032
1732225897422,9i,4.95078432358323,0.9s : 0.3s,-10.678880456661702,0.0867249343956916,1.3304801007967568,0.5856938231103394,1.679895043373108,0.27328863739967346,-1.3478825092315674,-0.2538694143295288,0.5263419151306152,0.03939242660999298,-0.1854586081101001,1.4281096496729555,2.342663535652776,0.9728636741638184,0.18439729511737823,-0.13976448774337769
1732225897432,9i,4.95078432358323,0.9s : 0.3s,-10.678880456661702,0.09266458769566577,1.3937651841362075,0.6210357665812967,1.7589242458343506,0.2850901782512665,-1.4642882347106934,-0.28548896312713623,0.5502804517745972,0.037052661180496216,-0.19693122505979285,1.4271982214365064,2.323435721058994,0.970578134059906,0.195660799741745,-0.14033912122249603
1732225897442,9i,4.95078432358323,0.9s : 0.3s,-10.678880456661702,0.09893023757023274,1.461682191879519,0.6506105566417476,1.8040639162063599,0.28799447417259216,-1.591086745262146,-0.25888049602508545,0.5967509150505066,0.0127800852060318,-0.20949623389890562,1.4259677882631205,2.303441289861276,0.9678955078125,0.20796717703342438,-0.1411672830581665
1732225897452,9i,4.95078432358323,0.9s : 0.3s,-10.678880456661702,0.10540388392785169,1.5276318512885239,0.6491825010987603,1.819435715675354,0.29710808396339417,-1.7091790437698364,-0.23685860633850098,0.6038655042648315,0.02612227201461792,-0.22319364673626768,1.424398987234314,2.2827479824233525,0.9647640585899353,0.22134517133235931,-0.14225664734840393
1732225897462,9i,4.95078432358323,0.9s : 0.3s,-10.678880456661702,0.11194579667096032,1.59035791817859,0.6315264315667648,1.8016384840011597,0.3116535246372223,-1.846251368522644,-0.2427065372467041,0.5824027061462402,0.026949182152748108,-0.23812450866284796,1.4226397569395777,2.2619048002513704,0.9611362218856812,0.23588047921657562,-0.1434497833251953
1732225897472,9i,4.95078432358323,0.9s : 0.3s,-10.678880456661702,0.11853213082091936,1.6599643193897209,0.6323933609857739,1.8396157026290894,0.32527533173561096,-1.9831082820892334,-0.24512743949890137,0.5791659951210022,0.06633740663528442,-0.25434771487113017,1.4206212988755091,2.2406578756982256,0.9569348096847534,0.25161415338516235,-0.14479787647724152
1732225897482,9i,4.95078432358323,0.9s : 0.3s,-10.678880456661702,0.12523619599348834,1.7397252048662428,0.6569113588888285,1.9222627878189087,0.31591925024986267,-2.11496639251709,-0.22060614824295044,0.6151841878890991,0.0664370059967041,-0.27178609193664777,1.4179775716756173,2.21848902133587,0.9520668983459473,0.26845240592956543,-0.146636962890625
1732225897492,9i,4.95078432358323,0.9s : 0.3s,-10.678880456661702,0.13208330399222665,1.8206109013807883,0.68906181450542,1.96437406539917,0.309808611869812,-2.245129108428955,-0.16840869188308716,0.6642454862594604,0.07226777076721191,-0.2903320900460202,1.4146018830692755,2.195243217139569,0.9464849829673767,0.2862704396247864,-0.1490497887134552
1732225897502,9i,4.95078432358323,0.9s : 0.3s,-10.678880456661702,0.13905176961399365,1.8984111249476552,0.7046604548636833,1.995117425918579,0.2851758599281311,-2.3607707023620605,-0.13360154628753662,0.687106728553772,0.08112537860870361,-0.30997526972840306,1.4104206636191845,2.1713750476705886,0.940120279788971,0.3050350844860077,-0.15207849442958832
1732225897512,9i,4.95078432358323,0.9s : 0.3s,-10.678880456661702,0.1460304200732803,1.9713849685621823,0.6665704280857901,2.0224335193634033,0.2535252571105957,-2.4610636234283447,-0.0953747034072876,0.6546738147735596,0.08137565851211548,-0.330513301650688,1.4052534873715896,2.146762759083208,0.9329450726509094,0.32452860474586487,-0.15586881339550018
1732225897522,9i,4.95078432358323,0.9s : 0.3s,-10.678880456661702,0.15288862475558734,2.0435373996810475,0.6298778405064908,2.058203935623169,0.23361660540103912,-2.5683746337890625,-0.051870107650756836,0.6235287189483643,0.07257770001888275,-0.3518731871278301,1.3990437822346444,2.121319126790544,0.9249172806739807,0.3446568250656128,-0.16043758392333984
1732225897532,9i,4.95078432358323,0.9s : 0.3s,-10.678880456661702,0.15963499532083134,2.1146006094782477,0.6212102398123943,2.084591865539551,0.21292969584465027,-2.679527521133423,-0.038185179233551025,0.6174170970916748,0.05692259967327118,-0.3740970869493127,1.3917784274569154,2.0949909831243794,0.9159625768661499,0.3654322028160095,-0.16574808955192566
1732225897542,9i,4.95078432358323,0.9s : 0.3s,-10.678880456661702,0.166158785089033,2.177473056010848,0.5925596755984683,2.046151638031006,0.18465518951416016,-2.794804811477661,-0.024948298931121826,0.5908839702606201,0.03688746690750122,-0.3972336980115238,1.383489577321857,2.067997262761325,0.9060062170028687,0.3868689239025116,-0.1717139184474945
1732225897552,9i,4.95078432358323,0.9s : 0.3s,-10.678880456661702,0.1723531453467878,2.2383193709597213,0.5459666075150914,2.0280861854553223,0.12968860566616058,-2.9153075218200684,0.007485330104827881,0.5445864796638489,0.03806668519973755,-0.4213874788199448,1.3740593813809385,2.040680890689314,0.8949196338653564,0.40902695059776306,-0.17837102711200714
1732225897562,9i,4.95078432358323,0.9s : 0.3s,-10.678880456661702,0.1782483960437661,2.300659315019231,0.533534649624942,2.053872585296631,0.06903138011693954,-3.017681121826172,0.039341509342193604,0.5314682126045227,0.025554001331329346,-0.4463904136657193,1.3630141324966065,2.012482083216183,0.8826099634170532,0.43171247839927673,-0.18607622385025024
1732225897572,9i,4.95078432358323,0.9s : 0.3s,-10.678880456661702,0.18411028289361744,2.350146764516988,0.5717637839409629,1.9869180917739868,0.007586668711155653,-3.0998899936676025,0.10176920890808105,0.5625004768371582,-0.012250155210494995,-0.47196279447699835,1.3503964322028,1.9834434666127025,0.8691325187683105,0.4546353816986084,-0.19471989572048187
1732225897582,9i,4.95078432358323,0.9s : 0.3s,-10.678880456661702,0.18991486631593008,2.389871342478151,0.5900579476690866,1.890580654144287,-0.049485139548778534,-3.192019462585449,0.17273378372192383,0.5642060041427612,0.0017339140176773071,-0.4982546853383285,1.3364694659027578,1.954486019193546,0.8544116616249084,0.4778931438922882,-0.2039584070444107
1732225897592,9i,4.95078432358323,0.9s : 0.3s,-10.678880456661702,0.19563467434812246,2.432949216575219,0.5884930339685619,1.878696322441101,-0.12042771279811859,-3.283459186553955,0.2174709439277649,0.5461304783821106,0.02778381109237671,-0.5251993989569367,1.3210293781713964,1.924998142496632,0.8383763432502747,0.501385509967804,-0.2138645201921463
1732225897602,9i,4.95078432358323,0.9s : 0.3s,-10.678880456661702,0.20111317336399415,2.4890382581264507,0.6324224893990935,1.961680293083191,-0.17972028255462646,-3.3769307136535645,0.26236939430236816,0.5754048824310303,-0.005452275276184082,-0.552515715693407,1.3033411556701995,1.893818891260379,0.8209437131881714,0.5248302817344666,-0.2249552607536316
1732225897612,9i,4.95078432358323,0.9s : 0.3s,-10.678880456661702,0.2065764398212356,2.5470789669915312,0.7090996849966763,2.0012245178222656,-0.23147669434547424,-3.4571688175201416,0.3203108310699463,0.6316706538200378,-0.03486430644989014,-0.5799187549294911,1.2831591741891506,1.8604293923145017,0.8021410703659058,0.5479559898376465,-0.23730649054050446
1732225897622,9i,4.95078432358323,0.9s : 0.3s,-10.678880456661702,0.21208860743305635,2.5958419194646947,0.746902456404594,1.9293785095214844,-0.30933627486228943,-3.5406699180603027,0.36559200286865234,0.6496579647064209,-0.046371281147003174,-0.6076113816738051,1.2608155170782416,1.825678318971286,0.7818843126296997,0.5709080100059509,-0.2504425048828125
1732225897632,9i,4.95078432358323,0.9s : 0.3s,-10.678880456661702,0.21754084568249019,2.6297654000612245,0.7485411455332904,1.7927136421203613,-0.3916324973106384,-3.60764217376709,0.41766196489334106,0.6205783486366272,-0.027474403381347656,-0.6356314688321478,1.2364940686089385,1.790357057852513,0.760148823261261,0.5936857461929321,-0.264029324054718
1732225897642,9i,4.95078432358323,0.9s : 0.3s,-10.678880456661702,0.22282555297068435,2.658019635743648,0.7700378622997146,1.7026959657669067,-0.4645206332206726,-3.6686296463012695,0.4978744387626648,0.5872052311897278,-0.016412466764450073,-0.6639600781461833,1.2102725044001763,1.7545893866560827,0.7369279265403748,0.6162404417991638,-0.2778225839138031
1732225897652,9i,4.95078432358323,0.9s : 0.3s,-10.678880456661702,0.22799265920743245,2.6856619295672957,0.80230966293884,1.629438877105713,-0.5244220495223999,-3.7363758087158203,0.5537851452827454,0.5804415345191956,-0.010508716106414795,-0.6924775121957693,1.1816268531771967,1.7174629796826804,0.7121146321296692,0.6384459733963013,-0.292027086019516
1732225897662,9i,4.95078432358323,0.9s : 0.3s,-10.678880456661702,0.23322276655535418,2.713695799256459,0.8327585559347245,1.6110761165618896,-0.579929769039154,-3.7799649238586426,0.5726401209831238,0.6035423278808594,-0.036149173974990845,-0.7207071281823632,1.1507545697040282,1.6788199628500882,0.6860270500183105,0.6599161028862,-0.30639520287513733
1732225897672,9i,4.95078432358323,0.9s : 0.3s,-10.678880456661702,0.23860524819050716,2.739767784875074,0.8676968406893484,1.5546000003814697,-0.6597583293914795,-3.825850248336792,0.6059884428977966,0.6206238269805908,-0.022402673959732056,-0.748456541611449,1.1170143500579244,1.6381939071333824,0.6585838198661804,0.6805086135864258,-0.3212098479270935
1732225897682,9i,4.95078432358323,0.9s : 0.3s,-10.678880456661702,0.24402927648353992,2.7630414102749223,0.8905020970840368,1.4410712718963623,-0.7325411438941956,-3.886732816696167,0.6686230897903442,0.5879404544830322,-0.01622253656387329,-0.7760076045837071,1.0805604904082664,1.595837158509228,0.6296557784080505,0.7004355788230896,-0.3360416889190674
1732225897692,9i,4.95078432358323,0.9s : 0.3s,-10.678880456661702,0.2494834332789294,2.7931680013621882,0.903432678979118,1.4244455099105835,-0.8044161796569824,-3.950350284576416,0.7032623887062073,0.567008376121521,-0.010682672262191772,-0.8032885716008105,1.0410297873878678,1.5513898217874715,0.5991668105125427,0.7196433544158936,-0.3508741557598114
1732225897702,9i,4.95078432358323,0.9s : 0.3s,-10.678880456661702,0.25511216578474505,2.8281296062488948,0.9569169504980446,1.4870622158050537,-0.8505695462226868,-3.98746395111084,0.7519791722297668,0.591612696647644,-0.014553070068359375,-0.8294804964931859,0.9973711224374858,1.503174988316188,0.5672499537467957,0.7375806570053101,-0.3663366138935089
1732225897712,9i,4.95078432358323,0.9s : 0.3s,-10.678880456661702,0.26106524825379385,2.8614203088526913,1.0285196958411473,1.4979921579360962,-0.9184551239013672,-4.015496253967285,0.8142470717430115,0.6279004216194153,-0.024403512477874756,-0.854148683983605,0.9495038642118463,1.45115455132897,0.5341111421585083,0.7540119886398315,-0.3823498487472534
1732225897722,9i,4.95078432358323,0.9s : 0.3s,-10.678880456661702,0.267244544599121,2.8809677185232245,1.0260123551736435,1.3867141008377075,-0.9757618308067322,-4.0235395431518555,0.8339039087295532,0.5974282026290894,-0.01962566375732422,-0.8775087282550679,0.897849341794441,1.3960604050245269,0.49974480271339417,0.7691491842269897,-0.39832764863967896
1732225897732,9i,4.95078432358323,0.9s : 0.3s,-10.678880456661702,0.2734931811384506,2.8856408669893487,0.9768911987235934,1.2354060411453247,-1.0302540063858032,-4.018958568572998,0.8435994386672974,0.4922947883605957,0.017385125160217285,-0.8998495072912889,0.843646244952376,1.3395117485927612,0.4644755423069,0.7832333445549011,-0.41328951716423035
1732225897742,9i,4.95078432358323,0.9s : 0.3s,-10.678880456661702,0.2798507321551294,2.8986447807350033,0.9611377057973114,1.2612637281417847,-1.0656347274780273,-4.045459747314453,0.8499297499656677,0.4447168707847595,0.060266196727752686,-0.9207182257323434,0.7859402972101635,1.279973690632094,0.4282074570655823,0.7960365414619446,-0.42774343490600586
1732225897752,9i,4.95078432358323,0.9s : 0.3s,-10.678880456661702,0.2863767033585193,2.921337590033762,0.9625403553833556,1.3910307884216309,-1.0981476306915283,-4.063994884490967,0.8287520408630371,0.48941469192504883,0.01128050684928894,-0.9388522244702087,0.7233410075652842,1.2155794807219635,0.3909897804260254,0.8068806529045105,-0.4427988827228546
1732225897762,9i,4.95078432358323,0.9s : 0.3s,-10.678880456661702,0.29303857592262667,2.9503257281428588,0.9857806407163646,1.4473800659179688,-1.1497458219528198,-4.101377964019775,0.8414981365203857,0.5130321383476257,-0.021032899618148804,-0.9538386050843137,0.6558157810727949,1.1464948296655706,0.35280725359916687,0.8156423568725586,-0.45853540301322937
1732225897772,9i,4.95078432358323,0.9s : 0.3s,-10.678880456661702,0.29987061892346906,2.9796088868696415,0.9796964377251917,1.470159649848938,-1.1972078084945679,-4.128753185272217,0.8519725799560547,0.4835302233695984,-0.012097775936126709,-0.9658734972823466,0.584051681372949,1.0734164290650166,0.3135852813720703,0.8225460052490234,-0.47442856431007385
1732225897782,9i,4.95078432358323,0.9s : 0.3s,-10.678880456661702,0.30682025006172864,2.997180653365477,0.9636233827811074,1.4033148288726807,-1.2702527046203613,-4.115159034729004,0.858336329460144,0.43761777877807617,-0.017873138189315796,-0.9750005585857059,0.5093310232925208,0.9979866435996257,0.2736216187477112,0.8277022242546082,-0.4899391829967499
1732225897792,9i,4.95078432358323,0.9s : 0.3s,-10.678880456661702,0.3138306915551607,3.004725708055997,0.981391100732458,1.2915583848953247,-1.3222039937973022,-4.11100435256958,0.9030914306640625,0.3828003406524658,-0.03191018104553223,-0.9816546944567738,0.43277154186289835,0.9217488200051165,0.2330322116613388,0.8314179182052612,-0.504420816898346
1732225897802,9i,4.95078432358323,0.9s : 0.3s,-10.678880456661702,0.32075975308725985,3.0070605653621203,0.9898057572552372,1.2699084281921387,-1.3542373180389404,-4.10259485244751,0.9245692491531372,0.35241514444351196,-0.026281297206878662,-0.9856852809242178,0.35504082079938926,0.8446995124170842,0.19199258089065552,0.8336507678031921,-0.5178470015525818
1732225897812,9i,4.95078432358323,0.9s : 0.3s,-10.678880456661702,0.32778750360001485,3.0071325803143005,0.9821907420769976,1.3069332838058472,-1.3743213415145874,-4.064022064208984,0.9093084931373596,0.3691444396972656,-0.039863526821136475,-0.9861172300242544,0.2767043108888672,0.76738244478101,0.1507805585861206,0.8338892459869385,-0.530937135219574
1732225897822,9i,4.95078432358323,0.9s : 0.3s,-10.678880456661702,0.33482420622229947,3.0081087058203573,1.0055614321883892,1.3513485193252563,-1.4061883687973022,-4.053879737854004,0.9225383400917053,0.3937341570854187,-0.07106488943099976,-0.9827390323830469,0.1986737056982109,0.690659637164133,0.10948982834815979,0.8320199847221375,-0.5438336730003357
1732225897832,9i,4.95078432358323,0.9s : 0.3s,-10.678880456661702,0.3419847873016148,3.0155428531168007,1.0166152567640174,1.3741230964660645,-1.4583730697631836,-4.05458927154541,0.9296967387199402,0.4078761339187622,-0.05298691987991333,-0.9757392641491066,0.12157858325769753,0.6151294737712958,0.06798386573791504,0.8281165361404419,-0.5564184784889221
1732225897842,9i,4.95078432358323,0.9s : 0.3s,-10.678880456661702,0.3493164116322112,3.024320483337229,1.0139610168071296,1.3877066373825073,-1.4825581312179565,-4.059719085693359,0.9269514083862305,0.4071663022041321,-0.055620431900024414,-0.9654064978444099,0.04606232574544593,0.5417463234756926,0.026204008609056473,0.8222802877426147,-0.5684791803359985
1732225897852,9i,4.95078432358323,0.9s : 0.3s,-10.678880456661702,0.3568439961072717,3.0320608989541995,1.0084912961550614,1.4500871896743774,-1.4874930381774902,-4.044384002685547,0.911919891834259,0.4272039532661438,-0.05434691905975342,-0.9515434605126434,-0.026701818800362973,0.47127982154966763,-0.015496617183089256,0.8143123388290405,-0.5802201628684998
1732225897862,9i,4.95078432358323,0.9s : 0.3s,-10.678880456661702,0.36456459594961016,3.0409143249504105,0.9898703201510818,1.4529038667678833,-1.5381078720092773,-4.043628692626953,0.8832144737243652,0.4449108839035034,-0.04277557134628296,-0.934540809958605,-0.09620071249740204,0.4044091280983229,-0.05707317218184471,0.8043262958526611,-0.5914404988288879
1732225897872,9i,4.95078432358323,0.9s : 0.3s,-10.678880456661702,0.3724498016905879,3.0502960575082128,0.9809566939241391,1.4044750928878784,-1.609413504600525,-4.051298141479492,0.8797403573989868,0.4316660165786743,-0.044692158699035645,-0.9151242249948509,-0.1627087643499629,0.3410917338639545,-0.09876513481140137,0.79263836145401,-0.601639449596405
1732225897882,9i,4.95078432358323,0.9s : 0.3s,-10.678880456661702,0.38049399612277146,3.0570364088557365,0.9870646063943126,1.4095544815063477,-1.6304045915603638,-4.044633388519287,0.8846190571784973,0.4337630867958069,-0.059960365295410156,-0.8934678502222102,-0.22604687745639415,0.28144967694511686,-0.14046329259872437,0.7792497873306274,-0.6107701063156128
1732225897892,9i,4.95078432358323,0.9s : 0.3s,-10.678880456661702,0.3886961641526152,3.0569129912387427,0.9768700778853354,1.3491220474243164,-1.6859294176101685,-4.01231575012207,0.8644669651985168,0.45081424713134766,-0.06114351749420166,-0.8699144848961675,-0.2856651515733131,0.2259796673712279,-0.1817278265953064,0.7642737627029419,-0.6187574863433838
1732225897902,9i,4.95078432358323,0.9s : 0.3s,-10.678880456661702,0.39702295100569174,3.0571990812555607,0.970705704799349,1.5286599397659302,-1.597258448600769,-3.990016460418701,0.8689171671867371,0.4277498126029968,-0.06544172763824463,-0.8436668145199844,-0.3405225707990883,0.17518795800670503,-0.22200565040111542,0.7470855712890625,-0.6265594959259033
1732225897912,9i,4.95078432358323,0.9s : 0.3s,-10.678880456661702,0.4057260100263611,3.114136320382938,1.0414293305499471,1.9482871294021606,-1.7605448961257935,-4.0852885246276855,0.9068233966827393,0.5022537708282471,-0.09993761777877808,-0.8130017645135298,-0.39211968221451077,0.1289358793337918,-0.2626585364341736,0.726353645324707,-0.6351544260978699
1732225897922,9i,4.95078432358323,0.9s : 0.3s,-10.678880456661702,0.41522909712523004,3.1519680287144944,1.1391310089598288,1.8245681524276733,-1.8631359338760376,-4.071272850036621,0.8781577348709106,0.6716853380203247,-0.27440345287323,-0.7788055997221466,-0.4404458853543901,0.08686485132578704,-0.3034508526325226,0.7024298310279846,-0.643824577331543
1732225897932,9i,4.95078432358323,0.9s : 0.3s,-10.678880456661702,0.4246386292399976,3.169753132557249,1.0023269584935675,1.5307687520980835,-1.996039867401123,-4.0793914794921875,0.9002967476844788,0.43965840339660645,-0.028733015060424805,-0.7456228248289597,-0.48737983392558154,0.046866503020885096,-0.3440530300140381,0.6784294843673706,-0.6491233110427856
1732225897942,9i,4.95078432358323,0.9s : 0.3s,-10.678880456661702,0.43356574187113106,3.1682887767789003,0.9725391419393409,1.3338234424591064,-2.0968739986419678,-4.0113959312438965,0.9186738729476929,0.30467069149017334,0.09511291980743408,-0.7135977319668546,-0.5333968207218281,0.008906462387220529,-0.3844027817249298,0.6545579433441162,-0.6509904861450195
1732225897952,9i,4.95078432358323,0.9s : 0.3s,-10.678880456661702,0.4424876855762377,3.1609751367240655,0.9813970081733555,1.3608169555664062,-2.096726894378662,-3.9649598598480225,0.922000527381897,0.33135008811950684,-0.05711597204208374,-0.6810615293839969,-0.5767974375822204,-0.02579708224608008,-0.4236791133880615,0.6296181082725525,-0.6512121558189392
1732225897962,9i,4.95078432358323,0.9s : 0.3s,-10.678880456661702,0.45148002275314336,3.149188228000127,1.0232647566801587,1.3111765384674072,-2.1214418411254883,-3.93677020072937,0.9474397301673889,0.37912261486053467,-0.07546365261077881,-0.6478613570685317,-0.6176354435044935,-0.05759600719646911,-0.46176788210868835,0.6034824848175049,-0.6500611305236816
1732225897971,9i,4.95078432358323,0.9s : 0.3s,-10.678880456661702,0.46045363166204556,3.1329491282232365,0.9749936357550757,1.3027476072311401,-2.120096445083618,-3.888751268386841,0.9054957628250122,0.3542148470878601,-0.07226240634918213,-0.6140966302060011,-0.6561697778143007,-0.0866866339273526,-0.49862030148506165,0.5762204527854919,-0.6475708484649658
1732225897981,9i,4.95078432358323,0.9s : 0.3s,-10.678880456661702,0.469464348432581,3.1088560580462716,0.9773047391691139,1.2856179475784302,-2.111841917037964,-3.8216803073883057,0.9063191413879395,0.34922945499420166,-0.10839259624481201,-0.5798834211997789,-0.6922705817867063,-0.11310450708576353,-0.5339438319206238,0.5479264259338379,-0.6439570784568787
1732225897991,9i,4.95078432358323,0.9s : 0.3s,-10.678880456661702,0.47850751613570675,3.0812437377443493,0.9914143391461167,1.2573546171188354,-2.128812074661255,-3.757566452026367,0.9326002597808838,0.3285059332847595,-0.07240855693817139,-0.5455710180670754,-0.7263979960296268,-0.13700988839985276,-0.5677628517150879,0.51890629529953,-0.6390475630760193
1732225898001,9i,4.95078432358323,0.9s : 0.3s,-10.678880456661702,0.4875727621490288,3.0539536369220417,1.0005351733744514,1.2721456289291382,-2.133580446243286,-3.7013278007507324,0.9518905878067017,0.3033747673034668,-0.05420970916748047,-0.511029266864742,-0.7587972336014724,-0.1586739480589767,-0.600145161151886,0.48907527327537537,-0.632954478263855
1732225898011,9i,4.95078432358323,0.9s : 0.3s,-10.678880456661702,0.49662225925557546,3.021448014782257,0.9850862031137315,1.246907353401184,-2.1322407722473145,-3.6301965713500977,0.9494588375091553,0.261115700006485,-0.027227461338043213,-0.476397131424227,-0.7894793944028663,-0.17813633842522336,-0.6309318542480469,0.45858046412467957,-0.6258028149604797
1732225898021,9i,4.95078432358323,0.9s : 0.3s,-10.678880456661702,0.5056541598513753,2.982661023466779,0.9907792261628828,1.2350821495056152,-2.1760761737823486,-3.512622117996216,0.9604854583740234,0.2421998679637909,-0.021222233772277832,-0.4419712285347455,-0.818745806740653,-0.19533654635639044,-0.6601163744926453,0.42772209644317627,-0.6174952387809753
1732225898031,9i,4.95078432358323,0.9s : 0.3s,-10.678880456661702,0.514578419325069,2.933968383994209,1.0307011123423073,1.1447129249572754,-2.1995675563812256,-3.3984572887420654,1.001232385635376,0.23672786355018616,-0.06195491552352905,-0.40839578031730095,-0.8471595293216041,-0.21065484682569066,-0.687771201133728,0.3971375524997711,-0.6076616048812866
1732225898041,9i,4.95078432358323,0.9s : 0.3s,-10.678880456661702,0.5233610030446451,2.8822613341460475,1.069850505270488,1.060731291770935,-2.216134786605835,-3.307363510131836,1.0566329956054688,0.1675969362258911,-0.004252433776855469,-0.37579275691561237,-0.8748205501278065,-0.22477223560210743,-0.7138751149177551,0.36701008677482605,-0.5963943600654602
1732225898051,9i,4.95078432358323,0.9s : 0.3s,-10.678880456661702,0.5318766637276614,2.8257500580705446,1.063459095677707,0.967536985874176,-2.249352216720581,-3.1898109912872314,1.0547175407409668,0.09845876693725586,0.09392565488815308,-0.3441789189699365,-0.9019472596269642,-0.23780699774483802,-0.7385250926017761,0.3374238610267639,-0.5837173461914062
1732225898061,9i,4.95078432358323,0.9s : 0.3s,-10.678880456661702,0.5401919108112879,2.763878781503673,1.0773868796088455,0.9467846155166626,-2.2396528720855713,-3.060936212539673,1.0687960386276245,0.06724333763122559,0.1179654598236084,-0.3135722169269754,-0.9283218743041438,-0.24939810042375546,-0.7615758180618286,0.3084586262702942,-0.5699611306190491
1732225898071,9i,4.95078432358323,0.9s : 0.3s,-10.678880456661702,0.5483512400076939,2.6895638331891343,1.1208605684586426,0.9201996326446533,-2.1926262378692627,-2.904924154281616,1.1055991649627686,0.019406050443649292,0.18330931663513184,-0.2839550795896322,-0.9535963286141451,-0.2593766736622941,-0.7828453779220581,0.2801545262336731,-0.55557781457901
1732225898081,9i,4.95078432358323,0.9s : 0.3s,-10.678880456661702,0.5561599979966719,2.5969286205865663,1.1223740893017387,0.8415340185165405,-2.1535580158233643,-2.698957920074463,1.090979814529419,-0.07752081751823425,0.25194674730300903,-0.255871297122689,-0.977737829496046,-0.26787083527270206,-0.8022379279136658,0.25308844447135925,-0.5407038927078247
1732225898091,9i,4.95078432358323,0.9s : 0.3s,-10.678880456661702,0.5633521357345826,2.4842058120088897,1.1484509596281849,0.7655715942382812,-2.065624475479126,-2.4787023067474365,1.076991319656372,-0.22853845357894897,0.3268018960952759,-0.22985524424475834,-1.0007390475148576,-0.2751092992382556,-0.8197283744812012,0.22783657908439636,-0.5254863500595093
1732225898101,9i,4.95078432358323,0.9s : 0.3s,-10.678880456661702,0.5697983463659286,2.35484853206948,1.1944182089805349,0.7999335527420044,-1.9048172235488892,-2.26141619682312,1.062687873840332,-0.36429786682128906,0.4057294726371765,-0.20561795065774413,-1.021936522949051,-0.2806593417666608,-0.8351490497589111,0.20417213439941406,-0.5107249617576599
1732225898111,9i,4.95078432358323,0.9s : 0.3s,-10.678880456661702,0.5754635634915968,2.205572009638539,1.2517231326871627,0.80781489610672,-1.7427095174789429,-1.9998047351837158,1.03131902217865,-0.46841418743133545,0.532710075378418,-0.18318207241459272,-1.0409699667660843,-0.2841861120087977,-0.8484578132629395,0.18215931951999664,-0.49692800641059875
1732225898121,9i,4.95078432358323,0.9s : 0.3s,-10.678880456661702,0.5802420701144633,2.035612158016931,1.3209031205636235,0.7392371892929077,-1.5768048763275146,-1.7207794189453125,0.9945697784423828,-0.6097733378410339,0.6195098757743835,-0.16320070140939733,-1.058045704515777,-0.28615110607118693,-0.8598196506500244,0.16247721016407013,-0.4840574264526367
1732225898131,9i,4.95078432358323,0.9s : 0.3s,-10.678880456661702,0.5840793858699628,1.8473699740105274,1.4173186404191787,0.6891546249389648,-1.3725430965423584,-1.4396241903305054,0.9696067571640015,-0.7643834352493286,0.6959689855575562,-0.14591259327464753,-1.0730224646410464,-0.2869079773735207,-0.8693109750747681,0.14539538323879242,-0.4723970293998718
1732225898141,9i,4.95078432358323,0.9s : 0.3s,-10.678880456661702,0.5870611484697564,1.6427169420565169,1.5435217363262423,0.6967266201972961,-1.1306215524673462,-1.1396065950393677,0.9664304852485657,-0.9011364579200745,0.7977622151374817,-0.13128009546383665,-1.085559583660702,-0.28634732457425305,-0.876953125,0.13090333342552185,-0.46240440011024475
1732225898151,9i,4.95078432358323,0.9s : 0.3s,-10.678880456661702,0.5894127598194252,1.419358215124236,1.6426710539942906,0.717224657535553,-0.8460506200790405,-0.8085114359855652,0.9625540971755981,-0.9824358820915222,0.8981522917747498,-0.11934616915018939,-1.0952197439124975,-0.2839699178673659,-0.8827050924301147,0.11906304955482483,-0.45459434390068054
1732225898161,9i,4.95078432358323,0.9s : 0.3s,-10.678880456661702,0.5914151588100117,1.1759740800312706,1.7381740724042036,0.734129011631012,-0.5326796770095825,-0.42460817098617554,0.9832355976104736,-1.0491273403167725,0.9766415357589722,-0.11057081355314727,-1.101621715899955,-0.27972782856421113,-0.886495053768158,0.11034564673900604,-0.44938915967941284
1732225898171,9i,4.95078432358323,0.9s : 0.3s,-10.678880456661702,0.5933252497671259,0.9219211781737708,1.8320716754674375,0.759769082069397,-0.1887151151895523,-0.009251470677554607,1.007248044013977,-1.1064648628234863,1.0572007894515991,-0.10523996888940376,-1.1046209551702315,-0.2733696873362796,-0.8883517384529114,0.10504581034183502,-0.4469863474369049
1732225898181,9i,4.95078432358323,0.9s : 0.3s,-10.678880456661702,0.5952289491484174,0.6764336196448018,1.9430555154353515,0.7420153617858887,0.1905975043773651,0.42582470178604126,1.0131417512893677,-1.2011427879333496,1.1429193019866943,-0.10370279690409563,-1.1038320519820406,-0.2650942621035613,-0.888141930103302,0.10351702570915222,-0.4477591812610626
1732225898191,9i,4.95078432358323,0.9s : 0.3s,-10.678880456661702,0.5972218237386663,0.5040924197263573,2.0933507154016535,0.6864152550697327,0.5979439616203308,0.89799964427948,1.0307283401489258,-1.31703782081604,1.2590185403823853,-0.10637708614273376,-1.0989117785258602,-0.2550937599904512,-0.8856784105300903,0.10617657005786896,-0.45199620723724365
1732225898201,9i,4.95078432358323,0.9s : 0.3s,-10.678880456661702,0.5995174217506324,0.5512482258884647,2.2376842839555313,0.6443579792976379,1.028613567352295,1.3731387853622437,1.0727818012237549,-1.4192309379577637,1.3572596311569214,-0.1134131648666539,-1.089573359235098,-0.243371689656307,-0.8807348608970642,0.11317019164562225,-0.4598900377750397
1732225898211,9i,4.95078432358323,0.9s : 0.3s,-10.678880456661702,0.6024564607644989,0.814422714685596,2.4049402991193523,0.6247571110725403,1.4646893739700317,1.8723410367965698,1.1626873016357422,-1.5208464860916138,1.4556517601013184,-0.1247618551747668,-1.0755537257239276,-0.22958762334819635,-0.8730147480964661,0.12443844228982925,-0.47155123949050903
1732225898221,9i,4.95078432358323,0.9s : 0.3s,-10.678880456661702,0.6064624948412234,1.1801987610035682,2.5574950588513987,0.6639014482498169,1.9284216165542603,2.390573740005493,1.2861828804016113,-1.6017817258834839,1.5234204530715942,-0.14031238091464415,-1.0564633269472747,-0.2130849301894678,-0.8620649576187134,0.13985243439674377,-0.48711955547332764
1732225898231,9i,4.95078432358323,0.9s : 0.3s,-10.678880456661702,0.6119767129750601,1.6021990056785165,2.6800241389626613,0.7281962633132935,2.422272205352783,2.9667396545410156,1.429189682006836,-1.6506446599960327,1.5541294813156128,-0.1599469579110338,-1.0318216597223124,-0.19314825036556285,-0.8472806811332703,0.15926584601402283,-0.5067049860954285
1732225898241,9i,4.95078432358323,0.9s : 0.3s,-10.678880456661702,0.6194562003133902,2.0715896192041616,2.866378155516363,0.8100470304489136,3.007338047027588,3.572462320327759,1.6228134632110596,-1.7282183170318604,1.6111677885055542,-0.1836713214432646,-1.0005934292951466,-0.16872892013060495,-0.8276324272155762,0.18264035880565643,-0.5307233333587646
1732225898251,9i,4.95078432358323,0.9s : 0.3s,-10.678880456661702,0.6293693965827586,2.5889280132936445,3.1230978069437656,0.9407976269721985,3.6307477951049805,4.246392250061035,1.8557538986206055,-1.8392081260681152,1.710915207862854,-0.21125946793323322,-0.9616002645748906,-0.138820314337245,-0.8018754124641418,0.20969153940677643,-0.5594868063926697
1732225898261,9i,4.95078432358323,0.9s : 0.3s,-10.678880456661702,0.6422830545394527,3.154432212344945,3.3771456194990757,1.0720158815383911,4.301831245422363,4.985158443450928,2.1297547817230225,-1.9085310697555542,1.7963201999664307,-0.24248934093542024,-0.9138376404131797,-0.10205880915902378,-0.7686862945556641,0.24011987447738647,-0.5928440690040588
1732225898271,9i,4.95078432358323,0.9s : 0.3s,-10.678880456661702,0.6588384924834835,3.765499521585539,3.7036605972451926,1.0756865739822388,5.068840026855469,5.752202987670898,2.4996707439422607,-2.0194172859191895,1.841385841369629,-0.2771479129494103,-0.8557728425513507,-0.05786903156331973,-0.7262639403343201,0.27361351251602173,-0.6306160092353821
1732225898281,9i,4.95078432358323,0.9s : 0.3s,-10.678880456661702,0.6796893530233546,4.437503153162803,4.126435350907082,0.9891888499259949,5.975810527801514,6.601583480834961,2.9132485389709473,-2.168365716934204,1.959245204925537,-0.3152388198897488,-0.7854275750103099,-0.0055992378093909275,-0.6722820401191711,0.3100435435771942,-0.6722425222396851
1732225898291,9i,4.95078432358323,0.9s : 0.3s,-10.678880456661702,0.7057715288512876,5.163465414650139,4.657722075312029,0.605807363986969,6.946910381317139,7.502678871154785,3.4273738861083984,-2.2959134578704834,2.1624672412872314,-0.3569585296330646,-0.7007729687780369,0.05549920964268587,-0.6041625142097473,0.34942612051963806,-0.7161628007888794
1732225898301,9i,4.95078432358323,0.9s : 0.3s,-10.678880456661702,0.7384720806858339,5.977235929508109,5.361190460438008,0.18462231755256653,8.074234008789062,8.562448501586914,4.138210773468018,-2.402305841445923,2.4179539680480957,-0.4023635290794433,-0.5993093592017125,0.1270641835251488,-0.5190244317054749,0.39159420132637024,-0.7597813606262207
1732225898311,9i,4.95078432358323,0.9s : 0.3s,-10.678880456661702,0.7796141479618125,6.858347917301477,6.273688603169881,-0.08380994200706482,9.211862564086914,9.608321189880371,5.072416305541992,-2.450559139251709,2.761253595352173,-0.44867776953777727,-0.4773883418132669,0.21314634405187474,-0.4139842987060547,0.43377456068992615,-0.8002853989601135
1732225898321,9i,4.95078432358323,0.9s : 0.3s,-10.678880456661702,0.8308211322867702,7.7744945038205095,7.280168867392848,-0.5916491746902466,10.205570220947266,10.704524040222168,6.194995880126953,-2.4786853790283203,2.9118728637695312,-0.49190658911512153,-0.3328871664755189,0.3167571876168452,-0.28802889585494995,0.4723072648048401,-0.8330457806587219
1732225898331,9i,4.95078432358323,0.9s : 0.3s,-10.678880456661702,0.8936420725354912,8.605371354149502,8.434709185080912,-1.0247052907943726,10.781561851501465,11.422568321228027,7.543320655822754,-2.4415018558502197,2.8777945041656494,-0.5271310625114133,-0.16875740684579474,0.43765299432411037,-0.14515796303749084,0.5030559301376343,-0.8519765138626099
1732225898341,9i,4.95078432358323,0.9s : 0.3s,-10.678880456661702,0.969707646529413,9.331952225069116,9.753240491919442,-2.03582763671875,11.113645553588867,12.014771461486816,9.149041175842285,-2.0632779598236084,2.6764957904815674,-0.5511488014657667,0.010091396686364577,0.5725098567706562,0.008596952073276043,0.523666262626648,-0.8518801331520081
1732225898351,9i,4.95078432358323,0.9s : 0.3s,-10.678880456661702,1.0595197658938962,9.97460645205674,10.959007915743788,-4.036526203155518,11.08282470703125,12.638482093811035,10.600106239318848,-1.2851231098175049,2.466994285583496,-0.5675643297486591,0.20093842283552715,0.7210965698736773,0.1682959794998169,0.5375798344612122,-0.8262471556663513
1732225898361,9i,4.95078432358323,0.9s : 0.3s,-10.678880456661702,1.1627976189954987,10.528157469423476,12.114424284335657,-7.211613178253174,10.17897891998291,13.188847541809082,11.899662971496582,-0.2871394753456116,2.252742290496826,-0.5826051072278456,0.39845071997592174,0.8878804767785101,0.32398489117622375,0.5502011775970459,-0.7696184515953064
1732225898371,9i,4.95078432358323,0.9s : 0.3s,-10.678880456661702,1.279608644323209,11.06844894620666,13.5039210986335,-10.664084434509277,8.741086959838867,13.53826904296875,13.330151557922363,0.9946370720863342,1.9166746139526367,-0.5967878068327992,0.6008305145018383,1.080977729126877,0.46760809421539307,0.5619884133338928,-0.6822842359542847
1732225898381,9i,4.95078432358323,0.9s : 0.3s,-10.678880456661702,1.4090212592790508,11.673562922758919,14.857079918055478,-13.927971839904785,7.035419940948486,13.621635437011719,14.467667579650879,3.0907230377197266,1.3663270473480225,-0.6024419213970051,0.8059368954795955,1.3034193948031692,0.5944663882255554,0.5666561722755432,-0.5705353617668152
1732225898391,9i,4.95078432358323,0.9s : 0.3s,-10.678880456661702,1.5484614052580707,12.255832608191435,16.091576346117375,-16.363037109375,4.6715192794799805,13.297694206237793,14.847551345825195,6.148721694946289,0.8259962797164917,-0.5903065917334344,1.003433344414332,1.5493166825815141,0.7006059885025024,0.5566157698631287,-0.4464642405509949
1732225898401,9i,4.95078432358323,0.9s : 0.3s,-10.678880456661702,1.6939968198470923,12.737413847911245,17.14997116236279,-17.180763244628906,1.6433308124542236,13.436464309692383,14.17551326751709,9.632719993591309,0.6221253871917725,-0.5504880556047077,1.1707205997658967,1.7982913878428275,0.7849670052528381,0.5231032371520996,-0.33194881677627563
1732225898411,9i,4.95078432358323,0.9s : 0.3s,-10.678880456661702,1.8397758265744197,13.331253878426844,17.633499406400308,-18.776132583618164,-1.3601375818252563,13.55949592590332,12.10997486114502,12.800381660461426,0.662600576877594,-0.48991772923696325,1.2975495386904845,2.0431078808486256,0.8496355414390564,0.47055330872535706,-0.23811611533164978
1732225898421,9i,4.95078432358323,0.9s : 0.3s,-10.678880456661702,1.9785669612213892,13.648967474652402,16.989745718424484,-18.040138244628906,-3.2815682888031006,12.840790748596191,8.591017723083496,14.568801879882812,1.611175298690796,-0.41217621796999276,1.3777517949598865,2.274954276667056,0.8992316722869873,0.400604248046875,-0.1757807582616806
1732225898431,9i,4.95078432358323,0.9s : 0.3s,-10.678880456661702,2.1059286684797387,13.62943957162029,15.576903176082281,-16.276714324951172,-4.0965166091918945,12.304061889648438,5.274613857269287,14.327378273010254,3.08943247795105,-0.31971845650452924,1.4128951381543884,2.4769469939152824,0.9375140070915222,0.3142992854118347,-0.14927728474140167
1732225898441,9i,4.95078432358323,0.9s : 0.3s,-10.678880456661702,2.219182213906492,13.936594190094759,14.065988296793039,-17.95419692993164,-4.377763271331787,12.247269630432129,2.4822587966918945,13.200745582580566,4.175013065338135,-0.22449050992549985,1.4215908861343245,2.671069209833927,0.9640761613845825,0.22260968387126923,-0.1449224352836609
1732225898451,9i,4.95078432358323,0.9s : 0.3s,-10.678880456661702,2.3163652131186856,13.522724472963752,10.725418692353816,-14.748042106628418,-4.862833023071289,10.887075424194336,0.7143263220787048,9.664809226989746,4.595193862915039,-0.13523956793762515,1.412716686109153,2.8669952667248877,0.9785144329071045,0.13482768833637238,-0.15598468482494354
1732225898461,9i,4.95078432358323,0.9s : 0.3s,-10.678880456661702,2.39355873688354,11.33465274128635,4.380491663873223,-1.1223349571228027,-0.12713222205638885,12.612549781799316,0.21621835231781006,3.0343410968780518,3.1519408226013184,-0.05686075677772203,1.4098925603552033,2.9884544143602523,0.9854877591133118,0.05683012306690216,-0.15995146334171295
1732225898471,9i,4.95078432358323,0.9s : 0.3s,-10.678880456661702,2.4575788296275456,13.241599986534588,3.1051313386410064,-23.86618995666504,-12.262483596801758,10.034724235534668,2.909759759902954,0.4366636872291565,-0.9922013878822327,0.034479372730318376,1.3386441132643534,3.123289753818172,0.9725952744483948,-0.03447254002094269,-0.22993582487106323
1732225898481,9i,4.95078432358323,0.9s : 0.3s,-10.678880456661702,2.5447270033632106,17.336640863122184,15.823907277981048,-45.0552864074707,-3.8110947608947754,-0.5523993372917175,15.33432674407959,-3.870884895324707,-0.5203027725219727,-0.011876380427503858,1.2547413810219517,-2.814880679113065,0.9504020810127258,0.011876101605594158,-0.31079745292663574
1732225898491,9i,4.95078432358323,0.9s : 0.3s,-10.678880456661702,2.6266834018757765,15.612094868854339,20.692483311262098,-16.61561393737793,-12.382305145263672,-5.978163242340088,8.728032112121582,-14.800464630126953,11.530245780944824,-0.16170264634786694,1.2128157135939648,-2.4856305596842128,0.92438805103302,0.1609988808631897,-0.34581273794174194
1732225898501,9i,4.95078432358323,0.9s : 0.3s,-10.678880456661702,2.728554989708846,13.567625121197638,23.381567102090393,-9.928388595581055,-12.31612777709961,-5.537788391113281,3.745363235473633,15.881775856018066,16.74631690979004,-0.24549921354733006,1.1041424478321866,-2.3917398043153173,0.8663008809089661,0.24304060637950897,-0.4364107847213745
1732225898511,9i,4.95078432358323,0.9s : 0.3s,-10.678880456661702,2.8410314784467103,11.675605756378955,19.421557375711476,-6.525829315185547,-10.384441375732422,-6.9502105712890625,7.396493911743164,17.91531753540039,-1.2369989156723022,-0.3418357673847404,1.0018750800909495,-2.354255869547076,0.7937374114990234,0.3352172076702118,-0.5075535178184509
1732225898521,9i,4.95078432358323,0.9s : 0.3s,-10.678880456661702,2.939114794859955,11.525541724885592,7.587244853664322,-10.097932815551758,-13.058286666870117,-7.5837626457214355,3.454158306121826,1.1882078647613525,6.650055408477783,-0.4481488418490234,0.9011879778768959,-2.321940778739775,0.7066391110420227,0.43329793214797974,-0.5593875050544739
1732225898531,9i,4.95078432358323,0.9s : 0.3s,-10.678880456661702,3.028287166643528,11.326301897544358,9.17061075336596,-6.410894870758057,-14.665633201599121,-8.441232681274414,6.175405025482178,-3.7869105339050293,5.623502731323242,-0.563338001722604,0.7617463920443033,-2.315354550107198,0.5835368633270264,0.5340113639831543,-0.6118143200874329
1732225898541,9i,4.95078432358323,0.9s : 0.3s,-10.678880456661702,3.1151588514373305,10.884658608220423,8.025670400130934,-2.755535125732422,-14.293318748474121,-7.95175313949585,6.1376190185546875,0.2432854175567627,5.165445804595947,-0.6501064498168944,0.5928816230953239,-2.358605146829274,0.4447784125804901,0.6052711606025696,-0.6601660251617432
1732225898551,9i,4.95078432358323,0.9s : 0.3s,-10.678880456661702,3.1926785625245095,10.52510105472144,6.449414917462871,-1.7174772024154663,-13.684657096862793,-7.280803680419922,2.8760149478912354,1.3352056741714478,5.616112232208252,-0.7050885029833733,0.4057702244607786,-2.4311666814768866,0.3006056845188141,0.6481012105941772,-0.6997150182723999
1732225898561,9i,4.95078432358323,0.9s : 0.3s,-10.678880456661702,3.2631147545920993,10.066748982269857,7.404045956660392,0.30057141184806824,-12.566910743713379,-7.240055561065674,2.586665153503418,0.004619479179382324,6.937509536743164,-0.7358573395357275,0.21633041482529428,-2.5202406849514887,0.15910831093788147,0.6712229251861572,-0.7239782214164734
1732225898571,9i,4.95078432358323,0.9s : 0.3s,-10.678880456661702,3.3252950031602784,9.651082637349084,7.171568923936358,3.313866376876831,-12.660365104675293,-6.0403733253479,1.0791268348693848,0.4781947135925293,7.073769569396973,-0.7248733596146439,0.028262473208015462,-2.6136100926899597,0.021154003217816353,0.6630406379699707,-0.7482844591140747
1732225898581,9i,4.95078432358323,0.9s : 0.3s,-10.678880456661702,3.3788566541369396,9.350152008758437,5.779181605970456,3.170854091644287,-12.269386291503906,-5.0386857986450195,0.5076650381088257,0.5985979437828064,5.725635051727295,-0.6864674282135761,-0.14639178560030566,-2.691271960897402,-0.11282855272293091,0.6338087320327759,-0.7652164697647095
1732225898591,9i,4.95078432358323,0.9s : 0.3s,-10.678880456661702,3.4217214267307994,8.975892831059518,4.959083052820973,1.7231378555297852,-11.237165451049805,-4.531898498535156,-0.1177981048822403,-1.148686170578003,4.8227739334106445,-0.6504179996663232,-0.2995977812018528,-2.750096404931494,-0.23487825691699982,0.6055191159248352,-0.760380744934082
1732225898601,9i,4.95078432358323,0.9s : 0.3s,-10.678880456661702,3.4542671162407146,8.64797499266583,4.9117788293519515,2.175196409225464,-10.73442554473877,-4.605118751525879,-0.7836310863494873,-1.801811933517456,4.501662731170654,-0.6153176102692046,-0.436024940708624,-2.7952273462106576,-0.3448784351348877,0.5772179365158081,-0.7401881217956543
1732225898611,9i,4.95078432358323,0.9s : 0.3s,-10.678880456661702,3.4794088389779683,8.322381709466164,3.3570258102433432,3.005247116088867,-10.153855323791504,-4.358004093170166,-0.7403903603553772,-0.5827629566192627,3.2220849990844727,-0.5713168561967839,-0.558875011320591,-2.8273457584488324,-0.4460262656211853,0.5407402515411377,-0.7132044434547424
1732225898621,9i,4.95078432358323,0.9s : 0.3s,-10.678880456661702,3.5012118211521326,7.949499234752957,2.267383688391614,3.1908137798309326,-9.285107612609863,-4.225793838500977,0.09790748357772827,0.22162121534347534,2.254401683807373,-0.5209549793373246,-0.6666424130568634,-2.8472626978807796,-0.5363230109214783,0.49770864844322205,-0.6816478371620178
1732225898631,9i,4.95078432358323,0.9s : 0.3s,-10.678880456661702,3.522746276377643,7.516918954255885,2.37507370414551,3.8324873447418213,-8.165964126586914,-4.079209804534912,0.8230782151222229,0.3892940282821655,2.193619728088379,-0.46739812772227124,-0.758530324681961,-2.8568724522712743,-0.6140785813331604,0.45056501030921936,-0.6479959487915039
1732225898641,9i,4.95078432358323,0.9s : 0.3s,-10.678880456661702,3.543779221947782,7.071358694685974,2.167961964243947,4.191235065460205,-7.20140266418457,-3.9190890789031982,0.8314176797866821,0.4657849967479706,1.9472668170928955,-0.4106165940010137,-0.83483963109743,-2.855983331706783,-0.6795774698257446,0.3991747498512268,-0.615494966506958
1732225898651,9i,4.95078432358323,0.9s : 0.3s,-10.678880456661702,3.563106139798671,6.671705230280908,1.5897085042242571,4.583561897277832,-6.608170986175537,-3.507117748260498,0.7151004672050476,0.34909307956695557,1.3762043714523315,-0.35383109970778776,-0.8998397671350276,-2.8457531610782656,-0.7347081303596497,0.3464941084384918,-0.583220362663269
1732225898661,9i,4.95078432358323,0.9s : 0.3s,-10.678880456661702,3.5810866157006895,6.32489178651842,1.3662957067571935,4.497958660125732,-6.2343430519104,-3.2752902507781982,0.9867618083953857,0.17301225662231445,0.9290488958358765,-0.29949304849526737,-0.9585167896553949,-2.8284474888361704,-0.7819126844406128,0.29503586888313293,-0.549150824546814
1732225898671,9i,4.95078432358323,0.9s : 0.3s,-10.678880456661702,3.59826873182292,6.010173051172757,1.3885162308824217,4.33516263961792,-5.911429405212402,-3.050917148590088,1.2414577007293701,0.14850492775440216,0.6039092540740967,-0.24868861979453794,-1.0137865729550222,-2.808347948131169,-0.8227260708808899,0.24613313376903534,-0.5123869776725769
1732225898681,9i,4.95078432358323,0.9s : 0.3s,-10.678880456661702,3.615113167697641,5.724142238253985,1.4421972197233028,4.045162200927734,-5.744592189788818,-2.8104043006896973,1.271022915840149,0.27470922470092773,0.6236733198165894,-0.20228390629966916,-1.0670464317840551,-2.786517442708655,-0.8579217791557312,0.20090718567371368,-0.4728706479072571
1732225898691,9i,4.95078432358323,0.9s : 0.3s,-10.678880456661702,3.631942144839729,5.494606547720112,1.5421581030086,3.773566246032715,-5.765777111053467,-2.691258430480957,1.3746333122253418,0.12181875109672546,0.6883277297019958,-0.15995992577280035,-1.1205344380726616,-2.764075920985171,-0.8888393044471741,0.15927864611148834,-0.42964544892311096
1732225898701,9i,4.95078432358323,0.9s : 0.3s,-10.678880456661702,3.6483014600283687,5.289204717419522,1.419263618266991,3.5525271892547607,-5.672245502471924,-2.5725715160369873,1.3392767906188965,0.14636164903640747,0.4463464617729187,-0.12103874766593384,-1.174555729469116,-2.7413036798068133,-0.9157691597938538,0.12074342370033264,-0.3831292688846588
1732225898711,9i,4.95078432358323,0.9s : 0.3s,-10.678880456661702,3.6643637800805546,5.1171153172255615,1.4181241675502678,3.3607685565948486,-5.537147045135498,-2.7248642444610596,1.315239429473877,0.40515464544296265,0.3421565592288971,-0.08404946282500783,-1.2283376535739825,-2.718730352443627,-0.938606858253479,0.08395054191350937,-0.33461859822273254
1732225898721,9i,4.95078432358323,0.9s : 0.3s,-10.678880456661702,3.6810383342579516,5.00749303658635,1.6845161460086442,3.621311902999878,-5.29820442199707,-3.0186679363250732,1.4837549924850464,0.7061091661453247,0.37077704071998596,-0.04596691169906429,-1.2808622430478203,-2.6943510607870915,-0.9572505950927734,0.04595072567462921,-0.2855871021747589
1732225898731,9i,4.95078432358323,0.9s : 0.3s,-10.678880456661702,3.699181803371805,4.964673084833047,2.0580201028738654,4.195775985717773,-5.016204357147217,-3.2312371730804443,1.722978115081787,1.0598241090774536,0.37890106439590454,-0.005559757794317183,-1.3316631534339363,-2.6649071263993025,-0.9715287089347839,0.005559728946536779,-0.23685692250728607
1732225898741,9i,4.95078432358323,0.9s : 0.3s,-10.678880456661702,3.71964119064853,4.943181879846007,2.445246192321775,4.378226280212402,-4.815250396728516,-3.3914601802825928,1.9399832487106323,1.3533298969268799,0.6198323369026184,0.03593964536993424,-1.3813364240582706,-2.6298808157165676,-0.9814720749855042,-0.03593190759420395,-0.18820691108703613
1732225898751,9i,4.95078432358323,0.9s : 0.3s,-10.678880456661702,3.741997822849196,4.934820003679498,2.4886780548609466,4.6569108963012695,-4.524514675140381,-3.4288885593414307,2.007842779159546,1.2832759618759155,0.7178360819816589,0.0770534465560596,-1.430330584433949,-2.5910369841602474,-0.987213134765625,-0.07697722315788269,-0.13958889245986938
1732225898761,9i,4.95078432358323,0.9s : 0.3s,-10.678880456661702,3.7647814040173864,4.90138191620855,2.170129302356153,4.803805828094482,-4.269106388092041,-3.374044895172119,1.7963290214538574,0.9903561472892761,0.7084193229675293,0.1162588429900371,-1.478444705849497,-2.5477423968104542,-0.9890172481536865,-0.11599712818861008,-0.09159789979457855
1732225898771,9i,4.95078432358323,0.9s : 0.3s,-10.678880456661702,3.78691710476713,4.89202786578282,1.878859500364802,5.182945251464844,-3.950122117996216,-3.3843560218811035,1.6312100887298584,0.7480692267417908,0.5564702153205872,0.1533634128679378,-1.5260544201789963,-2.4998001425078904,-0.9872740507125854,-0.15276291966438293,-0.04420202225446701
1732225898781,9i,4.95078432358323,0.9s : 0.3s,-10.678880456661702,3.8085033547271214,4.888240708918609,1.8469916499362602,5.413108825683594,-3.6430132389068604,-3.395551919937134,1.5813236236572266,0.7627682685852051,0.5735663175582886,0.18836453561212282,-1.5730451011969615,-2.446761002064065,-0.9823096990585327,-0.18725261092185974,0.0022089965641498566
1732225898791,9i,4.95078432358323,0.9s : 0.3s,-10.678880456661702,3.8298524151731943,4.894487551188177,1.8863141722088137,5.666635036468506,-3.3519492149353027,-3.3724138736724854,1.5465633869171143,0.841511607170105,0.6768907308578491,0.22080395698947303,-1.6196594004214533,-2.3892096109639005,-0.9745573401451111,-0.21901413798332214,0.0476578027009964
1732225898801,9i,4.95078432358323,0.9s : 0.3s,-10.678880456661702,3.851048763395104,4.88150893134068,1.877667329811206,5.666217803955078,-3.1278676986694336,-3.2964699268341064,1.4738471508026123,0.8066153526306152,0.838320255279541,0.24997615630280218,-1.6660733899901414,-2.328585111322777,-0.9645241498947144,-0.24738085269927979,0.09217611700296402
1732225898811,9i,4.95078432358323,0.9s : 0.3s,-10.678880456661702,3.8716391640354715,4.86483977274025,1.7176427179900422,5.828220844268799,-2.959199905395508,-3.1119649410247803,1.3633757829666138,0.6198716759681702,0.8409887552261353,0.27496543698286213,-1.712804587422135,-2.265549439568395,-0.9527467489242554,-0.2715136706829071,0.13621479272842407
1732225898821,9i,4.95078432358323,0.9s : 0.3s,-10.678880456661702,3.890847142313348,4.815577609830265,1.4286960987388004,5.780679225921631,-2.7702701091766357,-2.9444515705108643,1.1790757179260254,0.44371312856674194,0.6738483905792236,0.2946852878456066,-1.7590615603382094,-2.200879240750057,-0.9399859309196472,-0.290438711643219,0.1790875345468521
1732225898831,9i,4.95078432358323,0.9s : 0.3s,-10.678880456661702,3.9085552896608067,4.7375957116790275,1.271326611948976,5.7426652908325195,-2.4273011684417725,-2.8084139823913574,1.023294448852539,0.42532145977020264,0.6230902671813965,0.31061775285435983,-1.80455763252969,-2.135472595258835,-0.9262486696243286,-0.3056468963623047,0.22055314481258392
1732225898841,9i,4.95078432358323,0.9s : 0.3s,-10.678880456661702,3.9251937847123086,4.599245540021401,1.292184070607221,5.5013251304626465,-2.0661773681640625,-2.5788841247558594,0.9173417091369629,0.39803099632263184,0.8184101581573486,0.32249154737071495,-1.846983277398449,-2.070972806567679,-0.9125047326087952,-0.3169306516647339,0.2586316466331482
1732225898851,9i,4.95078432358323,0.9s : 0.3s,-10.678880456661702,3.94074684924805,4.424884234573072,1.2521661914006494,5.282069683074951,-1.7595856189727783,-2.316317319869995,0.7701916694641113,0.27409660816192627,0.9484703540802002,0.33015679268086384,-1.885940876031513,-2.0090515416920947,-0.8994032740592957,-0.3241913616657257,0.2932138741016388
1732225898861,9i,4.95078432358323,0.9s : 0.3s,-10.678880456661702,3.955573417733006,4.232658587465343,1.2795162123132398,5.080164432525635,-1.438380241394043,-2.1029927730560303,0.7577701210975647,0.2668752074241638,0.9958533048629761,0.33409093031933135,-1.9212972388471221,-1.9496526785544146,-0.8872715830802917,-0.32791051268577576,0.3243831694126129
1732225898871,9i,4.95078432358323,0.9s : 0.3s,-10.678880456661702,3.9696823973091266,4.018040846466801,1.2285467620552075,4.8291544914245605,-1.1032617092132568,-1.8572014570236206,0.6841333508491516,0.28340432047843933,0.9802911281585693,0.33474116471871,-1.9526453273128732,-1.8929638360065053,-0.8764705657958984,-0.32852470874786377,0.35195401310920715
1732225898881,9i,4.95078432358323,0.9s : 0.3s,-10.678880456661702,3.9827616640209205,3.8119865828172115,1.1295228270306292,4.7209978103637695,-0.7885918617248535,-1.543393850326538,0.5222181081771851,0.20700857043266296,0.9799273014068604,0.33195290239078545,-1.9797469906843768,-1.839056325306674,-0.8674483895301819,-0.3258899450302124,0.37593844532966614
1732225898891,9i,4.95078432358323,0.9s : 0.3s,-10.678880456661702,3.9947675519794816,3.595334244395302,1.0634343537055555,4.446207523345947,-0.47837382555007935,-1.348076581954956,0.407395601272583,0.19727134704589844,0.9622917771339417,0.3263555284791976,-2.0023253227033933,-1.7887269907970818,-0.8603835701942444,-0.32059305906295776,0.3961833417415619
1732225898901,9i,4.95078432358323,0.9s : 0.3s,-10.678880456661702,4.0060375256333804,3.3961122395349896,1.102777633349262,4.288933277130127,-0.17269358038902283,-1.1530025005340576,0.360495388507843,0.26221153140068054,1.0086658000946045,0.31904961705787704,-2.0204710102015877,-1.7414951885428878,-0.8551396131515503,-0.3136642873287201,0.4127364754676819
1732225898911,9i,4.95078432358323,0.9s : 0.3s,-10.678880456661702,4.01648512651811,3.2150023427501053,1.0469270498788317,4.113920211791992,0.10358834266662598,-1.020722508430481,0.26018375158309937,0.2807931900024414,0.974431037902832,0.3102523443983682,-2.0346302064366406,-1.6968793236258237,-0.8516450524330139,-0.30529895424842834,0.42602086067199707
1732225898921,9i,4.95078432358323,0.9s : 0.3s,-10.678880456661702,4.026096526261782,3.0548028991503178,0.9960597185081036,3.962440252304077,0.36914873123168945,-0.8888995051383972,0.18081164360046387,0.3001594841480255,0.9323874711990356,0.3004320447722187,-2.0449419326941944,-1.6545139141925147,-0.8498333692550659,-0.29593291878700256,0.4361278712749481
1732225898931,9i,4.95078432358323,0.9s : 0.3s,-10.678880456661702,4.034765591454986,2.9074050388950305,0.9525495592668045,3.77008056640625,0.5288177728652954,-0.7930027842521667,0.06968188285827637,0.28907570242881775,0.9049476981163025,0.2902024234798678,-2.052028789884334,-1.6146855630763182,-0.849360466003418,-0.2861461937427521,0.44351765513420105
1732225898941,9i,4.95078432358323,0.9s : 0.3s,-10.678880456661702,4.042393395736209,2.7691635314343053,0.8920071367959793,3.578246831893921,0.6694837808609009,-0.6898917555809021,-0.01803743839263916,0.2079617977142334,0.8672388792037964,0.27963097279440746,-2.05654996203024,-1.5772129185561217,-0.8499744534492493,-0.2760009765625,0.4487406015396118
1732225898951,9i,4.95078432358323,0.9s : 0.3s,-10.678880456661702,4.048891084076316,2.651015496232682,0.8230987559411366,3.432732343673706,0.8929333686828613,-0.6349862217903137,-0.10049057006835938,0.12913942337036133,0.8066698312759399,0.2689516972091149,-2.0582858671701896,-1.541664589633196,-0.8517495393753052,-0.2657209634780884,0.4515701234340668
1732225898961,9i,4.95078432358323,0.9s : 0.3s,-10.678880456661702,4.054258096562579,2.5313100538830824,0.8057677718023087,3.191524028778076,1.028348684310913,-0.630756676197052,-0.196871817111969,0.10226798057556152,0.7746253609657288,0.2590876854809203,-2.0573578521487623,-1.5083620094007322,-0.8544437885284424,-0.25619879364967346,0.4519832134246826
1732225898971,9i,4.95078432358323,0.9s : 0.3s,-10.678880456661702,4.0587118291660405,2.4232718438649377,0.8127315734220716,3.0213325023651123,1.1286569833755493,-0.6112716794013977,-0.24206775426864624,0.10911156237125397,0.7681344151496887,0.25007685619768133,-2.054399983209749,-1.4769874039207314,-0.8577860593795776,-0.2474784255027771,0.45050910115242004
1732225898981,9i,4.95078432358323,0.9s : 0.3s,-10.678880456661702,4.0623663146364,2.3171823585986653,0.7350797899946921,2.8184237480163574,1.2047475576400757,-0.6077370047569275,-0.23732566833496094,0.05359843373298645,0.6936469078063965,0.24192569176701542,-2.0498985660275557,-1.4473885981467867,-0.8615666031837463,-0.2395726889371872,0.4475582540035248
1732225898991,9i,4.95078432358323,0.9s : 0.3s,-10.678880456661702,4.065162374228038,2.2286103886251927,0.6595808966996504,2.6972391605377197,1.2934610843658447,-0.5897281765937805,-0.2606903314590454,-0.03687623143196106,0.6047542095184326,0.23464995120167223,-2.043946046518436,-1.419384664093407,-0.8657440543174744,-0.2325025498867035,0.44320443272590637
1732225899001,9i,4.95078432358323,0.9s : 0.3s,-10.678880456661702,4.06707246249456,2.149182761132835,0.6320985439087493,2.578566074371338,1.3243354558944702,-0.5634989142417908,-0.3139796257019043,-0.07709930837154388,0.5431584119796753,0.22786126621828942,-2.036959749113002,-1.3925659129878383,-0.8702093958854675,-0.22589458525180817,0.43784475326538086
1732225899011,9i,4.95078432358323,0.9s : 0.3s,-10.678880456661702,4.068120587058761,2.0654578646460475,0.6000949310845873,2.411348581314087,1.3455766439437866,-0.516711950302124,-0.34601086378097534,-0.12105484306812286,0.4751169681549072,0.2215429151028208,-2.029160503029801,-1.3671911179991143,-0.8748602271080017,-0.21973508596420288,0.4316674470901489
1732225899021,9i,4.95078432358323,0.9s : 0.3s,-10.678880456661702,4.0685298169490824,1.9750247483430003,0.5682347963654851,2.211841344833374,1.3865901231765747,-0.4727505147457123,-0.32300305366516113,-0.1608966439962387,0.4389442801475525,0.21580514521273625,-2.0204090282361955,-1.3436720049359423,-0.8797252774238586,-0.21413396298885345,0.4245356023311615
1732225899031,9i,4.95078432358323,0.9s : 0.3s,-10.678880456661702,4.068504644803623,1.869810302671595,0.5746816390377224,1.9672200679779053,1.392186164855957,-0.42304953932762146,-0.3116801381111145,-0.18886514008045197,0.44434720277786255,0.2108880204789202,-2.010336443826136,-1.322594062064442,-0.884898841381073,-0.2093283236026764,0.41609612107276917
1732225899041,9i,4.95078432358323,0.9s : 0.3s,-10.678880456661702,4.068313192692589,1.7735158209330195,0.5763512731707311,1.8269336223602295,1.4048212766647339,-0.3579740822315216,-0.3147413730621338,-0.1625644415616989,0.45463332533836365,0.20643725202902896,-2.0001995241786603,-1.3033424377816656,-0.889909565448761,-0.20497409999370575,0.407488614320755
1732225899051,9i,4.95078432358323,0.9s : 0.3s,-10.678880456661702,4.068051970243353,1.6846566593570778,0.4952586088778661,1.6789683103561401,1.4247452020645142,-0.3233780264854431,-0.2684648036956787,-0.07523848116397858,0.4093249440193176,0.2022921206026353,-1.989575640186684,-1.2855573864507157,-0.8949570655822754,-0.20091523230075836,0.398353636264801
1732225899061,9i,4.95078432358323,0.9s : 0.3s,-10.678880456661702,4.067914649181256,1.5890973083437576,0.4687114040281067,1.4131933450698853,1.479284644126892,-0.3471629023551941,-0.23183339834213257,-0.004086017608642578,0.407341331243515,0.19911632102317864,-1.9781055586464888,-1.2697047858630306,-0.9000486731529236,-0.19780318439006805,0.38831329345703125
1732225899071,9i,4.95078432358323,0.9s : 0.3s,-10.678880456661702,4.0678596282715915,1.4931709895608132,0.542880562339111,1.185694694519043,1.49672269821167,-0.33969059586524963,-0.240897536277771,0.02980753779411316,0.4855915904045105,0.19723699697754757,-1.9658038449789113,-1.2562375141393303,-0.9050988554954529,-0.1959606558084488,0.3773544132709503
1732225899081,9i,4.95078432358323,0.9s : 0.3s,-10.678880456661702,4.0679105947699075,1.4041331772669146,0.5288889267793592,1.0520133972167969,1.4493244886398315,-0.32048875093460083,-0.22023630142211914,0.08467522263526917,0.4733387529850006,0.1960826075175002,-1.9533516451152,-1.2444508963418652,-0.9099363684654236,-0.19482851028442383,0.3661390244960785
1732225899091,9i,4.95078432358323,0.9s : 0.3s,-10.678880456661702,4.068185444054155,1.322432074910546,0.4050945942420753,0.9489498138427734,1.3957854509353638,-0.29095375537872314,-0.16902530193328857,0.09439265727996826,0.3558399975299835,0.19525576084914073,-1.9411496565915614,-1.2338138418902918,-0.914486289024353,-0.1940174400806427,0.35506731271743774
1732225899101,9i,4.95078432358323,0.9s : 0.3s,-10.678880456661702,4.068493603541329,1.2431693208110428,0.2875759009712529,0.8439428210258484,1.3285109996795654,-0.26694580912590027,-0.13699805736541748,0.07613660395145416,0.24111127853393555,0.19462692882237453,-1.929347274219005,-1.2242373648240827,-0.9187272191047668,-0.1934005171060562,0.34429246187210083
1732225899111,9i,4.95078432358323,0.9s : 0.3s,-10.678880456661702,4.068732004694527,1.1650959734487376,0.23116126535362116,0.741242527961731,1.2509384155273438,-0.27462902665138245,-0.1277700662612915,0.052861735224723816,0.18524572253227234,0.19445051781179243,-1.9180678731957368,-1.2157852788968055,-0.9225839972496033,-0.19322744011878967,0.3339196443557739
1732225899121,9i,4.95078432358323,0.9s : 0.3s,-10.678880456661702,4.0689547125225,1.093014728719651,0.25185301507723373,0.6828346252441406,1.174639105796814,-0.2804070711135864,-0.13241922855377197,0.06800349056720734,0.20315170288085938,0.194657854633602,-1.9074101734673339,-1.2079441750991222,-0.9260526299476624,-0.1934308558702469,0.3240550458431244
1732225899131,9i,4.95078432358323,0.9s : 0.3s,-10.678880456661702,4.069122178725011,1.0134912595113903,0.23492652714749365,0.5876466035842896,1.0630086660385132,-0.2521677315235138,-0.13610434532165527,0.08903172612190247,0.1695270836353302,0.19512611392126403,-1.8975658701813314,-1.200916701716864,-0.9291119575500488,-0.1938902586698532,0.31489405035972595
1732225899141,9i,4.95078432358323,0.9s : 0.3s,-10.678880456661702,4.069276468174861,0.9181013316175616,0.1907732858499261,0.3924040198326111,0.939226508140564,-0.2737147808074951,-0.1027480959892273,0.05926273763179779,0.14941620826721191,0.1960914836878402,-1.888593236698834,-1.1954430306128652,-0.9317216277122498,-0.19483721256256104,0.30648624897003174
