timestamp,club,max_speed,tempo,w.rotation,l.speed,t.spped,acc,rotation.x,rotation.y,rotation.z,userAcceleration.x,userAcceleration.y,userAcceleration.z,pitch,roll,yaw,gravity.x,gravity.y,gravity.z
1732225657781,9i,4.645898765882418,1.0s : 0.3s,-7.005269387223095,7.342253125399955e-05,0.02606815007035129,0.02729190868184806,0.08186424523591995,-0.026531308889389038,-0.025294452905654907,0.012155532836914062,-0.023930519819259644,0.00494181364774704,-0.166158298435908,1.4926946044667102,0.15371375435340562,0.9832212924957275,0.16539478302001953,-0.07694779336452484
1732225657791,9i,4.645898765882418,1.0s : 0.3s,-7.005269387223095,0.00028170756833831854,0.027582166424324192,0.06198317981926163,0.06972794979810715,-0.02442767843604088,-0.027873991057276726,0.025281012058258057,0.005766451358795166,0.05629860609769821,-0.16646432411043516,1.4923224930395496,0.15293221344307034,0.9831421375274658,0.16569659113883972,-0.07730969041585922
1732225657801,9i,4.645898765882418,1.0s : 0.3s,-7.005269387223095,0.0005340105508312461,0.026918594001376823,0.04319022254312598,0.031752075999975204,-0.016887117177248,-0.03642793372273445,0.0365673303604126,0.020111143589019775,0.01112508773803711,-0.16677230294198894,1.4920621818756166,0.15240505354527495,0.9830709099769592,0.16600030660629272,-0.07756157964468002
1732225657821,9i,4.645898765882418,1.0s : 0.3s,-7.005269387223095,0.0007796121944385224,0.023854711523424704,0.025679132974370966,-0.009122254326939583,-0.023843515664339066,-0.03283689171075821,-0.0011307597160339355,-0.00396747887134552,0.025345578789711,-0.1674534294877292,1.4916657185873445,0.1521706524757977,0.9829270243644714,0.16667194664478302,-0.0779423639178276
1732225657831,9i,4.645898765882418,1.0s : 0.3s,-7.005269387223095,0.0010185909636912386,0.023443241418985527,0.021195790971687774,0.01977970264852047,-0.028233468532562256,-0.04278246685862541,0.005279123783111572,-0.006839349865913391,0.019354991614818573,-0.16779718252755982,1.491406504616384,0.15210095362936008,0.9828497767448425,0.16701087355613708,-0.07819261401891708
1732225657841,9i,4.645898765882418,1.0s : 0.3s,-7.005269387223095,0.0012411725561070717,0.03300738655337027,0.018770037733931405,0.06990744918584824,-0.028595969080924988,-0.04239920526742935,0.0001246333122253418,-0.013762682676315308,0.012762732803821564,-0.1680560774275209,1.4911394993470237,0.15163090555206724,0.9827855825424194,0.1672661304473877,-0.07845158129930496
1732225657851,9i,4.645898765882418,1.0s : 0.3s,-7.005269387223095,0.001438475938951351,0.047655649446799266,0.010893141061476812,0.11236569285392761,-0.02933313325047493,-0.0400252640247345,-0.010478973388671875,0.0011207610368728638,0.0027559995651245117,-0.16825105268312837,1.4907611377001446,0.15068197762556396,0.9827233552932739,0.16745835542678833,-0.07882081717252731
1732225657861,9i,4.645898765882418,1.0s : 0.3s,-7.005269387223095,0.0016187861711686093,0.06329205924155083,0.01833305971775467,0.14366622269153595,-0.023930244147777557,-0.035037461668252945,-0.008354246616363525,0.01598218083381653,0.0032981112599372864,-0.16834457956642732,1.4903324700968876,0.14935145113660533,0.9826737642288208,0.16755056381225586,-0.07924080640077591
1732225657871,9i,4.645898765882418,1.0s : 0.3s,-7.005269387223095,0.0017860818035462865,0.07622575520003438,0.011771567592037473,0.15594978630542755,-0.024808555841445923,-0.024921976029872894,-0.006335258483886719,0.006843864917755127,0.0071830227971076965,-0.1685285715304955,1.4902739913067136,0.14787822769436404,0.9826383590698242,0.16773195564746857,-0.07929579168558121
1732225657881,9i,4.645898765882418,1.0s : 0.3s,-7.005269387223095,0.0019456170967358842,0.08469486705273799,0.009407574342949653,0.15316998958587646,-0.02598309889435768,-0.01892120949923992,-0.0005080699920654297,0.000608101487159729,0.009374141693115234,-0.1686937166539023,1.489874237162461,0.1463097378642315,0.9825791120529175,0.16789475083351135,-0.07968637347221375
1732225657891,9i,4.645898765882418,1.0s : 0.3s,-7.005269387223095,0.002095009072045466,0.08791387824835795,0.009321443828701127,0.1516687572002411,-0.022086894139647484,-0.014676129445433617,0.006376087665557861,-0.005764409899711609,0.003606438636779785,-0.16873440611967716,1.4895474052171052,0.1447994717730599,0.9825461506843567,0.1679348647594452,-0.08000694960355759
1732225657901,9i,4.645898765882418,1.0s : 0.3s,-7.005269387223095,0.0022228481554306123,0.09054914680330975,0.015012450085940343,0.15537986159324646,-0.02161267399787903,-0.005674446001648903,0.0033350586891174316,-0.013596609234809875,-0.0054206326603889465,-0.1686769987899286,1.4892934799021498,0.14326652283247288,0.9825355410575867,0.16787827014923096,-0.08025722950696945
1732225657911,9i,4.645898765882418,1.0s : 0.3s,-7.005269387223095,0.002325276411597578,0.08955448350876388,0.023955080002610415,0.11673128604888916,-0.028019174933433533,-0.011542188934981823,0.0005826950073242188,-0.02260914444923401,-0.007895119488239288,-0.16857864590761168,1.4889713198729515,0.14186727407712044,0.9825260639190674,0.1677813082933426,-0.08057510852813721
1732225657921,9i,4.645898765882418,1.0s : 0.3s,-7.005269387223095,0.0023608211994122583,0.07353523598519034,0.04133479688667206,0.055491894483566284,0.005529465153813362,-0.002286572242155671,-0.004441559314727783,-0.03973311185836792,-0.010493703186511993,-0.16853583832290459,1.4887436493274804,0.14100621727146367,0.9825149178504944,0.1677391082048416,-0.0807993933558464
1732225657931,9i,4.645898765882418,1.0s : 0.3s,-7.005269387223095,0.0022723541867857265,0.13042802071471193,0.061403077158090735,0.07451511174440384,0.2522476315498352,-0.48078685998916626,-0.04490691423416138,-0.04083657264709473,-0.00927799940109253,-0.16903603324999825,1.4884466090363815,0.14026181000069926,0.9824070930480957,0.16823220252990723,-0.08108431845903397
1732225657941,9i,4.645898765882418,1.0s : 0.3s,-7.005269387223095,0.0020134929829704446,0.1905226764321338,0.11298866692830994,0.03621553257107735,0.26144278049468994,-0.44771674275398254,-0.10405975580215454,-0.03569337725639343,-0.025767982006072998,-0.16853972110366774,1.487734302950779,0.13988825135039645,0.9824320673942566,0.16774293780326843,-0.0817909836769104
1732225657951,9i,4.645898765882418,1.0s : 0.3s,-7.005269387223095,0.00188855934965306,0.1618432806828598,0.07305998907957624,-0.010110420174896717,0.06862405687570572,-0.13175664842128754,0.0660669207572937,-0.028295353055000305,-0.013126194477081299,-0.1686041973312592,1.4874150932076988,0.14009942450831223,0.9823951125144958,0.1678065061569214,-0.0821036770939827
1732225657961,9i,4.645898765882418,1.0s : 0.3s,-7.005269387223095,0.0018448788712681857,0.1082207027060766,0.02802828417090873,0.015919450670480728,-0.021921245381236076,0.022330889478325844,0.027024269104003906,-0.007286101579666138,0.0014786198735237122,-0.1689622880020924,1.4873456753005598,0.1399152319524901,0.9823294281959534,0.16815949976444244,-0.08216685801744461
1732225657971,9i,4.645898765882418,1.0s : 0.3s,-7.005269387223095,0.0017166626873621835,0.07900487465793159,0.06872452389045951,0.05527963861823082,-0.03336271643638611,-0.012435080483555794,-0.054291367530822754,0.01602502167224884,-0.03897058218717575,-0.16895117898033593,1.4869711585405954,0.13939861927170374,0.9823004603385925,0.16814854741096497,-0.08253490924835205
1732225657981,9i,4.645898765882418,1.0s : 0.3s,-7.005269387223095,0.0016282117953060806,0.06061885960139587,0.04304453666282673,0.06139305606484413,-0.029033081606030464,-0.005620084702968597,-0.009840071201324463,0.02209705114364624,-0.03560513257980347,-0.1689521993483906,1.4865741573772644,0.13880109052361286,0.9822675585746765,0.16814956068992615,-0.08292487263679504
1732225657991,9i,4.645898765882418,1.0s : 0.3s,-7.005269387223095,0.0016145246101851945,0.057122339513633894,0.04402659067217801,0.06684082001447678,-0.03856480494141579,-0.007286956533789635,-0.03749948740005493,0.008394703269004822,-0.021486230194568634,-0.16892117949187813,1.486088423922005,0.13814942805607128,0.9822324514389038,0.16811898350715637,-0.08340242505073547
1732225658001,9i,4.645898765882418,1.0s : 0.3s,-7.005269387223095,0.0016727978587397483,0.05563984873578129,0.036660961004239614,0.09787210822105408,-0.043790947645902634,-0.01056107971817255,-0.02455681562423706,0.006553217768669128,-0.026420526206493378,-0.16883885432927037,1.4855206043955378,0.13731726513057585,0.9821984767913818,0.16803783178329468,-0.08396130800247192
1732225658011,9i,4.645898765882418,1.0s : 0.3s,-7.005269387223095,0.0017850189705031134,0.056608943708572855,0.04849365336842511,0.10548128932714462,-0.05055883899331093,-0.009800747036933899,-0.02563929557800293,0.02295418083667755,-0.03416674584150314,-0.16877921116310596,1.4848481461329885,0.13624996295281142,0.9821518659591675,0.16797903180122375,-0.08462263643741608
1732225658021,9i,4.645898765882418,1.0s : 0.3s,-7.005269387223095,0.0019461221840944612,0.057105877788480114,0.04321644486123485,0.09227041900157928,-0.051554061472415924,-0.012271095998585224,-0.020604729652404785,0.0178394615650177,-0.033538930118083954,-0.16875131920516265,1.4840849952630482,0.13524593441755617,0.9820916056632996,0.1679515391588211,-0.08537254482507706
1732225658031,9i,4.645898765882418,1.0s : 0.3s,-7.005269387223095,0.002153470929702835,0.056767236170527785,0.02624290977577238,0.07453881949186325,-0.05383212864398956,-0.013389358296990395,-0.01695030927658081,0.0037665516138076782,-0.01967715471982956,-0.1687247619235808,1.4834103336484106,0.13438331753366986,0.9820382595062256,0.16792535781860352,-0.08603549748659134
1732225658041,9i,4.645898765882418,1.0s : 0.3s,-7.005269387223095,0.002394139929668523,0.05485306412684443,0.019745897803398717,0.04382844641804695,-0.05483929067850113,-0.012379385530948639,-0.01719522476196289,-0.001729726791381836,-0.009551584720611572,-0.16875885773716584,1.4827791665290906,0.13378226846092275,0.9819780588150024,0.16795897483825684,-0.08665481209754944
1732225658051,9i,4.645898765882418,1.0s : 0.3s,-7.005269387223095,0.0026442980467733324,0.05004764984815061,0.011469673510214575,0.016161929816007614,-0.05430719256401062,-0.0063603767193853855,-0.011421024799346924,0.0010199248790740967,-0.000270843505859375,-0.16889508801244874,1.4820898940257239,0.13345529536548223,0.9818954467773438,0.1680932641029358,-0.08732961863279343
1732225658061,9i,4.645898765882418,1.0s : 0.3s,-7.005269387223095,0.002888223093691976,0.04549318478560146,0.016750946577288203,-0.0211018193513155,-0.05735713616013527,-0.0029374819714576006,-0.002529442310333252,-0.01080961525440216,0.012543857097625732,-0.1689920009423208,1.4814539749127582,0.13345395219047984,0.9818234443664551,0.16818879544734955,-0.08795255422592163
1732225658071,9i,4.645898765882418,1.0s : 0.3s,-7.005269387223095,0.0031145003465056238,0.02190561817451056,0.03479732802021025,-0.09179329872131348,-0.0264748502522707,0.04489555582404137,0.005507171154022217,-0.02658224105834961,0.021769464015960693,-0.16900245331018163,1.4810091971153418,0.134004302146951,0.9817823767662048,0.1681990921497345,-0.0883890762925148
1732225658081,9i,4.645898765882418,1.0s : 0.3s,-7.005269387223095,0.0033777466619472774,0.03696954663062933,0.05434203057996781,-0.11715751141309738,0.13846927881240845,-0.12414034456014633,-0.030345499515533447,-0.034842297434806824,0.028604567050933838,-0.1693326706813658,1.4805386472989224,0.1348477237206515,0.9816854000091553,0.1685246080160141,-0.08884603530168533
1732225658091,9i,4.645898765882418,1.0s : 0.3s,-7.005269387223095,0.004042972758623808,0.038651252226516,0.15041554927056555,-0.11561421304941177,0.017434993758797646,0.06673507392406464,-0.13866806030273438,-0.05330862104892731,0.023541398346424103,-0.17003251222878824,1.4801518981840123,0.13584863116216053,0.9815331101417542,0.1692143976688385,-0.089214988052845
1732225658101,9i,4.645898765882418,1.0s : 0.3s,-7.005269387223095,0.004654025239228574,0.049289016101414694,0.04813133933539386,-0.115224190056324,-0.00762326642870903,-0.013522515073418617,0.0027843713760375977,-0.034987062215805054,0.0329359769821167,-0.17014521909604202,1.4799840823633141,0.1370673341072649,0.981499195098877,0.16932547092437744,-0.0893779769539833
1732225658111,9i,4.645898765882418,1.0s : 0.3s,-7.005269387223095,0.005162581172413923,0.04880888578231353,0.06359919510243803,-0.07619183510541916,-0.02417667582631111,0.04608462378382683,0.04197049140930176,-0.002230629324913025,0.047732166945934296,-0.17001009999392996,1.4798823223167987,0.13790745343250735,0.9815130233764648,0.16919229924678802,-0.0894799456000328
1732225658121,9i,4.645898765882418,1.0s : 0.3s,-7.005269387223095,0.005562449401846696,0.047744125872607554,0.01908594197150703,-0.05991033464670181,-0.017501551657915115,0.014644008129835129,0.0030502676963806152,0.00966520607471466,0.01617259532213211,-0.1698614195274702,1.4797180796074185,0.1385047373332936,0.9815230965614319,0.16904576122760773,-0.08964341133832932
1732225658131,9i,4.645898765882418,1.0s : 0.3s,-7.005269387223095,0.005912341412309745,0.043237329513168436,0.025291457258166585,-0.03680235147476196,-0.007667030207812786,0.01898016780614853,0.01575523614883423,-0.005892470479011536,0.0188867449760437,-0.16973119620409247,1.4797065492656014,0.13900658573929567,0.9815441370010376,0.16891741752624512,-0.08965674042701721
1732225658141,9i,4.645898765882418,1.0s : 0.3s,-7.005269387223095,0.006236678303140649,0.03846336693219935,0.024846971032662302,0.011505791917443275,0.02707435004413128,-0.06290930509567261,-0.0031778812408447266,-0.004875212907791138,0.024155855178833008,-0.16955052528626957,1.4796733492272978,0.13920120526914645,0.9815715551376343,0.16873933374881744,-0.08969210833311081
1732225658151,9i,4.645898765882418,1.0s : 0.3s,-7.005269387223095,0.0065155911096745345,0.04154762566014549,0.024612744465029663,0.054958462715148926,0.07862436026334763,-0.15466932952404022,0.016865909099578857,6.86943531036377e-05,0.017925500869750977,-0.16930280163355418,1.4796199136828925,0.13895071380660898,0.9816083908081055,0.16849516332149506,-0.08974836766719818
1732225658161,9i,4.645898765882418,1.0s : 0.3s,-7.005269387223095,0.0067449406717767285,0.07999122959151032,0.028793687864824606,0.06504997611045837,0.12665250897407532,-0.23082228004932404,0.02355325222015381,0.004581555724143982,0.01591634750366211,-0.1690279550860529,1.4795724266931543,0.1384648840330567,0.9816501140594482,0.16822423040866852,-0.0897991880774498
1732225658171,9i,4.645898765882418,1.0s : 0.3s,-7.005269387223095,0.006929845099319896,0.12780817917177403,0.03903077475215163,0.03079107403755188,0.1720500886440277,-0.3112683892250061,0.031258225440979004,-0.011202871799468994,0.020513907074928284,-0.16872532147260386,1.47952580103213,0.13817375299312806,0.9816964864730835,0.1679259091615677,-0.08984958380460739
1732225658181,9i,4.645898765882418,1.0s : 0.3s,-7.005269387223095,0.007033502841257635,0.17859475862495522,0.05622599943493428,-3.990309778600931e-06,0.21564564108848572,-0.38710924983024597,0.03629869222640991,-0.03540907800197601,0.024289198219776154,-0.16840611787324414,1.4795553677250497,0.1382743659805679,0.9817524552345276,0.167611226439476,-0.08982543647289276
1732225658191,9i,4.645898765882418,1.0s : 0.3s,-7.005269387223095,0.007070980524311186,0.23177437163724246,0.06000982769255765,-0.015189334750175476,0.25691452622413635,-0.4642043113708496,0.04121518135070801,-0.03901597857475281,0.01949978619813919,-0.16810247828225344,1.4796359401031507,0.13866923217022498,0.9818103313446045,0.1673118770122528,-0.08975096046924591
1732225658201,9i,4.645898765882418,1.0s : 0.3s,-7.005269387223095,0.007087520505916317,0.2872001130995529,0.05363040111355725,-0.03022114932537079,0.30686649680137634,-0.5392374992370605,0.04316377639770508,-0.031189128756523132,0.00635189563035965,-0.16782481824135598,1.4796815723302073,0.13923157850459006,0.9818606972694397,0.16703812777996063,-0.08971039205789566
1732225658211,9i,4.645898765882418,1.0s : 0.3s,-7.005269387223095,0.007095286782164632,0.3442913631038096,0.05293913791390363,-0.05072988569736481,0.3543304204940796,-0.615635097026825,0.04303926229476929,-0.030824005603790283,-0.00023431330919265747,-0.1675009439763936,1.4797896799388857,0.1400329001759386,0.9819243550300598,0.16671879589557648,-0.08960916846990585
1732225658221,9i,4.645898765882418,1.0s : 0.3s,-7.005269387223095,0.0070927198823206436,0.4024505211381859,0.05915101287307448,-0.04020627215504646,0.397771954536438,-0.695182204246521,0.044704973697662354,-0.0385591983795166,-0.0036736726760864258,-0.16722140267032168,1.4799245411962776,0.14090234364360968,0.9819827675819397,0.16644315421581268,-0.08948096632957458
1732225658231,9i,4.645898765882418,1.0s : 0.3s,-7.005269387223095,0.007086260590770476,0.4573949966653006,0.05794874225441986,-0.024805476889014244,0.43128305673599243,-0.7582658529281616,0.047306954860687256,-0.03170573711395264,-0.010717041790485382,-0.1669250743780266,1.4799694008765816,0.1416764213554502,0.9820359349250793,0.16615095734596252,-0.08944138884544373
1732225658241,9i,4.645898765882418,1.0s : 0.3s,-7.005269387223095,0.0070629291455430124,0.49146534814815845,0.05349464829958761,-0.009504018351435661,0.42380017042160034,-0.7379285097122192,0.048726677894592285,-0.0068543702363967896,-0.02098584920167923,-0.16662086338097595,1.4799115254962636,0.14227890028261886,0.9820810556411743,0.16585096716880798,-0.08950281143188477
1732225658251,9i,4.645898765882418,1.0s : 0.3s,-7.005269387223095,0.006995374430427168,0.5059509396297692,0.06008701045893649,-0.001170721254311502,0.3961259424686432,-0.7002274394035339,0.05085480213165283,0.00959707796573639,-0.030530869960784912,-0.16640171335715873,1.4797679378885011,0.14273720247766794,0.9821043610572815,0.16563484072685242,-0.08964712172746658
1732225658261,9i,4.645898765882418,1.0s : 0.3s,-7.005269387223095,0.006885396368485043,0.505942318255165,0.05935075293185041,0.04972947761416435,0.3644540309906006,-0.6609140038490295,0.046241164207458496,0.01670089364051819,-0.033246755599975586,-0.1661920383758592,1.4794447055447082,0.14282574830777078,0.982109785079956,0.1654280573129654,-0.08996772021055222
1732225658271,9i,4.645898765882418,1.0s : 0.3s,-7.005269387223095,0.006657707286360296,0.4969568810713199,0.06979133868726092,0.08201657980680466,0.3364304006099701,-0.6238113641738892,0.04404890537261963,0.02998475730419159,-0.04507149010896683,-0.1659511252849993,1.4789504056256222,0.1424604669312379,0.9821048974990845,0.1651904582977295,-0.09045682847499847
1732225658281,9i,4.645898765882418,1.0s : 0.3s,-7.005269387223095,0.0063457724819509075,0.48171573409768076,0.06993909217829705,0.09891819953918457,0.3114235997200012,-0.583304226398468,0.0371091365814209,0.03578272461891174,-0.047265052795410156,-0.1657194415292863,1.4783287576662354,0.14179366764246956,0.9820865988731384,0.16496196389198303,-0.09107086807489395
1732225658291,9i,4.645898765882418,1.0s : 0.3s,-7.005269387223095,0.00603032666783582,0.4617075332014419,0.06192814747397414,0.09157240390777588,0.2832966446876526,-0.5442377924919128,0.03011608123779297,0.0236385315656662,-0.04867583513259888,-0.1654855346819869,1.4776247868564518,0.14105559846685684,0.9820606112480164,0.1647312492132187,-0.09176579117774963
1732225658301,9i,4.645898765882418,1.0s : 0.3s,-7.005269387223095,0.005727463525047821,0.43833818365306826,0.05564079983832902,0.0877518281340599,0.25984129309654236,-0.5031748414039612,0.029387176036834717,0.015702739357948303,-0.04456137865781784,-0.16527016821025212,1.476872273469278,0.14034128086305359,0.9820264577865601,0.1645188182592392,-0.09250809252262115
1732225658311,9i,4.645898765882418,1.0s : 0.3s,-7.005269387223095,0.005451437866141585,0.4133146909877509,0.046862728113461344,0.08249688148498535,0.2352733612060547,-0.4672439992427826,0.028100311756134033,0.00873604416847229,-0.03647148609161377,-0.16507791380491676,1.4760956495514523,0.13965281007011313,0.981985867023468,0.1643291860818863,-0.09327372908592224
1732225658321,9i,4.645898765882418,1.0s : 0.3s,-7.005269387223095,0.005211255343406846,0.3875205075346535,0.04277217727760215,0.09154829382896423,0.2176363468170166,-0.42795854806900024,0.02417844533920288,0.0064094215631484985,-0.03469555079936981,-0.1648996314695862,1.4752999644700444,0.1389081927264697,0.9819403886795044,0.1641533225774765,-0.0940578281879425
1732225658331,9i,4.645898765882418,1.0s : 0.3s,-7.005269387223095,0.00501089139941861,0.3607301526894941,0.03566645633120465,0.09495101869106293,0.19633372128009796,-0.3884681463241577,0.018744468688964844,0.008084043860435486,-0.029247038066387177,-0.16470243740935403,1.474493872504762,0.13806976675592592,0.9818965196609497,0.16395880281925201,-0.09485244750976562
1732225658341,9i,4.645898765882418,1.0s : 0.3s,-7.005269387223095,0.004860008913595009,0.33498420647403065,0.025023770026803827,0.1045605018734932,0.17775772511959076,-0.3558833599090576,0.010643541812896729,0.0021865814924240112,-0.022541582584381104,-0.16450904085195117,1.4736663948290238,0.13715488498132244,0.9818492531776428,0.16376802325248718,-0.0956679955124855
1732225658351,9i,4.645898765882418,1.0s : 0.3s,-7.005269387223095,0.004764294097105729,0.30876482270674643,0.01972971613295325,0.11745472997426987,0.15806445479393005,-0.31534019112586975,0.0032916665077209473,-0.0031076371669769287,-0.019203364849090576,-0.16430739345739784,1.472818429733845,0.1360857501173651,0.9818006157875061,0.16356909275054932,-0.09650375694036484
1732225658361,9i,4.645898765882418,1.0s : 0.3s,-7.005269387223095,0.004716836969223865,0.2819914878406083,0.016121513895405226,0.11209072172641754,0.13628384470939636,-0.27813056111335754,-0.0008614063262939453,-0.001922518014907837,-0.015983276069164276,-0.16406504830185265,1.4719670607537272,0.13496750493020207,0.9817574620246887,0.16333000361919403,-0.09734350442886353
1732225658371,9i,4.645898765882418,1.0s : 0.3s,-7.005269387223095,0.0047222839041075725,0.25590633210644137,0.02143162538201019,0.09742416441440582,0.12549005448818207,-0.24459627270698547,-0.007857203483581543,-0.015319392085075378,-0.012763038277626038,-0.1638172646149988,1.4711622649003135,0.1339171735614559,0.9817191362380981,0.16308555006980896,-0.09813761711120605
1732225658381,9i,4.645898765882418,1.0s : 0.3s,-7.005269387223095,0.0047755106022122915,0.23054875986052598,0.026101073933985756,0.09005878865718842,0.10804017633199692,-0.21416731178760529,-0.011236846446990967,-0.02353660762310028,-0.001013629138469696,-0.16359332864029452,1.4704042036461038,0.13298606139715277,0.9816806316375732,0.1628645956516266,-0.0988854393362999
1732225658391,9i,4.645898765882418,1.0s : 0.3s,-7.005269387223095,0.004853308800278703,0.20725382610324525,0.01699405126599351,0.0984000712633133,0.09396616369485855,-0.1854030340909958,-0.006410479545593262,-0.014865756034851074,0.005168445408344269,-0.1633729119814033,1.4696906199933781,0.13203044238583184,0.9816455245018005,0.16264712810516357,-0.09958954900503159
1732225658401,9i,4.645898765882418,1.0s : 0.3s,-7.005269387223095,0.004935624918538838,0.18399760801217235,0.00722491464440477,0.09737689048051834,0.07327908277511597,-0.1539461761713028,-0.003111720085144043,-0.0032344162464141846,0.005661725997924805,-0.1631367813210117,1.4689744047891338,0.13102686337926173,0.9816122055053711,0.16241413354873657,-0.1002964973449707
1732225658411,9i,4.645898765882418,1.0s : 0.3s,-7.005269387223095,0.005023175338764358,0.16202218243653763,0.0109237800996267,0.09419307857751846,0.05201321095228195,-0.13012419641017914,-0.0014546513557434082,-0.008354872465133667,0.006885424256324768,-0.16289821829923468,1.4681981304628307,0.1300432254187397,0.9815725088119507,0.16217873990535736,-0.10106242448091507
1732225658421,9i,4.645898765882418,1.0s : 0.3s,-7.005269387223095,0.005121178854833967,0.14396094196450837,0.017674572110894387,0.10869705677032471,0.04726572707295418,-0.10590064525604248,-0.006070137023925781,-0.015929579734802246,0.004668235778808594,-0.16267269360653586,1.467460534891412,0.128998795981673,0.9815341234207153,0.16195619106292725,-0.1017901822924614
1732225658431,9i,4.645898765882418,1.0s : 0.3s,-7.005269387223095,0.005216338659576068,0.130145464496895,0.01417246871309156,0.13207827508449554,0.036895908415317535,-0.08248213678598404,-0.009944260120391846,-0.007387325167655945,0.0068846195936203,-0.16242802585885965,1.4667611871060233,0.12772923067708059,0.9815021753311157,0.16171474754810333,-0.10248070955276489
1732225658441,9i,4.645898765882418,1.0s : 0.3s,-7.005269387223095,0.005309684459027611,0.11722694484465648,0.010936491468534553,0.1270626187324524,0.027531569823622704,-0.05928497388958931,-0.009112954139709473,-0.006032392382621765,-0.0004137083888053894,-0.16213737660161467,1.4660868524799795,0.12635153353412942,0.9814794063568115,0.16142791509628296,-0.10314743965864182
1732225658451,9i,4.645898765882418,1.0s : 0.3s,-7.005269387223095,0.005407046030199335,0.10258429821816155,0.017516716760113057,0.10146510601043701,0.013825877569615841,-0.041805051267147064,-0.006284952163696289,-0.015491142868995667,0.005230605602264404,-0.16185733592937754,1.4654557358991036,0.12514398778771788,0.9814590215682983,0.16115154325962067,-0.10377159714698792
1732225658461,9i,4.645898765882418,1.0s : 0.3s,-7.005269387223095,0.005508237378871938,0.08448939644606497,0.024283951941207485,0.06578075140714645,-0.002352870302274823,-0.0233448538929224,-0.006094932556152344,-0.020197272300720215,0.012026317417621613,-0.16160104125102562,1.464848184551825,0.12425510239640487,0.9814367890357971,0.1608985960483551,-0.10437222570180893
1732225658471,9i,4.645898765882418,1.0s : 0.3s,-7.005269387223095,0.005611356839717709,0.06456218080976446,0.028523872942101455,0.03357221186161041,-0.00975512620061636,-0.004025217145681381,-0.0025838613510131836,-0.022010505199432373,0.017957523465156555,-0.16133559332661823,1.4642820834195107,0.1237173291396996,0.9814199805259705,0.16063660383224487,-0.10493233799934387
1732225658481,9i,4.645898765882418,1.0s : 0.3s,-7.005269387223095,0.005718342597146966,0.04549185693806061,0.031976709251349406,0.010394321754574776,-0.01656522788107395,0.0089446771889925,-0.0018749237060546875,-0.024569079279899597,0.020380258560180664,-0.16106782396584304,1.4638081944308188,0.12345805110564743,0.9814130067825317,0.1603723019361496,-0.10540201514959335
1732225658491,9i,4.645898765882418,1.0s : 0.3s,-7.005269387223095,0.005828956813065353,0.02978450937287801,0.02827537163194896,-0.0036807504948228598,-0.019113607704639435,0.021967802196741104,-0.008860528469085693,-0.02250830829143524,0.014641165733337402,-0.16075782304398717,1.4634578717097484,0.12341281822185976,0.9814253449440002,0.16006630659103394,-0.10575113445520401
1732225658501,9i,4.645898765882418,1.0s : 0.3s,-7.005269387223095,0.005943391042626205,0.025119424184728237,0.026089327885905605,-0.01728430949151516,-0.026025352999567986,0.025839004665613174,-0.009236633777618408,-0.021171793341636658,0.012128181755542755,-0.16039318461043559,1.4631484936169263,0.12351475524709662,0.9814504384994507,0.15970635414123535,-0.10606101155281067
1732225658511,9i,4.645898765882418,1.0s : 0.3s,-7.005269387223095,0.006055233831065162,0.020969593053562982,0.023350164096120556,-0.019231613725423813,-0.025379270315170288,0.027160465717315674,-0.007758021354675293,-0.015843600034713745,0.01529783010482788,-0.16012753857506873,1.462908633477998,0.12370688382253675,0.9814672470092773,0.15944410860538483,-0.10630099475383759
1732225658521,9i,4.645898765882418,1.0s : 0.3s,-7.005269387223095,0.006160925029589101,0.019708469919017913,0.018894933383485756,0.012449083849787712,-0.028779150918126106,0.018413713201880455,-0.007165133953094482,-0.010618984699249268,0.013889439404010773,-0.1599204083024022,1.4626215363808925,0.12374903171829102,0.9814693927764893,0.15923963487148285,-0.10658632218837738
1732225658531,9i,4.645898765882418,1.0s : 0.3s,-7.005269387223095,0.006251771607370138,0.023408267092763602,0.007241788582621541,0.05173816531896591,-0.028966372832655907,0.011676181107759476,-0.003314673900604248,0.0029278993606567383,0.005734443664550781,-0.15967604961726317,1.4623529030669968,0.12342928415653667,0.9814794659614563,0.15899838507175446,-0.10685419291257858
1732225658541,9i,4.645898765882418,1.0s : 0.3s,-7.005269387223095,0.006310770588270984,0.02670832061890737,0.02338245036516248,0.058648139238357544,-0.022118007764220238,-0.00018117669969797134,0.0013580322265625,0.023337602615356445,0.0005010366439819336,-0.15943541473096007,1.462108012160941,0.12289011701647098,0.9814912676811218,0.15876080095767975,-0.10709868371486664
1732225658551,9i,4.645898765882418,1.0s : 0.3s,-7.005269387223095,0.006342434075193644,0.027626651364367434,0.0223243692815492,0.04852013662457466,-0.023373955860733986,0.001036154106259346,0.0031441450119018555,0.022091150283813477,-0.0006876736879348755,-0.15922966948324813,1.4619391129406334,0.12235794988415916,0.9815057516098022,0.15855766832828522,-0.10726802051067352
1732225658561,9i,4.645898765882418,1.0s : 0.3s,-7.005269387223095,0.006355363707011466,0.02619584318838503,0.01722953198542207,0.010111094452440739,-0.02697281911969185,-0.0035630252677947283,0.008317947387695312,0.013358861207962036,0.007014937698841095,-0.15904853166673827,1.4618055218174004,0.12208008465138477,0.9815197587013245,0.15837882459163666,-0.1074022427201271
1732225658571,9i,4.645898765882418,1.0s : 0.3s,-7.005269387223095,0.006349216649554131,0.023476720990262444,0.017745921860924642,-0.016652874648571014,-0.029521729797124863,-0.0004479256458580494,0.0057561397552490234,0.015148594975471497,0.007232196629047394,-0.1589513192422775,1.4616480736342596,0.12212782225020262,0.9815181493759155,0.1582828313112259,-0.10755845159292221
1732225658581,9i,4.645898765882418,1.0s : 0.3s,-7.005269387223095,0.006332861629843974,0.02004538884417421,0.012309705576399743,-0.042317625135183334,-0.035524893552064896,-0.0038174570072442293,0.0035965442657470703,0.01165628433227539,-0.001650683581829071,-0.15887202884506232,1.4614651826317318,0.1224508611384694,0.9815109372138977,0.15820454061031342,-0.10773933678865433
1732225658591,9i,4.645898765882418,1.0s : 0.3s,-7.005269387223095,0.006318964339554498,0.01707000005073813,0.007793483070827842,-0.04222734272480011,-0.03764450177550316,-0.0147324213758111,-0.001535654067993164,0.0020626336336135864,-0.007357016205787659,-0.15891426763604807,1.461292960045272,0.12292089352528926,0.981485903263092,0.158246248960495,-0.10790766030550003
1732225658601,9i,4.645898765882418,1.0s : 0.3s,-7.005269387223095,0.0063036036858793425,0.017541748100723547,0.023881796040661596,-0.010076997801661491,-0.0370437391102314,-0.01354408822953701,-0.012998998165130615,0.008385702967643738,-0.01819467544555664,-0.15903186336746955,1.4610772626777713,0.12318141946257892,0.9814439415931702,0.15836235880851746,-0.10811730474233627
1732225658611,9i,4.645898765882418,1.0s : 0.3s,-7.005269387223095,0.006267963324408812,0.018252415829537027,0.033163068331154746,-0.0006510053644888103,-0.035564083606004715,-0.017674118280410767,-0.012645304203033447,0.01876293122768402,-0.02424536645412445,-0.15921605501074954,1.4607558523689572,0.1232116705448877,0.9813801050186157,0.15854422748088837,-0.10842953622341156
1732225658621,9i,4.645898765882418,1.0s : 0.3s,-7.005269387223095,0.006229157637240214,0.019172100538181972,0.02426238678026438,-0.006685595028102398,-0.04082991182804108,-0.017253702506422997,-0.010766565799713135,0.013480499386787415,-0.017059326171875,-0.15955899135192736,1.46039298489199,0.12322332042492748,0.9812867641448975,0.15888281166553497,-0.1087796613574028
1732225658631,9i,4.645898765882418,1.0s : 0.3s,-7.005269387223095,0.006201381323053066,0.019574242921219308,0.018167848130447955,-0.020488493144512177,-0.034085456281900406,-0.020374128594994545,-0.015005707740783691,-0.002413243055343628,-0.009953677654266357,-0.1599084826342177,1.4600341132966879,0.12333221253955622,0.9811923503875732,0.1592278629541397,-0.10912566632032394
1732225658641,9i,4.645898765882418,1.0s : 0.3s,-7.005269387223095,0.006191224693978044,0.02011541408627877,0.021026938383704247,-0.035089004784822464,-0.0313081331551075,-0.021836139261722565,-0.016503095626831055,-0.010483384132385254,-0.007738128304481506,-0.1602313099330948,1.4598230197128184,0.12360341961565433,0.9811182022094727,0.15954655408859253,-0.10932709276676178
1732225658651,9i,4.645898765882418,1.0s : 0.3s,-7.005269387223095,0.006194346449282316,0.022073705750510264,0.021107703076799513,-0.049487121403217316,-0.02884390950202942,-0.020283782854676247,-0.018303632736206055,-0.010375767946243286,-0.0016898512840270996,-0.16058594720739022,1.4596396816722799,0.12401371253241011,0.9810417890548706,0.1598966419696808,-0.10950067639350891
1732225658661,9i,4.645898765882418,1.0s : 0.3s,-7.005269387223095,0.006209317027468979,0.02739173365617011,0.01730859942660254,-0.06463731080293655,-0.024661237373948097,-0.01932644098997116,-0.013916015625,-0.010260596871376038,-0.000807635486125946,-0.1609021090401892,1.4594657027862001,0.1245490706397115,0.980972409248352,0.16020873188972473,-0.10966572910547256
1732225658671,9i,4.645898765882418,1.0s : 0.3s,-7.005269387223095,0.006240234450923065,0.036030664548930134,0.020397450500093183,-0.08708322793245316,-0.01794661022722721,-0.02130543813109398,-0.013580322265625,-0.015179648995399475,-0.0010995864868164062,-0.16118619122185118,1.459322618582419,0.1252902166256165,0.980911374092102,0.16048914194107056,-0.10980101674795151
1732225658681,9i,4.645898765882418,1.0s : 0.3s,-7.005269387223095,0.006281643728832432,0.04669731929898244,0.0201719678046589,-0.1084473729133606,-0.009827964007854462,-0.023945696651935577,-0.017048239707946777,-0.010523006319999695,-0.0023520514369010925,-0.1615699288151443,1.4592235385786338,0.12622129712218338,0.980839192867279,0.16086788475513458,-0.10989134013652802
1732225658691,9i,4.645898765882418,1.0s : 0.3s,-7.005269387223095,0.0063276685490448745,0.05501717130746945,0.016835538031581318,-0.11157339066267014,-0.0064646583050489426,-0.01824359968304634,-0.014708399772644043,-0.0026789307594299316,-0.007740907371044159,-0.16203265124952362,1.4591553668582415,0.1272929861912094,0.9807577133178711,0.16132456064224243,-0.10994990915060043
1732225658701,9i,4.645898765882418,1.0s : 0.3s,-7.005269387223095,0.006374800576172812,0.05894712154972149,0.007962517181601058,-0.11082957684993744,-0.006687653250992298,-0.015780309215188026,-0.00498807430267334,-0.00043238699436187744,-0.006191432476043701,-0.16241569323583369,1.4591554022144766,0.12838173350895227,0.9806962609291077,0.16170257329940796,-0.1099429801106453
1732225658711,9i,4.645898765882418,1.0s : 0.3s,-7.005269387223095,0.00642244730940899,0.05965744407450364,0.006330387572852632,-0.09668499231338501,-0.011389730498194695,-0.015724649652838707,4.416704177856445e-05,-0.00029040873050689697,-0.006323568522930145,-0.16267382667394023,1.4591453477687761,0.12941177146679397,0.9806535243988037,0.16195730865001678,-0.10994817316532135
1732225658721,9i,4.645898765882418,1.0s : 0.3s,-7.005269387223095,0.006461377307913483,0.05911577847398326,0.01194645489507653,-0.07819106429815292,-0.016236282885074615,-0.013251138851046562,0.0034513473510742188,0.008897513151168823,-0.00718611478805542,-0.16284176274832984,1.459072679392986,0.13026072861898563,0.9806185960769653,0.16212302446365356,-0.11001641303300858
1732225658731,9i,4.645898765882418,1.0s : 0.3s,-7.005269387223095,0.006489619885987785,0.05640404094448589,0.020764544810966967,-0.05899127945303917,-0.01557715144008398,-0.013405868783593178,0.011371314525604248,0.013120070099830627,-0.011389613151550293,-0.16298512643497662,1.458999727839892,0.13094494585469246,0.9805874228477478,0.16226449608802795,-0.11008536070585251
1732225658741,9i,4.645898765882418,1.0s : 0.3s,-7.005269387223095,0.006512602559757028,0.045918132301094094,0.014916356863752667,-0.0274188369512558,-0.015017932280898094,-0.013154100626707077,0.014451563358306885,0.0031255632638931274,-0.0019699931144714355,-0.16309338547801328,1.4588993234695429,0.13135929680642947,0.9805589318275452,0.16237130761146545,-0.11018185317516327
1732225658751,9i,4.645898765882418,1.0s : 0.3s,-7.005269387223095,0.006530389533000786,0.03158095631242926,0.010949522273320224,0.012684906832873821,-0.01643633097410202,-0.015947489067912102,0.0060697197914123535,0.00657084584236145,-0.006314627826213837,-0.1631430021769372,1.4587385610580812,0.1314149334329629,0.9805331826210022,0.16242027282714844,-0.11033858358860016
1732225658761,9i,4.645898765882418,1.0s : 0.3s,-7.005269387223095,0.006550666620862809,0.02728818910464866,0.013998610399469948,0.031137948855757713,-0.018196769058704376,-0.010511179454624653,0.008131086826324463,0.0018091052770614624,-0.011250495910644531,-0.1631749100048964,1.4584963956827453,0.13115388535565103,0.9805012941360474,0.16245175898075104,-0.11057545244693756
1732225658771,9i,4.645898765882418,1.0s : 0.3s,-7.005269387223095,0.006589005454387865,0.023957879164830345,0.02354389972659393,0.022081337869167328,-0.015670761466026306,-0.007531101815402508,0.01380157470703125,-0.017910435795783997,-0.006561100482940674,-0.16322658096372986,1.4582102835341597,0.1308501875316048,0.9804612994194031,0.1625027358531952,-0.11085503548383713
1732225658781,9i,4.645898765882418,1.0s : 0.3s,-7.005269387223095,0.006670421126888894,0.021979749166856657,0.0335166353527636,0.0019386523636057973,-0.012877948582172394,-0.007928811013698578,0.010233819484710693,-0.0318882018327713,0.001332804560661316,-0.16328921006451408,1.4580016151214106,0.13071750364135687,0.9804280996322632,0.16256453096866608,-0.11105848848819733
1732225658791,9i,4.645898765882418,1.0s : 0.3s,-7.005269387223095,0.00680898109926379,0.02055283077683977,0.0420228892329828,-0.004428432788699865,-0.018372850492596626,0.0020415305625647306,0.011113643646240234,-0.03946612775325775,0.009210586547851562,-0.1633143265693667,1.4578100257080742,0.13072846408323396,0.9804025888442993,0.16258932650089264,-0.11124584823846817
1732225658801,9i,4.645898765882418,1.0s : 0.3s,-7.005269387223095,0.006986068006106595,0.019284723557084264,0.043235825932974724,-0.006005690433084965,-0.017154231667518616,0.00484833586961031,0.016054809093475342,-0.03970775008201599,0.005905449390411377,-0.16334270608607615,1.4576010252127636,0.1307893770356618,0.9803747534751892,0.16261732578277588,-0.11145023256540298
1732225658811,9i,4.645898765882418,1.0s : 0.3s,-7.005269387223095,0.00718263008456197,0.01799312330552045,0.040201793927778035,-0.006633663550019264,-0.01293658185750246,0.008002850227057934,0.008813917636871338,-0.03876626491546631,0.005972921848297119,-0.16334732941527605,1.457407582507091,0.13085395747668382,0.9803524613380432,0.1626218855381012,-0.11163979768753052
1732225658821,9i,4.645898765882418,1.0s : 0.3s,-7.005269387223095,0.007384326605963186,0.016384261177423157,0.026913824305096593,0.0003736458602361381,-0.012187879532575607,0.01421121135354042,0.0014693737030029297,-0.026043415069580078,0.006628379225730896,-0.16324208673758714,1.4573012869294377,0.13091796399569328,0.9803577065467834,0.16251803934574127,-0.11174595355987549
1732225658831,9i,4.645898765882418,1.0s : 0.3s,-7.005269387223095,0.007586986131204559,0.014720427515032478,0.0190676394867184,0.011645208112895489,-0.017115525901317596,0.014309216290712357,0.003285229206085205,-0.018781274557113647,-0.00021417438983917236,-0.1631194658762286,1.457123554175759,0.13085196430537205,0.9803576469421387,0.16239704191684723,-0.11192245781421661
1732225658841,9i,4.645898765882418,1.0s : 0.3s,-7.005269387223095,0.007794963717231963,0.013671552308385938,0.022252822183605324,0.006304106209427118,-0.01805131696164608,0.01823880895972252,0.004658818244934082,-0.02126447856426239,-0.00461578369140625,-0.16294529701461655,1.456869473008482,0.1307813832344246,0.9803571701049805,0.16222518682479858,-0.11217474937438965
1732225658851,9i,4.645898765882418,1.0s : 0.3s,-7.005269387223095,0.0080099539608372,0.013324292453801657,0.025557751710353686,0.0003780401311814785,-0.020726727321743965,0.01884334720671177,0.0007715821266174316,-0.025544047355651855,-0.0003240033984184265,-0.16262778995995078,1.4566534120732784,0.1307726022311984,0.9803839325904846,0.16191187500953674,-0.11239241063594818
1732225658861,9i,4.645898765882418,1.0s : 0.3s,-7.005269387223095,0.008226396293464031,0.01332517343440335,0.02117041974989309,0.0023505105637013912,-0.023745110258460045,0.02310723438858986,0.0003598332405090332,-0.021161779761314392,0.00048607587814331055,-0.1622072747111996,1.4564575676119957,0.13079580662590418,0.9804295301437378,0.16149689257144928,-0.1125921756029129
1732225658871,9i,4.645898765882418,1.0s : 0.3s,-7.005269387223095,0.00844039159915368,0.013609879449228268,0.01688002841220761,0.009657158516347408,-0.027601366862654686,0.02582898549735546,0.005423367023468018,-0.015025854110717773,-0.005454003810882568,-0.16167967291364527,1.4562696996860038,0.13076617542878757,0.980492889881134,0.16097620129585266,-0.11278609186410904
1732225658881,9i,4.645898765882418,1.0s : 0.3s,-7.005269387223095,0.008653692328144771,0.014769914679405869,0.01923595194019489,-0.005715671926736832,-0.029429715126752853,0.028289679437875748,0.007604777812957764,-0.01517362892627716,-0.009052634239196777,-0.1611337151720037,1.4560439778251382,0.13078180744340176,0.9805545806884766,0.16043734550476074,-0.11301745474338531
1732225658891,9i,4.645898765882418,1.0s : 0.3s,-7.005269387223095,0.008863613647651819,0.01822608858725773,0.015844967696119615,-0.029201557859778404,-0.03247983381152153,0.02662413939833641,0.002177417278289795,-0.012620478868484497,-0.009329810738563538,-0.1606340341993627,1.4558380638476582,0.1309999962448374,0.9806109070777893,0.15994411706924438,-0.11322855204343796
1732225658901,9i,4.645898765882418,1.0s : 0.3s,-7.005269387223095,0.009070807494074684,0.021939029084697748,0.016855018840699454,-0.03622231259942055,-0.03535689413547516,0.025655047968029976,0.0020216703414916992,-0.0124015212059021,-0.011234179139137268,-0.16025766099843877,1.455608640285184,0.13137251981486534,0.9806445837020874,0.159572571516037,-0.11346042901277542
1732225658911,9i,4.645898765882418,1.0s : 0.3s,-7.005269387223095,0.009275234579896215,0.025154716694143143,0.018357389059376845,-0.03846922144293785,-0.04022941365838051,0.023298149928450584,0.0046659111976623535,-0.011257961392402649,-0.013728849589824677,-0.1599648129395331,1.4552950511736054,0.13179170865276651,0.9806552529335022,0.15928347408771515,-0.11377331614494324
1732225658921,9i,4.645898765882418,1.0s : 0.3s,-7.005269387223095,0.009467582282902034,0.02625117728861956,0.017358443845851914,-0.032450348138809204,-0.03588033840060234,0.02396710216999054,0.001131892204284668,-0.0007902085781097412,-0.017303466796875,-0.1596554910606765,1.4549470935007318,0.13218327100177094,0.9806645512580872,0.15897808969020844,-0.1141202300786972
1732225658931,9i,4.645898765882418,1.0s : 0.3s,-7.005269387223095,0.009644992400583405,0.027010439806689986,0.02116062193963059,-0.024730108678340912,-0.03767291083931923,0.022967617958784103,-0.005235850811004639,0.00397743284702301,-0.020113125443458557,-0.15930851379526442,1.4546444425066667,0.13250009317795933,0.9806846976280212,0.15863551199436188,-0.11442340910434723
1732225658941,9i,4.645898765882418,1.0s : 0.3s,-7.005269387223095,0.009811851381062666,0.027145710139776975,0.020190683722793364,-0.010930141434073448,-0.0348033532500267,0.02573857083916664,-0.012164413928985596,-0.0006649941205978394,-0.01610119640827179,-0.15897232825519983,1.454325215744837,0.13270319479193082,0.9807010889053345,0.15830357372760773,-0.11474265903234482
1732225658951,9i,4.645898765882418,1.0s : 0.3s,-7.005269387223095,0.009968403726622282,0.026886194279637714,0.023293055461343217,0.0014887114521116018,-0.03226269781589508,0.029323451220989227,-0.017642617225646973,-0.0003615468740463257,-0.015204399824142456,-0.1586186713130699,1.4539775248120135,0.13278290329875514,0.9807167053222656,0.1579543650150299,-0.11509016156196594
1732225658961,9i,4.645898765882418,1.0s : 0.3s,-7.005269387223095,0.010118157964562457,0.02675685683398101,0.020991486889915614,0.003378357505425811,-0.029943661764264107,0.03468742221593857,-0.01775747537612915,-0.004688054323196411,-0.010165467858314514,-0.1582098046471812,1.4536237019308385,0.13278781602606976,0.9807398915290833,0.1575506180524826,-0.11544468253850937
1732225658971,9i,4.645898765882418,1.0s : 0.3s,-7.005269387223095,0.010270286820088428,0.026428392818903246,0.02379819557140795,0.006955514661967754,-0.02538513019680977,0.03464854136109352,-0.017860829830169678,-0.014927178621292114,-0.004952192306518555,-0.15779309645574355,1.4532946393222281,0.13276766584867708,0.9807668924331665,0.1571391075849533,-0.11577507108449936
1732225658981,9i,4.645898765882418,1.0s : 0.3s,-7.005269387223095,0.010426362868195583,0.02645311432115564,0.022889290016817877,0.0029449276626110077,-0.022100787609815598,0.04179869964718819,-0.014616787433624268,-0.017391890287399292,-0.002791285514831543,-0.15733773664628842,1.452997992422069,0.13274936374937568,0.9808034896850586,0.15668939054012299,-0.11607441306114197
1732225658991,9i,4.645898765882418,1.0s : 0.3s,-7.005269387223095,0.010581293758470224,0.02715751753301322,0.01729999381728421,-0.010486459359526634,-0.022677095606923103,0.04835992678999901,-0.006515204906463623,-0.01551772654056549,0.004005253314971924,-0.15683063265502412,1.4527209807159278,0.1328327634109656,0.980850100517273,0.15618853271007538,-0.11635544896125793
1732225659001,9i,4.645898765882418,1.0s : 0.3s,-7.005269387223095,0.010743844714537655,0.029915495475005296,0.024657536451373592,-0.030653778463602066,-0.02433997206389904,0.05560452491044998,-0.005335569381713867,-0.023787692189216614,0.003697499632835388,-0.15635145163452285,1.4524370115574508,0.13306953416444461,0.980891227722168,0.155715212225914,-0.11664280295372009
1732225659011,9i,4.645898765882418,1.0s : 0.3s,-7.005269387223095,0.010930127601884547,0.037632772687907635,0.03699750306400043,-0.06017731502652168,-0.025629209354519844,0.059182215481996536,-0.0047206878662109375,-0.036584749817848206,0.0028436630964279175,-0.15586750626485116,1.4521498321611475,0.13358703906843325,0.9809324741363525,0.15523715317249298,-0.11693340539932251
1732225659021,9i,4.645898765882418,1.0s : 0.3s,-7.005269387223095,0.011132495308094867,0.0419591342397384,0.03553315864652503,-0.06274300813674927,-0.021968871355056763,0.05790955573320389,-0.004187345504760742,-0.03505095839500427,0.004062242805957794,-0.15539608566382318,1.4519274801788,0.13426302727553455,0.9809788465499878,0.15477141737937927,-0.11716015636920929
1732225659031,9i,4.645898765882418,1.0s : 0.3s,-7.005269387223095,0.011342338148186908,0.044695433401668705,0.026262496257608025,-0.061163753271102905,-0.023981688544154167,0.059694141149520874,-0.006524503231048584,-0.025296851992607117,-0.0026867911219596863,-0.15491353009351938,1.4517079408426814,0.13493432368363303,0.9810271859169006,0.1542946696281433,-0.11738438159227371
1732225659041,9i,4.645898765882418,1.0s : 0.3s,-7.005269387223095,0.011557789025736202,0.04646376625379441,0.02360583309785414,-0.06020727753639221,-0.020471064373850822,0.06222178041934967,-0.0029355883598327637,-0.021919235587120056,-0.008256196975708008,-0.15439844316339343,1.4515308743800146,0.13562184380433495,0.9810851216316223,0.15378572046756744,-0.1175675317645073
1732225659051,9i,4.645898765882418,1.0s : 0.3s,-7.005269387223095,0.011767417031160117,0.047203592928867395,0.014211057211673898,-0.04546748101711273,-0.021515022963285446,0.06342765688896179,-0.0036069154739379883,-0.013029113411903381,-0.0043802410364151,-0.15378658119302893,1.451386517813607,0.1362349230927633,0.9811614751815796,0.15318112075328827,-0.1177203506231308
1732225659061,9i,4.645898765882418,1.0s : 0.3s,-7.005269387223095,0.011962994374420267,0.04806254681562712,0.006883340172883708,-0.046232737600803375,-0.02378266118466854,0.06550582498311996,-0.0008495450019836426,-0.004235222935676575,-0.005359247326850891,-0.1531332190961149,1.4512300953358688,0.13675809587390853,0.9812422394752502,0.15253542363643646,-0.11788574606180191
1732225659071,9i,4.645898765882418,1.0s : 0.3s,-7.005269387223095,0.01214099513289049,0.04958291998976881,0.009576652247004006,-0.0564371719956398,-0.02334430441260338,0.06961188465356827,-0.004189014434814453,0.0017753392457962036,-0.00842689722776413,-0.15245531376151747,1.4511188476212906,0.13735407169617192,0.981331467628479,0.1518654227256775,-0.11800720542669296
1732225659081,9i,4.645898765882418,1.0s : 0.3s,-7.005269387223095,0.012304798449068722,0.05132356479503505,0.005572312360436728,-0.06055135652422905,-0.02626148611307144,0.06943948566913605,-0.004727840423583984,-0.002672448754310608,-0.0012474805116653442,-0.1517219302897714,1.4510001057265418,0.13804731440965046,0.9814279079437256,0.1511405110359192,-0.11813703179359436
1732225659091,9i,4.645898765882418,1.0s : 0.3s,-7.005269387223095,0.012456900096323944,0.05166529262067373,0.0068985301430417294,-0.039834629744291306,-0.024970654398202896,0.06785277277231216,-0.004421889781951904,-0.004951760172843933,0.0018752813339233398,-0.15089425105343135,1.4508496316103505,0.13865410326567906,0.9815338253974915,0.15032228827476501,-0.11829961836338043
1732225659101,9i,4.645898765882418,1.0s : 0.3s,-7.005269387223095,0.01258958673794191,0.050394106278767246,0.009345737004585238,-0.00968258362263441,-0.023184560239315033,0.060146380215883255,-0.007265329360961914,0.00540594756603241,-0.002309441566467285,-0.15011016368250196,1.4506813305621475,0.1389719219604922,0.9816307425498962,0.1495470553636551,-0.11847890913486481
1732225659111,9i,4.645898765882418,1.0s : 0.3s,-7.005269387223095,0.012697227835247436,0.04797332937352465,0.014073680816963178,0.015797743573784828,-0.020791975781321526,0.05242454633116722,-0.00556868314743042,0.012698590755462646,-0.0024091601371765137,-0.14943227149893956,1.450453313616444,0.13901202733817591,0.98170405626297,0.14887675642967224,-0.11871486902236938
1732225659121,9i,4.645898765882418,1.0s : 0.3s,-7.005269387223095,0.012780862071492725,0.045505162417847286,0.013427828328855662,0.03192691132426262,-0.021022871136665344,0.05264505371451378,-0.0016955137252807617,0.013298049569129944,-0.0007705092430114746,-0.1487797841070587,1.4501793562379914,0.1388152623231532,0.9817676544189453,0.14823150634765625,-0.11899546533823013
1732225659131,9i,4.645898765882418,1.0s : 0.3s,-7.005269387223095,0.01285479472287033,0.04344021452085129,0.003306822606941871,0.03132982924580574,-0.023435695096850395,0.048898518085479736,0.003059566020965576,0.0012544244527816772,2.346932888031006e-05,-0.1481979992710969,1.4498940639313374,0.1385588793988817,0.981819212436676,0.1476561278104782,-0.119285948574543
1732225659141,9i,4.645898765882418,1.0s : 0.3s,-7.005269387223095,0.012928852485200735,0.04127632847614253,0.008915009187655046,0.03386356309056282,-0.022830625995993614,0.04036834463477135,0.0034369826316833496,-0.008039534091949463,0.0017408132553100586,-0.14772112084041386,1.4495989208315514,0.13827568107684646,0.981853723526001,0.14718446135520935,-0.11958421766757965
1732225659151,9i,4.645898765882418,1.0s : 0.3s,-7.005269387223095,0.013002929948606098,0.03946470145813464,0.0068227424101139356,0.04233134910464287,-0.02563706412911415,0.03928656876087189,-0.0021042227745056152,-0.0061197429895401,-0.0021612048149108887,-0.14732287152591214,1.4492599243713418,0.13793813384687806,0.9818712472915649,0.1467905342578888,-0.1199241504073143
1732225659161,9i,4.645898765882418,1.0s : 0.3s,-7.005269387223095,0.013070521759001853,0.03793679916520936,0.003938847847239355,0.04052932187914848,-0.02686038799583912,0.03494192287325859,0.00011855363845825195,0.0006995201110839844,-0.0038744211196899414,-0.1469232487303748,1.4489451534366993,0.1375639884450992,0.9818915128707886,0.1463952213525772,-0.12024031579494476
1732225659171,9i,4.645898765882418,1.0s : 0.3s,-7.005269387223095,0.013133265489744066,0.036890145860955216,0.004889615926904435,0.023448338732123375,-0.028330452740192413,0.03428145870566368,0.004462063312530518,-0.0019872188568115234,-0.00022202730178833008,-0.14653883574126975,1.4486512256576232,0.1372818942066283,0.9819119572639465,0.14601494371891022,-0.12053577601909637
1732225659181,9i,4.645898765882418,1.0s : 0.3s,-7.005269387223095,0.013193028578178884,0.03582808492390191,0.00692220682200949,0.016567261889576912,-0.02688080631196499,0.031135333701968193,0.0022912025451660156,-0.004984453320503235,0.004221677780151367,-0.14625238345836472,1.4483421256887314,0.13713104693539277,0.981916069984436,0.14573155343532562,-0.12084437161684036
1732225659191,9i,4.645898765882418,1.0s : 0.3s,-7.005269387223095,0.013250785326932113,0.03489809871661449,0.004766299152239136,0.03641713410615921,-0.025127379223704338,0.031099114567041397,0.0004917383193969727,-0.004473045468330383,0.00157088041305542,-0.14601306014769194,1.4480469398969351,0.13690693270050058,0.9819149971008301,0.14549478888511658,-0.12113849073648453
1732225659201,9i,4.645898765882418,1.0s : 0.3s,-7.005269387223095,0.013300827250414279,0.03419240527555999,0.007519864100455161,0.04966369643807411,-0.01878523826599121,0.032059118151664734,0.00013339519500732422,0.0043205320835113525,-0.00615333765745163,-0.14574631384897926,1.4477909059590996,0.13650910096916324,0.9819223284721375,0.14523087441921234,-0.12139464169740677
1732225659211,9i,4.645898765882418,1.0s : 0.3s,-7.005269387223095,0.013337034488446248,0.03395844994462084,0.011225806966212053,0.05536153167486191,-0.016994796693325043,0.033807218074798584,-0.0008528828620910645,0.010312870144844055,-0.004351556301116943,-0.14538060651224727,1.447563179851777,0.13601907455269063,0.9819473624229431,0.14486902952194214,-0.12162476778030396
1732225659221,9i,4.645898765882418,1.0s : 0.3s,-7.005269387223095,0.013366089734112456,0.03393757215902312,0.0063248587299107725,0.052174124866724014,-0.02294691652059555,0.03006657399237156,7.814168930053711e-05,0.004977613687515259,-0.0039014220237731934,-0.14495888384064617,1.4473144405487066,0.13553240928173366,0.9819777011871338,0.14445175230503082,-0.1218765377998352
1732225659231,9i,4.645898765882418,1.0s : 0.3s,-7.005269387223095,0.013399390752591556,0.03400145669162557,0.007318077113170752,0.05401517078280449,-0.01909012719988823,0.029123282060027122,0.0007126331329345703,-0.004690945148468018,-0.005571484565734863,-0.14456779416457494,1.4470332688871257,0.13505006254932286,0.9819992780685425,0.1440647393465042,-0.12215959280729294
1732225659241,9i,4.645898765882418,1.0s : 0.3s,-7.005269387223095,0.013438307248102977,0.033768286791349786,0.010862931015814842,0.03973064199090004,-0.021040936931967735,0.026995183899998665,-0.007525324821472168,-0.006163284182548523,-0.004835978150367737,-0.14423615245344898,1.4467564672354123,0.13460214105178192,0.9820128679275513,0.1437365561723709,-0.12243732064962387
1732225659251,9i,4.645898765882418,1.0s : 0.3s,-7.005269387223095,0.01348583860978224,0.033416166029033766,0.013945982251042072,0.02666836604475975,-0.02348252199590206,0.029274050146341324,-0.008684277534484863,-0.008902564644813538,-0.006310157477855682,-0.1439203763830969,1.4465075284148867,0.13430254866525226,0.9820272922515869,0.14342404901981354,-0.12268738448619843
1732225659261,9i,4.645898765882418,1.0s : 0.3s,-7.005269387223095,0.01354189374901016,0.03295623642359846,0.014833871358315058,0.011389545165002346,-0.025102080777287483,0.03414590284228325,-0.007547259330749512,-0.008307918906211853,-0.00969851016998291,-0.14356622065711286,1.4462818115205947,0.13414342386546993,0.9820500016212463,0.14307354390621185,-0.1229153573513031
1732225659271,9i,4.645898765882418,1.0s : 0.3s,-7.005269387223095,0.013612236749819397,0.031652187019018826,0.019081624394109955,-0.017604822292923927,-0.02448689006268978,0.03182602301239967,-0.008011400699615479,-0.015188559889793396,-0.00832066684961319,-0.14322593394891606,1.4460657514595787,0.13421220969027506,0.9820714592933655,0.1427367478609085,-0.12313355505466461
1732225659281,9i,4.645898765882418,1.0s : 0.3s,-7.005269387223095,0.013702683478217905,0.030756066732135885,0.025840387826962758,-0.03860797733068466,-0.026068320497870445,0.040415018796920776,-0.009743928909301758,-0.023405611515045166,-0.004995882511138916,-0.14295638484470705,1.4458237443412647,0.13453368634636345,0.9820799231529236,0.14246995747089386,-0.1233760342001915
1732225659291,9i,4.645898765882418,1.0s : 0.3s,-7.005269387223095,0.013811733762186048,0.03213657546684588,0.02654179909620914,-0.06003550440073013,-0.031104357913136482,0.046433232724666595,-0.006736397743225098,-0.02564065158367157,-0.0012825876474380493,-0.14265540992953687,1.4455905758234744,0.13507694460576486,0.9820936918258667,0.14217205345630646,-0.12361037731170654
1732225659301,9i,4.645898765882418,1.0s : 0.3s,-7.005269387223095,0.013944958489812684,0.04245359777263503,0.031379976472144,-0.09665809571743011,-0.03636636584997177,0.056685637682676315,0.00190657377243042,-0.03128203749656677,-0.0015817806124687195,-0.14228102634046888,1.4453582004599357,0.13591940612793701,0.9821175336837769,0.14180146157741547,-0.12384522706270218
1732225659311,9i,4.645898765882418,1.0s : 0.3s,-7.005269387223095,0.014112494904822378,0.0575855719569462,0.035377733059520876,-0.1239728033542633,-0.03695705533027649,0.06736384332180023,-0.003550410270690918,-0.033736974000930786,-0.01003967970609665,-0.14180143902530823,1.445138423671487,0.137112793486266,0.9821576476097107,0.1413266956806183,-0.12406957894563675
1732225659321,9i,4.645898765882418,1.0s : 0.3s,-7.005269387223095,0.01434507813859143,0.07466379104118803,0.04489971523094087,-0.14845764636993408,-0.0366608202457428,0.08194684982299805,-0.008493542671203613,-0.03937716782093048,-0.019831359386444092,-0.14121015186944566,1.4449581294591778,0.13859329847146046,0.9822180271148682,0.14074131846427917,-0.12425711750984192
1732225659331,9i,4.645898765882418,1.0s : 0.3s,-7.005269387223095,0.014628856938957272,0.08719435212089381,0.04795529571126257,-0.145137220621109,-0.03329432010650635,0.09045644849538803,-0.00617295503616333,-0.04531019926071167,-0.014442674815654755,-0.14051396796552423,1.4447818374190573,0.1401758240077102,0.9822930097579956,0.14005203545093536,-0.12444255501031876
1732225659341,9i,4.645898765882418,1.0s : 0.3s,-7.005269387223095,0.014926950097492547,0.08734269274046416,0.03821679689507238,-0.09272939711809158,-0.026151010766625404,0.09428080916404724,-0.005669116973876953,-0.03452098369598389,-0.01538461446762085,-0.13971138478897413,1.4446211349652602,0.14149061562197895,0.9823843240737915,0.1392573118209839,-0.12461452931165695
1732225659351,9i,4.645898765882418,1.0s : 0.3s,-7.005269387223095,0.015221596888364134,0.08229112957920737,0.03250159210433625,-0.008318113163113594,-0.027311882004141808,0.10287749767303467,-0.0031501054763793945,-0.013127222657203674,-0.029565289616584778,-0.13873975882452963,1.4443952741871982,0.14215167625974232,0.9824899435043335,0.13829509913921356,-0.12485340982675552
1732225659361,9i,4.645898765882418,1.0s : 0.3s,-7.005269387223095,0.01550281438784537,0.07423758196817637,0.03335631736156808,0.09690764546394348,-0.02847861312329769,0.10142820328474045,0.004959285259246826,-0.002412959933280945,-0.0328972190618515,-0.1375662893291524,1.4440334002515036,0.14183695800276067,0.9826048612594604,0.13713280856609344,-0.1252293586730957
1732225659371,9i,4.645898765882418,1.0s : 0.3s,-7.005269387223095,0.015767386876540113,0.062370876526474425,0.03724238348243534,0.22591808438301086,-0.021225759759545326,0.10480163246393204,0.0063887834548950195,0.003642037510871887,-0.03650909662246704,-0.13622903020880944,1.443602077400449,0.14037347194507668,0.9827318787574768,0.1358080506324768,-0.12567631900310516
1732225659381,9i,4.645898765882418,1.0s : 0.3s,-7.005269387223095,0.0159930345991986,0.10476789518957556,0.05744769183899834,0.35937613248825073,-0.026585061103105545,0.11548946052789688,-0.004430532455444336,0.01522652804851532,-0.05521558225154877,-0.13462432217543802,1.4429927383686878,0.13757805565253972,0.9828699827194214,0.1342180371284485,-0.12630271911621094
1732225659391,9i,4.645898765882418,1.0s : 0.3s,-7.005269387223095,0.01619887040396465,0.16317235015139592,0.058529089280601125,0.4479278326034546,-0.022186316549777985,0.12082058191299438,-0.003640294075012207,0.013867780566215515,-0.05674581229686737,-0.13277749845878367,1.442175417907937,0.13365370293578646,0.9830105304718018,0.1323876976966858,-0.12713757157325745
1732225659401,9i,4.645898765882418,1.0s : 0.3s,-7.005269387223095,0.016407272978873722,0.21805626558461008,0.0499638665328849,0.5036166906356812,-0.02958901785314083,0.12963464856147766,-0.002255082130432129,0.005503818392753601,-0.04960857331752777,-0.130747910144554,1.4412053926734965,0.1290098185960817,0.9831511974334717,0.1303756982088089,-0.12812551856040955
1732225659411,9i,4.645898765882418,1.0s : 0.3s,-7.005269387223095,0.016630680810289473,0.2592440401150355,0.05107171604090413,0.513563334941864,-0.026362067088484764,0.1329345703125,0.004260420799255371,-0.005826711654663086,-0.05055905878543854,-0.1285714297985539,1.4402227417432159,0.12409005466452185,0.9833039045333862,0.12821748852729797,-0.12912820279598236
1732225659421,9i,4.645898765882418,1.0s : 0.3s,-7.005269387223095,0.016873904704275043,0.28684042069791554,0.04983167177608749,0.5064833164215088,-0.022530486807227135,0.13239741325378418,0.010146796703338623,-0.013495966792106628,-0.04688386619091034,-0.1264886375927768,1.4392826045159164,0.11915522905639368,0.9834445714950562,0.12615162134170532,-0.13008731603622437
1732225659431,9i,4.645898765882418,1.0s : 0.3s,-7.005269387223095,0.017131009277347842,0.3093979670816447,0.045379040851022553,0.521787166595459,-0.02678542025387287,0.1353556513786316,0.002640962600708008,-0.009262852370738983,-0.04434503614902496,-0.12446743398733943,1.4382865225365946,0.1141864747926677,0.9835653901100159,0.12414630502462387,-0.13110028207302094
1732225659441,9i,4.645898765882418,1.0s : 0.3s,-7.005269387223095,0.01740016175608352,0.3300868313733392,0.04469971186195471,0.5475506782531738,-0.026503169909119606,0.13303472101688385,0.015556097030639648,-0.011801086366176605,-0.04020953178405762,-0.12244311847122458,1.4374044598623201,0.10905492589742907,0.9836963415145874,0.1221373975276947,-0.13200093805789948
1732225659451,9i,4.645898765882418,1.0s : 0.3s,-7.005269387223095,0.017650988308126093,0.35516767761979956,0.04643764159288045,0.6034510135650635,-0.023912446573376656,0.12699095904827118,0.023412644863128662,0.016324378550052643,-0.03663082420825958,-0.12039513953859332,1.4364837146947034,0.10350603238629907,0.9838202595710754,0.12010449916124344,-0.13293984532356262
1732225659461,9i,4.645898765882418,1.0s : 0.3s,-7.005269387223095,0.017805672314113053,0.3801605968879222,0.06490570644991098,0.642862856388092,-0.02666579931974411,0.11840779334306717,0.02647268772125244,0.051575541496276855,-0.029187515377998352,-0.11833243035901181,1.435512189967013,0.09741904675467963,0.9839340448379517,0.11805646121501923,-0.13392871618270874
1732225659471,9i,4.645898765882418,1.0s : 0.3s,-7.005269387223095,0.01773639578802849,0.4016055427159252,0.07961333300964239,0.6651106476783752,-0.02973642200231552,0.10488718748092651,0.03365898132324219,0.07100170105695724,-0.012810707092285156,-0.11634865200665485,1.4344854683000068,0.09106278000279532,0.9840260744094849,0.11608632653951645,-0.13497042655944824
1732225659481,9i,4.645898765882418,1.0s : 0.3s,-7.005269387223095,0.017425037058581665,0.4246216735531431,0.09989365678378254,0.7077637910842896,-0.027461640536785126,0.09041217714548111,0.03782778978347778,0.09233264625072479,0.004741668701171875,-0.11442939641133058,1.433410343498596,0.08434773279583731,0.9840992093086243,0.1141798347234726,-0.13605855405330658
1732225659491,9i,4.645898765882418,1.0s : 0.3s,-7.005269387223095,0.01685308668829081,0.4456997213108642,0.13162394408396688,0.7354995608329773,-0.026200899854302406,0.06839582324028015,0.03072875738143921,0.12774725258350372,0.007825955748558044,-0.11267968806162558,1.4323351265165358,0.07723709907089035,0.9841488003730774,0.11244139820337296,-0.13714396953582764
1732225659501,9i,4.645898765882418,1.0s : 0.3s,-7.005269387223095,0.016007808255191002,0.44889486256281974,0.1576178650118496,0.6911137104034424,-0.004412868991494179,0.0433284193277359,0.014546632766723633,0.15486741065979004,0.02545332908630371,-0.11123097461934096,1.4308969394299478,0.07038190637492513,0.9841107130050659,0.11100175231695175,-0.1385817676782608
1732225659511,9i,4.645898765882418,1.0s : 0.3s,-7.005269387223095,0.014960799511472203,0.459738081819974,0.14672090564965895,0.724846363067627,-0.04588547721505165,0.010567008517682552,-0.00019669532775878906,0.13196462392807007,0.06412740051746368,-0.10983324092672876,1.430042184066783,0.0636085870013715,0.9841445088386536,0.10961254686117172,-0.1394445151090622
1732225659521,9i,4.645898765882418,1.0s : 0.3s,-7.005269387223095,0.013870924898739902,0.46761677242776495,0.14145011943573663,0.7264593839645386,-0.004498934373259544,0.004653559066355228,-0.017831265926361084,0.13723735511302948,0.029259026050567627,-0.1087962777901525,1.4289906179204415,0.05629634958017227,0.9841094613075256,0.1085817739367485,-0.14049534499645233
1732225659531,9i,4.645898765882418,1.0s : 0.3s,-7.005269387223095,0.01260684870803694,0.47980960612693235,0.220213924780393,0.7601680755615234,-0.0062795234844088554,-0.0408681184053421,-0.03832697868347168,0.21629813313484192,0.015502676367759705,-0.10791638619315233,1.4281288083439914,0.04885373184489321,0.9840822815895081,0.10770704597234726,-0.1413569450378418
1732225659541,9i,4.645898765882418,1.0s : 0.3s,-7.005269387223095,0.011244234672893674,0.49357464552847036,0.20726269967862396,0.7840107083320618,-0.000932029215618968,-0.07567407190799713,-0.03514784574508667,0.1971922665834427,0.05326974391937256,-0.10741177222812953,1.4272822540016379,0.04112636541544191,0.9840157628059387,0.1072053536772728,-0.14219769835472107
1732225659551,9i,4.645898765882418,1.0s : 0.3s,-7.005269387223095,0.009897765290086626,0.5095138555902441,0.20967966930112258,0.8110020756721497,0.008119788952171803,-0.12135154753923416,-0.04879051446914673,0.19523774087429047,0.05888356268405914,-0.10724436358195524,1.4264178980413964,0.033046701107722426,0.9839102625846863,0.10703890770673752,-0.14305077493190765
1732225659561,9i,4.645898765882418,1.0s : 0.3s,-7.005269387223095,0.00879100443748629,0.5310819336878758,0.23051580847560957,0.8566026091575623,0.011214382015168667,-0.15861502289772034,-0.06462991237640381,0.2193489968776703,0.029095187783241272,-0.1074414764877995,1.425611566297975,0.024521130813643186,0.9837736487388611,0.107234887778759,-0.14384101331233978
1732225659571,9i,4.645898765882418,1.0s : 0.3s,-7.005269387223095,0.008159915906869247,0.5487539995719776,0.24752089415645556,0.8619358539581299,0.030430154874920845,-0.19464066624641418,-0.07171511650085449,0.23538902401924133,0.0267496258020401,-0.10794488468445744,1.4248546431516769,0.015707224776384456,0.9836109280586243,0.10773537307977676,-0.144577756524086
1732225659581,9i,4.645898765882418,1.0s : 0.3s,-7.005269387223095,0.008206890854182993,0.5733751001136317,0.24849298045871288,0.9124285578727722,0.04314834997057915,-0.242506206035614,-0.07284349203109741,0.2345091998577118,0.038052886724472046,-0.10882988911534629,1.4242389642191013,0.006578738767044398,0.9834269881248474,0.10861518979072571,-0.14516931772232056
1732225659591,9i,4.645898765882418,1.0s : 0.3s,-7.005269387223095,0.009076339062327436,0.5990243954227401,0.26179242877846953,0.9439023733139038,0.050942886620759964,-0.28101202845573425,-0.09793698787689209,0.24118682742118835,0.02779453992843628,-0.11007908990945453,1.4236490134813793,-0.0030696714998027317,0.9832063317298889,0.10985691100358963,-0.14572948217391968
1732225659601,9i,4.645898765882418,1.0s : 0.3s,-7.005269387223095,0.010690436205282542,0.6208034088824237,0.28095912400611134,0.9529643058776855,0.05411018431186676,-0.3130069971084595,-0.09999167919158936,0.26175352931022644,0.020610272884368896,-0.11161654794636508,1.42309317849877,-0.01293648463915431,0.9829568862915039,0.11138493567705154,-0.14625093340873718
1732225659611,9i,4.645898765882418,1.0s : 0.3s,-7.005269387223095,0.012759698153085799,0.6434309079378332,0.27644680775248387,0.9733113646507263,0.06363293528556824,-0.3666934669017792,-0.09833425283432007,0.2563900351524353,0.031896114349365234,-0.11355914015094655,1.422522851418064,-0.02299717652737643,0.9826575517654419,0.11331522464752197,-0.14677928388118744
1732225659621,9i,4.645898765882418,1.0s : 0.3s,-7.005269387223095,0.015144254529952002,0.686183023882519,0.28238537163408617,1.0937366485595703,0.0799434706568718,-0.4186343550682068,-0.12028151750564575,0.2542296350002289,0.025320887565612793,-0.11593350893545255,1.42199907548567,-0.033799080524934265,0.9823117256164551,0.1156739816069603,-0.14725364744663239
1732225659631,9i,4.645898765882418,1.0s : 0.3s,-7.005269387223095,0.017965986082191104,0.7560304183299216,0.334990358793279,1.2760491371154785,0.11630839854478836,-0.48783740401268005,-0.14009904861450195,0.30426087975502014,-0.004014238715171814,-0.11865529842651606,1.4215237568953472,-0.04586379676917033,0.9819265007972717,0.11837706714868546,-0.14767315983772278
1732225659641,9i,4.645898765882418,1.0s : 0.3s,-7.005269387223095,0.02123062209607089,0.8293414857304585,0.37823737767432136,1.3789602518081665,0.13031849265098572,-0.55509352684021,-0.15987157821655273,0.34217405319213867,-0.02053070068359375,-0.12184181666769602,1.4210682396858976,-0.05944356634033477,0.9814811944961548,0.12154057621955872,-0.14806340634822845
1732225659651,9i,4.645898765882418,1.0s : 0.3s,-7.005269387223095,0.02481508486839049,0.8947230865498735,0.3844236548580365,1.4269336462020874,0.134518563747406,-0.6223587989807129,-0.17381525039672852,0.34202659130096436,-0.02424079179763794,-0.1255269475056519,1.4205814202164475,-0.07391979264054481,0.9809595942497253,0.12519754469394684,-0.14847317337989807
1732225659661,9i,4.645898765882418,1.0s : 0.3s,-7.005269387223095,0.028536162014576028,0.9610964096459926,0.36868050756152404,1.5035380125045776,0.15546578168869019,-0.6987217664718628,-0.17371153831481934,0.3251717984676361,0.0035943835973739624,-0.12995139073830228,1.420040774081364,-0.08898686838837806,0.9803218841552734,0.12958593666553497,-0.14891885221004486
1732225659671,9i,4.645898765882418,1.0s : 0.3s,-7.005269387223095,0.03241970412287036,0.9962701432585971,0.3843484915114141,1.4191973209381104,0.1508292257785797,-0.748252809047699,-0.18895846605300903,0.3346572816371918,-0.004792168736457825,-0.1348213023640575,1.4195157462468835,-0.10441434019593196,0.9796081185340881,0.1344132423400879,-0.14933666586875916
1732225659681,9i,4.645898765882418,1.0s : 0.3s,-7.005269387223095,0.03634906994215509,1.0201208933423163,0.3757238539971659,1.374208688735962,0.1644761860370636,-0.8236669301986694,-0.18551647663116455,0.3262730538845062,-0.01726110279560089,-0.14051280548465042,1.419008330412987,-0.11915154517877982,0.9787601828575134,0.14005088806152344,-0.1497156172990799
1732225659691,9i,4.645898765882418,1.0s : 0.3s,-7.005269387223095,0.04028762134241285,1.0483734897410257,0.36224757587143275,1.3836135864257812,0.16927973926067352,-0.9185872673988342,-0.1974806785583496,0.3028947710990906,0.02189624309539795,-0.1470209566883515,1.4185486806624652,-0.13371807515500156,0.9777694940567017,0.1464918851852417,-0.15002405643463135
1732225659701,9i,4.645898765882418,1.0s : 0.3s,-7.005269387223095,0.044400639379339295,1.0931043277627936,0.41151922244372663,1.4661877155303955,0.16749395430088043,-1.0147418975830078,-0.2097981572151184,0.35338813066482544,0.021204546093940735,-0.1544271094287622,1.4178655786436798,-0.1490095845248776,0.9765676259994507,0.15381404757499695,-0.15052251517772675
1732225659711,9i,4.645898765882418,1.0s : 0.3s,-7.005269387223095,0.04889374940516893,1.1494313524695021,0.48155827298275067,1.547747015953064,0.1624153107404709,-1.113657832145691,-0.21315765380859375,0.4316325783729553,-0.012470051646232605,-0.16263510071619877,1.4168636099529115,-0.16531102112241758,0.975135862827301,0.16191908717155457,-0.1513022631406784
1732225659721,9i,4.645898765882418,1.0s : 0.3s,-7.005269387223095,0.05374499100423538,1.2023744576732156,0.5096743588057617,1.5585417747497559,0.17766620218753815,-1.2111876010894775,-0.21152877807617188,0.463613361120224,-0.009283289313316345,-0.17172033453203187,1.4156718178924481,-0.18230856902368456,0.9734611511230469,0.1708776354789734,-0.15223072469234467
1732225659731,9i,4.645898765882418,1.0s : 0.3s,-7.005269387223095,0.058837546422545135,1.251405166089242,0.509425157254355,1.546886682510376,0.18742455542087555,-1.3221975564956665,-0.2322184443473816,0.45315980911254883,0.015322282910346985,-0.18184343056854735,1.4143906569044638,-0.19937800370826173,0.9715068936347961,0.18084292113780975,-0.15320046246051788
1732225659741,9i,4.645898765882418,1.0s : 0.3s,-7.005269387223095,0.06410078904701852,1.308556882104278,0.5133011123941518,1.6024314165115356,0.19707442820072174,-1.4274699687957764,-0.23808878660202026,0.452817440032959,0.041810616850852966,-0.1929547751040124,1.4129728207391794,-0.2169117026632211,0.9692444205284119,0.19175966084003448,-0.15425240993499756
1732225659751,9i,4.645898765882418,1.0s : 0.3s,-7.005269387223095,0.06962501302580365,1.370732747519974,0.5522789620721612,1.6590182781219482,0.19191668927669525,-1.5279613733291626,-0.2458398938179016,0.49366331100463867,0.02951836585998535,-0.20498918861031826,1.4111906202604898,-0.23527060256677196,0.9666194319725037,0.2035565823316574,-0.15560148656368256
1732225659761,9i,4.645898765882418,1.0s : 0.3s,-7.005269387223095,0.0754331057980612,1.426356861393255,0.5818272081363159,1.657132625579834,0.18147039413452148,-1.619701623916626,-0.22985833883285522,0.5339761972427368,0.02361069619655609,-0.21786545404715857,1.4089902428425325,-0.25420009996169457,0.9636079668998718,0.21614603698253632,-0.15729273855686188
1732225659771,9i,4.645898765882418,1.0s : 0.3s,-7.005269387223095,0.0813680775676291,1.474790935825476,0.5638301600815153,1.6197913885116577,0.18394580483436584,-1.7256243228912354,-0.20063191652297974,0.5252076983451843,0.042522430419921875,-0.2316969021521788,1.406480706112303,-0.27315494796135364,0.9601687788963318,0.22962941229343414,-0.15920615196228027
1732225659781,9i,4.645898765882418,1.0s : 0.3s,-7.005269387223095,0.08731773564697823,1.5271614756861145,0.5443307636894248,1.626039981842041,0.1764141172170639,-1.8453795909881592,-0.21328997611999512,0.49912673234939575,0.040937408804893494,-0.24663718029729292,1.4036558687157243,-0.2921803737458712,0.9562253952026367,0.2441442906856537,-0.16132904589176178
1732225659791,9i,4.645898765882418,1.0s : 0.3s,-7.005269387223095,0.09328221440614999,1.5823232899057682,0.5449855223930634,1.643581748008728,0.1450013369321823,-1.9533559083938599,-0.21758681535720825,0.49847328662872314,0.03449028730392456,-0.26262245087232905,1.400251724056229,-0.3116505978628214,0.9517025351524353,0.259613960981369,-0.16389985382556915
1732225659801,9i,4.645898765882418,1.0s : 0.3s,-7.005269387223095,0.09925570267461271,1.6363436422172237,0.5471436334155331,1.639323115348816,0.13610699772834778,-2.056196451187134,-0.16135823726654053,0.521483302116394,0.03721344470977783,-0.279568717580391,1.3961918705225052,-0.3315048801273308,0.9465603828430176,0.2759411334991455,-0.16697394847869873
1732225659811,9i,4.645898765882418,1.0s : 0.3s,-7.005269387223095,0.10523681911259795,1.695549776874465,0.5556951580690321,1.6573489904403687,0.12263380736112595,-2.1770777702331543,-0.11731529235839844,0.5417079925537109,0.03983317315578461,-0.29750010508925795,1.3915585655750846,-0.35178375805592105,0.94075608253479,0.2931310534477234,-0.1704482138156891
1732225659821,9i,4.645898765882418,1.0s : 0.3s,-7.005269387223095,0.11121813202973665,1.7609563899204557,0.5495244038092638,1.7135332822799683,0.10878967493772507,-2.2816033363342285,-0.10601061582565308,0.5388166904449463,0.02038121223449707,-0.31639625340517435,1.3861728466241054,-0.3733839039017057,0.9342120289802551,0.3111437261104584,-0.17446424067020416
1732225659831,9i,4.645898765882418,1.0s : 0.3s,-7.005269387223095,0.11718378513422405,1.825032392655554,0.5406376217493253,1.7178699970245361,0.10411342978477478,-2.3916146755218506,-0.07726728916168213,0.5350874066352844,0.0005208998918533325,-0.3361360638960503,1.3800105863401055,-0.3952813896321813,0.9269071817398071,0.32984188199043274,-0.17901800572872162
1732225659841,9i,4.645898765882418,1.0s : 0.3s,-7.005269387223095,0.12310363681380997,1.87887629603617,0.5186067831068034,1.6573059558868408,0.09508189558982849,-2.490910768508911,-0.05063128471374512,0.515583872795105,0.02372211217880249,-0.35683985107692673,1.373324111750107,-0.417337290789313,0.9187954664230347,0.3493148982524872,-0.1838323324918747
1732225659851,9i,4.645898765882418,1.0s : 0.3s,-7.005269387223095,0.12879527820017073,1.930297651132392,0.4940724043534328,1.6185476779937744,0.06864921748638153,-2.5992684364318848,-0.032413482666015625,0.4911007285118103,0.04332414269447327,-0.3785312638271292,1.3660189667734612,-0.4394374452025275,0.9097938537597656,0.36955609917640686,-0.18895378708839417
1732225659861,9i,4.645898765882418,1.0s : 0.3s,-7.005269387223095,0.13434088365015814,1.984256281803986,0.48816093945872086,1.6210381984710693,0.044552452862262726,-2.7012391090393066,0.00822383165359497,0.48673003911972046,0.03643268346786499,-0.4011060618584173,1.357807091615119,-0.4619723546101338,0.8998268246650696,0.3904368579387665,-0.19460508227348328
1732225659871,9i,4.645898765882418,1.0s : 0.3s,-7.005269387223095,0.1398547695612652,2.038414837996002,0.5253054682206524,1.6387079954147339,0.021369105204939842,-2.783435821533203,0.05643308162689209,0.5220605134963989,0.014627456665039062,-0.42440369065169714,1.3485907865366578,-0.4852652977471054,0.8888795375823975,0.41177743673324585,-0.20083023607730865
1732225659881,9i,4.645898765882418,1.0s : 0.3s,-7.005269387223095,0.14527739002997364,2.0848142888728365,0.5616014767726805,1.6075111627578735,-0.06713341921567917,-2.851144552230835,0.11665153503417969,0.5493461489677429,-0.002728864550590515,-0.4481563583498475,1.3380159634734905,-0.5092552815898709,0.8769398331642151,0.43330469727516174,-0.2079032063484192
1732225659891,9i,4.645898765882418,1.0s : 0.3s,-7.005269387223095,0.1505694539658087,2.1251424863646804,0.545462453278567,1.5319045782089233,-0.09876538068056107,-2.9377121925354004,0.17801660299301147,0.5153067708015442,-0.017271623015403748,-0.4725775653323356,1.3262175876901243,-0.5333697564917386,0.8638993501663208,0.45518285036087036,-0.21560777723789215
1732225659901,9i,4.645898765882418,1.0s : 0.3s,-7.005269387223095,0.15578159626221091,2.168782845198397,0.51503593233304,1.5262025594711304,-0.13527502119541168,-3.0236008167266846,0.19829493761062622,0.4753086566925049,-0.0047760009765625,-0.4977158311774144,1.3133824387135788,-0.5578262531708109,0.8497245907783508,0.47741973400115967,-0.22369365394115448
1732225659911,9i,4.645898765882418,1.0s : 0.3s,-7.005269387223095,0.1609246718572794,2.2175786030269355,0.5266743327767509,1.5742920637130737,-0.18111281096935272,-3.0956778526306152,0.21892082691192627,0.4780910015106201,-0.029808029532432556,-0.5231907224737752,1.2989067963777214,-0.5835232838336621,0.834408700466156,0.4996465742588043,-0.23262768983840942
1732225659921,9i,4.645898765882418,1.0s : 0.3s,-7.005269387223095,0.16587511641172842,2.2676102775058204,0.5749410632994508,1.5727938413619995,-0.22653546929359436,-3.1817755699157715,0.26448750495910645,0.506872296333313,-0.06069646775722504,-0.5490837250767113,1.282704320338182,-0.6105955846600579,0.8178489804267883,0.5219058394432068,-0.24235814809799194
1732225659931,9i,4.645898765882418,1.0s : 0.3s,-7.005269387223095,0.17081508264073553,2.3154087446847407,0.6174212382585428,1.5891474485397339,-0.2690134048461914,-3.240455389022827,0.2929019331932068,0.5424721837043762,-0.03378421068191528,-0.5753054150848217,1.2646930564959407,-0.6390694863831026,0.8000242114067078,0.5440910458564758,-0.252836674451828
1732225659941,9i,4.645898765882418,1.0s : 0.3s,-7.005269387223095,0.1756755475984346,2.3540105582667445,0.6137682061854975,1.529512643814087,-0.3336140215396881,-3.2932095527648926,0.330070436000824,0.5174591541290283,-0.0009705722332000732,-0.6015426063508443,1.244927710838731,-0.6686447219855362,0.781074583530426,0.5659149885177612,-0.2639370262622833
1732225659951,9i,4.645898765882418,1.0s : 0.3s,-7.005269387223095,0.1803624372205895,2.3800255640437955,0.6038399767370045,1.4087315797805786,-0.39057421684265137,-3.338630437850952,0.36969614028930664,0.4774165749549866,0.004571139812469482,-0.628015670896378,1.2237414531865647,-0.6984485662644149,0.7609496712684631,0.5875402092933655,-0.27523133158683777
1732225659961,9i,4.645898765882418,1.0s : 0.3s,-7.005269387223095,0.18494141090928887,2.3961894930056875,0.6001844645162623,1.2394025325775146,-0.4395500719547272,-3.394484758377075,0.4037166237831116,0.44374269247055054,0.018074899911880493,-0.6548850911651055,1.2015272066689033,-0.7280324383068638,0.7396550178527832,0.6090680956840515,-0.2862631678581238
1732225659971,9i,4.645898765882418,1.0s : 0.3s,-7.005269387223095,0.18935006251385547,2.4202996530259595,0.6164128869122455,1.1670295000076294,-0.47947725653648376,-3.4815006256103516,0.4315469264984131,0.43871134519577026,0.03555914759635925,-0.6823971779275338,1.17807429783059,-0.7578869398123402,0.7169821262359619,0.6306551694869995,-0.29700300097465515
1732225659981,9i,4.645898765882418,1.0s : 0.3s,-7.005269387223095,0.19389416511094915,2.453102390533535,0.6893688853620088,1.1967144012451172,-0.5350914597511292,-3.54152774810791,0.4676329493522644,0.50632643699646,0.013506442308425903,-0.710056877039865,1.1523728873917933,-0.789485033450942,0.6929048895835876,0.6518769264221191,-0.3081229627132416
1732225659991,9i,4.645898765882418,1.0s : 0.3s,-7.005269387223095,0.19876872783658162,2.4832895106180803,0.7940796806740543,1.176916241645813,-0.6208199262619019,-3.571938991546631,0.5501390695571899,0.5716153979301453,-0.03413766622543335,-0.7373478785690638,1.123858765189176,-0.8232026577274911,0.6675429344177246,0.6723270416259766,-0.3199423551559448
1732225660001,9i,4.645898765882418,1.0s : 0.3s,-7.005269387223095,0.20384715182068663,2.5093324422247942,0.8283902685335135,1.0786182880401611,-0.6792433261871338,-3.620181083679199,0.6197056770324707,0.5488293766975403,-0.03133091330528259,-0.7644886878235586,1.092877080303318,-0.8583272272888539,0.6408686637878418,0.6921680569648743,-0.3319500982761383
1732225660011,9i,4.645898765882418,1.0s : 0.3s,-7.005269387223095,0.2089968630179066,2.5350489000744414,0.798518591537615,0.9794267416000366,-0.7049881219863892,-3.683345079421997,0.6209474802017212,0.5019400119781494,-0.010601520538330078,-0.791782699053093,1.0599874143982395,-0.8945477202843597,0.6128935217857361,0.7116068601608276,-0.3434785306453705
1732225660021,9i,4.645898765882418,1.0s : 0.3s,-7.005269387223095,0.21428406251509555,2.565726630147604,0.8056512265779371,0.9747694134712219,-0.7624024748802185,-3.7364320755004883,0.626156747341156,0.5058793425559998,0.03298056125640869,-0.8189344067868912,1.0244518031578131,-0.9329191750524392,0.5835753679275513,0.7304184436798096,-0.3548645079135895
1732225660031,9i,4.645898765882418,1.0s : 0.3s,-7.005269387223095,0.21980097013882516,2.5969123487563204,0.8530028239418185,0.9743329286575317,-0.8208202123641968,-3.7732510566711426,0.6712415814399719,0.5256268382072449,0.02765834331512451,-0.8454022584871753,0.9853339011429456,-0.9744074787283226,0.5529405474662781,0.7482380270957947,-0.3666016459465027
1732225660041,9i,4.645898765882418,1.0s : 0.3s,-7.005269387223095,0.22558244357478796,2.6239347581699937,0.8900791903885601,0.9389578700065613,-0.8468025922775269,-3.802760124206543,0.7124518752098083,0.5333845019340515,0.012420296669006348,-0.8710669762598471,0.9428595814083036,-1.0188269734401363,0.5211601853370667,0.765016496181488,-0.37834110856056213
1732225660051,9i,4.645898765882418,1.0s : 0.3s,-7.005269387223095,0.23150050029831432,2.6446557865877485,0.8813248447667698,0.8482908606529236,-0.8886235356330872,-3.8254494667053223,0.728745698928833,0.4946219325065613,0.03181716799736023,-0.895993019863973,0.8973328593534199,-1.0657923688182014,0.4883410930633545,0.7808298468589783,-0.389650821685791
1732225660061,9i,4.645898765882418,1.0s : 0.3s,-7.005269387223095,0.237417258891208,2.660068203666739,0.8784546616490745,0.801257848739624,-0.9071983098983765,-3.835031032562256,0.7586005926132202,0.4408215880393982,0.043405771255493164,-0.9201203988926251,0.8487775786409031,-1.1152537938571123,0.4545799195766449,0.7956745624542236,-0.4003239572048187
1732225660071,9i,4.645898765882418,1.0s : 0.3s,-7.005269387223095,0.24338709971633965,2.6734277838089873,0.8894453435289634,0.8513556122779846,-0.9020125865936279,-3.8356282711029053,0.7759308815002441,0.43178749084472656,0.051027923822402954,-0.9425983897156087,0.7963486421333258,-1.1686194690918776,0.42008352279663086,0.809087872505188,-0.41098257899284363
1732225660081,9i,4.645898765882418,1.0s : 0.3s,-7.005269387223095,0.24948130003837726,2.6859663131986093,0.8868473335543007,0.7788348197937012,-0.89339679479599,-3.8703181743621826,0.7797327041625977,0.4171140193939209,0.06731268763542175,-0.9636674820761661,0.7409219837141231,-1.2250467196934376,0.38507747650146484,0.8212894201278687,-0.42095017433166504
1732225660091,9i,4.645898765882418,1.0s : 0.3s,-7.005269387223095,0.25573406736406906,2.6959973039631233,0.8787379879018667,0.9037666320800781,-0.9032135009765625,-3.845749855041504,0.7734558582305908,0.4008113741874695,0.11531144380569458,-0.9824139092830502,0.680613853279039,-1.286450325604535,0.3492553234100342,0.8318395614624023,-0.43135133385658264
1732225660101,9i,4.645898765882418,1.0s : 0.3s,-7.005269387223095,0.2621265662985046,2.696782246266207,0.8699000741468821,0.776907205581665,-0.9230380654335022,-3.8456757068634033,0.7790887355804443,0.38665592670440674,0.015622913837432861,-0.9988851170587776,0.616986014084596,-1.3509509543414695,0.3131506145000458,0.8408681154251099,-0.44144976139068604
1732225660111,9i,4.645898765882418,1.0s : 0.3s,-7.005269387223095,0.2685853584586556,2.6968141646993407,0.8463729733912044,0.7118358016014099,-0.9188758134841919,-3.8503050804138184,0.7824077606201172,0.3215208053588867,0.028454840183258057,-1.01393850301069,0.5505658357059182,-1.4179795363908572,0.2765063941478729,0.8489199876785278,-0.4504212439060211
1732225660121,9i,4.645898765882418,1.0s : 0.3s,-7.005269387223095,0.27471797238697865,2.6976752156233403,0.7923237906530003,0.7677950263023376,-0.8935441374778748,-3.856337547302246,0.7411887049674988,0.2799745798110962,0.005525171756744385,-1.0267086361201267,0.4811002446763057,-1.488048513435994,0.23953941464424133,0.8555998802185059,-0.45887887477874756
1732225660131,9i,4.645898765882418,1.0s : 0.3s,-7.005269387223095,0.2809810628105464,2.723495415642957,0.8361070584280258,1.0296483039855957,-0.9525851011276245,-3.906421184539795,0.7629727125167847,0.33958160877227783,-0.040397822856903076,-1.035426115489095,0.4070922801089978,-1.5630458179294984,0.20199307799339294,0.860079824924469,-0.4684673547744751
1732225660141,9i,4.645898765882418,1.0s : 0.3s,-7.005269387223095,0.2878134908965954,2.765181273842359,0.932809374503578,1.3289111852645874,-0.9520432353019714,-3.953484058380127,0.7618023753166199,0.5051379799842834,-0.18608087301254272,-1.0383374261964478,0.3281813018292291,-1.6431075566401592,0.16362789273262024,0.8615614175796509,-0.48056021332740784
1732225660151,9i,4.645898765882418,1.0s : 0.3s,-7.005269387223095,0.2950724622677495,2.8009966009250555,0.9447646986639929,1.3238784074783325,-1.0256786346435547,-3.965296983718872,0.7766934037208557,0.49713021516799927,-0.20540019869804382,-1.036740343975425,0.24753482544979713,-1.7246760488250656,0.12471950054168701,0.8607495427131653,-0.49351319670677185
1732225660161,9i,4.645898765882418,1.0s : 0.3s,-7.005269387223095,0.3024234825267988,2.8300810889423205,0.9141840918383097,1.225676417350769,-1.1062287092208862,-3.9921844005584717,0.815790057182312,0.3994573950767517,-0.10321301221847534,-1.0325315546137936,0.16693206207454625,-1.8053122118146596,0.08518034964799881,0.8585995435714722,-0.5055209994316101
1732225660171,9i,4.645898765882418,1.0s : 0.3s,-7.005269387223095,0.30987210719615527,2.863813370443359,0.9177342408979713,1.3389071226119995,-1.1447869539260864,-4.0185394287109375,0.8195846676826477,0.39171260595321655,-0.13068413734436035,-1.0249760326680026,0.08695865446769112,-1.8848203176267717,0.04508506879210472,0.8547017574310303,-0.5171580910682678
1732225660181,9i,4.645898765882418,1.0s : 0.3s,-7.005269387223095,0.31768713759270134,2.8970982488779513,0.970803701118562,1.4392026662826538,-1.1928576231002808,-4.024091720581055,0.8200504183769226,0.4814038872718811,-0.1955183744430542,-1.0129549126821993,0.008940856478104098,-1.9621049047298869,0.004732834175229073,0.8483997583389282,-0.5293349623680115
1732225660191,9i,4.645898765882418,1.0s : 0.3s,-7.005269387223095,0.32594362972036156,2.93929000840304,1.0044783423095351,1.5568432807922363,-1.2689087390899658,-4.063143730163574,0.8307012915611267,0.5239917635917664,-0.21058189868927002,-0.9968178448926893,-0.06633705661801527,-2.036071883128466,-0.03599310293793678,0.839747428894043,-0.5417830348014832
1732225660201,9i,4.645898765882418,1.0s : 0.3s,-7.005269387223095,0.33459094614699486,2.9841752692484427,1.0243219320169865,1.636982798576355,-1.3522828817367554,-4.090632438659668,0.8429783582687378,0.5333765745162964,-0.2326635718345642,-0.976807160453016,-0.13835325341866733,-2.1061302414528047,-0.07718558609485626,0.8287146687507629,-0.5543235540390015
1732225660211,9i,4.645898765882418,1.0s : 0.3s,-7.005269387223095,0.3436574212138507,3.0226481717178193,1.0503346080584366,1.6853164434432983,-1.4331194162368774,-4.082892894744873,0.8509097099304199,0.5660772323608398,-0.24230563640594482,-0.9533017138908596,-0.2063157972706754,-2.171231932441,-0.11861001700162888,0.8153316378593445,-0.5667151808738708
1732225660221,9i,4.645898765882418,1.0s : 0.3s,-7.005269387223095,0.3529887473152843,3.0543749563285365,1.052085629966444,1.6642307043075562,-1.5113095045089722,-4.088642120361328,0.882047176361084,0.5325063467025757,-0.21287071704864502,-0.9274446144523874,-0.27001666767084953,-2.2311463353869705,-0.16001665592193604,0.8000896573066711,-0.5781447887420654
1732225660231,9i,4.645898765882418,1.0s : 0.3s,-7.005269387223095,0.3624332363977774,3.0782921108504215,1.0172305013520344,1.6543101072311401,-1.5992894172668457,-4.069178581237793,0.8694134950637817,0.5080731511116028,-0.14401298761367798,-0.8994801588925692,-0.32962218500808893,-2.286194060550029,-0.2013380229473114,0.7830036878585815,-0.5885307788848877
1732225660241,9i,4.645898765882418,1.0s : 0.3s,-7.005269387223095,0.3719535368236538,3.1017970380598223,0.9903373563285266,1.6512256860733032,-1.675861120223999,-4.077940940856934,0.845588743686676,0.49037468433380127,-0.15899819135665894,-0.8698521527624545,-0.38568528280071457,-2.336786157320658,-0.2426225244998932,0.7642335891723633,-0.5975629091262817
1732225660251,9i,4.645898765882418,1.0s : 0.3s,-7.005269387223095,0.3815505063482792,3.120629829436016,1.0013134980797722,1.656852126121521,-1.7548118829727173,-4.056430816650391,0.8620405197143555,0.48799753189086914,-0.14619600772857666,-0.8383251728163132,-0.4380362630019432,-2.3827713780211095,-0.28364098072052,0.7435241937637329,-0.605573832988739
1732225660261,9i,4.645898765882418,1.0s : 0.3s,-7.005269387223095,0.391152304182158,3.1365242271320297,0.9798270452239176,1.6426666975021362,-1.8161989450454712,-4.050221920013428,0.8495909571647644,0.46097344160079956,-0.16049838066101074,-0.8054909904603725,-0.48703492013067073,-2.4246944940064616,-0.32421571016311646,0.7211708426475525,-0.6122065186500549
1732225660271,9i,4.645898765882418,1.0s : 0.3s,-7.005269387223095,0.40069680817283315,3.137860275814036,0.9679613047853225,1.5598945617675781,-1.8984509706497192,-4.002284049987793,0.8510589003562927,0.4438289403915405,-0.12515473365783691,-0.7718362771764502,-0.5331508069197791,-2.4629200057938245,-0.3642273545265198,0.6974523663520813,-0.6171699166297913
1732225660281,9i,4.645898765882418,1.0s : 0.3s,-7.005269387223095,0.41025315391948086,3.1366557485462017,0.9751208042109738,1.542221188545227,-1.9341983795166016,-3.955822706222534,0.8794270753860474,0.40277379751205444,-0.12345796823501587,-0.7376818338511744,-0.5764237360915757,-2.4975238342965733,-0.40333765745162964,0.6725742220878601,-0.6204535961151123
1732225660291,9i,4.645898765882418,1.0s : 0.3s,-7.005269387223095,0.4197438147572975,3.1219631737788487,0.9656322861540365,1.483278512954712,-1.9566746950149536,-3.8997156620025635,0.8909780979156494,0.3662909269332886,-0.06659352779388428,-0.7031026507693141,-0.6169603338918619,-2.5288492057374627,-0.44134747982025146,0.646587610244751,-0.6222032904624939
1732225660301,9i,4.645898765882418,1.0s : 0.3s,-7.005269387223095,0.42894769563897683,3.1003535053702715,0.9372753169097185,1.4312405586242676,-2.000401735305786,-3.829559326171875,0.8757979869842529,0.33102571964263916,-0.043415188789367676,-0.6683652105103929,-0.6550539340802886,-2.557116886148709,-0.47812357544898987,0.6197037696838379,-0.6223866939544678
1732225660311,9i,4.645898765882418,1.0s : 0.3s,-7.005269387223095,0.437772668189298,3.0742331116817985,0.8982294071112382,1.3690121173858643,-2.0462169647216797,-3.762892484664917,0.85450279712677,0.2713968753814697,-0.05463308095932007,-0.6337924685216805,-0.6912624878190573,-2.5827325445091174,-0.5136978626251221,0.5922049283981323,-0.6208123564720154
1732225660321,9i,4.645898765882418,1.0s : 0.3s,-7.005269387223095,0.4462891917921788,3.049778928826556,0.8972021251459258,1.3072566986083984,-2.073655843734741,-3.731951951980591,0.8613178730010986,0.2404717206954956,-0.07263970375061035,-0.5992614611799632,-0.72588312693386,-2.6062246789988963,-0.5481314063072205,0.564032793045044,-0.6175914406776428
1732225660331,9i,4.645898765882418,1.0s : 0.3s,-7.005269387223095,0.4548044543726382,3.0223091547310053,0.9260302036269678,1.2714118957519531,-2.0866713523864746,-3.673919916152954,0.8960303068161011,0.22925227880477905,-0.04588049650192261,-0.5647238728421008,-0.7589566179204967,-2.6277030333640674,-0.5813178420066833,0.5351825952529907,-0.6129022836685181
1732225660341,9i,4.645898765882418,1.0s : 0.3s,-7.005269387223095,0.463092876569845,2.9912777756029523,0.8970722733576385,1.2390846014022827,-2.121861696243286,-3.594058036804199,0.8833194375038147,0.15490508079528809,-0.022132575511932373,-0.5302743005644354,-0.7904226151052238,-2.6477721576670223,-0.6130558848381042,0.5057699680328369,-0.6069260835647583
1732225660351,9i,4.645898765882418,1.0s : 0.3s,-7.005269387223095,0.47139075531218794,2.955300340695379,0.932556371957602,1.120290994644165,-2.1397435665130615,-3.53829026222229,0.9136594533920288,0.18440312147140503,-0.029720008373260498,-0.49641007618845817,-0.8208351376050725,-2.665602860654084,-0.6433958411216736,0.47627198696136475,-0.5993386507034302
1732225660361,9i,4.645898765882418,1.0s : 0.3s,-7.005269387223095,0.4796513789341375,2.9173577511214326,0.9730521420922218,1.048910140991211,-2.173617124557495,-3.4632608890533447,0.9561755657196045,0.1803867518901825,0.004402101039886475,-0.4631970786780896,-0.8504671219616787,-2.681758244298451,-0.6723926663398743,0.4468105733394623,-0.5901257991790771
1732225660371,9i,4.645898765882418,1.0s : 0.3s,-7.005269387223095,0.4879198943255072,2.880099289450712,0.9815307739252532,1.014001488685608,-2.181382179260254,-3.402139663696289,0.96585613489151,0.17393139004707336,0.016506314277648926,-0.4304229118667164,-0.8791931197207559,-2.697772592271434,-0.6999718546867371,0.417255163192749,-0.5796011686325073
1732225660381,9i,4.645898765882418,1.0s : 0.3s,-7.005269387223095,0.49624249178786634,2.8434844865369064,1.0028403965825616,1.0355274677276611,-2.178553342819214,-3.3307225704193115,0.9881016612052917,0.1646551489830017,0.04725092649459839,-0.3977520607404176,-0.9067847244677023,-2.711417179885757,-0.7260473370552063,0.38734686374664307,-0.5681704878807068
1732225660391,9i,4.645898765882418,1.0s : 0.3s,-7.005269387223095,0.5046073677335209,2.8025222750503156,1.0132344342850013,1.0105582475662231,-2.185297727584839,-3.2396905422210693,0.9948723316192627,0.15330123901367188,0.11563646793365479,-0.3653957125330231,-0.9332928082551523,-2.723260456743723,-0.7505335211753845,0.3573189079761505,-0.555898129940033
1732225660401,9i,4.645898765882418,1.0s : 0.3s,-7.005269387223095,0.5129442212441081,2.7519118831200013,1.0505828789001161,0.9773746132850647,-2.172015428543091,-3.1228723526000977,1.0337309837341309,0.08836507797241211,0.16527628898620605,-0.333783555097278,-0.9589600726103412,-2.733748967367534,-0.7734161615371704,0.32762008905410767,-0.542671799659729
1732225660411,9i,4.645898765882418,1.0s : 0.3s,-7.005269387223095,0.5210862387761224,2.6852347604595947,1.0638762128651225,0.9776744842529297,-2.120269298553467,-2.962660789489746,1.036625862121582,0.005160391330718994,0.2391919493675232,-0.3031257267445141,-0.9834616498721324,-2.7425719786525833,-0.7944691181182861,0.29850488901138306,-0.5288799405097961
1732225660421,9i,4.645898765882418,1.0s : 0.3s,-7.005269387223095,0.5288201180489213,2.598545135495609,1.0490074905176818,1.0043394565582275,-2.0495357513427734,-2.751234292984009,1.006422996520996,-0.10371500253677368,0.2770788073539734,-0.2737631210237809,-1.006484622583398,-2.749442417783812,-0.8134911060333252,0.27035632729530334,-0.5149173736572266
1732225660431,9i,4.645898765882418,1.0s : 0.3s,-7.005269387223095,0.5359614843247131,2.4927652259706488,1.0636562046535343,1.0227824449539185,-1.9518030881881714,-2.526432991027832,0.9898274540901184,-0.22306405007839203,0.31913721561431885,-0.24596833451653916,-1.0279383316006308,-2.7541632281406403,-0.8304648399353027,0.2434956282377243,-0.501037061214447
1732225660441,9i,4.645898765882418,1.0s : 0.3s,-7.005269387223095,0.5425005116287418,2.363508940842238,1.103404047955579,1.0591673851013184,-1.8198533058166504,-2.251084089279175,0.9834386706352234,-0.31724950671195984,0.3869129419326782,-0.22009958854411177,-1.0475727842166405,-2.7567241796358686,-0.8453161716461182,0.21832680702209473,-0.4876207113265991
1732225660451,9i,4.645898765882418,1.0s : 0.3s,-7.005269387223095,0.5483673959898918,2.2140333794520854,1.1580281088312492,1.0141443014144897,-1.6887203454971313,-1.9761220216751099,0.9642845988273621,-0.4304693937301636,0.47526878118515015,-0.19659542390795756,-1.0654024248771434,-2.7574321978442558,-0.8581292629241943,0.19533146917819977,-0.47482603788375854
1732225660461,9i,4.645898765882418,1.0s : 0.3s,-7.005269387223095,0.5533993323322702,2.041498213214139,1.2571384643324928,0.9569046497344971,-1.5166194438934326,-1.675828218460083,0.9415244460105896,-0.5965350270271301,0.5814419984817505,-0.17583949951147562,-1.0815159016642022,-2.7567608421413605,-0.8690606355667114,0.1749347597360611,-0.4627436697483063
1732225660471,9i,4.645898765882418,1.0s : 0.3s,-7.005269387223095,0.5575485553223886,1.8478879882832002,1.378790838263503,0.9269869327545166,-1.3310372829437256,-1.3349251747131348,0.9278033971786499,-0.7579507231712341,0.6824629902839661,-0.15808344077087957,-1.0955447901107944,-2.7545462128383837,-0.8780903220176697,0.15742583572864532,-0.45185670256614685
1732225660481,9i,4.645898765882418,1.0s : 0.3s,-7.005269387223095,0.560866491991614,1.632919001125095,1.478535296529245,0.8970511555671692,-1.0846730470657349,-0.9865584969520569,0.9117753505706787,-0.8960789442062378,0.7428154945373535,-0.14361196133932286,-1.1071958233741241,-2.7509157512077493,-0.885240375995636,0.14311881363391876,-0.4425680637359619
1732225660491,9i,4.645898765882418,1.0s : 0.3s,-7.005269387223095,0.5635500352558456,1.405238500543605,1.6112238820526525,0.8934119343757629,-0.8294426202774048,-0.624546229839325,0.9212066531181335,-1.0052735805511475,0.8583971858024597,-0.13246120308500992,-1.1161630523446233,-2.745671621645685,-0.8905519247055054,0.13207417726516724,-0.4352860450744629
1732225660501,9i,4.645898765882418,1.0s : 0.3s,-7.005269387223095,0.5657560657030534,1.1762539243844137,1.7172502009681585,0.9281101822853088,-0.5470866560935974,-0.2657829821109772,0.9167686104774475,-1.1073404550552368,0.9392979741096497,-0.12447685279959442,-1.1222564401960633,-2.7385020223915344,-0.8941094875335693,0.12415564805269241,-0.43029510974884033
1732225660511,9i,4.645898765882418,1.0s : 0.3s,-7.005269387223095,0.5676965702912233,0.9465711117253567,1.8112105536186198,0.915465235710144,-0.21404080092906952,0.11931276321411133,0.9275944828987122,-1.1952930688858032,0.9956538677215576,-0.11981970273004602,-1.1250992532661084,-2.7296085475453564,-0.8958410024642944,0.11953320354223251,-0.4279961585998535
1732225660521,9i,4.645898765882418,1.0s : 0.3s,-7.005269387223095,0.5696354904033443,0.7426608930334192,1.9413258485016816,0.9037039279937744,0.148722842335701,0.5305447578430176,0.9621883034706116,-1.2785258293151855,1.0992321968078613,-0.11883221438067666,-1.1242511232629993,-2.7192332808372885,-0.8955837488174438,0.11855273693799973,-0.4288065731525421
1732225660531,9i,4.645898765882418,1.0s : 0.3s,-7.005269387223095,0.5718116854626432,0.6260834348748556,2.050973868848687,0.8756818771362305,0.5348601937294006,0.9756447076797485,0.997826337814331,-1.3562055826187134,1.1711288690567017,-0.12174970168187269,-1.119443807104579,-2.707162278283233,-0.8931970000267029,0.12144914269447327,-0.43295425176620483
1732225660541,9i,4.645898765882418,1.0s : 0.3s,-7.005269387223095,0.5745025673122477,0.6713568577737904,2.1651141504469953,0.7966583967208862,0.9156390428543091,1.4024713039398193,1.058332920074463,-1.4323394298553467,1.2312816381454468,-0.12875513186893445,-1.110598703206086,-2.6936359495171183,-0.8885484337806702,0.12839968502521515,-0.44044893980026245
1732225660551,9i,4.645898765882418,1.0s : 0.3s,-7.005269387223095,0.5780521887483732,0.8782265072633276,2.284292566776285,0.7542324066162109,1.294928789138794,1.8500440120697021,1.1296851634979248,-1.4727683067321777,1.3314493894577026,-0.13978807269807186,-1.0976479781880601,-2.678581021746775,-0.8814552426338196,0.13933326303958893,-0.4512459933757782
1732225660561,9i,4.645898765882418,1.0s : 0.3s,-7.005269387223095,0.5829392978724538,1.1887860946798718,2.380766469486273,0.8145434260368347,1.699749231338501,2.326199531555176,1.2475578784942627,-1.4655920267105103,1.4013166427612305,-0.15465390290468864,-1.0802563281766446,-2.661041428855865,-0.8715509176254272,0.15403814613819122,-0.46547964215278625
1732225660571,9i,4.645898765882418,1.0s : 0.3s,-7.005269387223095,0.5895252014462988,1.5541913803554124,2.4599295611071543,0.8621702790260315,2.143061637878418,2.828540325164795,1.3769817352294922,-1.4580321311950684,1.4245409965515137,-0.17319122755469543,-1.0577382558581994,-2.6402651774193444,-0.8582136631011963,0.1723267138004303,-0.4835008382797241
1732225660581,9i,4.645898765882418,1.0s : 0.3s,-7.005269387223095,0.5980482061900202,1.962081197522973,2.595980982443733,0.9163615107536316,2.605621337890625,3.3933188915252686,1.5253009796142578,-1.5072109699249268,1.4631778001785278,-0.1955894491994968,-1.0297108387364826,-2.6159357909841914,-0.8408070802688599,0.19434477388858795,-0.505246102809906
1732225660591,9i,4.645898765882418,1.0s : 0.3s,-7.005269387223095,0.608947179275303,2.4134172618832785,2.8489127212198246,0.9689501523971558,3.1473917961120605,4.0058770179748535,1.7728831768035889,-1.615302324295044,1.5375263690948486,-0.22194808433129676,-0.9951473297421741,-2.5870950898841154,-0.8182629346847534,0.2201303392648697,-0.5310260057449341
1732225660601,9i,4.645898765882418,1.0s : 0.3s,-7.005269387223095,0.622607911834857,2.9137178703008235,3.120570387224451,1.0502821207046509,3.75941801071167,4.679501533508301,2.025071144104004,-1.7295501232147217,1.6265616416931152,-0.2521887049406939,-0.9527485591067614,-2.552890337578387,-0.7892313003540039,0.24952402710914612,-0.5611165165901184
1732225660611,9i,4.645898765882418,1.0s : 0.3s,-7.005269387223095,0.6395649881880717,3.466044089776604,3.4591629570657263,1.0941675901412964,4.4388604164123535,5.425960540771484,2.3491218090057373,-1.8630547523498535,1.7252426147460938,-0.2860531826670036,-0.901074925636504,-2.5118661642566313,-0.7521371245384216,0.2821680009365082,-0.5955427885055542
1732225660621,9i,4.645898765882418,1.0s : 0.3s,-7.005269387223095,0.6604985107602998,4.075353144608865,3.8951249135756676,1.0355286598205566,5.202341079711914,6.257500171661377,2.755858898162842,-2.035834789276123,1.8527321815490723,-0.3237967010523393,-0.83853075986454,-2.4633068257220936,-0.7050167918205261,0.3181682527065277,-0.6338142156600952
1732225660631,9i,4.645898765882418,1.0s : 0.3s,-7.005269387223095,0.6862248663138593,4.749835949604638,4.39935352038367,0.8742976784706116,6.10152006149292,7.150021553039551,3.2372968196868896,-2.198976993560791,2.0096569061279297,-0.365149132555612,-0.7628209521963799,-2.4059240399017163,-0.6454086303710938,0.3570885956287384,-0.6752300262451172
1732225660641,9i,4.645898765882418,1.0s : 0.3s,-7.005269387223095,0.7178829498084321,5.50282510384295,5.035106129778286,0.5331324934959412,7.120926856994629,8.162755966186523,3.8506572246551514,-2.336820602416992,2.250333786010742,-0.4100768120551622,-0.6713574749173183,-2.3381530317179187,-0.5704754590988159,0.3986797630786896,-0.7180614471435547
1732225660651,9i,4.645898765882418,1.0s : 0.3s,-7.005269387223095,0.756896228338028,6.346520992735713,5.810305226259446,0.264984667301178,8.197153091430664,9.322494506835938,4.644613742828369,-2.437131643295288,2.4995198249816895,-0.4573840631160139,-0.5605998283323493,-2.2567274219711404,-0.47704190015792847,0.44160258769989014,-0.7598804235458374
1732225660661,9i,4.645898765882418,1.0s : 0.3s,-7.005269387223095,0.8046602224545406,7.258459441185042,6.709776953914261,0.007510784547775984,9.156847953796387,10.60035514831543,5.641966819763184,-2.576486587524414,2.5594987869262695,-0.5033764265464984,-0.42767653303777964,-2.1566637365290044,-0.36331069469451904,0.48238590359687805,-0.797062873840332
1732225660671,9i,4.645898765882418,1.0s : 0.3s,-7.005269387223095,0.8627593283059928,8.149199378421201,7.781674214155432,0.041582733392715454,10.025701522827148,11.489089965820312,6.917975425720215,-2.6261253356933594,2.4082224369049072,-0.5408957776295291,-0.271594430315672,-2.0365052367763896,-0.2299719601869583,0.5149040818214417,-0.8258248567581177
1732225660681,9i,4.645898765882418,1.0s : 0.3s,-7.005269387223095,0.9326293328251022,8.957028977128173,8.936297328389234,-0.4938126504421234,10.744629859924316,12.079935073852539,8.309239387512207,-2.3661351203918457,2.28371524810791,-0.5643504232858785,-0.09622835249973735,-1.9003114475860585,-0.08118139952421188,0.5348670482635498,-0.8410272598266602
1732225660691,9i,4.645898765882418,1.0s : 0.3s,-7.005269387223095,1.015531989977295,9.663384371539093,10.231714131096652,-1.8151381015777588,11.124466896057129,12.62856674194336,9.761785507202148,-1.959160327911377,2.3573732376098633,-0.5755780612638842,0.09325844545393934,-1.753231131605879,0.07811909168958664,0.5443198084831238,-0.8352325558662415
1732225660701,9i,4.645898765882418,1.0s : 0.3s,-7.005269387223095,1.1122331913609662,10.250637956803274,11.546106298954374,-4.217320442199707,10.78480339050293,13.22054672241211,11.233256340026855,-1.1560261249542236,2.4062681198120117,-0.5798549275798229,0.28975912308193297,-1.5950784755007281,0.2390180081129074,0.5479025840759277,-0.8016690015792847
1732225660711,9i,4.645898765882418,1.0s : 0.3s,-7.005269387223095,1.223074006680873,10.722681632267541,12.991676761490243,-7.579596042633057,9.591891288757324,13.60854721069336,12.832810401916504,-0.06359541416168213,2.0244994163513184,-0.5830404003777423,0.48851918543100337,-1.4195828012695006,0.3917838931083679,0.5505645871162415,-0.7371459603309631
1732225660721,9i,4.645898765882418,1.0s : 0.3s,-7.005269387223095,1.3477271240063091,11.165179979130476,14.475218497787857,-10.633471488952637,7.950953960418701,13.846403121948242,14.308320999145508,1.6342953443527222,1.4604723453521729,-0.5827668419031299,0.6852541635870576,-1.221881548395651,0.5284103751182556,0.5503361821174622,-0.6464616656303406
1732225660731,9i,4.645898765882418,1.0s : 0.3s,-7.005269387223095,1.4841930907460092,11.66176706230557,15.842309160169213,-13.530843734741211,6.277294635772705,13.769705772399902,15.222363471984863,4.334227085113525,0.687666654586792,-0.5709748178634804,0.8763192251056419,-1.0027394351540893,0.6465026140213013,0.5404524803161621,-0.5384661555290222
1732225660741,9i,4.645898765882418,1.0s : 0.3s,-7.005269387223095,1.628991818167387,12.109368040070985,17.087562561875657,-15.542224884033203,3.8899166584014893,13.354287147521973,15.222223281860352,7.763009548187256,0.06629794836044312,-0.5430982539228202,1.0508813032902518,-0.769733074549965,0.7429863810539246,0.5167909264564514,-0.4253218173980713
1732225660751,9i,4.645898765882418,1.0s : 0.3s,-7.005269387223095,1.776905124892673,12.469018930606238,17.900859214260564,-16.515806198120117,1.3176980018615723,12.918465614318848,13.851348876953125,11.339225769042969,-0.0534214973449707,-0.49352409503601424,1.1922309637544894,-0.5379063923557207,0.8183140158653259,0.4737323820590973,-0.3254845142364502
1732225660761,9i,4.645898765882418,1.0s : 0.3s,-7.005269387223095,1.921307042097497,12.683755151139572,18.05248436544465,-16.348918914794922,-1.6067430973052979,12.703909873962402,11.04730224609375,14.274413108825684,0.3007245361804962,-0.4265450749933373,1.2886543969592579,-0.31632464376603336,0.8744047284126282,0.41372790932655334,-0.2534678876399994
1732225660771,9i,4.645898765882418,1.0s : 0.3s,-7.005269387223095,2.0561464540443204,12.901145736010534,17.34557617348906,-16.306482315063477,-3.639181137084961,12.583480834960938,7.428499698638916,15.609692573547363,1.4226393699645996,-0.34488862669255904,1.339677939765331,-0.11063103959086323,0.9160898923873901,0.3380918502807617,-0.2155773639678955
1732225660781,9i,4.645898765882418,1.0s : 0.3s,-7.005269387223095,2.1771600207021025,13.131768870020174,15.745486793003197,-16.384817123413086,-4.071061134338379,12.310617446899414,3.900224208831787,14.951017379760742,3.029139280319214,-0.25785517079870873,1.357621509133356,0.08188555872024235,0.945051908493042,0.25500720739364624,-0.204569473862648
1732225660791,9i,4.645898765882418,1.0s : 0.3s,-7.005269387223095,2.2805423848164748,13.632059503932432,13.367362157495238,-18.280742645263672,-3.9649786949157715,12.21259593963623,0.7407095432281494,12.628253936767578,4.320291996002197,-0.17570334189960163,1.3593486621021913,0.28217630926880594,0.9626750349998474,0.17480069398880005,-0.20664429664611816
1732225660801,9i,4.645898765882418,1.0s : 0.3s,-7.005269387223095,2.363926556884324,13.607011604586933,9.240720493224233,-15.066937446594238,-8.860453605651855,11.878438949584961,-1.0090172290802002,8.079416275024414,4.369877815246582,-0.09956549986170007,1.3390390434758106,0.5024923471280431,0.9684442281723022,0.0994010791182518,-0.22855065762996674
1732225660811,9i,4.645898765882418,1.0s : 0.3s,-7.005269387223095,2.4208309913520316,16.66989595721368,1.2791027757520952,-38.32041549682617,2.6255388259887695,6.079893589019775,-1.174956202507019,-0.16510099172592163,-0.4778320789337158,-0.03957721585119357,1.3058637925477825,0.6818081203378332,0.9643545150756836,0.03956688567996025,-0.26163914799690247
1732225660821,9i,4.645898765882418,1.0s : 0.3s,-7.005269387223095,2.462717792400949,15.942223471389713,10.12058876919262,-21.724668502807617,-9.857678413391113,-0.35914933681488037,3.2991485595703125,-9.50715160369873,1.0751763582229614,-0.10846894928179006,1.3101334423346518,1.0609933702448833,0.9605410695075989,0.10825637727975845,-0.25620654225349426
1732225660831,9i,4.645898765882418,1.0s : 0.3s,-7.005269387223095,2.536807954329435,16.845040298346703,17.37153143071099,-26.54734992980957,-10.581689834594727,3.9471335411071777,10.21419620513916,1.5303784608840942,13.967757225036621,-0.1550101116986339,1.2121970232162935,1.301689612676195,0.9251620769500732,0.1543900966644287,-0.3467549681663513
1732225660841,9i,4.645898765882418,1.0s : 0.3s,-7.005269387223095,2.622778412473988,15.56597951710299,11.80409470372514,-19.096092224121094,-6.596435546875,-6.444553852081299,8.763888359069824,7.759562969207764,-1.5231858491897583,-0.2466848615005508,1.1755724297216412,1.5124613821050183,0.8949713706970215,0.2441905289888382,-0.3733593821525574
1732225660851,9i,4.645898765882418,1.0s : 0.3s,-7.005269387223095,2.691091384928659,13.840988452207574,11.4570467234482,-11.621713638305664,-11.847790718078613,-3.78316330909729,-2.2332639694213867,5.214766979217529,9.95402717590332,-0.3523543007493648,1.1113944028363059,1.6369824650076557,0.8412507772445679,0.34510841965675354,-0.416170209646225
1732225660861,9i,4.645898765882418,1.0s : 0.3s,-7.005269387223095,2.763822329560006,11.98044775441087,12.074346067020127,-6.503423690795898,-12.075583457946777,-5.059723854064941,3.119680166244507,11.522758483886719,1.8120335340499878,-0.4250277912167425,1.0132673510646397,1.6938404643348983,0.773065984249115,0.41234609484672546,-0.48201632499694824
1732225660871,9i,4.645898765882418,1.0s : 0.3s,-7.005269387223095,2.827079419290273,11.591293834048946,4.722857062886494,-8.963274955749512,-14.24435806274414,-4.753664970397949,2.664012908935547,3.7860946655273438,-0.9348268508911133,-0.5107399856886795,0.900464580769344,1.7345511609502082,0.6836130023002625,0.48882293701171875,-0.5419644713401794
1732225660881,9i,4.645898765882418,1.0s : 0.3s,-7.005269387223095,2.881296768395759,11.697863150347407,4.413558353996709,-10.193283081054688,-14.281839370727539,-5.844765663146973,4.091017723083496,-1.3563114404678345,-0.9505212306976318,-0.6148257493567567,0.7809788987133823,1.7794496720419006,0.5750588774681091,0.576816201210022,-0.5801641941070557
1732225660891,9i,4.645898765882418,1.0s : 0.3s,-7.005269387223095,2.936001161250315,11.736398756102874,5.571381270090033,-9.852984428405762,-13.600625038146973,-6.540680885314941,5.234553813934326,-0.5023831725120544,1.8404746055603027,-0.7309671523386941,0.6556797191190589,1.8041379981745977,0.4539380371570587,0.6675900220870972,-0.590138852596283
1732225660901,9i,4.645898765882418,1.0s : 0.3s,-7.005269387223095,2.9878221148175537,11.504485423025981,4.292973873669441,-9.246281623840332,-11.221010208129883,-8.474289894104004,3.961582899093628,0.14661091566085815,1.6474194526672363,-0.8508973384270389,0.5215282473481431,1.7911522146570225,0.32847145199775696,0.7518723011016846,-0.5716594457626343
1732225660911,9i,4.645898765882418,1.0s : 0.3s,-7.005269387223095,3.0369025588690413,11.049559129270376,4.355806358789079,-7.650985240936279,-8.933825492858887,-10.548684120178223,2.9423019886016846,0.8240136504173279,3.104337215423584,-0.9688330823914082,0.35528843136253485,1.707988479320218,0.1969803273677826,0.8242254853248596,-0.5308967232704163
1732225660921,9i,4.645898765882418,1.0s : 0.3s,-7.005269387223095,3.0829982294608094,10.314544875625115,3.8737851486640436,-4.556422710418701,-7.057136058807373,-11.358437538146973,2.537074327468872,1.2753190994262695,2.634962320327759,-1.0563291294869397,0.12596071544825366,1.5322305810064096,0.06181788071990013,0.87055504322052,-0.48817282915115356
1732225660931,9i,4.645898765882418,1.0s : 0.3s,-7.005269387223095,3.1305187931564635,9.435963647780422,4.644092393343584,-1.1832748651504517,-5.172576427459717,-11.800114631652832,3.9124624729156494,1.1546313762664795,2.2196977138519287,-1.08224148627017,-0.15781419358522558,1.2772292735264874,-0.07376307249069214,0.883012056350708,-0.46351781487464905
1732225660941,9i,4.645898765882418,1.0s : 0.3s,-7.005269387223095,3.178825750140973,8.83111151765865,4.607765407490257,1.5363961458206177,-4.026258945465088,-12.666802406311035,4.001557350158691,0.8447027206420898,2.1226205825805664,-1.0417522214242845,-0.42360318943696423,1.0247694936178884,-0.20745934545993805,0.8632898926734924,-0.4600992500782013
1732225660951,9i,4.645898765882418,1.0s : 0.3s,-7.005269387223095,3.2284311464492252,8.669567598832357,4.903172101828177,3.4367284774780273,-4.7192487716674805,-12.796210289001465,4.354486465454102,0.5424032807350159,2.187542676925659,-0.9549503386338364,-0.6205022925510764,0.8435453673016229,-0.3358707129955292,0.8162850737571716,-0.46996772289276123
1732225660961,9i,4.645898765882418,1.0s : 0.3s,-7.005269387223095,3.2802810223716814,8.708938121006197,5.4181553218711,4.091026306152344,-5.531206130981445,-12.220808029174805,5.156711578369141,0.13709837198257446,1.6570868492126465,-0.8464515623114316,-0.7639586571887039,0.7268233462711933,-0.4584081768989563,0.7489337921142578,-0.47849804162979126
1732225660971,9i,4.645898765882418,1.0s : 0.3s,-7.005269387223095,3.332985973315864,8.801315996884899,5.34060896357727,5.1216278076171875,-6.1278791427612305,-11.602058410644531,5.01342248916626,-0.27551180124282837,1.8198330402374268,-0.7274836833425016,-0.8702893566008395,0.6596430290767277,-0.5709786415100098,0.6649924516677856,-0.4814237058162689
1732225660981,9i,4.645898765882418,1.0s : 0.3s,-7.005269387223095,3.3842768323796184,8.798255106245346,4.803399155567443,4.6776251792907715,-6.070655345916748,-10.946344375610352,4.465828895568848,-0.5335904359817505,1.6865043640136719,-0.6081942995173119,-0.955670623742332,0.6213577595684175,-0.670251190662384,0.5713865160942078,-0.47358331084251404
1732225660991,9i,4.645898765882418,1.0s : 0.3s,-7.005269387223095,3.4334016281269237,8.618041638183342,4.484168292528541,4.747838020324707,-5.647528171539307,-9.959610939025879,3.8049638271331787,-0.49122354388237,2.3213605880737305,-0.495124036582927,-1.0256803455985681,0.5995280559264815,-0.7523820400238037,0.4751408100128174,-0.4562484622001648
1732225661001,9i,4.645898765882418,1.0s : 0.3s,-7.005269387223095,3.479380097380175,8.369499979040086,4.0838154331799625,5.681045055389404,-5.7216715812683105,-8.740211486816406,3.1195902824401855,-0.4455265402793884,2.5975394248962402,-0.38826828908048117,-1.0825860593290415,0.5989193892197259,-0.817435622215271,0.37858617305755615,-0.43413305282592773
1732225661011,9i,4.645898765882418,1.0s : 0.3s,-7.005269387223095,3.5209861842610346,8.073084964706766,3.2498527328975317,5.581478595733643,-5.629480838775635,-7.90416145324707,2.789655923843384,-0.5572802424430847,1.5712419748306274,-0.2916684585576323,-1.1351677057501697,0.6150482623129804,-0.8683149814605713,0.2875506281852722,-0.40415826439857483
1732225661021,9i,4.645898765882418,1.0s : 0.3s,-7.005269387223095,3.5580802057119034,7.633616908923948,2.8622660882941,5.467049598693848,-5.1106977462768555,-6.673850059509277,2.4969375133514404,-0.7309945821762085,1.1931123733520508,-0.20917058487567236,-1.1828384381765227,0.6387547487905851,-0.9055069088935852,0.2076486349105835,-0.3700532913208008
1732225661031,9i,4.645898765882418,1.0s : 0.3s,-7.005269387223095,3.5911895997616807,7.128264378584382,2.547636051537589,5.991277694702148,-4.349795818328857,-5.398952007293701,2.028754234313965,-0.5005521774291992,1.4574131965637207,-0.13567258560177226,-1.2228876879627466,0.6707244605724656,-0.9314490556716919,0.13525675237178802,-0.3377995491027832
1732225661041,9i,4.645898765882418,1.0s : 0.3s,-7.005269387223095,3.621302661465687,6.730247727265972,2.246926048877388,6.6612091064453125,-3.556471586227417,-4.907698154449463,1.7548344135284424,0.1048773005604744,1.3993690013885498,-0.06642084333123109,-1.2569752760565382,0.7142777545506672,-0.9490636587142944,0.06637201458215714,-0.3080146312713623
1732225661051,9i,4.645898765882418,1.0s : 0.3s,-7.005269387223095,3.6503293547912525,6.453895044747634,2.454352930582453,7.2037553787231445,-2.924574136734009,-4.577342510223389,1.9264239072799683,0.5578661561012268,1.41475248336792,-0.000758015854076541,-1.2875244708655906,0.7666100638597354,-0.9601458311080933,0.0007580157835036516,-0.27949851751327515
