timestamp,club,max_speed,tempo,speed,l.speed,t.spped,acc,rotation.x,rotation.y,rotation.z,userAcceleration.x,userAcceleration.y,userAcceleration.z,pitch,roll,yaw,gravity.x,gravity.y,gravity.z
1727722847546,9i,9.231778084079744,0.9s : 0.3s,0.08236372387554208,0.0003235207189701585,0.08236308848623235,0.010516490205788973,-0.4653184711933136,-0.09642911702394485,0.07585403323173523,-0.004668235778808594,0.007132992148399353,0.006158292293548584,-0.2252040478623133,1.538079949925687,0.2180123620489071,0.9742270112037659,0.22330525517463684,-0.03188455477356911
1727722847556,9i,9.231778084079744,0.9s : 0.3s,0.14102072130866172,0.0005251758826719606,0.1410197434003746,0.04422916005026127,-0.4058246612548828,-0.07454472035169601,0.06215842068195343,0.017417550086975098,0.04032297432422638,-0.005187030881643295,-0.2246383253191112,1.538233399407352,0.22249643721467247,0.9743579030036926,0.22275379300117493,-0.031739164143800735
1727722847566,9i,9.231778084079744,0.9s : 0.3s,0.1611224337555994,0.0007628075516751304,0.16112062805229696,0.059941133488997385,-0.2993517518043518,-0.06461513042449951,0.05092654377222061,0.017011642456054688,0.05592794716358185,0.01325172558426857,-0.22420497434034067,1.5383712149482855,0.22617465814739587,0.9744586944580078,0.22233130037784576,-0.031608011573553085
1727722847576,9i,9.231778084079744,0.9s : 0.3s,0.16059136587353445,0.0013861120316338482,0.16058538378869716,0.08124332194279599,-0.22317680716514587,-0.05209747329354286,0.03768983483314514,0.007465004920959473,0.06957793235778809,0.041275445371866226,-0.22382055069954734,1.538396582021361,0.22881338735239334,0.9745448231697083,0.22195649147033691,-0.03158605843782425
1727722847586,9i,9.231778084079744,0.9s : 0.3s,0.188237728960735,0.0025705491195074917,0.18822017660580212,0.104363353631198,-0.19765281677246094,-0.13924995064735413,0.4380694627761841,0.02187657356262207,0.09465555846691132,0.038124144077301025,-0.22307749243001193,1.5382693461084869,0.23092949754469694,0.9747054576873779,0.22123190760612488,-0.03171541169285774
1727722847596,9i,9.231778084079744,0.9s : 0.3s,0.3823291655552378,0.004130422888426791,0.3823068537718455,0.10273480670371708,-0.22677262127399445,-0.20253819227218628,1.34663724899292,0.04262012243270874,0.07984346151351929,0.048610568046569824,-0.22291674780533385,1.538376397314438,0.23283461743809358,0.974744439125061,0.2210751324892044,-0.03161222115159035
1727722847606,9i,9.231778084079744,0.9s : 0.3s,0.43653483198261067,0.005681822056276404,0.43649785386895884,0.08950324546476333,-0.2375059574842453,-0.14489886164665222,0.795525312423706,-0.032248854637145996,0.0631447583436966,0.05462217330932617,-0.22401780154825585,1.5386661623027664,0.23476596578621098,0.974509596824646,0.2221488207578659,-0.031321931630373
1727722847616,9i,9.231778084079744,0.9s : 0.3s,0.32014051789966913,0.007218758294360661,0.3200591206789083,0.07924676484844542,-0.1307925581932068,-0.028999168425798416,0.01800720766186714,-0.02452385425567627,0.05320659279823303,0.05336374044418335,-0.223850479873377,1.5388157078007436,0.23653998133857923,0.9745513200759888,0.22198566794395447,-0.03117738477885723
1727722847626,9i,9.231778084079744,0.9s : 0.3s,0.22937886804008883,0.008755738751724335,0.22921169721954426,0.07515662503236538,-0.16458246111869812,0.004238769877701998,-0.06259489059448242,-0.01294708251953125,0.07062467932701111,0.02220463939011097,-0.22359209099665242,1.5390843848286846,0.23805632639831475,0.9746170043945312,0.2217337191104889,-0.03091736137866974
1727722847636,9i,9.231778084079744,0.9s : 0.3s,0.18982475033140195,0.01009860725037512,0.18955593889398917,0.04853669556017131,-0.21319980919361115,-0.004693649709224701,0.013196274638175964,-0.04839920997619629,0.0035238564014434814,0.00095379538834095,-0.22369410527231098,1.5395172521698626,0.24007705841752866,0.9746077060699463,0.22183319926261902,-0.030494771897792816
1727722847646,9i,9.231778084079744,0.9s : 0.3s,0.17011449016491917,0.011060155509439827,0.16975456613645887,0.0129883726450366,-0.23430563509464264,-0.004099764861166477,0.0073186783120036125,0.0013682842254638672,0.00785587728023529,-0.01025235652923584,-0.22372692585970602,1.5399774288163426,0.24231660597771965,0.9746143817901611,0.2218651920557022,-0.03004605509340763
1727722847656,9i,9.231778084079744,0.9s : 0.3s,0.16849809816269334,0.011900859597924352,0.16807729955373255,0.021180133414251224,-0.27142688632011414,-0.018616212531924248,-0.0032571337651461363,-0.0034617185592651367,0.010266408324241638,-0.01819932460784912,-0.22382118776046284,1.5404435248498438,0.2449349082770757,0.9746073484420776,0.22195710241794586,-0.02959115244448185
1727722847666,9i,9.231778084079744,0.9s : 0.3s,0.17890467467214874,0.012606004031552941,0.17845999910877466,0.03309765815187046,-0.33833375573158264,-0.025382505729794502,-0.021367961540818214,-0.00654757022857666,-0.010760381817817688,-0.030607163906097412,-0.2240091561213046,1.5409457690128683,0.24801781047527688,0.9745804071426392,0.2221403867006302,-0.029100412502884865
1727722847676,9i,9.231778084079744,0.9s : 0.3s,0.19850040502185395,0.013198459508221922,0.1980611306148935,0.03059919120543056,-0.3803556263446808,-0.052400853484869,-0.053937919437885284,-0.005915582180023193,-0.007173910737037659,-0.02915221080183983,-0.22450929666767197,1.5414066027238305,0.2517715781545363,0.9744823575019836,0.22262799739837646,-0.02864801697432995
1727722847686,9i,9.231778084079744,0.9s : 0.3s,0.2411595464675966,0.013692686484498666,0.24077050730788047,0.02229726151313896,-0.5097410678863525,-0.05249406397342682,-0.03250186890363693,0.0009865164756774902,-0.012903258204460144,-0.018157659098505974,-0.22501767574436765,1.5419897992076899,0.25622928190267447,0.9743857383728027,0.22312359511852264,-0.02807643637061119
1727722847696,9i,9.231778084079744,0.9s : 0.3s,0.3080864351211764,0.01389650300283904,0.30777286870347575,0.056527563715995544,-0.686199426651001,-0.09591202437877655,-0.04629172012209892,0.01003563404083252,-0.051898181438446045,0.020030733197927475,-0.22563719464085522,1.5425539987018346,0.2623304296747366,0.9742631912231445,0.22372744977474213,-0.027522780001163483
1727722847706,9i,9.231778084079744,0.9s : 0.3s,0.38244731339130456,0.013717554495110942,0.38220122477420243,0.06966112298635804,-0.8227426409721375,-0.09596236050128937,-0.008173895068466663,0.025077402591705322,-0.06466835737228394,0.006465252488851547,-0.22619934257819868,1.543380992373606,0.26991401381558017,0.9741597771644592,0.22427532076835632,-0.02671360969543457
1727722847716,9i,9.231778084079744,0.9s : 0.3s,0.4614770635264929,0.01340484088165087,0.46128233263585156,0.05489532585985053,-0.9499217867851257,-0.15635330975055695,-0.01636567898094654,0.007283508777618408,-0.05053974688053131,0.020153939723968506,-0.2265605035388828,1.5442229759174595,0.2790882187232663,0.9741007685661316,0.22462725639343262,-0.025891216471791267
1727722847726,9i,9.231778084079744,0.9s : 0.3s,0.514071542866568,0.012982170255846411,0.5139075932895542,0.06168503606152334,-0.9313273429870605,-0.1867184042930603,0.010694434866309166,0.02472543716430664,-0.05630066990852356,0.004891932010650635,-0.22681964822147638,1.544663329041903,0.2888032540018826,0.9740538597106934,0.22487977147102356,-0.0254607442766428
1727722847736,9i,9.231778084079744,0.9s : 0.3s,0.5614818220198028,0.01257822324041762,0.561340916697502,0.02748252865955074,-0.9112562537193298,-0.3210238516330719,0.5033473968505859,0.0032112598419189453,-0.018803060054779053,-0.019784390926361084,-0.22629596356512915,1.544810420978562,0.2981783710543056,0.974175214767456,0.22436946630477905,-0.025320524349808693
1727722847746,9i,9.231778084079744,0.9s : 0.3s,0.6965072807020712,0.011824545478902852,0.6964069013121648,0.11469184909732674,-0.8632906079292297,-0.4687909483909607,1.5690211057662964,-0.10506659746170044,-0.04529063403606415,-0.007999300956726074,-0.22632555744971605,1.545133727928688,0.30684066030275725,0.9741767048835754,0.22439831495285034,-0.025005396455526352
1727722847756,9i,9.231778084079744,0.9s : 0.3s,0.7074759324362021,0.01124780375897772,0.7073865152001932,0.05547386896088715,-0.6902671456336975,-0.3125200569629669,0.8196389675140381,0.0478784441947937,0.0280178040266037,8.588656783103943e-05,-0.2266490487313125,1.545353140705648,0.31403574543763974,0.9741095900535583,0.224713534116745,-0.024789800867438316
1727722847766,9i,9.231778084079744,0.9s : 0.3s,0.6087248241438514,0.011273566344802437,0.6086204221276444,0.10550858306361734,-0.5890089869499207,-0.14669299125671387,0.12069740146398544,0.09667152166366577,0.04198659956455231,0.004878878593444824,-0.2259998688798268,1.5451985289348944,0.32037071591054084,0.9742513298988342,0.2240809202194214,-0.024944137781858444
1727722847776,9i,9.231778084079744,0.9s : 0.3s,0.5191268366603207,0.011329533833541327,0.5190031928650015,0.008974481007568133,-0.525752067565918,-0.12373988330364227,-0.01724039390683174,0.006009399890899658,0.005018368363380432,0.004386844113469124,-0.22568280597741172,1.5451885971044856,0.326107501847928,0.9743220210075378,0.22377189993858337,-0.0249556303024292
1727722847786,9i,9.231778084079744,0.9s : 0.3s,0.4617549540253941,0.011447230808407607,0.46161303975712487,0.025324324636739528,-0.5081073045730591,-0.11093460023403168,0.030104219913482666,0.013806521892547607,0.016657352447509766,0.013161838054656982,-0.22548284423370463,1.5452355125429997,0.3313918103994453,0.9743679761886597,0.22357700765132904,-0.0249110646545887
1727722847796,9i,9.231778084079744,0.9s : 0.3s,0.4110664870781999,0.011592698934922954,0.41090298870927694,0.023364612709137943,-0.4369691014289856,-0.11872483044862747,0.02312770113348961,0.01209479570388794,-0.00453735888004303,0.019468780606985092,-0.22532660758845358,1.5451685949462173,0.33635736939257693,0.9744012951850891,0.2234247326850891,-0.02497716248035431
1727722847806,9i,9.231778084079744,0.9s : 0.3s,0.3581607646942295,0.011753397265921419,0.3579678631093365,0.031172929603541354,-0.3137182891368866,-0.10726018995046616,0.1116277426481247,0.015419602394104004,0.01996535062789917,-0.018313169479370117,-0.22501647487195908,1.5449054284754993,0.3402219832181207,0.9744638800621033,0.22312241792678833,-0.025235382840037346
1727722847816,9i,9.231778084079744,0.9s : 0.3s,0.3072878651069564,0.012010882031289668,0.3070530422497414,0.044430662047131954,-0.2148873209953308,-0.11025118827819824,0.1698933094739914,0.017878413200378418,0.03960685431957245,-0.00925976037979126,-0.2246998921380415,1.544448150621194,0.3429611713565058,0.9745227098464966,0.22281381487846375,-0.02568284049630165
1727722847826,9i,9.231778084079744,0.9s : 0.3s,0.25499524272815827,0.01241328419213001,0.2546929213573824,0.0641487530465316,-0.06513617932796478,-0.106215700507164,0.25287261605262756,0.009805440902709961,0.05927930772304535,-0.022469524294137955,-0.22447681499903224,1.543756163037574,0.34437864480103064,0.9745544791221619,0.22259633243083954,-0.02635853737592697
1727722847836,9i,9.231778084079744,0.9s : 0.3s,0.2242098952542267,0.013022617805709054,0.22383138420560628,0.08857112066297204,0.03353167697787285,-0.10202446579933167,0.32590922713279724,0.011733412742614746,0.0816153883934021,-0.03234345093369484,-0.22426054733637793,1.5428978795653887,0.3444595064413153,0.9745795726776123,0.2223854809999466,-0.027196312323212624
1727722847846,9i,9.231778084079744,0.9s : 0.3s,0.21777959487922402,0.013762265479054849,0.21734431668355847,0.07187351553536538,0.11931609362363815,-0.1258895844221115,0.39925456047058105,0.02483600378036499,0.06464795768260956,-0.01922541856765747,-0.2241036733509202,1.541807614269744,0.3436946275807267,0.97458416223526,0.22223253548145294,-0.02825985662639141
1727722847856,9i,9.231778084079744,0.9s : 0.3s,0.24120136023605582,0.014636089977183785,0.2407568920091455,0.07909061661621598,0.22222769260406494,-0.13045915961265564,0.4736071228981018,0.03749316930770874,0.0634608268737793,-0.028675971552729607,-0.2241005182986615,1.5404665975052494,0.34188157828855753,0.974545955657959,0.222229465842247,-0.029566781595349312
1727722847866,9i,9.231778084079744,0.9s : 0.3s,0.28806626444031536,0.01586910704497341,0.2876288305267622,0.1130840663914334,0.3129807710647583,-0.14290331304073334,0.5475101470947266,0.03314393758773804,0.1032455712556839,-0.03209108114242554,-0.22423616550342812,1.5389595590935692,0.3390678757096154,0.9744701385498047,0.2223617136478424,-0.03103446587920189
1727722847876,9i,9.231778084079744,0.9s : 0.3s,0.35106734331906353,0.01728918207208152,0.3506413605500407,0.10067287140221953,0.4196603298187256,-0.16410721838474274,0.62796550989151,0.033343613147735596,0.09339150786399841,-0.0173567496240139,-0.22440514131513944,1.5372259355821452,0.33531415726191277,0.9743772745132446,0.2225264608860016,-0.03272252157330513
1727722847886,9i,9.231778084079744,0.9s : 0.3s,0.4197770220567876,0.01903651466347227,0.4193451553986669,0.12759164545850415,0.5327163338661194,-0.18356934189796448,0.6819446086883545,0.0431709885597229,0.11320072412490845,-0.04001861810684204,-0.22471478933430608,1.5351744685593185,0.3304105026425881,0.9742393493652344,0.22282832860946655,-0.03471890091896057
1727722847896,9i,9.231778084079744,0.9s : 0.3s,0.4943251861884868,0.021408249198198146,0.4938613940839575,0.20093428048221149,0.6808578372001648,-0.2084578275680542,0.722428560256958,0.04915851354598999,0.17878244817256927,-0.0774264931678772,-0.22537281814219584,1.5327185016787517,0.3242297987047132,0.974004328250885,0.22346976399421692,-0.037105903029441833
1727722847906,9i,9.231778084079744,0.9s : 0.3s,0.5521204982742537,0.024248912505919772,0.5515877399443269,0.2001448077810545,0.7041621208190918,-0.17243723571300507,0.7343930602073669,0.04556089639663696,0.17453067004680634,-0.08672481775283813,-0.22605609887428518,1.5302426282743478,0.3169190498662079,0.973756730556488,0.22413571178913116,-0.039511099457740784
1727722847916,9i,9.231778084079744,0.9s : 0.3s,0.5715582151102587,0.026494050226117876,0.570943831355275,0.029593415219692634,0.5744455456733704,-0.2066154032945633,0.6862530708312988,0.014754831790924072,0.02477993071079254,0.006634771823883057,-0.2268869978862897,1.5280340407339204,0.31025114303796597,0.9734806418418884,0.22494539618492126,-0.041653651744127274
1727722847926,9i,9.231778084079744,0.9s : 0.3s,0.5882355514142444,0.02843709737020898,0.5875477814108206,0.05962926117066968,0.5681042671203613,-0.19390228390693665,0.7145965695381165,0.0348702073097229,0.04070395231246948,0.02613246440887451,-0.22791136869537643,1.525831957610606,0.30434062912213,0.9731559157371521,0.2259434014558792,-0.043786853551864624
1727722847936,9i,9.231778084079744,0.9s : 0.3s,0.6023113159946198,0.030377705892028515,0.6015447750250252,0.09668611821690061,0.6030408143997192,-0.2115294337272644,0.6969263553619385,0.07637417316436768,0.05674925446510315,-0.017167214304208755,-0.22874879068220427,1.5235912376470622,0.2983028730254452,0.9728660583496094,0.22675909101963043,-0.045958369970321655
1727722847946,9i,9.231778084079744,0.9s : 0.3s,0.6248648720513231,0.03228781773696109,0.6240301316038361,0.0961034553931596,0.6974719762802124,-0.18926993012428284,0.7071590423583984,0.0846206545829773,0.03911897540092468,0.02334362268447876,-0.22942902551870878,1.5212161725413096,0.2915539062729168,0.9725998640060425,0.22742155194282532,-0.04826120287179947
1727722847956,9i,9.231778084079744,0.9s : 0.3s,0.6457357003124939,0.03414503038433343,0.6448323127434914,0.08278281488881564,0.7720330357551575,-0.1574700027704239,0.6792565584182739,0.06532043218612671,0.03619454801082611,0.03572380542755127,-0.23001910548105867,1.5189443179588358,0.2839350188845505,0.9723535180091858,0.2279961258172989,-0.05046371743083
1727722847966,9i,9.231778084079744,0.9s : 0.3s,0.6808165972443744,0.03598656162591358,0.6798648442637353,0.10372253055592102,0.9310511946678162,-0.14126600325107574,0.6609193682670593,0.05594247579574585,0.056794196367263794,0.06635677814483643,-0.23066138239283296,1.5166360553606189,0.2751169147799397,0.9720879197120667,0.2286214381456375,-0.05270008742809296
1727722847976,9i,9.231778084079744,0.9s : 0.3s,0.7248611997973626,0.03804119561558913,0.7238622979599149,0.13529341897824718,1.0644277334213257,-0.1337244212627411,0.6408654451370239,0.08232402801513672,0.08645415306091309,0.06366115808486938,-0.23124458958125396,1.5140326944808422,0.2646720445334763,0.9718141555786133,0.22918915748596191,-0.055223025381565094
1727722847986,9i,9.231778084079744,0.9s : 0.3s,0.779048710136544,0.04001147517074267,0.7780205489703175,0.12011524403107494,1.1937159299850464,-0.13293799757957458,0.643924355506897,0.07597607374191284,0.031757861375808716,0.08744567632675171,-0.23166122985373996,1.5111416143405618,0.25290402824705005,0.9715550541877747,0.22959469258785248,-0.05802668631076813
1727722847996,9i,9.231778084079744,0.9s : 0.3s,0.8304910916158703,0.04185687277155759,0.8294356246599887,0.11192366564521936,1.2627357244491577,-0.13264308869838715,0.6452696323394775,0.07001793384552002,-0.010341867804527283,0.08670318126678467,-0.23167764662302703,1.5079946095941552,0.24007092833145374,0.97136390209198,0.22961066663265228,-0.06108364835381508
1727722848006,9i,9.231778084079744,0.9s : 0.3s,0.870867797590054,0.043350370656946705,0.8697881732026808,0.12052651161239858,1.2868115901947021,-0.13363592326641083,0.6364985108375549,0.046527206897735596,-0.03932568430900574,0.1039968729019165,-0.23143439846195074,1.5047879057507696,0.22691024705631174,0.9712187647819519,0.22937391698360443,-0.06420189142227173
1727722848016,9i,9.231778084079744,0.9s : 0.3s,0.9084666044257773,0.04446349404248742,0.9073778535177258,0.11788826460864543,1.3373440504074097,-0.1346379667520523,0.635039210319519,0.027680635452270508,-0.04261356592178345,0.10637438297271729,-0.2307991351834121,1.5014544079762349,0.2133693544616823,0.971144437789917,0.22875554859638214,-0.0674491599202156
1727722848026,9i,9.231778084079744,0.9s : 0.3s,0.9417953044881469,0.04549244170778363,0.9406959303108445,0.0861540512026417,1.3792946338653564,-0.12766927480697632,0.6271732449531555,0.01738077402114868,-0.028337568044662476,0.07948214560747147,-0.22981813512996327,1.4980048348755841,0.19934214145807963,0.971129298210144,0.22780044376850128,-0.0708150714635849
1727722848036,9i,9.231778084079744,0.9s : 0.3s,0.9689046981494066,0.04643355363900749,0.9677914233926886,0.07586304584378105,1.3929680585861206,-0.14243677258491516,0.635219931602478,0.014533698558807373,-0.03374113142490387,0.06637401133775711,-0.22850398746645725,1.49444618768413,0.18509253854729657,0.9711686968803406,0.22652065753936768,-0.07429327815771103
1727722848046,9i,9.231778084079744,0.9s : 0.3s,0.9703497034578213,0.04726913227938391,0.9691976971362634,0.07847020853590234,1.3287605047225952,-0.13144831359386444,0.5973790884017944,0.02867788076400757,-0.055071353912353516,0.04798227548599243,-0.2270926815677593,1.4908789261950595,0.1710893256070062,0.9712153077125549,0.22514580190181732,-0.07778266817331314
1727722848056,9i,9.231778084079744,0.9s : 0.3s,0.947727591697336,0.04784473046991662,0.9465191333674631,0.10114735554258648,1.1950007677078247,-0.12961842119693756,0.5730726718902588,0.03873109817504883,-0.08691589534282684,0.03429747372865677,-0.22569851780116146,1.4875564235270897,0.15803659520666513,0.9712634086608887,0.22378721833229065,-0.08103511482477188
1727722848066,9i,9.231778084079744,0.9s : 0.3s,0.8887670123179181,0.047867417781656874,0.8874770489986964,0.13842885771351765,0.9653977155685425,-0.12337676435709,0.5522928237915039,0.04808390140533447,-0.12142591178417206,0.04589373618364334,-0.22422162164613066,1.4846950209552872,0.14691163229212664,0.9713557362556458,0.22234754264354706,-0.08384228497743607
1727722848076,9i,9.231778084079744,0.9s : 0.3s,0.8042472699317218,0.04723453503120679,0.8028589975163842,0.19475533219764632,0.7352140545845032,-0.13579267263412476,0.5191453099250793,0.046351850032806396,-0.18277780711650848,0.048717744648456573,-0.22273128873897322,1.4823516534661478,0.13824867283388254,0.9714856147766113,0.22089426219463348,-0.08614747226238251
1727722848086,9i,9.231778084079744,0.9s : 0.3s,0.7110907086097322,0.04624273134977023,0.7095855168113312,0.1805710579180074,0.5456262826919556,-0.12669213116168976,0.49939078092575073,0.04940885305404663,-0.17275682091712952,0.017881639301776886,-0.22123372574210476,1.4804482135264267,0.13175741044396583,0.9716482162475586,0.21943344175815582,-0.08802622556686401
1727722848096,9i,9.231778084079744,0.9s : 0.3s,0.6226288455063209,0.04531200947340459,0.6209778587470057,0.14843520688370804,0.4150153696537018,-0.13543158769607544,0.46841371059417725,0.04198950529098511,-0.14219047129154205,-0.007194578647613525,-0.21974511938998903,1.4788989654540825,0.1269622941005716,0.9718350172042847,0.21798087656497955,-0.0895613357424736
1727722848106,9i,9.231778084079744,0.9s : 0.3s,0.5373558945880954,0.0444633730091734,0.5355131799584576,0.12172276512244895,0.2896188497543335,-0.11831626296043396,0.4265264570713043,0.021187186241149902,-0.11800339818000793,-0.02104121446609497,-0.21833628769218005,1.4776007330082004,0.12282792912877159,0.9720226526260376,0.21660570800304413,-0.09085141122341156
1727722848116,9i,9.231778084079744,0.9s : 0.3s,0.45841727018574596,0.043668059940380255,0.45633265732971007,0.11835572000475267,0.17289422452449799,-0.11218642443418503,0.39395666122436523,0.00010138750076293945,-0.1157333105802536,-0.024776339530944824,-0.21708960974438202,1.4766500630283126,0.12000307467338321,0.9722039103507996,0.2153884619474411,-0.0918007493019104
1727722848126,9i,9.231778084079744,0.9s : 0.3s,0.3882303434276989,0.042885581354737405,0.3858544109762842,0.0853494783096684,0.10518575459718704,-0.11110305041074753,0.3324013948440552,0.008380651473999023,-0.07777050137519836,-0.03414743393659592,-0.2160126373385044,1.475874379270563,0.11814783759987031,0.9723626375198364,0.21433664858341217,-0.0925767719745636
1727722848136,9i,9.231778084079744,0.9s : 0.3s,0.33763189498965807,0.04215146298436284,0.3349903740148146,0.0655986886281743,0.11991117149591446,-0.11407007277011871,0.29459384083747864,-0.0024737119674682617,-0.0318712443113327,-0.05728256702423096,-0.21499652218753046,1.475082583068744,0.11653519327798544,0.9725054502487183,0.2133440375328064,-0.09336742758750916
1727722848146,9i,9.231778084079744,0.9s : 0.3s,0.2964241190270504,0.04142746962472123,0.293514945277844,0.04618859293639998,0.11860862374305725,-0.10373354703187943,0.2549271285533905,-0.020550906658172607,-0.01745876669883728,-0.03749983757734299,-0.2140511364123467,1.4742006241616636,0.11483094043754659,0.9726229906082153,0.21242031455039978,-0.09424450993537903
1727722848156,9i,9.231778084079744,0.9s : 0.3s,0.25824895484969246,0.0407784288368082,0.25500910262686677,0.027300195045712235,0.09475801885128021,-0.10025949776172638,0.21003897488117218,-0.023226439952850342,-0.0023016929626464844,-0.01416105031967163,-0.21320277245958244,1.473331703928955,0.11337159958990435,0.9727198481559753,0.2115912288427353,-0.09510711580514908
1727722848166,9i,9.231778084079744,0.9s : 0.3s,0.22552728680426506,0.04017042330701168,0.2219209187630331,0.03370391416134416,0.07089343667030334,-0.10373279452323914,0.18308459222316742,-0.025558531284332275,0.016804993152618408,-0.014153003692626953,-0.21241949277647423,1.472540089640746,0.11225423162296606,0.9728088974952698,0.2108256220817566,-0.09589333832263947
1727722848176,9i,9.231778084079744,0.9s : 0.3s,0.19332461961182845,0.03958900830776262,0.18922769080995008,0.03450490285215944,0.004318399354815483,-0.08179838210344315,0.16661806404590607,-0.02536100149154663,0.01445472240447998,-0.01839752495288849,-0.21135860426326483,1.4718281301256704,0.11146015084219368,0.9729624390602112,0.2097884714603424,-0.09660796076059341
1727722848186,9i,9.231778084079744,0.9s : 0.3s,0.15976283518348466,0.0390331497177332,0.15492119522188794,0.023654247323716435,-0.06526681035757065,-0.07640974223613739,0.11997118592262268,-0.023124992847442627,-0.0016831457614898682,0.004682429134845734,-0.2106190818953465,1.4712547953086947,0.11166504306421338,0.9730608463287354,0.20906534790992737,-0.09718115627765656
1727722848196,9i,9.231778084079744,0.9s : 0.3s,0.13293559089529391,0.038505096450512276,0.1272369005989131,0.01853772923811395,-0.07227864116430283,-0.0704200267791748,0.08578285574913025,-0.018315911293029785,0.0017146319150924683,-0.0022879764437675476,-0.2099532040961703,1.4707486099894107,0.11224593199202569,0.9731498956680298,0.20841413736343384,-0.09768757969141006
1727722848206,9i,9.231778084079744,0.9s : 0.3s,0.1144198935823408,0.038002963933747344,0.10792444940626053,0.019736697059910466,-0.09236686676740646,-0.07096437364816666,0.06827550381422043,-0.019184589385986328,0.004635021090507507,-7.294118404388428e-05,-0.2092918898646387,1.4702741332477796,0.11298359661862395,0.9732402563095093,0.2077672928571701,-0.09816310554742813
1727722848216,9i,9.231778084079744,0.9s : 0.3s,0.10250325446052913,0.03758274899280324,0.095364847575739,0.03459561969922605,-0.08342023938894272,-0.06751681864261627,0.056874845176935196,-0.00023740530014038086,0.03427557647228241,-0.004688858985900879,-0.20875342551538958,1.4698076821304173,0.11387660227228166,0.9733056426048279,0.20724055171012878,-0.09862834215164185
1727722848226,9i,9.231778084079744,0.9s : 0.3s,0.09281800402815654,0.037196344365049955,0.08503889602792067,0.0416389507823084,-0.051992278546094894,-0.05624126270413399,0.05755847692489624,-0.009699821472167969,0.02989526093006134,-0.02731280028820038,-0.20823978416058803,1.4693747868582407,0.11442541237302303,0.9733685255050659,0.20673802495002747,-0.09906042367219925
1727722848236,9i,9.231778084079744,0.9s : 0.3s,0.08945743540368985,0.03684821595776022,0.08151589863171238,0.03762840970974252,-0.07506777346134186,-0.0502827949821949,0.04813721403479576,-0.0012424588203430176,0.02306327223777771,-0.029705874621868134,-0.20778347984081605,1.469005727985167,0.1149335963754215,0.9734256863594055,0.2062915712594986,-0.09942922741174698
1727722848246,9i,9.231778084079744,0.9s : 0.3s,0.09225289673293345,0.036523085650982924,0.0847151767403471,0.012819349482855546,-0.16782113909721375,-0.04833602532744408,0.03487813472747803,-2.2411346435546875e-05,-0.006498187780380249,-0.011050283908843994,-0.20750812051604534,1.4687512779906404,0.11596035899745259,0.9734569191932678,0.20602211356163025,-0.09968270361423492
1727722848256,9i,9.231778084079744,0.9s : 0.3s,0.11371838521024838,0.036238084264334024,0.10778994565207585,0.007699526878232387,-0.2683231234550476,-0.05208056420087814,0.021595187485218048,0.004931628704071045,-0.005529060959815979,0.002095527946949005,-0.20751569950835957,1.468664496597583,0.11804517132536727,0.9734466075897217,0.20602953433990479,-0.09976701438426971
1727722848266,9i,9.231778084079744,0.9s : 0.3s,0.14782429194952273,0.035998497533156135,0.1433740892411634,0.010522371570770827,-0.3465351164340973,-0.05667371675372124,0.018000449985265732,0.009890973567962646,-0.001963093876838684,-0.0030058622360229492,-0.20766076561912186,1.4688075550237327,0.12106798252045439,0.9734311699867249,0.20617148280143738,-0.09962471574544907
1727722848276,9i,9.231778084079744,0.9s : 0.3s,0.17201555277935385,0.03579549169251325,0.16824991284537977,0.009480615792328015,-0.33602374792099,-0.06494802236557007,0.004490600898861885,0.007962226867675781,-0.0011775493621826172,-0.005009829998016357,-0.2079807390343226,1.4689155800285731,0.12463292130823007,0.9733762741088867,0.2064845710992813,-0.09951284527778625
1727722848286,9i,9.231778084079744,0.9s : 0.3s,0.1728616565982715,0.03569299690350101,0.16913651969325075,0.042210490505456055,-0.2613300681114197,-0.05809517949819565,-0.01323406770825386,0.010554134845733643,0.03256455063819885,-0.02469586580991745,-0.2084123724467302,1.4689085626308882,0.1274867023384169,0.9732867479324341,0.20690688490867615,-0.09951059520244598
1727722848296,9i,9.231778084079744,0.9s : 0.3s,0.15976555115408803,0.03567932561694501,0.15573059127573338,0.05450543074428281,-0.18004478514194489,-0.05490914732217789,-0.022769516333937645,-0.0010810494422912598,0.044357120990753174,-0.03165626525878906,-0.20917918839050964,1.4687376014938047,0.12953577026122998,0.9731117486953735,0.20765705406665802,-0.09966080635786057
1727722848306,9i,9.231778084079744,0.9s : 0.3s,0.1472402572454868,0.03570766273745046,0.14284486751558706,0.04622567086100021,-0.16092941164970398,-0.05205024406313896,-0.025101114064455032,-0.00016069412231445312,0.04116351902484894,-0.02103215456008911,-0.2099013933755351,1.4682001983674404,0.13097741808620098,0.9729085564613342,0.20836345851421356,-0.10016835480928421
1727722848316,9i,9.231778084079744,0.9s : 0.3s,0.13335279497135025,0.03578165821330938,0.12846260491745012,0.03473965092348386,-0.13280309736728668,-0.04854077845811844,-0.026961099356412888,0.004568934440612793,0.03436748683452606,-0.0022009164094924927,-0.2105003214117799,1.4676203796770086,0.1322090953957771,0.9727261066436768,0.20894920825958252,-0.10071958601474762
1727722848326,9i,9.231778084079744,0.9s : 0.3s,0.11392343404790503,0.03591265786287715,0.10811489180724039,0.04463118650772299,-0.07923442125320435,-0.043828047811985016,-0.0289629977196455,0.006056308746337891,0.04412192106246948,0.0029189065098762512,-0.2108081983829854,1.4672757577038575,0.13312050113945242,0.9726271629333496,0.20925027132034302,-0.10104813426733017
1727722848336,9i,9.231778084079744,0.9s : 0.3s,0.0838141230103606,0.036242024263426625,0.07557329484206081,0.06305260889242373,0.018488679081201553,-0.03818196803331375,-0.021665003150701523,0.008646845817565918,0.061340972781181335,0.011753663420677185,-0.21100379719964835,1.4669577401652614,0.13320877563824385,0.9725544452667236,0.20944154262542725,-0.101353220641613
1727722848346,9i,9.231778084079744,0.9s : 0.3s,0.06576033616168928,0.03663307307486803,0.05461171824059152,0.05423828831951972,0.07356738299131393,-0.036031730473041534,-0.011014489457011223,0.00875157117843628,0.04911218583583832,0.021288380026817322,-0.2110572347308906,1.4664878948469127,0.13258380205973175,0.9724954962730408,0.20949378609657288,-0.10180898755788803
1727722848356,9i,9.231778084079744,0.9s : 0.3s,0.05519644175537026,0.03705600792539367,0.040908427726901744,0.042625297386813796,0.10055958479642868,-0.03517765551805496,0.0016254058573395014,0.009725987911224365,0.023885756731033325,0.03393805772066116,-0.21098292134715643,1.465908878217848,0.13151290719746886,0.9724516868591309,0.20942112803459167,-0.10237367451190948
1727722848366,9i,9.231778084079744,0.9s : 0.3s,0.04662767643400586,0.03748711174038341,0.027728264695042727,0.03173771539292138,0.12470712512731552,-0.02926308661699295,-0.0028079249896109104,0.006590425968170166,0.014757275581359863,0.027314312756061554,-0.21106474680827184,1.465108197706892,0.13020905817989065,0.9723524451255798,0.20950113236904144,-0.10315045714378357
1727722848376,9i,9.231778084079744,0.9s : 0.3s,0.057626252526767736,0.03788263003347835,0.043424547459074446,0.023826010077283993,0.16509197652339935,-0.016243023797869682,0.0011423749383538961,-0.011465907096862793,0.011958286166191101,0.017123408615589142,-0.21127441243571426,1.4642539326627506,0.12852527810860634,0.9722203016281128,0.2097061425447464,-0.10397639870643616
1727722848386,9i,9.231778084079744,0.9s : 0.3s,0.08060111653659965,0.03824329724231517,0.07095061805919978,0.01834221920776508,0.2093004435300827,-0.019263049587607384,0.0029826192185282707,-0.00913095474243164,0.007283911108970642,0.014142394065856934,-0.21140456771119198,1.463487579494714,0.12639348189446906,0.9721131920814514,0.20983339846134186,-0.10471850633621216
1727722848396,9i,9.231778084079744,0.9s : 0.3s,0.10765098353551592,0.03857914170754225,0.10050066706879758,0.01048228546153843,0.2547074556350708,-0.017008550465106964,0.004465434234589338,2.4616718292236328e-05,0.0005986988544464111,0.010465145111083984,-0.21137524859368004,1.4628445615749892,0.12387129858809533,0.9720517992973328,0.2098047435283661,-0.10534423589706421
1727722848406,9i,9.231778084079744,0.9s : 0.3s,0.13754942180826998,0.03886939380508301,0.13194322136818834,0.008036495260463215,0.3069400489330292,-0.013120336458086967,0.004572759382426739,-0.004679501056671143,-0.006531178951263428,0.00017671287059783936,-0.21137939560038632,1.4621735596443874,0.1208438629176708,0.971980094909668,0.20980879664421082,-0.10599637031555176
1727722848416,9i,9.231778084079744,0.9s : 0.3s,0.1632249581692943,0.039111462132513757,0.1584698094250915,0.011453111597283941,0.3286718428134918,-0.01071554608643055,0.010599525645375252,-0.005671143531799316,-0.0072449445724487305,-0.006820753216743469,-0.21143834526937083,1.4615690876288856,0.11746587379646463,0.9719035625457764,0.20986643433570862,-0.10658254474401474
1727722848426,9i,9.231778084079744,0.9s : 0.3s,0.17503149694393533,0.03929407519302449,0.17056377275717072,0.023731630281585304,0.29632988572120667,-0.003068012185394764,0.016374856233596802,-0.004157662391662598,-0.023122772574424744,-0.003352835774421692,-0.21127555942326606,1.4610819154163341,0.11420620703646363,0.9718854427337646,0.20970726013183594,-0.10705975443124771
1727722848436,9i,9.231778084079744,0.9s : 0.3s,0.17339890273889108,0.03932312772423679,0.1688812337029629,0.043094252508914056,0.2319909781217575,0.004400334786623716,0.019542520865797997,-0.007223188877105713,-0.04244975745677948,0.0017199516296386719,-0.21092618387274864,1.460816245785886,0.11145186310686037,0.9719296097755432,0.20936565101146698,-0.1073259711265564
1727722848446,9i,9.231778084079744,0.9s : 0.3s,0.16464255593138602,0.03914308237564244,0.1599218256703982,0.043141757457953143,0.20633168518543243,-0.0024674248415976763,0.024114103987812996,-0.011226892471313477,-0.04160962998867035,0.0019511058926582336,-0.21053517478156825,1.460540549343997,0.10914861806582686,0.9719812870025635,0.20898328721523285,-0.10760292410850525
1727722848456,9i,9.231778084079744,0.9s : 0.3s,0.15180981554947545,0.038943437593573826,0.14672978145407697,0.027983423972066098,0.17094053328037262,-0.008332460187375546,0.029332999140024185,-0.0005170106887817383,-0.025547534227371216,-0.01140737533569336,-0.2101194247862823,1.4601809016134393,0.10713079139079028,0.9720288515090942,0.20857669413089752,-0.10796207934617996
1727722848466,9i,9.231778084079744,0.9s : 0.3s,0.1322667296407611,0.03869993711626522,0.12647846708851002,0.0372413602672635,0.11540590226650238,-0.012435859069228172,0.02803870290517807,0.00013434886932373047,-0.03623834252357483,-0.008583903312683105,-0.20970807515481416,1.459860365679455,0.10561824571281789,0.9720793962478638,0.20817437767982483,-0.108283132314682
1727722848476,9i,9.231778084079744,0.9s : 0.3s,0.11491292433543118,0.03845099378470681,0.10828897107410787,0.019629932798238832,0.09587614238262177,-0.01438484899699688,0.018669169396162033,-0.0031371116638183594,-0.018047064542770386,-0.0070566460490226746,-0.20937761406663005,1.459568547006309,0.10450672465393979,0.9721159934997559,0.20785114169120789,-0.10857442021369934
1727722848486,9i,9.231778084079744,0.9s : 0.3s,0.11381908932380756,0.038204735666064936,0.10721559246297614,0.024071796065551338,0.1422489732503891,-0.015003502368927002,0.0279255211353302,-0.014307558536529541,0.00933082401752472,-0.01696115732192993,-0.20901514755867034,1.459170642628979,0.10335669967247722,0.972147524356842,0.20749658346176147,-0.10896960645914078
1727722848496,9i,9.231778084079744,0.9s : 0.3s,0.11866529786775128,0.03795517592660812,0.1124315682467445,0.02224001398563634,0.18940582871437073,-0.019327053800225258,0.03254697099328041,-0.016094088554382324,0.0065114498138427734,-0.013899624347686768,-0.20849684450314057,1.4586236108484223,0.10167523338755648,0.9721945524215698,0.20698952674865723,-0.10951341688632965
1727722848506,9i,9.231778084079744,0.9s : 0.3s,0.138113247411408,0.037708814024969825,0.13286577608758038,0.010305269389490227,0.26417219638824463,-0.032499048858881,0.040153224021196365,-0.009189248085021973,-0.004655629396438599,0.0002853274345397949,-0.20769908914860946,1.4578951728766876,0.09945125455628451,0.9722782969474792,0.2062089890241623,-0.110240139067173
1727722848516,9i,9.231778084079744,0.9s : 0.3s,0.17763731434508392,0.03751796150057753,0.17363011839129563,0.03294157967810829,0.3959077298641205,-0.03772962838411331,0.04762914776802063,-0.003084242343902588,0.03151308000087738,-0.009086303412914276,-0.2065553496775733,1.4568739743092658,0.09614170381220674,0.9723987579345703,0.20508968830108643,-0.11125969141721725
1727722848526,9i,9.231778084079744,0.9s : 0.3s,0.22039537453897376,0.03740237148962843,0.21719848923306614,0.03896196324951227,0.4711146056652069,-0.03595969080924988,0.05143587291240692,-0.012331485748291016,0.03665398061275482,-0.004738643765449524,-0.2052785131103606,1.4556504995820763,0.09176268601194403,0.9725214242935181,0.20383983850479126,-0.1124793291091919
1727722848536,9i,9.231778084079744,0.9s : 0.3s,0.25946343816790157,0.03730253474920762,0.256767982130157,0.022424376293464374,0.515201210975647,-0.038902971893548965,0.06074638292193413,-0.011346042156219482,0.015608295798301697,0.011423707008361816,-0.20397332276873148,1.4541881803777505,0.08680002863769098,0.9726192355155945,0.2025618702173233,-0.11393219232559204
1727722848546,9i,9.231778084079744,0.9s : 0.3s,0.2960742103448042,0.0371965548080907,0.29372836829579135,0.019524061584332095,0.5612059831619263,-0.052988965064287186,0.05445093661546707,-0.014260530471801758,0.01076553761959076,-0.007869526743888855,-0.2025302455013703,1.4525980387716828,0.08142670017899542,0.972726047039032,0.20114849507808685,-0.11551298946142197
1727722848556,9i,9.231778084079744,0.9s : 0.3s,0.33231592994914133,0.03706830563374209,0.3302420597310496,0.038348843547753454,0.6136789917945862,-0.058060113340616226,0.05785941705107689,-0.020796895027160645,0.021536171436309814,-0.02396489679813385,-0.20127084426301833,1.4508849907335386,0.07553124840672872,0.9727776050567627,0.19991467893123627,-0.11720937490463257
1727722848566,9i,9.231778084079744,0.9s : 0.3s,0.3622770403510003,0.03692373215729391,0.36039047152922443,0.05377999885689758,0.6372567415237427,-0.06706186383962631,0.04268232733011246,-0.025162041187286377,0.03388647735118866,-0.033329665660858154,-0.20000346806017477,1.4490297725420223,0.06923237360796265,0.9728091359138489,0.19867272675037384,-0.11904456466436386
1727722848576,9i,9.231778084079744,0.9s : 0.3s,0.3940708971717775,0.03667322969572672,0.3923607348110334,0.06265333452313109,0.692110538482666,-0.07194347679615021,0.02819143608212471,-0.039306581020355225,0.025643765926361084,-0.041506990790367126,-0.19885449594950094,1.447017917949354,0.0626007837497101,0.972793459892273,0.19754652678966522,-0.1210295557975769
1727722848586,9i,9.231778084079744,0.9s : 0.3s,0.4283026308040009,0.036469216212644096,0.4267471614697205,0.08588956293226357,0.7522140741348267,-0.07055490463972092,0.02380281314253807,-0.03285181522369385,0.052759140729904175,-0.05928109586238861,-0.19768670625774057,1.4448959367139533,0.05531644083733054,0.9727626442909241,0.19640162587165833,-0.12312241643667221
1727722848596,9i,9.231778084079744,0.9s : 0.3s,0.4614704668586918,0.036337157565458085,0.460037610161215,0.07717519921841287,0.7962358593940735,-0.09046337008476257,0.020336443558335304,-0.021765828132629395,0.04726554453372955,-0.05699323117733002,-0.19648903510596621,1.442590186645759,0.04750357877186574,0.9727087616920471,0.19522713124752045,-0.1253950297832489
1727722848606,9i,9.231778084079744,0.9s : 0.3s,0.4831337742837699,0.03623486715396815,0.48177305679750815,0.06993824894996582,0.7883630394935608,-0.08996642380952835,0.01748313196003437,-0.021998286247253418,0.026352763175964355,-0.06093411147594452,-0.195284024496041,1.4401782873739897,0.03949044718193858,0.9726360440254211,0.19404517114162445,-0.1277712881565094
1727722848616,9i,9.231778084079744,0.9s : 0.3s,0.4862735718860576,0.03612695253544853,0.4849297165727486,0.05859524349414113,0.7384160757064819,-0.09983543306589127,0.015455568209290504,-0.02793741226196289,0.004580140113830566,-0.05130229890346527,-0.19411589771492793,1.4377577747462946,0.03177384215331082,0.9725479483604431,0.19289910793304443,-0.13015516102313995
1727722848626,9i,9.231778084079744,0.9s : 0.3s,0.48443444559489324,0.03603660721644102,0.48309222206444136,0.04305747855611549,0.6918030381202698,-0.10755780339241028,0.023953180760145187,-0.011346697807312012,-0.001984134316444397,-0.04148809611797333,-0.19298384091662807,1.435384271366088,0.024592278620001292,0.9724520444869995,0.1917881965637207,-0.1324925273656845
1727722848636,9i,9.231778084079744,0.9s : 0.3s,0.4736471829508079,0.035924462274484224,0.4722828463193695,0.03592110228980055,0.657457172870636,-0.10429458320140839,0.036379389464855194,-0.015645742416381836,-0.02356189489364624,-0.0221443772315979,-0.19177318511032554,1.4330674507411278,0.01783032386654431,0.9723718166351318,0.19059987366199493,-0.13477696478366852
1727722848646,9i,9.231778084079744,0.9s : 0.3s,0.4612876237306132,0.03574627985615776,0.45990050585260395,0.05691537607177463,0.6310657858848572,-0.11399141699075699,0.04895377159118652,-0.017719805240631104,-0.048415690660476685,-0.024109944701194763,-0.19044927579537604,1.4307778166790242,0.01141757166028374,0.9723095893859863,0.1893000602722168,-0.13703806698322296
1727722848656,9i,9.231778084079744,0.9s : 0.3s,0.4614385887517962,0.03553271553022658,0.4600684702479592,0.05327002750829139,0.6753392219543457,-0.12419745326042175,0.04939745366573334,-0.008980333805084229,-0.039130836725234985,-0.035011813044548035,-0.18905878544374452,1.4283748209477667,0.004941473942274071,0.9722371697425842,0.1879345327615738,-0.13941136002540588
1727722848666,9i,9.231778084079744,0.9s : 0.3s,0.4622727032061273,0.03534073594300716,0.460919824386527,0.05231547273663534,0.6864206194877625,-0.11988126486539841,0.04965471476316452,-0.007244110107421875,-0.007121339440345764,-0.05131976306438446,-0.1875866244620441,1.4259161037712593,-0.0018870733496573696,0.9721640944480896,0.18648840487003326,-0.14184117317199707
1727722848676,9i,9.231778084079744,0.9s : 0.3s,0.4633908475182773,0.03511565829484084,0.46205840334986586,0.05076824901927795,0.6890710592269897,-0.13475315272808075,0.06045243889093399,-0.005397796630859375,-0.04228423535823822,-0.02757394313812256,-0.18604049272332338,1.4233973614177695,-0.008684823694271381,0.9720878601074219,0.18496917188167572,-0.14433154463768005
1727722848686,9i,9.231778084079744,0.9s : 0.3s,0.46652227592779444,0.03486390366154294,0.46521773628950114,0.06201898678264707,0.7003412842750549,-0.13336431980133057,0.06713750213384628,0.014514625072479248,-0.05655689537525177,-0.02090449631214142,-0.18438522450785838,1.4208052746312616,-0.01559410279933495,0.9720119833946228,0.18334221839904785,-0.1468963474035263
1727722848696,9i,9.231778084079744,0.9s : 0.3s,0.4673427193113274,0.03460846508730524,0.4660595149094233,0.0488751025990708,0.6874904632568359,-0.14797592163085938,0.07462045550346375,0.014359354972839355,-0.043560534715652466,-0.01688385009765625,-0.1826357107815464,1.4181782061203794,-0.022444715537869267,0.9719383120536804,0.18162207305431366,-0.14949791133403778
1727722848706,9i,9.231778084079744,0.9s : 0.3s,0.4678657591751765,0.03436698374444348,0.4666018420847408,0.04110825087675684,0.6827226281166077,-0.15179677307605743,0.08233723044395447,0.016954481601715088,-0.03446882963180542,-0.014640137553215027,-0.18079207833656114,1.4154825719698245,-0.029193146292394483,0.9718607664108276,0.17980879545211792,-0.1521688848733902
1727722848716,9i,9.231778084079744,0.9s : 0.3s,0.4748987593763089,0.034132714964932,0.4736705494605718,0.034392254085168265,0.7122564315795898,-0.15673741698265076,0.07834258675575256,0.006582379341125488,-0.02834835648536682,-0.018326759338378906,-0.17894478303590056,1.4127346318488183,-0.036019340212994425,0.9717654585838318,0.17799130082130432,-0.15489095449447632
1727722848726,9i,9.231778084079744,0.9s : 0.3s,0.4919627226167757,0.03393253592217956,0.4907910996038952,0.030532729243521014,0.7701271772384644,-0.1647854894399643,0.07471536099910736,0.00025147199630737305,-0.00767892599105835,-0.02955026924610138,-0.17698218329545984,1.4098477639375875,-0.0433195426561801,0.9716572165489197,0.17605970799922943,-0.15775135159492493
1727722848736,9i,9.231778084079744,0.9s : 0.3s,0.5141178743041047,0.03375870276860674,0.5130083222193886,0.0323726079881494,0.8219572901725769,-0.1670411080121994,0.07052041590213776,-0.005840718746185303,-0.005948618054389954,-0.0312807559967041,-0.17497674772599675,1.4068345003303955,-0.05115439097744565,0.9715237617492676,0.17408524453639984,-0.16073577105998993
1727722848746,9i,9.231778084079744,0.9s : 0.3s,0.5444182259311073,0.033611398360263396,0.5433796818305244,0.019405137485030442,0.8984377384185791,-0.16173581779003143,0.0683363527059555,-0.00300675630569458,-0.00462716817855835,-0.018603980541229248,-0.1728913959911814,1.4037261925869169,-0.05962952496356132,0.9713752865791321,0.17203135788440704,-0.16381479799747467
1727722848756,9i,9.231778084079744,0.9s : 0.3s,0.5886311034521633,0.03350504089159204,0.5876767718620195,0.017350762709927248,1.0154757499694824,-0.16000445187091827,0.06714709103107452,-0.004661262035369873,0.009135127067565918,-0.013995394110679626,-0.1706159794264235,1.400525396427125,-0.06909506827209944,0.9712291955947876,0.1697894185781479,-0.1669890135526657
1727722848766,9i,9.231778084079744,0.9s : 0.3s,0.6448269616129836,0.0334541209526389,0.6439585640507614,0.023447085931123914,1.1420373916625977,-0.16535846889019012,0.0659601166844368,-0.0026543140411376953,0.020452022552490234,-0.011155053973197937,-0.16811338702152975,1.3971093324404391,-0.0797708062250002,0.9710685610771179,0.16732263565063477,-0.17037871479988098
1727722848776,9i,9.231778084079744,0.9s : 0.3s,0.7116325221163027,0.03347701509660964,0.7108446637584273,0.035723138116167986,1.2809518575668335,-0.1648591309785843,0.05485127866268158,0.0003618597984313965,0.03184051811695099,-0.016192376613616943,-0.16540004289519358,1.39349934888461,-0.09177744938027256,0.9708905816078186,0.1646469235420227,-0.17396259307861328
1727722848786,9i,9.231778084079744,0.9s : 0.3s,0.7821244225966109,0.033536462014605896,0.7814050922137792,0.030398613934198626,1.398586630821228,-0.17905910313129425,0.03716282546520233,-0.010891199111938477,0.024593964219093323,-0.01416313648223877,-0.16255286238062625,1.389639628725235,-0.10503741039045175,0.9706690311431885,0.16183793544769287,-0.17779238522052765
1727722848796,9i,9.231778084079744,0.9s : 0.3s,0.8586531150636254,0.0336507930126011,0.8579934709181012,0.036970066727913836,1.5348241329193115,-0.1791190207004547,0.030635351315140724,-0.005561351776123047,0.033690452575683594,-0.01417076587677002,-0.15955154797400825,1.3855400828595965,-0.11960203506560406,0.970405101776123,0.1588754653930664,-0.1818588376045227
1727722848806,9i,9.231778084079744,0.9s : 0.3s,0.942892478711229,0.03383002775356111,0.9422853896948624,0.0381225332572474,1.686321496963501,-0.1976839303970337,0.009846983477473259,0.004222214221954346,0.032115548849105835,-0.020102038979530334,-0.1563719359988673,1.3811966989921618,-0.13554447023866897,0.9700973629951477,0.15573544800281525,-0.18616622686386108
1727722848816,9i,9.231778084079744,0.9s : 0.3s,1.0496657455587255,0.034195566009784475,1.0491085933613475,0.05393708901024535,1.9246448278427124,-0.2055918276309967,-0.012666847556829453,0.015225112438201904,0.049979835748672485,-0.013394832611083984,-0.1529010096360917,1.3764632375270796,-0.15343935197826822,0.9697297215461731,0.15230593085289001,-0.19085927307605743
1727722848826,9i,9.231778084079744,0.9s : 0.3s,1.1799408573150891,0.03510607195010463,1.179418496749013,0.10663411715550626,2.202765941619873,-0.19696451723575592,-0.04685544595122337,0.028921306133270264,0.0982895940542221,-0.029555857181549072,-0.14918087105965103,1.3713687275576139,-0.17404634252117207,0.969293475151062,0.1486281454563141,-0.19590795040130615
1727722848836,9i,9.231778084079744,0.9s : 0.3s,1.3084069966655354,0.03662066445366757,1.3078944131153318,0.14593370554809984,2.3884732723236084,-0.18538282811641693,-0.09750247746706009,0.037985920906066895,0.13965211808681488,-0.018735051155090332,-0.14526683766134088,1.3661473082327362,-0.19687774794167015,0.9688195586204529,0.1447564661502838,-0.20108303427696228
1727722848846,9i,9.231778084079744,0.9s : 0.3s,1.4369053455257275,0.03863739320663905,1.4363857851728432,0.16876473924369254,2.579864263534546,-0.1787419617176056,-0.111864373087883,0.039446234703063965,0.16367435455322266,0.01167207956314087,-0.14120730963532516,1.3608390925408531,-0.22166991531175928,0.968305230140686,0.14073851704597473,-0.2063436508178711
1727722848856,9i,9.231778084079744,0.9s : 0.3s,1.5550101072796856,0.04108818973022668,1.5544671737951472,0.18296314884526263,2.7189853191375732,-0.16406133770942688,-0.15779374539852142,0.04106593132019043,0.17694316804409027,0.021913886070251465,-0.13689959179478528,1.3554806204780658,-0.24799562785208615,0.9677689075469971,0.13647237420082092,-0.2116568684577942
1727722848866,9i,9.231778084079744,0.9s : 0.3s,1.6391095151986907,0.04396964825079176,1.6385196589750117,0.21509506958907354,2.7283101081848145,-0.12790626287460327,-0.14011381566524506,-0.002588987350463867,0.2148522138595581,-0.009884953498840332,-0.13245863668811658,1.350408862478043,-0.27534636213605723,0.9672648906707764,0.13207164406776428,-0.21669277548789978
1727722848876,9i,9.231778084079744,0.9s : 0.3s,1.6383145928375844,0.04681211111926122,1.6376456672177708,0.15485124957243268,2.417266845703125,-0.12883472442626953,-0.23624487221240997,-0.03739815950393677,0.14344905316829681,0.04475104808807373,-0.12861854105105006,1.345968746538619,-0.30110687267312836,0.9667805433273315,0.12826421856880188,-0.22109682857990265
1727722848886,9i,9.231778084079744,0.9s : 0.3s,1.6624313261293502,0.04963831444779344,1.6616900889862019,0.2715540282552399,2.546353340148926,-0.11257319897413254,-0.2709871232509613,-0.0898137092590332,0.22721219062805176,0.11853146553039551,-0.12559578125016457,1.34156985950308,-0.32595267352448837,0.9661718010902405,0.12526583671569824,-0.22543451189994812
1727722848896,9i,9.231778084079744,0.9s : 0.3s,1.6903409318500073,0.054271440220384666,1.689469466034813,0.4661249662667775,2.595567226409912,-0.11269255727529526,-0.315655380487442,-0.043785274028778076,0.4638100862503052,0.01534724235534668,-0.1224792221218872,1.3373372267640715,-0.35188404206925733,0.9655839800834656,0.12217322736978531,-0.2296111136674881
1727722848906,9i,9.231778084079744,0.9s : 0.3s,1.7275736021649741,0.059955573281021746,1.7265329073405487,0.4371988514214875,2.6761136054992676,-0.10898410528898239,-0.37786364555358887,-0.07280153036117554,0.42396026849746704,0.07810546457767487,-0.11973691101351991,1.333023887173075,-0.37852241340927223,0.964906632900238,0.11945100873708725,-0.23385189473628998
1727722848916,9i,9.231778084079744,0.9s : 0.3s,1.7551662811020918,0.06673326076263705,1.7538971880431684,0.47299228798569587,2.672377824783325,-0.08365917205810547,-0.4645322263240814,-0.08598291873931885,0.460324764251709,0.06655639410018921,-0.11749055231114999,1.3288794591094026,-0.4057949283269196,0.9641873240470886,0.1172204315662384,-0.23791256546974182
1727722848926,9i,9.231778084079744,0.9s : 0.3s,1.764916935126913,0.07435191518797978,1.7633501015412838,0.5099928851793751,2.6109747886657715,-0.06934495270252228,-0.5380234718322754,-0.151103675365448,0.47605717182159424,0.10310184955596924,-0.11596898779523662,1.3250285768971175,-0.4327887048819988,0.9634358286857605,0.11570922285318375,-0.24166686832904816
1727722848936,9i,9.231778084079744,0.9s : 0.3s,1.7662060898427696,0.08298816688043976,1.7642553431846282,0.5544160827107711,2.575286626815796,-0.04660838842391968,-0.6191170811653137,-0.17607545852661133,0.521770715713501,0.06426465511322021,-0.1153102713716449,1.3213756519578304,-0.459430093438797,0.9626202583312988,0.1150549054145813,-0.24520337581634521
1727722848946,9i,9.231778084079744,0.9s : 0.3s,1.7725341135248425,0.09277465154148025,1.7701045301452272,0.6119129534513542,2.5688562393188477,-0.016076309606432915,-0.7375489473342896,-0.20952659845352173,0.5744653344154358,0.02292698621749878,-0.11548854184088303,1.3180100796181309,-0.48618130175427343,0.9617696404457092,0.11523199081420898,-0.2484365850687027
1727722848956,9i,9.231778084079744,0.9s : 0.3s,1.7733074283791395,0.1036227971617756,1.7702772527073285,0.6565773909639914,2.5174200534820557,0.004538552835583687,-0.8641495108604431,-0.2548366189002991,0.6036750674247742,0.04157620668411255,-0.11686666065665682,1.3148699148777647,-0.5129958980950207,0.9608302712440491,0.11660081893205643,-0.25141504406929016
1727722848966,9i,9.231778084079744,0.9s : 0.3s,1.774049030555845,0.11577096897564708,1.7702675067792926,0.7199278428046928,2.4777798652648926,-0.008303742855787277,-0.9883567094802856,-0.2594587206840515,0.6711537837982178,0.02301889657974243,-0.1194744637947335,1.3117561724310145,-0.5396863281815706,0.9597455859184265,0.11919043213129044,-0.25432685017585754
1727722848976,9i,9.231778084079744,0.9s : 0.3s,1.7808792102416984,0.12906278452637215,1.7761963740311473,0.7413143646999638,2.450528860092163,-0.024537527933716774,-1.1335792541503906,-0.2567773461341858,0.6954222917556763,0.00046685338020324707,-0.1233719233002763,1.3083672950092453,-0.5663836455342965,0.9584221243858337,0.12305919826030731,-0.25745534896850586
1727722848986,9i,9.231778084079744,0.9s : 0.3s,1.82316559462213,0.1434691012232714,1.8175118713252059,0.7887421705728328,2.565316677093506,-0.033152587711811066,-1.3079794645309448,-0.28478914499282837,0.7355302572250366,-0.002143651247024536,-0.1286856869549451,1.3046012090838903,-0.5938726073123296,0.9568014144897461,0.12833081185817719,-0.2608873248100281
1727722848996,9i,9.231778084079744,0.9s : 0.3s,1.8918589500128358,0.15939631707128052,1.8851321176108005,0.8998971899112268,2.690927505493164,-0.03750507906079292,-1.467087984085083,-0.3219599723815918,0.8375147581100464,-0.06874415278434753,-0.1350326394825903,1.300406508575572,-0.623627078152539,0.9548944234848022,0.13462264835834503,-0.2646755874156952
1727722849006,9i,9.231778084079744,0.9s : 0.3s,1.945755475353498,0.1763955634134055,1.937743268618468,0.9019587175029979,2.633124828338623,-0.053098153322935104,-1.6234134435653687,-0.34968024492263794,0.8297462463378906,-0.052672773599624634,-0.1427535397254263,1.295781037501688,-0.6541931708072501,0.952631413936615,0.14226917922496796,-0.268799364566803
1727722849016,9i,9.231778084079744,0.9s : 0.3s,1.9530804987600094,0.1940478426425738,1.9434168027992373,0.8785479550354862,2.3476102352142334,-0.0832105204463005,-1.797428846359253,-0.3372950553894043,0.8110417127609253,0.017026305198669434,-0.15237682986402734,1.290853465415595,-0.683696978672984,0.9499354362487793,0.15178784728050232,-0.27309927344322205
1727722849026,9i,9.231778084079744,0.9s : 0.3s,1.9614467433582843,0.21235345825315508,1.9499177766764282,0.9017806921251863,2.2193820476531982,-0.15408149361610413,-1.9783581495285034,-0.30808788537979126,0.8418806791305542,0.09760734438896179,-0.16424311574475906,1.2853478497282522,-0.7113802651347616,0.9466224312782288,0.1635056734085083,-0.27779829502105713
1727722849036,9i,9.231778084079744,0.9s : 0.3s,2.0080505549312266,0.2321027587897851,1.9945915222224768,1.0315373816361058,2.326145648956299,-0.17123571038246155,-2.126784324645996,-0.26799464225769043,0.9958285093307495,0.023954570293426514,-0.1774338752158165,1.2790010466380608,-0.7398131507690254,0.9426925182342529,0.17650431394577026,-0.2831555902957916
1727722849046,9i,9.231778084079744,0.9s : 0.3s,2.089496408441842,0.25320745144026163,2.0740976899429024,1.0832234954240525,2.458667039871216,-0.20837002992630005,-2.318540573120117,-0.2616841197013855,1.05078125,-0.02744680643081665,-0.19178641164345148,1.2716240337285,-0.7700255128622983,0.938060462474823,0.19061285257339478,-0.2893255949020386
1727722849056,9i,9.231778084079744,0.9s : 0.3s,2.1862474588379257,0.274934009535697,2.168891247083614,1.035949349763914,2.536428928375244,-0.2324705272912979,-2.5102474689483643,-0.24940800666809082,1.0048741102218628,-0.03485289216041565,-0.20733195917099223,1.2631414078940977,-0.8022739268556975,0.932635486125946,0.20584973692893982,-0.29633909463882446
1727722849066,9i,9.231778084079744,0.9s : 0.3s,2.274806325248887,0.2967240139942916,2.25537107299696,0.9939142914515631,2.4952714443206787,-0.2860517203807831,-2.6878092288970947,-0.22854578495025635,0.9667648673057556,-0.031593263149261475,-0.2243676574236742,1.253551965075868,-0.8354679574549714,0.9262844324111938,0.22248990833759308,-0.3041306138038635
1727722849076,9i,9.231778084079744,0.9s : 0.3s,2.360202842367572,0.31845666026231617,2.338619852103915,0.9539246378779872,2.4788331985473633,-0.35303565859794617,-2.846257448196411,-0.16548937559127808,0.9387785792350769,-0.03578072786331177,-0.24275206763461513,1.2426693858500426,-0.8691276869485646,0.9188920855522156,0.24037490785121918,-0.31282156705856323
1727722849086,9i,9.231778084079744,0.9s : 0.3s,2.4372985728054104,0.3398406276495267,2.41348973082507,0.9237112486696982,2.4192898273468018,-0.42450717091560364,-2.996720314025879,-0.0965651273727417,0.9174793362617493,-0.04636070132255554,-0.262322480842373,1.230310967516437,-0.9033289449868747,0.9103469848632812,0.2593242824077606,-0.32252052426338196
1727722849096,9i,9.231778084079744,0.9s : 0.3s,2.499563216874889,0.36066927271374555,2.473405334932809,0.8823624084250616,2.28680157661438,-0.49810919165611267,-3.1412441730499268,-0.05617755651473999,0.8785332441329956,-0.05989024043083191,-0.28316424405238194,1.2165839604859896,-0.9375968939440402,0.900568425655365,0.27939528226852417,-0.3330387771129608
1727722849106,9i,9.231778084079744,0.9s : 0.3s,2.556647600944762,0.3808336998939199,2.528124334055134,0.8483186034400643,2.133932590484619,-0.576483428478241,-3.319514513015747,-0.0007663369178771973,0.8470345735549927,-0.04665079712867737,-0.3056036230076728,1.2015181263381276,-0.9712845414144062,0.8893771171569824,0.3008688986301422,-0.34421828389167786
1727722849116,9i,9.231778084079744,0.9s : 0.3s,2.628129836856914,0.4009310168962114,2.5973680445920864,0.901299924207088,2.1399707794189453,-0.6363775134086609,-3.4778683185577393,0.0720670223236084,0.8979625701904297,-0.028480172157287598,-0.3293975306407579,1.1848022881089804,-1.0054344165196862,0.8766176700592041,0.3234730064868927,-0.3562396764755249
1727722849126,9i,9.231778084079744,0.9s : 0.3s,2.708205152040959,0.4211511610271459,2.6752582763364514,0.978842695641385,2.1141257286071777,-0.7153511643409729,-3.647271156311035,0.1717613935470581,0.9619002938270569,-0.05812805891036987,-0.35410874079403437,1.1661815987015411,-1.040986874898842,0.8622199296951294,0.3467545509338379,-0.36924007534980774
1727722849136,9i,9.231778084079744,0.9s : 0.3s,2.7950408100506974,0.4412321506258707,2.759994079541282,0.972765282110529,2.121180772781372,-0.7998374700546265,-3.795978307723999,0.2555575370788574,0.9364107847213745,-0.0640115737915039,-0.3797821705989531,1.1454083586301826,-1.0778419902423277,0.8459744453430176,0.37071818113327026,-0.3832693099975586
1727722849146,9i,9.231778084079744,0.9s : 0.3s,2.874039143195057,0.46127960592915174,2.836780238540029,1.0198379717398207,2.1021628379821777,-0.8671973347663879,-3.888658046722412,0.35244929790496826,0.9521790146827698,-0.09593802690505981,-0.4060226712125331,1.1223219409071457,-1.116295842290227,0.8278485536575317,0.39495849609375,-0.3983398973941803
1727722849156,9i,9.231778084079744,0.9s : 0.3s,2.9433927846289607,0.48075212826148356,2.903866125663833,0.9858648113363314,2.005497694015503,-0.9511449933052063,-3.9984347820281982,0.4544571042060852,0.8714529871940613,-0.07725191116333008,-0.43230808076786004,1.0972227838360018,-1.155629103618935,0.8080704808235168,0.41896766424179077,-0.4141116440296173
1727722849166,9i,9.231778084079744,0.9s : 0.3s,3.010435719965831,0.499597927511547,2.9686908115990045,1.0076380502478641,1.9751027822494507,-1.0211191177368164,-4.09477424621582,0.5609002113342285,0.8353840112686157,-0.05346912145614624,-0.4588371719983063,1.0698845412733073,-1.1962204839329478,0.7864203453063965,0.44290584325790405,-0.43055489659309387
1727722849176,9i,9.231778084079744,0.9s : 0.3s,3.0601314499450267,0.5180636949489654,3.0159599630828122,1.0774227386398831,1.8369121551513672,-1.0964857339859009,-4.153275489807129,0.677095353603363,0.8353074789047241,-0.06813997030258179,-0.4852908373195663,1.0403757856699942,-1.2378276965370678,0.762998640537262,0.46646562218666077,-0.4474850296974182
1727722849186,9i,9.231778084079744,0.9s : 0.3s,3.088045244263771,0.5354299695722436,3.0412724603862706,1.0355947296857724,1.585588812828064,-1.2047724723815918,-4.195117950439453,0.7689248323440552,0.6933977603912354,-0.020263075828552246,-0.5121396084137935,1.0090879528840093,-1.2792060627571449,0.7377585172653198,0.4900434613227844,-0.46429502964019775
1727722849196,9i,9.231778084079744,0.9s : 0.3s,3.1079829613456935,0.5518874133842787,3.058590912652942,1.0815415961606185,1.425315022468567,-1.3109840154647827,-4.220381736755371,0.8647350072860718,0.6479000449180603,-0.04680943489074707,-0.5391785324431349,0.9758575778916626,-1.3203600111003455,0.7106892466545105,0.5134312510490417,-0.4809463322162628
1727722849206,9i,9.231778084079744,0.9s : 0.3s,3.1335593851818984,0.567966011148382,3.081656864519759,1.1470354927176352,1.3199957609176636,-1.3782986402511597,-4.288712024688721,0.9361907243728638,0.6526666283607483,-0.11516779661178589,-0.5661717009756465,0.9403962081392138,-1.3623068589196925,0.6817444562911987,0.5364050269126892,-0.4974878132343292
1727722849216,9i,9.231778084079744,0.9s : 0.3s,3.1631981710609667,0.5838045230399462,3.1088574988702113,1.1384356886892206,1.220566987991333,-1.4280827045440674,-4.3578782081604,0.943143904209137,0.6197753548622131,-0.14964592456817627,-0.5929728480143978,0.902637332182795,-1.405592667200711,0.6509570479393005,0.5588288307189941,-0.513775646686554
1727722849226,9i,9.231778084079744,0.9s : 0.3s,3.1901030935561936,0.5995600847446381,3.1332547697718103,1.1560291747232545,1.1528323888778687,-1.496700644493103,-4.377730846405029,0.9796280860900879,0.5978506207466125,-0.13894927501678467,-0.6191667662411895,0.8624156253403269,-1.45055596533264,0.6184401512145996,0.5803568363189697,-0.5298281311988831
1727722849236,9i,9.231778084079744,0.9s : 0.3s,3.2133156946341,0.6151442092974578,3.153885754929883,1.184580126710441,0.9002652168273926,-1.5707975625991821,-4.440432071685791,1.0468213558197021,0.5432323217391968,-0.11087727546691895,-0.6451449197684131,0.8198525021179249,-1.496713399974724,0.5841143727302551,0.6013142466545105,-0.5451895594596863
1727722849246,9i,9.231778084079744,0.9s : 0.3s,3.221967822418653,0.6303305774734865,3.1597088492142973,1.1446743020364771,0.628786027431488,-1.6283996105194092,-4.430010795593262,1.0603466033935547,0.42916548252105713,-0.04196816682815552,-0.6715441705363147,0.7756752699963368,-1.5428248682832488,0.5481585264205933,0.6221956014633179,-0.5589228868484497
1727722849256,9i,9.231778084079744,0.9s : 0.3s,3.2314680884087625,0.6449437717655148,3.166454411114276,1.1657519650809605,0.42576324939727783,-1.6780190467834473,-4.450619220733643,1.0993770360946655,0.38366276025772095,-0.05613076686859131,-0.6981626260912418,0.7297303218871859,-1.5893444846655749,0.5106845498085022,0.6428112983703613,-0.5709596276283264
1727722849266,9i,9.231778084079744,0.9s : 0.3s,3.244670203045373,0.6598314654933445,3.176870655798786,1.2013171119288044,0.4501650035381317,-1.6688878536224365,-4.4616618156433105,1.1127396821975708,0.4467312693595886,-0.07351446151733398,-0.7238137111858093,0.6813493307583401,-1.637786264055756,0.4719313085079193,0.6622470617294312,-0.5819877982139587
1727722849276,9i,9.231778084079744,0.9s : 0.3s,3.2572682666049975,0.6754863314842144,3.1864580299464045,1.2310445411763158,0.5339620113372803,-1.6609658002853394,-4.456040382385254,1.1204181909561157,0.49734294414520264,-0.11306518316268921,-0.7470689567602375,0.629964039795865,-1.6895239033963834,0.4322246015071869,0.6794912219047546,-0.5928521752357483
1727722849286,9i,9.231778084079744,0.9s : 0.3s,3.2714857781684388,0.6917526768058144,3.197514258121509,1.2470522264796213,0.6002757549285889,-1.6801704168319702,-4.460411071777344,1.1512587070465088,0.4716513156890869,-0.08536791801452637,-0.7677058020283587,0.5754895998332074,-1.7444836045862788,0.3915879428386688,0.6944863796234131,-0.6036121845245361
1727722849296,9i,9.231778084079744,0.9s : 0.3s,3.2874003380157832,0.7086474258510678,3.2101121177025798,1.2849143835274273,0.6904966235160828,-1.7165029048919678,-4.459169864654541,1.1976912021636963,0.45904332399368286,-0.07628881931304932,-0.7854238306069994,0.5178330108144547,-1.8025259481184455,0.3500077426433563,0.7071249485015869,-0.6143849492073059
1727722849306,9i,9.231778084079744,0.9s : 0.3s,3.297821335909827,0.7257682071940078,3.2169684600580823,1.272820210941601,0.6887893080711365,-1.7490360736846924,-4.439548492431641,1.2062739133834839,0.38826316595077515,-0.119273841381073,-0.8000687581714954,0.45728062271898245,-1.8632847615297392,0.3075810670852661,0.7174040079116821,-0.625080406665802
1727722849316,9i,9.231778084079744,0.9s : 0.3s,3.3071625352802907,0.7432491520470071,3.222561827605945,1.2260598451117612,0.6919625401496887,-1.7737401723861694,-4.437033653259277,1.1800978183746338,0.3110717535018921,-0.11758506298065186,-0.8122093118118878,0.39457200853018204,-1.9258149119942272,0.2644364833831787,0.7258087396621704,-0.6350394487380981
1727722849326,9i,9.231778084079744,0.9s : 0.3s,3.3173935945382715,0.7609716606163012,3.2289351794085963,1.2099905343951902,0.7695199251174927,-1.7949227094650269,-4.427167892456055,1.163253903388977,0.30094271898269653,-0.14265668392181396,-0.8210976578380497,0.3298594873711664,-1.9900993289301794,0.22071826457977295,0.7318942546844482,-0.6446815729141235
1727722849336,9i,9.231778084079744,0.9s : 0.3s,3.331195024416617,0.7787894590500972,3.2388805580278017,1.200677846853432,0.8591793775558472,-1.8407891988754272,-4.418919086456299,1.15162193775177,0.2925031781196594,-0.17273128032684326,-0.8262644796521211,0.26344107005165246,-2.055755287780094,0.1764572560787201,0.7354052066802979,-0.6542492508888245
1727722849346,9i,9.231778084079744,0.9s : 0.3s,3.340575237805119,0.7963586232704074,3.244265072798397,1.18612599229815,0.9722292423248291,-1.8888797760009766,-4.373749732971191,1.1455366611480713,0.24978965520858765,-0.1795710325241089,-0.8273295820081986,0.19596699525772074,-2.122044645946619,0.13179174065589905,0.7361265420913696,-0.6638890504837036
1727722849356,9i,9.231778084079744,0.9s : 0.3s,3.349084355741713,0.8135772242459754,3.2487625524285546,1.1638673339361523,1.059108018875122,-1.944493293762207,-4.336247444152832,1.1280057430267334,0.22089582681655884,-0.18274366855621338,-0.8243716569987852,0.128420032106228,-2.187946874275132,0.0869600772857666,0.7341212630271912,-0.6734269857406616
1727722849366,9i,9.231778084079744,0.9s : 0.3s,3.360391586884035,0.8304492058644167,3.2561611958992698,1.1286598589497567,1.1763499975204468,-1.9981874227523804,-4.302053928375244,1.091670274734497,0.19640827178955078,-0.208693265914917,-0.8173380458252643,0.061355493454148785,-2.2526385311020456,0.041950955986976624,0.7293272018432617,-0.682877779006958
1727722849376,9i,9.231778084079744,0.9s : 0.3s,3.378139211559246,0.8470809978197319,3.270210744861385,1.1137066379707528,1.3627930879592896,-2.059899091720581,-4.273493766784668,1.077327847480774,0.18236809968948364,-0.215520441532135,-0.8059022895066534,-0.004423950706348548,-2.3154453189627726,-0.0030634012073278427,0.7214557528495789,-0.6924537420272827
1727722849386,9i,9.231778084079744,0.9s : 0.3s,3.4113189726883366,0.8636139046668644,3.300192139419985,1.0906074710868416,1.539760947227478,-2.131282091140747,-4.297271251678467,1.0387531518936157,0.19077444076538086,-0.27206921577453613,-0.7894082247965163,-0.06844784499572165,-2.3759050615499984,-0.04816782847046852,0.7099366188049316,-0.7026164531707764
1727722849396,9i,9.231778084079744,0.9s : 0.3s,3.436831301384102,0.8797690839755073,3.322320838368028,1.040257884869804,1.5277061462402344,-2.224900007247925,-4.253519535064697,0.9849472045898438,0.14858752489089966,-0.29989534616470337,-0.7698778040666652,-0.13089212209991188,-2.433892225225481,-0.09371186047792435,0.6960474848747253,-0.7118539214134216
1727722849406,9i,9.231778084079744,0.9s : 0.3s,3.448413598740549,0.8953874855320038,3.3301407776145777,1.057740048344205,1.4317457675933838,-2.324396848678589,-4.184463977813721,1.0251543521881104,0.06421267986297607,-0.2524862289428711,-0.7484970586868231,-0.19086304021946973,-2.4881237482224456,-0.13900020718574524,0.6805382966995239,-0.7194070816040039
1727722849416,9i,9.231778084079744,0.9s : 0.3s,3.4564818559638515,0.9105772136348099,3.3343838949071802,1.0259004505800005,1.3650628328323364,-2.4029712677001953,-4.161554336547852,0.9942553043365479,0.054760634899139404,-0.24683880805969238,-0.725835380008607,-0.2487881296113456,-2.5391439702271774,-0.18416622281074524,0.6637604832649231,-0.7249171137809753
1727722849426,9i,9.231778084079744,0.9s : 0.3s,3.4606574781474904,0.9259267457376467,3.3344879430859904,1.0164427882426845,1.3568365573883057,-2.455232620239258,-4.111832618713379,0.9645124673843384,0.13441234827041626,-0.29121291637420654,-0.7014113661956161,-0.30429009955638786,-2.586898995057841,-0.22888629138469696,0.6452965140342712,-0.7288370728492737
1727722849436,9i,9.231778084079744,0.9s : 0.3s,3.463950177612412,0.9410144610831134,3.3336830408743903,0.947348715669025,1.3921161890029907,-2.4948949813842773,-4.061882495880127,0.9074414372444153,0.09614109992980957,-0.25451231002807617,-0.6751569126131692,-0.357232842634399,-2.6312630458871062,-0.27296575903892517,0.6250197887420654,-0.7313275337219238
1727722849446,9i,9.231778084079744,0.9s : 0.3s,3.466867110027751,0.9559652331904029,3.3324612573176884,0.9364763463285838,1.3538681268692017,-2.572572946548462,-4.021177768707275,0.8918957710266113,0.10236942768096924,-0.26651525497436523,-0.6472546327270823,-0.4076997811592112,-2.6722026357668094,-0.3163037598133087,0.6029986143112183,-0.732355535030365
1727722849456,9i,9.231778084079744,0.9s : 0.3s,3.46904871322653,0.9711159803553048,3.330350240956227,0.9549655669181338,1.288352131843567,-2.6540820598602295,-3.9763851165771484,0.8910033702850342,0.14077460765838623,-0.31345611810684204,-0.6184910853095814,-0.4565306139504484,-2.7103815380377676,-0.35917356610298157,0.5798064470291138,-0.7313131093978882
1727722849466,9i,9.231778084079744,0.9s : 0.3s,3.4723592273566024,0.9864688584945099,3.3292878810684243,0.9442101527722975,1.3010090589523315,-2.7158353328704834,-3.948268175125122,0.885311484336853,0.14830303192138672,-0.292852520942688,-0.5888277820034759,-0.5035463425793485,-2.7459069450279605,-0.401272177696228,0.5553866028785706,-0.7283724546432495
1727722849476,9i,9.231778084079744,0.9s : 0.3s,3.4751866650510927,1.002134115880764,3.3275591010133563,0.9141378258113173,1.3390579223632812,-2.796783685684204,-3.870654344558716,0.8470290303230286,0.2041867971420288,-0.27658188343048096,-0.5577430777361174,-0.548551903980838,-2.778212817510804,-0.44242703914642334,0.5292726755142212,-0.723967432975769
1727722849486,9i,9.231778084079744,0.9s : 0.3s,3.4656648800069583,1.0178645597302656,3.312821274768495,0.9212295438165761,1.1484129428863525,-2.8744890689849854,-3.8116817474365234,0.8787685632705688,0.13822489976882935,-0.23942339420318604,-0.5264253814113019,-0.5923572058655655,-2.807952662253348,-0.48272672295570374,0.5024459362030029,-0.7173026204109192
1727722849496,9i,9.231778084079744,0.9s : 0.3s,3.45145746440209,1.033162605025311,3.293195053463159,0.874404899250767,1.0316016674041748,-2.9324300289154053,-3.735776901245117,0.845613956451416,0.077381432056427,-0.20864582061767578,-0.4958681847369151,-0.6352990003004491,-2.836281483406285,-0.521944522857666,0.4757954478263855,-0.7079495787620544
1727722849506,9i,9.231778084079744,0.9s : 0.3s,3.4307303634442325,1.048230178106669,3.2666686884905634,0.8640345758546751,1.0318528413772583,-2.9715077877044678,-3.614243268966675,0.7962053418159485,0.10631623864173889,-0.3182917833328247,-0.4653008825328708,-0.6766791590570411,-2.8617989172862437,-0.5596331357955933,0.448691725730896,-0.696768581867218
1727722849516,9i,9.231778084079744,0.9s : 0.3s,3.4027831336992587,1.0630549202191353,3.2324676783513295,0.8443225110435086,0.963659942150116,-2.93617844581604,-3.5508804321289062,0.7872288227081299,0.09441620111465454,-0.29023587703704834,-0.43464314881360316,-0.7165003321967973,-2.88508122506558,-0.5956852436065674,0.42108675837516785,-0.6839919686317444
1727722849526,9i,9.231778084079744,0.9s : 0.3s,3.3681707663978604,1.0779928040362927,3.191003890010653,0.839758767824703,0.9269973039627075,-2.960883617401123,-3.4231460094451904,0.7913609147071838,0.14943033456802368,-0.23793542385101318,-0.40424505105599334,-0.7545990363265075,-2.906280746060571,-0.6297855973243713,0.39332476258277893,-0.6698251366615295
1727722849536,9i,9.231778084079744,0.9s : 0.3s,3.3279344600290406,1.093078942251409,3.1432986170988153,0.8869446351146201,0.8226746320724487,-2.989149570465088,-3.3011443614959717,0.8288028240203857,0.11452367901802063,-0.29434841871261597,-0.3744841477285632,-0.7917030057948007,-2.9254314603029545,-0.6622378826141357,0.36579248309135437,-0.6539394855499268
1727722849546,9i,9.231778084079744,0.9s : 0.3s,3.2861382985343437,1.108324158575448,3.0935937801547597,0.9122786572328273,0.6946703195571899,-3.004484176635742,-3.206644058227539,0.8678438067436218,0.0846707820892334,-0.26819831132888794,-0.34566421262638924,-0.8280908026634323,-2.943435032396033,-0.6930696368217468,0.338821679353714,-0.6362816691398621
1727722849556,9i,9.231778084079744,0.9s : 0.3s,3.2458729806919426,1.1237145316825565,3.045153043456346,0.9136204685915166,0.5394867062568665,-3.05582332611084,-3.0991430282592773,0.8745222091674805,0.07889807224273682,-0.2523655295372009,-0.31792548565605083,-0.8639652856504472,-2.9605539039030426,-0.722315788269043,0.3125966787338257,-0.6168819069862366
1727722849566,9i,9.231778084079744,0.9s : 0.3s,3.20642227675001,1.1391830711456092,2.9972330151748254,0.9401841416991792,0.37357285618782043,-3.0791001319885254,-3.0058560371398926,0.8985300660133362,0.03619241714477539,-0.2743721008300781,-0.2915119475986413,-0.8996618212383399,-2.9770686879358146,-0.7500773072242737,0.2874007225036621,-0.5956382155418396
1727722849576,9i,9.231778084079744,0.9s : 0.3s,3.1723223752062126,1.1547291587484243,2.954696231792727,0.9397812798517315,0.2361215353012085,-3.0962448120117188,-2.937692642211914,0.9047935605049133,0.025233805179595947,-0.25278592109680176,-0.2661352233745269,-0.9350196094076145,-2.9932665124701194,-0.7762840390205383,0.26300469040870667,-0.5728975534439087
1727722849586,9i,9.231778084079744,0.9s : 0.3s,3.139233205278017,1.170523434009694,2.9128439724012423,0.9647131535766583,0.23598411679267883,-3.0898995399475098,-2.845182418823242,0.9343738555908203,0.031803205609321594,-0.2379191517829895,-0.24122023828350586,-0.9698497977114453,-3.0084306232021536,-0.8009205460548401,0.2388877123594284,-0.5490528345108032
1727722849596,9i,9.231778084079744,0.9s : 0.3s,3.1077061468156346,1.1865752709958013,2.8722598456993613,0.9786534717525729,0.1774502396583557,-3.0590124130249023,-2.795056104660034,0.9590189456939697,0.023089691996574402,-0.1936805248260498,-0.21660672709437623,-1.0038363065951525,-3.0223930230730827,-0.8238261342048645,0.2149168848991394,-0.5245201587677002
1727722849606,9i,9.231778084079744,0.9s : 0.3s,3.073111493980755,1.2026080569982953,2.8280290160603747,0.9708689262377683,0.10571319609880447,-3.037494659423828,-2.704662322998047,0.9616387486457825,-0.04360242187976837,-0.12623873353004456,-0.19246296598390583,-1.037028194056541,-3.0355092744317873,-0.8450005054473877,0.19127696752548218,-0.49938681721687317
1727722849616,9i,9.231778084079744,0.9s : 0.3s,3.036371751042047,1.2184579169882215,2.781171284738657,0.984591039594506,0.10169555246829987,-3.001321792602539,-2.621805429458618,0.9768916964530945,-0.0812239795923233,-0.09222143888473511,-0.16886311345470298,-1.0695181790559145,-3.0476603871036576,-0.8644955158233643,0.1680617481470108,-0.4737117886543274
1727722849626,9i,9.231778084079744,0.9s : 0.3s,2.9911555410012616,1.2342436777999437,2.724638327241511,1.0213181562746325,0.09237129241228104,-2.9241764545440674,-2.5281283855438232,1.015920639038086,-0.10334251821041107,-0.017786383628845215,-0.1455736566427259,-1.1008840992273325,-3.058556358544244,-0.8821774125099182,0.14506004750728607,-0.4480186104774475
1727722849636,9i,9.231778084079744,0.9s : 0.3s,2.936419213272067,1.2495930339620358,2.6572683427811534,1.034030245073406,0.12632979452610016,-2.85476016998291,-2.393939733505249,1.0147740840911865,-0.189130961894989,0.06067606806755066,-0.12294261625546055,-1.131156705390243,-3.068121807891789,-0.8980749249458313,0.12263313680887222,-0.4224008619785309
1727722849646,9i,9.231778084079744,0.9s : 0.3s,2.86431215109516,1.2644002099307163,2.570131554617106,1.0820017885397777,0.06615246832370758,-2.74007248878479,-2.224790096282959,1.0362203121185303,-0.26346006989479065,0.16602447628974915,-0.1015250068201772,-1.160096652991428,-3.076324571032471,-0.9121206402778625,0.10135068744421005,-0.39719507098197937
1727722849656,9i,9.231778084079744,0.9s : 0.3s,2.7733295116836656,1.2783181687516507,2.461149983201955,1.126008361273968,0.0708397701382637,-2.6074869632720947,-2.0095667839050293,1.0229400396347046,-0.35843968391418457,0.30497458577156067,-0.08173623864705465,-1.1875741598451177,-3.083430759855143,-0.9243683815002441,0.08164525777101517,-0.37266257405281067
1727722849666,9i,9.231778084079744,0.9s : 0.3s,2.662684951318283,1.291476132400707,2.328514665922497,1.1944360267378356,0.11299148201942444,-2.4122214317321777,-1.8007092475891113,1.043757677078247,-0.42593491077423096,0.3947490155696869,-0.06362737683379811,-1.213142238427972,-3.0891166095752607,-0.9348253011703491,0.06358445435762405,-0.3493693768978119
1727722849676,9i,9.231778084079744,0.9s : 0.3s,2.529447577516724,1.3036732874353827,2.167611821113883,1.2997452325457808,-0.06523111462593079,-2.1870837211608887,-1.545284628868103,1.0405794382095337,-0.5197786092758179,0.5799674987792969,-0.04712452736382404,-1.2370180893027525,-3.092640234991999,-0.9437623620033264,0.047107089310884476,-0.3272513747215271
1727722849686,9i,9.231778084079744,0.9s : 0.3s,2.3872687902565604,1.3147988107402242,1.9925753095451906,1.3767864683929436,0.2794857919216156,-1.9691705703735352,-1.2991923093795776,1.0139882564544678,-0.6010299324989319,0.7114294171333313,-0.03269165493066635,-1.2577554054496896,-3.0950953413547846,-0.9508931636810303,0.03268583118915558,-0.3077886402606964
1727722849696,9i,9.231778084079744,0.9s : 0.3s,2.232449280950187,1.325338087014409,1.796471192956902,1.4261559709202691,0.34583765268325806,-1.642223596572876,-1.1070412397384644,1.0394635200500488,-0.6447689533233643,0.7332867383956909,-0.020151782243929054,-1.2758502861261463,-3.0951375521928615,-0.9566234946250916,0.02015041746199131,-0.29062917828559875
1727722849706,9i,9.231778084079744,0.9s : 0.3s,2.0653735381621687,1.3350369770799624,1.5758947052292904,1.624750413592798,0.4201611578464508,-1.29635488986969,-0.8512368202209473,1.0261917114257812,-0.7426327466964722,1.017467975616455,-0.009676949180362947,-1.2905045523249514,-3.093789455580419,-0.960929811000824,0.0096767982468009,-0.27662310004234314
1727722849716,9i,9.231778084079744,0.9s : 0.3s,1.8903148549378044,1.3444013754664677,1.3288623677576257,1.6876475361672618,0.4733482003211975,-0.9211916923522949,-0.5434556007385254,1.0331926345825195,-0.7521342039108276,1.1022528409957886,-0.0017222400120726995,-1.3016393376116262,-3.0908206119912016,-0.9639939665794373,0.0017222391907125711,-0.26591846346855164
1727722849726,9i,9.231778084079744,0.9s : 0.3s,1.7227891006418155,1.3536105741200286,1.0657113581644335,1.8110317962444928,0.5813140273094177,-0.521378219127655,-0.23556460440158844,1.0394285917282104,-0.8089081048965454,1.243017315864563,0.0034393096635480587,-1.3088466502234832,-3.0862037092408094,-0.9658811688423157,-0.0034393027890473604,-0.2589626610279083
1727722849736,9i,9.231778084079744,0.9s : 0.3s,1.5781879364304425,1.3630131115273054,0.7955327903356543,1.8829526168203403,0.6550332903862,-0.09325911104679108,0.0868065133690834,1.0439280271530151,-0.8260458707809448,1.3316805362701416,0.005726006813077558,-1.3119604738053852,-3.0798029922827137,-0.9666726589202881,-0.00572597561404109,-0.2559511363506317
1727722849746,9i,9.231778084079744,0.9s : 0.3s,1.4764813467114195,1.3728060032808942,0.5435079066055106,2.0132673894133624,0.6976100206375122,0.36114275455474854,0.4408671259880066,1.0766980648040771,-0.9152578711509705,1.4339699745178223,0.0049234467111504195,-1.3106727355251497,-3.072069046210914,-0.9663465023040771,-0.004923427011817694,-0.2571968734264374
1727722849756,9i,9.231778084079744,0.9s : 0.3s,1.4448441259974814,1.383534432934396,0.41642168689241543,2.1390954152120147,0.7427516579627991,0.8250417113304138,0.844982922077179,1.1464908123016357,-0.9719765782356262,1.5220215320587158,0.0006033599727236294,-1.304757166282229,-3.0629659483268443,-0.9648197293281555,-0.0006033599493093789,-0.26291197538375854
1727722849766,9i,9.231778084079744,0.9s : 0.3s,1.5096427940357737,1.3956249456517733,0.575545286366436,2.250388098900517,0.8565693497657776,1.3045108318328857,1.2722723484039307,1.2291051149368286,-1.0614087581634521,1.5578699111938477,-0.007423229489359439,-1.2940526595149129,-3.0519338880628233,-0.9619238376617432,0.007423161529004574,-0.27321717143058777
1727722849776,9i,9.231778084079744,0.9s : 0.3s,1.670396720958679,1.4094815372797234,0.8964301430993358,2.3282844533982017,0.9375278949737549,1.7841272354125977,1.6986510753631592,1.3213815689086914,-1.151566743850708,1.5325642824172974,-0.019167366662763696,-1.278463749762781,-3.0386059833255965,-0.9573982954025269,0.019166193902492523,-0.2881336808204651
1727722849786,9i,9.231778084079744,0.9s : 0.3s,1.9125867272862374,1.4255634162119324,1.275051738459912,2.4531622158360906,1.031006932258606,2.2764861583709717,2.1302385330200195,1.4529201984405518,-1.2724415063858032,1.512587308883667,-0.0345180527631876,-1.2577887105060994,-3.0230709687699315,-0.950844943523407,0.03451119735836983,-0.3077380657196045
1727722849796,9i,9.231778084079744,0.9s : 0.3s,2.2225846561931606,1.4445537267999864,1.6891261303803038,2.5913252340040733,1.1890372037887573,2.8023459911346436,2.5691606998443604,1.6136422157287598,-1.3485950231552124,1.5140728950500488,-0.05321000401331842,-1.2316098647967415,-3.0046298053237996,-0.941690981388092,0.05318490043282509,-0.33224913477897644
1727722849806,9i,9.231778084079744,0.9s : 0.3s,2.58425304581489,1.4673495440870794,2.1272632935936673,2.7796292160288396,1.3524266481399536,3.359790325164795,3.0048129558563232,1.8271598815917969,-1.4123347997665405,1.5469763278961182,-0.07489560966788465,-1.199446113984774,-2.9826551907658927,-0.9292260408401489,0.07482560724020004,-0.36185669898986816
1727722849816,9i,9.231778084079744,0.9s : 0.3s,2.988947600826665,1.494749210190563,2.58834552545099,3.045539432837058,1.488707423210144,3.9380698204040527,3.4893057346343994,2.0819246768951416,-1.5428171157836914,1.6001923084259033,-0.0994845061431107,-1.1607108536410147,-2.9566674309591776,-0.9125522971153259,0.09932048618793488,-0.396716445684433
1727722849826,9i,9.231778084079744,0.9s : 0.3s,3.4402987726190988,1.5277130560412722,3.082490626633845,3.3164320633542976,1.690064549446106,4.541117191314697,4.050062656402588,2.3723883628845215,-1.6356594562530518,1.6416800022125244,-0.12702861773905405,-1.1149126588896414,-2.925930552551498,-0.8906379342079163,0.12668725848197937,-0.4367086589336395
1727722849836,9i,9.231778084079744,0.9s : 0.3s,3.935329877940915,1.5670564904751307,3.609869139439022,3.5828529376315545,1.9392482042312622,5.173538684844971,4.638743877410889,2.6859030723571777,-1.7307502031326294,1.620883584022522,-0.15706966303317793,-1.0611524638846757,-2.8889796918476653,-0.8621726632118225,0.1564246118068695,-0.4818607270717621
1727722849846,9i,9.231778084079744,0.9s : 0.3s,4.469151736989688,1.6137548504491286,4.167626726434345,3.9134212944856714,2.1253724098205566,5.849714756011963,5.263180732727051,3.046107769012451,-1.8138291835784912,1.6571413278579712,-0.18897538779256923,-0.9985308322461638,-2.845174468252806,-0.8257099390029907,0.1878526210784912,-0.5318971276283264
1727722849856,9i,9.231778084079744,0.9s : 0.3s,5.04223808343612,1.669842568569303,4.757708554151613,4.369270227440527,2.1896133422851562,6.578165531158447,5.963521957397461,3.58297061920166,-1.8043955564498901,1.731184720993042,-0.2226114273621613,-0.926031129971835,-2.7940038074881395,-0.7795190811157227,0.22077736258506775,-0.5861803889274597
1727722849866,9i,9.231778084079744,0.9s : 0.3s,5.645546190275924,1.7374963808544714,5.371526609173282,4.9609709605566925,2.053823709487915,7.3710408210754395,6.668510913848877,4.221837520599365,-1.7887845039367676,1.8940883874893188,-0.2578334755862983,-0.8424753896516217,-2.7356102202731374,-0.7216241359710693,0.2549862563610077,-0.6436153650283813
1727722849876,9i,9.231778084079744,0.9s : 0.3s,6.3173317509310065,1.8189528978750227,6.049800889833737,5.694983803338423,1.8028221130371094,8.282012939453125,7.619762420654297,4.966110706329346,-1.806958556175232,2.122612953186035,-0.2952058931137576,-0.7462045373682314,-2.669288196839844,-0.649491012096405,0.2909368574619293,-0.7025078535079956
1727722849886,9i,9.231778084079744,0.9s : 0.3s,7.091662485354489,1.9172445085012142,6.827580120423792,6.6268048198752485,1.6132838726043701,9.330267906188965,8.772587776184082,5.964001655578613,-1.8272120952606201,2.2375259399414062,-0.3342400028034167,-0.6340702812522022,-2.5914803688425114,-0.5596437454223633,0.3280513286590576,-0.7610396146774292
1727722849896,9i,9.231778084079744,0.9s : 0.3s,7.916372111594766,2.0338796289028096,7.650639258543665,7.482575457673863,1.561529517173767,10.307175636291504,9.764731407165527,6.959719181060791,-1.8685423135757446,2.014893054962158,-0.370866885715798,-0.5037468753056691,-2.4993538423500556,-0.4498925805091858,0.36242350935935974,-0.8162388801574707
1727722849906,9i,9.231778084079744,0.9s : 0.3s,8.787528757624475,2.169152615309694,8.515599720370389,8.289403938998554,1.7810646295547485,11.119308471679688,10.95115852355957,7.936337471008301,-1.8972259759902954,1.4592117071151733,-0.39916660087493,-0.35556445041627255,-2.390304138347983,-0.32075223326683044,0.3886505961418152,-0.8637527227401733
1727722849916,9i,9.231778084079744,0.9s : 0.3s,9.638024149846501,2.324910212627694,9.353411250246822,9.319525776475103,1.966953158378601,12.028838157653809,11.639671325683594,9.169201850891113,-1.4586060047149658,0.8073206543922424,-0.4113471658638064,-0.1904954388656499,-2.2662196287495546,-0.1735507696866989,0.3998444676399231,-0.9000024795532227
1727722849926,9i,9.231778084079744,0.9s : 0.3s,10.35403249808758,2.5018759786773654,10.047218797198102,10.349971671860962,1.0289958715438843,12.804651260375977,11.75871753692627,10.289116859436035,-1.0600688457489014,0.3636507987976074,-0.40752914403486346,-0.014784747513705716,-2.1378975001497453,-0.013573425821959972,0.39634203910827637,-0.9180026054382324
1727722849936,9i,9.231778084079744,0.9s : 0.3s,10.918560593479596,2.702075273936018,10.578929749623498,11.645398538302427,-1.6181423664093018,13.170320510864258,11.92794132232666,11.637117385864258,-0.42245957255363464,-0.1197245717048645,-0.4005035221014845,0.1661474856726271,-2.0097628299319776,0.15229640901088715,0.38988205790519714,-0.908183753490448
1727722849946,9i,9.231778084079744,0.9s : 0.3s,11.349989982765925,2.9269593617326737,10.966092353416155,13.099571254250293,-5.290685176849365,12.917247772216797,11.923704147338867,13.039198875427246,0.7839252948760986,-0.981590986251831,-0.40274756027357006,0.34953997782030727,-1.875577792223204,0.31506413221359253,0.39194753766059875,-0.8643562197685242
1727722849956,9i,9.231778084079744,0.9s : 0.3s,11.746812622318878,3.1734644609791585,11.310027855791175,14.199558662889455,-9.743511199951172,11.723251342773438,11.98317813873291,13.775535583496094,2.811122417449951,-1.9898935556411743,-0.4196038241165821,0.5351774244653817,-1.7221942681537394,0.46575191617012024,0.40739867091178894,-0.7855580449104309
1727722849966,9i,9.231778084079744,0.9s : 0.3s,12.316175866468052,3.4357941586698026,11.827235791723295,14.982024926721234,-13.975902557373047,9.227937698364258,13.143758773803711,13.705938339233398,5.582194805145264,-2.333972215652466,-0.4468061841392942,0.7193778632832423,-1.539720636731804,0.5942320823669434,0.4320874512195587,-0.6783720850944519
1727722849976,9i,9.231778084079744,0.9s : 0.3s,12.997214487274592,3.7078927468690304,12.45709098489437,15.652500685184465,-16.485122680664062,6.705715656280518,13.728697776794434,13.045907020568848,8.440462112426758,-1.887773036956787,-0.4636530340878329,0.8987150027357508,-1.3180566127168656,0.6999119520187378,0.4472184479236603,-0.5568832159042358
1727722849986,9i,9.231778084079744,0.9s : 0.3s,13.660930360931205,3.978392268668919,13.06879540289798,15.514547537250964,-18.394699096679688,3.693046808242798,13.708867073059082,11.098467826843262,10.788634300231934,-1.0632812976837158,-0.4499853745684113,1.0612929577341241,-1.0734478917159342,0.7860840559005737,0.43495237827301025,-0.4391905665397644
1727722849996,9i,9.231778084079744,0.9s : 0.3s,14.255365952424725,4.240174847422299,13.610157078477728,16.02252708049374,-16.604089736938477,2.8195674419403076,15.446950912475586,9.025636672973633,13.238512992858887,-0.03210031986236572,-0.393198973898671,1.1926871021255325,-0.8313224518256437,0.8584427833557129,0.38314521312713623,-0.3409923315048218
1727722850006,9i,9.231778084079744,0.9s : 0.3s,14.687227470858627,4.4824292887733455,13.98651058884564,14.958422770705292,-16.361936569213867,2.0666310787200928,15.393745422363281,6.18011474609375,13.616652488708496,0.38388606905937195,-0.29798544270280203,1.2911405186523248,-0.6193855790437531,0.9187924265861511,0.29359501600265503,-0.2638603746891022
1727722850016,9i,9.231778084079744,0.9s : 0.3s,15.657318743781522,4.69321781184655,14.93738052052429,9.693840631774503,-20.326087951660156,0.6040945649147034,16.317472457885742,3.6303837299346924,8.858046531677246,1.525080919265747,-0.18770113300105487,1.3581112685731909,-0.3989063477143555,0.9602993130683899,0.18660089373588562,-0.20737768709659576
1727722850026,9i,9.231778084079744,0.9s : 0.3s,16.243231458662777,4.882886111052572,15.491933108756376,5.979618036860099,-23.181137084960938,-5.969907283782959,12.326987266540527,5.574165344238281,0.38669827580451965,2.1295485496520996,-0.07984773094029327,1.374019285761029,-0.13537354801934537,0.9775770902633667,0.07976291328668594,-0.19488665461540222
1727722850036,9i,9.231778084079744,0.9s : 0.3s,15.030892208631032,5.082651921827412,14.145471714616985,10.547071294161833,-5.776086807250977,-1.0124092102050781,18.069683074951172,10.463197708129883,-1.286168098449707,-0.3286004066467285,0.03212051322349622,1.3349467594068438,0.0208033547937846,0.9718146920204163,-0.032114990055561066,-0.2335485965013504
1727722850046,9i,9.231778084079744,0.9s : 0.3s,15.86979834228119,5.316860050652479,14.952641861104228,14.153267582250018,-31.246490478515625,-6.279470920562744,-0.4262540936470032,13.87026596069336,1.6818554401397705,2.2587757110595703,0.07745591090162274,1.2929266983575873,0.26057268224006597,0.9587588310241699,-0.07737848907709122,-0.2734852135181427
1727722850056,9i,9.231778084079744,0.9s : 0.3s,15.548550669139985,5.499142624452269,14.54361916122482,13.958847528889526,-18.874954223632812,-10.02924919128418,4.771600246429443,3.468600273132324,-7.528936862945557,11.230910301208496,-0.00029627304084690203,1.1848692994812648,0.5304661069833841,0.9264498353004456,0.000296273035928607,-0.3764181435108185
1727722850066,9i,9.231778084079744,0.9s : 0.3s,13.356850150058557,5.758940628659993,12.051557939398895,24.99562795316343,-7.733680248260498,-9.750167846679688,-0.42887642979621887,14.811723709106445,19.304216384887695,5.722017765045166,-0.019804792733305553,1.0965187350984793,0.649493271594511,0.889448344707489,0.019803497940301895,-0.45660632848739624
1727722850076,9i,9.231778084079744,0.9s : 0.3s,12.813465182757804,5.979187534022016,11.332881646904383,8.544604198471381,-11.051250457763672,-12.022199630737305,-0.018331490457057953,3.566707134246826,5.362426280975342,5.615447044372559,-0.0667003020577767,0.9894516897846947,0.7260046263053935,0.8338666558265686,0.06665085256099701,-0.5479270815849304
1727722850086,9i,9.231778084079744,0.9s : 0.3s,12.789999352877189,6.1972952720692245,11.1882802412787,10.863721863525944,-10.545354843139648,-14.561491012573242,-1.121453881263733,7.866695404052734,3.0963969230651855,6.822600841522217,-0.13333753609166335,0.8663742067742037,0.8153460830114374,0.7552223205566406,0.1329427808523178,-0.6418454051017761
1727722850096,9i,9.231778084079744,0.9s : 0.3s,12.882146863257336,6.377982076143001,11.192455157065826,7.758372859517226,-9.842187881469727,-14.619463920593262,-0.7130867838859558,2.2418360710144043,2.648174285888672,6.939286231994629,-0.2115700799581499,0.7305564144299278,0.8828887209611569,0.652405321598053,0.20999522507190704,-0.7281959652900696
1727722850106,9i,9.231778084079744,0.9s : 0.3s,12.810464369933074,6.539176182335958,11.015769252743766,8.878087423616497,-7.68001127243042,-14.776697158813477,-1.7131702899932861,2.4782047271728516,4.7851667404174805,7.055573463439941,-0.2892538595891193,0.5939988168263791,0.9269820836253861,0.5364285707473755,0.2852371633052826,-0.7942821383476257
1727722850116,9i,9.231778084079744,0.9s : 0.3s,12.565047734203107,6.6770222252359925,10.644143871937622,7.130066350873196,-5.995079040527344,-13.895902633666992,-2.1827287673950195,1.5071791410446167,2.7732205390930176,6.39339542388916,-0.35924314808218316,0.4555525744720335,0.9428928767906637,0.4118730425834656,0.35156580805778503,-0.8406914472579956
1727722850126,9i,9.231778084079744,0.9s : 0.3s,12.168521858026589,6.786500750174649,10.100313449450457,5.700789565198384,-4.345384120941162,-12.837244033813477,-2.3367867469787598,-0.06541424989700317,2.070024013519287,5.311282634735107,-0.416225181191928,0.3200292937402652,0.9387811773759941,0.28773483633995056,0.40431082248687744,-0.8681828379631042
1727722850136,9i,9.231778084079744,0.9s : 0.3s,11.660978534822481,6.875123714837462,9.418656713951847,5.79606603882116,-3.1154236793518066,-11.469392776489258,-2.34842848777771,-0.19447535276412964,1.4828962087631226,5.599783897399902,-0.45993754636986756,0.1895717608852936,0.9162041308451927,0.16885587573051453,0.44389215111732483,-0.8800269961357117
1727722850146,9i,9.231778084079744,0.9s : 0.3s,11.158326544187524,6.9447216959913725,8.733790232879802,5.136346060225007,-1.2900205850601196,-10.753708839416504,-3.332169771194458,-0.7796313166618347,1.3766180276870728,4.886629581451416,-0.4867865365392554,0.06028711481896958,0.8758515045834305,0.053251929581165314,0.46778813004493713,-0.8822349309921265
1727722850156,9i,9.231778084079744,0.9s : 0.3s,10.821961749301314,6.998942403268524,8.25406938055833,3.8378659855030044,-0.6836939454078674,-10.434059143066406,-4.148617744445801,-0.6196863651275635,0.7014922499656677,3.7219769954681396,-0.4952831809207645,-0.06776220132250634,0.8290008187513123,-0.059573885053396225,0.4752808213233948,-0.8778149485588074
1727722850166,9i,9.231778084079744,0.9s : 0.3s,10.636326630590329,7.0403481279060065,7.972762534435314,3.719837788824124,-0.5811883211135864,-10.390520095825195,-4.3189802169799805,-0.6760495901107788,-0.1129530668258667,3.656144380569458,-0.49610694692818047,-0.19497619533416535,0.7804924099123872,-0.1703859567642212,0.4760054349899292,-0.8627789616584778
1727722850176,9i,9.231778084079744,0.9s : 0.3s,10.528308119682292,7.071792695506153,7.799680758515305,2.6752367788283475,-0.27538129687309265,-10.316584587097168,-4.529927730560303,-0.5448935031890869,-0.07348185777664185,2.6181259155273438,-0.4890450846566756,-0.32227565343288045,0.7306221143516921,-0.2795998454093933,0.46978312730789185,-0.8373336791992188
1727722850186,9i,9.231778084079744,0.9s : 0.3s,10.452205629315314,7.099215165935365,7.671358846074405,1.9287219851170163,-0.192254438996315,-10.004942893981934,-4.946038722991943,0.048200756311416626,0.3120866119861603,1.9026947021484375,-0.4736956941812069,-0.4475033233976832,0.6799585353131129,-0.38506901264190674,0.4561781585216522,-0.8022613525390625
1727722850196,9i,9.231778084079744,0.9s : 0.3s,10.362241174785783,7.12535520061765,7.523653064134259,1.6689640261119734,0.4377373456954956,-9.599218368530273,-5.084196090698242,0.4402380585670471,0.2714102566242218,1.58681058883667,-0.4484069586603859,-0.5670737358303206,0.6314706015275569,-0.48406127095222473,0.4335305392742157,-0.7600894570350647
1727722850206,9i,9.231778084079744,0.9s : 0.3s,10.251874823817515,7.1507400033009505,7.346281699500429,1.1332607673364279,1.022809386253357,-9.086432456970215,-5.16709566116333,0.7070884108543396,0.427184134721756,0.775770366191864,-0.4126769051741241,-0.6776159527134616,0.5903234010889787,-0.5743064284324646,0.401062935590744,-0.713667094707489
1727722850216,9i,9.231778084079744,0.9s : 0.3s,10.13630104602837,7.175432889222496,7.1594526151082185,1.0225015553042631,1.259442687034607,-8.546141624450684,-5.35795259475708,0.8682811260223389,0.480380654335022,0.24664092063903809,-0.36932814648636664,-0.7788821869863215,0.555716926639907,-0.6551158428192139,0.360988974571228,-0.6637094020843506
1727722850226,9i,9.231778084079744,0.9s : 0.3s,10.037888265878752,7.201167099720856,6.993024613153042,1.3319071491330576,2.3302485942840576,-8.202672004699707,-5.3286871910095215,1.1419202089309692,0.6847928166389465,0.032460570335388184,-0.31783042693966534,-0.8707875058698459,0.5315618160547876,-0.726530134677887,0.31250637769699097,-0.6119588613510132
1727722850236,9i,9.231778084079744,0.9s : 0.3s,9.979017259240257,7.227328362165511,6.880880045870073,1.5611975410702243,2.6282644271850586,-8.016054153442383,-5.4063944816589355,1.2814717292785645,0.7287673950195312,-0.5138735771179199,-0.2600389807534537,-0.9554975693010654,0.5183354700226923,-0.789146900177002,0.25711822509765625,-0.5577969551086426
1727722850246,9i,9.231778084079744,0.9s : 0.3s,9.922262548859134,7.255070216897193,6.768696346888659,1.7308043818315106,3.1248016357421875,-7.526285171508789,-5.5550079345703125,1.480172872543335,0.7542438507080078,-0.4856833219528198,-0.19862823351921288,-1.034958899298604,0.5119039255674639,-0.8429353833198547,0.1973247230052948,-0.5005227327346802
1727722850256,9i,9.231778084079744,0.9s : 0.3s,9.866117416661135,7.289353655057349,6.648728913923792,2.4694258535975644,3.9458377361297607,-6.843688011169434,-5.67889404296875,2.0001742839813232,1.4447886943817139,-0.09976226091384888,-0.1320103885104436,-1.1060573606915285,0.5164203083255021,-0.886160671710968,0.13162730634212494,-0.444289892911911
1727722850266,9i,9.231778084079744,0.9s : 0.3s,9.812182599587457,7.327493208910773,6.525854016219899,2.1727492680820624,4.212916374206543,-6.38887882232666,-5.602184295654297,1.8972026109695435,1.0254848003387451,0.2642774283885956,-0.0635930378658982,-1.1707738774548953,0.5301680877285597,-0.9191904664039612,0.0635501816868782,-0.3886518180370331
1727722850276,9i,9.231778084079744,0.9s : 0.3s,9.764693290386909,7.3668803819074675,6.409236186472923,1.9601307879043124,4.718132495880127,-5.999757766723633,-5.357117176055908,1.8782198429107666,0.5472363829612732,0.12220993638038635,0.003581010846965376,-1.2321736645105963,0.5516341019318577,-0.9432070255279541,-0.003581003285944462,-0.33218613266944885
1727722850286,9i,9.231778084079744,0.9s : 0.3s,9.73815736151138,7.410140178162045,6.3183487825180125,2.4380049625100573,5.305809497833252,-5.612988471984863,-5.1638641357421875,2.1938891410827637,1.0562562942504883,0.1226428747177124,0.06889932423952448,-1.2914288709217263,0.5835076789828528,-0.9589495062828064,-0.06884482502937317,-0.2750934660434723
1727722850296,9i,9.231778084079744,0.9s : 0.3s,9.735645099023898,7.4564621084412925,6.25970912419477,2.4803558966819743,5.788153648376465,-5.293626308441162,-5.003627777099609,2.1784162521362305,1.1667091846466064,0.21320807933807373,0.131796809627513,-1.3500873941276788,0.6246944925370705,-0.9672802686691284,-0.13141557574272156,-0.21702279150485992
1727722850306,9i,9.231778084079744,0.9s : 0.3s,9.72723528897152,7.5045704776098745,6.188742062293369,2.4210320827050418,6.03891658782959,-4.821016788482666,-4.868519306182861,2.189051866531372,1.0217188596725464,0.15980876982212067,0.1914034820145864,-1.4085000854311314,0.6735793097474604,-0.9688370227813721,-0.19023694097995758,-0.15863387286663055
1727722850316,9i,9.231778084079744,0.9s : 0.3s,9.705653395953846,7.554789918978863,6.093017078794853,2.5027762719285915,6.328454971313477,-4.30546236038208,-4.554713249206543,2.1904983520507812,1.1204627752304077,0.45844215154647827,0.24623449098670785,-1.466444922728606,0.7302709442475406,-0.9645615816116333,-0.24375376105308533,-0.10102029889822006
1727722850326,9i,9.231778084079744,0.9s : 0.3s,9.666959463715452,7.604692520369422,5.968145184540595,2.2045562431599093,6.304112911224365,-3.914853811264038,-4.3029913902282715,1.8710942268371582,0.8396546840667725,0.8087364435195923,0.29526601818620946,-1.523915440201339,0.7921004011966253,-0.9556735754013062,-0.2909943759441376,-0.04483567550778389
1727722850336,9i,9.231778084079744,0.9s : 0.3s,9.619364352654594,7.651995684470888,5.829162254900857,1.851365316937919,6.267134189605713,-3.6866180896759033,-3.9774441719055176,1.5854253768920898,0.6014845371246338,0.7430990934371948,0.337791223750969,-1.5822510164023234,0.8574930684192399,-0.9434270858764648,-0.3314039409160614,0.010807137005031109
1727722850346,9i,9.231778084079744,0.9s : 0.3s,9.565617143997706,7.696655393308995,5.680011188562077,1.7212097153660677,6.141321182250977,-3.535313129425049,-3.7108988761901855,1.5200774669647217,0.6136860847473145,0.5247063636779785,0.37359826794992274,-1.6419835529535107,0.9252696330392581,-0.928662121295929,-0.36496785283088684,0.06622077524662018
1727722850356,9i,9.231778084079744,0.9s : 0.3s,9.503847953478388,7.739208714538379,5.516137633856552,1.696484898398419,5.961825847625732,-3.3756015300750732,-3.47851824760437,1.4063953161239624,0.6395629644393921,0.7007656097412109,0.40317433281528564,-1.7027222127415436,0.9942984219894481,-0.9118274450302124,-0.39234012365341187,0.12099641561508179
1727722850366,9i,9.231778084079744,0.9s : 0.3s,9.428739527314555,7.780322509550661,5.326134688620181,1.7523038646620688,5.671360015869141,-3.2039947509765625,-3.281580924987793,1.3126332759857178,0.6866283416748047,0.9360044002532959,0.4271788152631265,-1.763326832048518,1.0630234778398524,-0.8933219909667969,-0.41430479288101196,0.17414884269237518
1727722850376,9i,9.231778084079744,0.9s : 0.3s,9.3490797863533,7.819283614678868,5.124850886105318,1.572893269566719,5.464893817901611,-3.076651096343994,-2.9972691535949707,1.2045726776123047,0.531059980392456,0.8607980012893677,0.44554211208195893,-1.8232354472575825,1.1305626303162366,-0.873777449131012,-0.43094712495803833,0.22538363933563232
1727722850386,9i,9.231778084079744,0.9s : 0.3s,9.265195542216937,7.855369674572268,4.912943691039718,1.3778307078152707,5.2846574783325195,-2.8732545375823975,-2.7145373821258545,1.055580496788025,0.3653111159801483,0.8066691160202026,0.45794823795982453,-1.8820073594359974,1.1967580229001238,-0.853874683380127,-0.442108690738678,0.2746601700782776
1727722850396,9i,9.231778084079744,0.9s : 0.3s,9.171212886581827,7.8888285063725805,4.677342259023592,1.359460300225735,4.956137657165527,-2.6441657543182373,-2.527543067932129,0.8745314478874207,0.44878241419792175,0.9391067028045654,0.46538532651836895,-1.9378360881029086,1.2606334838305668,-0.8341261744499207,-0.44876718521118164,0.3206894099712372
1727722850406,9i,9.231778084079744,0.9s : 0.3s,9.068396739191135,7.920422294209324,4.416189545384608,1.409545962380569,4.710682392120361,-2.262704610824585,-2.247079610824585,0.8233094811439514,0.4745325744152069,1.0410572290420532,0.4691035923088143,-1.9892618151114039,1.320793420593035,-0.8150086402893066,-0.4520868957042694,0.3624614477157593
1727722850416,9i,9.231778084079744,0.9s : 0.3s,8.96988100091436,7.9511620695996195,4.151841388290821,1.453951588761261,4.469854354858398,-1.9100710153579712,-2.0804693698883057,0.8356066346168518,0.5658084154129028,1.0467079877853394,0.4689812927272524,-2.034861405609479,1.3772112394451943,-0.797688364982605,-0.45197778940200806,0.3992605209350586
1727722850426,9i,9.231778084079744,0.9s : 0.3s,8.883966692008173,7.980546262748012,3.903299313766414,1.4118341163002375,4.352512359619141,-1.561065912246704,-1.863021969795227,0.7195972800254822,0.5815719366073608,1.0664095878601074,0.4656499037608118,-2.076299884075233,1.431046405896532,-0.7817768454551697,-0.4490036070346832,0.43269017338752747
1727722850436,9i,9.231778084079744,0.9s : 0.3s,8.79748855825159,8.008258487671457,3.6419226964895515,1.3414369853249983,4.064908504486084,-1.1615337133407593,-1.708917260169983,0.6289594769477844,0.475005567073822,1.085464358329773,0.46012588723393616,-2.112423723957517,1.4817234882400292,-0.7677536010742188,-0.44406089186668396,0.4619143009185791
1727722850446,9i,9.231778084079744,0.9s : 0.3s,8.712349051189989,8.033773403927091,3.3709807006455557,1.23767328738177,3.765988826751709,-0.835638165473938,-1.4735864400863647,0.5354277491569519,0.2570023834705353,1.0858646631240845,0.4529508264793881,-2.1426861200216165,1.528113550152684,-0.7560851573944092,-0.43762069940567017,0.4866451025009155
1727722850456,9i,9.231778084079744,0.9s : 0.3s,8.63687082013687,8.057349388811916,3.110411289579556,1.1718209201325036,3.5232224464416504,-0.6215622425079346,-1.2138313055038452,0.5062335729598999,0.19456806778907776,1.0387661457061768,0.444099705568605,-2.1680046540200073,1.5699749003824448,-0.7466970086097717,-0.4296450912952423,0.5077885389328003
1727722850466,9i,9.231778084079744,0.9s : 0.3s,8.573096667735793,8.07901410625141,2.868364960274978,1.054099121458196,3.307474136352539,-0.38456061482429504,-1.0332924127578735,0.41761571168899536,0.2899487614631653,0.9233914613723755,0.43376430538196703,-2.189110557881987,1.6079780525032807,-0.7393932342529297,-0.42028945684432983,0.5259800553321838
1727722850476,9i,9.231778084079744,0.9s : 0.3s,8.519263334719245,8.098608933266263,2.6439328872555694,0.9658661501610986,3.0727896690368652,-0.15764693915843964,-0.9295399188995361,0.3081780672073364,0.3101292848587036,0.861245334148407,0.42300407105227966,-2.2061360373527648,1.6426586908843694,-0.7339287400245667,-0.4105015993118286,0.5411441326141357
1727722850486,9i,9.231778084079744,0.9s : 0.3s,8.474238826711415,8.116099627821123,2.4375501068542316,0.8772939877060622,2.8442680835723877,0.03814920037984848,-0.8504669070243835,0.24303781986236572,0.23744723200798035,0.8088239431381226,0.4123485083025071,-2.219432065386321,1.6743669035544677,-0.7301136255264282,-0.40076208114624023,0.5534654855728149
1727722850496,9i,9.231778084079744,0.9s : 0.3s,8.434935701361033,8.131726646028232,2.2412411829986945,0.8203366290078384,2.5946292877197266,0.20220236480236053,-0.7571046948432922,0.20943677425384521,0.18541914224624634,0.7711732387542725,0.4020835974778344,-2.2295315620774994,1.7031244619985013,-0.727701723575592,-0.3913366198539734,0.5632995963096619
1727722850506,9i,9.231778084079744,0.9s : 0.3s,8.40046841507268,8.145485432357077,2.0540050301526462,0.7471722525563044,2.335651397705078,0.3043420612812042,-0.6922284960746765,0.15902179479599,0.11330306529998779,0.7212079167366028,0.3926973440202043,-2.2368163161258168,1.728956437502594,-0.7264351844787598,-0.38268181681632996,0.5708301067352295
1727722850516,9i,9.231778084079744,0.9s : 0.3s,8.371288669915781,8.157175313335516,1.8812136780732702,0.6113505248140912,2.1232235431671143,0.35065650939941406,-0.6111825704574585,0.10007530450820923,0.04608646035194397,0.6013405323028564,0.38407294461331803,-2.242110070940683,1.7521476757298964,-0.7259603142738342,-0.37469977140426636,0.5766990780830383
1727722850526,9i,9.231778084079744,0.9s : 0.3s,8.344738709670281,8.167025928706158,1.7129949248351388,0.5401012264320459,1.888633370399475,0.387722909450531,-0.5176947116851807,0.05986303091049194,0.04266193509101868,0.5350754261016846,0.37599818768389087,-2.245585366512148,1.7726642778996375,-0.7262906432151794,-0.36720117926597595,0.5810897946357727
1727722850536,9i,9.231778084079744,0.9s : 0.3s,8.32130050153041,8.175277759389244,1.5520552804606578,0.5575367667943607,1.6659317016601562,0.4391801059246063,-0.4514821171760559,0.015633046627044678,-0.003580421209335327,0.5573060512542725,0.3687814384089629,-2.2475475339075457,1.7905812032103008,-0.7271961569786072,-0.36047905683517456,0.5841582417488098
1727722850546,9i,9.231778084079744,0.9s : 0.3s,8.301036558369654,8.182095098407396,1.4001884673168727,0.5066762944815317,1.4691506624221802,0.45159125328063965,-0.3757897615432739,-0.01172327995300293,-0.02231287956237793,0.5060489773750305,0.36220297594760725,-2.2485877835470505,1.8063873749540433,-0.7284196615219116,-0.35433512926101685,0.5863888263702393
1727722850556,9i,9.231778084079744,0.9s : 0.3s,8.283335159406631,8.187731783361647,1.2548663700934743,0.4408404023341323,1.2899391651153564,0.4222557246685028,-0.2672899663448334,-0.021890461444854736,-0.008815139532089233,0.4402083158493042,0.3560353754218545,-2.248898435314569,1.8199488967527617,-0.7299253344535828,-0.34856098890304565,0.5879747271537781
1727722850566,9i,9.231778084079744,0.9s : 0.3s,8.269251884178816,8.192198460474982,1.126237589581434,0.38904687702001256,1.163089632987976,0.3949841558933258,-0.20357970893383026,-0.056293368339538574,-0.015856772661209106,0.3846259117126465,0.3502381637305238,-2.2488195942319376,1.8316479352796806,-0.7315331697463989,-0.3431215286254883,0.5891748070716858
1727722850576,9i,9.231778084079744,0.9s : 0.3s,8.26188083638796,8.195863763615321,1.0423493286475145,0.37346886869431845,1.3243600130081177,-0.004494711756706238,0.06369320303201675,-0.06605261564254761,0.036665648221969604,0.3657481074333191,0.3437657701720565,-2.249437620446433,1.8420970964946255,-0.7328822612762451,-0.3370349109172821,0.5910084843635559
1727722850586,9i,9.231778084079744,0.9s : 0.3s,8.249280166029527,8.199706062593393,0.903019238287477,0.3536762678389206,0.7982088327407837,0.2887353003025055,-0.21283772587776184,0.03720885515213013,0.13725847005844116,0.32382482290267944,0.3370713955915581,-2.2496355396026635,1.8507135818218858,-0.7345050573348999,-0.33072471618652344,0.5925570130348206
1727722850596,9i,9.231778084079744,0.9s : 0.3s,8.24202856980011,8.203025516275675,0.8008790949522069,0.4332218004173139,0.8111302852630615,0.29581788182258606,0.04127471148967743,-0.1857784390449524,-0.09830352663993835,0.3788191080093384,0.3324057529218019,-2.248989197211596,1.8576459495750568,-0.7360811829566956,-0.32631802558898926,0.5930435657501221
1727722850606,9i,9.231778084079744,0.9s : 0.3s,8.235551986329401,8.206179544707624,0.69493438507268,0.2961140096803457,0.6438672542572021,0.21469001471996307,0.04208485037088394,-0.015652239322662354,0.14332616329193115,0.25864285230636597,0.3276065342127543,-2.2483462680147874,1.8633073347306495,-0.7376742362976074,-0.3217777907848358,0.5935453176498413
1727722850616,9i,9.231778084079744,0.9s : 0.3s,8.230162306308465,8.208744765635478,0.5933641047727787,0.288901142858715,0.5082628130912781,0.18299414217472076,0.07645400613546371,-0.07118064165115356,0.06272426247596741,0.27287882566452026,0.323381847185967,-2.2476550528455665,1.8676159455474053,-0.7391372919082642,-0.3177749216556549,0.5938813090324402
1727722850626,9i,9.231778084079744,0.9s : 0.3s,8.226092920014159,8.210929414999201,0.4992422964933385,0.2818672214359796,0.3909510672092438,0.15916897356510162,0.113155297935009,-0.07105380296707153,0.09344148635864258,0.2562599778175354,0.31992522567387793,-2.2468980264894647,1.8706217050029774,-0.7404390573501587,-0.31449559330940247,0.5940054059028625
1727722850636,9i,9.231778084079744,0.9s : 0.3s,8.22340229571123,8.212891191099052,0.4156484094476223,0.27849695652652723,0.2956330478191376,0.14302276074886322,0.12602156400680542,-0.06165093183517456,0.08633419871330261,0.2574997544288635,0.31682790227388685,-2.2460335871014414,1.8726479367804962,-0.7417089939117432,-0.3115539252758026,0.5939711928367615
1727722850646,9i,9.231778084079744,0.9s : 0.3s,8.22173416229148,8.21465811531116,0.34103472542147795,0.27999190657071416,0.20100295543670654,0.13583062589168549,0.15054713189601898,-0.0720604658126831,0.05746561288833618,0.26438695192337036,0.3142126703351871,-2.2449731814291587,1.8737537401120794,-0.7429724335670471,-0.3090677857398987,0.5936909317970276
1727722850656,9i,9.231778084079744,0.9s : 0.3s,8.220751616207192,8.21608650060347,0.2769110867671506,0.25075758777297913,0.11597102880477905,0.1414625495672226,0.16400612890720367,-0.08022540807723999,0.05339697003364563,0.23149949312210083,0.31198903876850503,-2.2436665166643346,1.8740402990614673,-0.7442831993103027,-0.30695226788520813,0.5931465029716492
1727722850666,9i,9.231778084079744,0.9s : 0.3s,8.220269294644707,8.217136098270053,0.226939681382077,0.23380916081033376,0.05047830194234848,0.14892499148845673,0.1832357496023178,-0.09181356430053711,0.04148206114768982,0.21098870038986206,0.31018017237841067,-2.242040385439657,1.8735205465320213,-0.7456802725791931,-0.3052302300930023,0.5922797322273254
1727722850676,9i,9.231778084079744,0.9s : 0.3s,8.220334823412491,8.217853798120974,0.20194940385348448,0.20137959280070092,0.053347859531641006,0.16665230691432953,0.2050917148590088,-0.08566004037857056,0.027391105890274048,0.18018275499343872,0.308330592380929,-2.240200160330448,1.8726585252363452,-0.7472103834152222,-0.30346837639808655,0.5912558436393738
1727722850686,9i,9.231778084079744,0.9s : 0.3s,8.220626042703273,8.218237971528996,0.19813424058006043,0.1716260822140755,0.03765997663140297,0.1975734680891037,0.2164817899465561,-0.08741778135299683,0.022494196891784668,0.145971417427063,0.30639474960562935,-2.238064226714407,1.8716689857001232,-0.7489317059516907,-0.30162325501441956,0.590021014213562
1727722850696,9i,9.231778084079744,0.9s : 0.3s,8.220755897456467,8.21844052292267,0.1950971469494815,0.17638043397497616,0.005047838669270277,0.25030508637428284,0.21784035861492157,-0.07457220554351807,-0.0028276443481445312,0.15981566905975342,0.30451502275834,-2.235455997854398,1.8704468958204084,-0.7509132027626038,-0.2998305559158325,0.5884144306182861
1727722850706,9i,9.231778084079744,0.9s : 0.3s,8.221032669239097,8.218638141495267,0.1984067737143412,0.1919766826384271,-0.06195835769176483,0.2881518006324768,0.2093086689710617,-0.06262558698654175,-0.009142279624938965,0.18124431371688843,0.30301446285563166,-2.2322410161514568,1.8688016293781298,-0.7531551718711853,-0.2983986735343933,0.5862728357315063
1727722850716,9i,9.231778084079744,0.9s : 0.3s,8.221556369174548,8.218906127776823,0.2087371416571309,0.16268276390004174,-0.10684913396835327,0.30922630429267883,0.20474541187286377,-0.03601294755935669,-0.014933168888092041,0.15794223546981812,0.3019033550446304,-2.228616864865766,1.8667619727074984,-0.7555368542671204,-0.29733800888061523,0.5837417840957642
1727722850726,9i,9.231778084079744,0.9s : 0.3s,8.22231220185667,8.219285065237804,0.22309406347972516,0.12134161133215673,-0.16094939410686493,0.32430005073547363,0.19950856268405914,-0.01612192392349243,0.00016203522682189941,0.12026572227478027,0.30112479445433765,-2.224723934767609,1.8643704895736384,-0.7579869627952576,-0.2965945899486542,0.5809366703033447
1727722850736,9i,9.231778084079744,0.9s : 0.3s,8.223238875961579,8.219809700290508,0.23745757965565953,0.10924497681186354,-0.1623440980911255,0.3318929076194763,0.19405807554721832,-0.005193650722503662,0.01477581262588501,0.10811644792556763,0.3005612854007754,-2.2206555498072413,1.8617483647343216,-0.7604772448539734,-0.2960563898086548,0.5779492855072021
1727722850746,9i,9.231778084079744,0.9s : 0.3s,8.224132818927224,8.220412672168683,0.24733807350342338,0.08236185825149686,-0.15930968523025513,0.32338809967041016,0.19246096909046173,-0.0017925500869750977,0.027671396732330322,0.07755357027053833,0.3000041630076338,-2.2165981644275776,1.859195435013138,-0.7629473805427551,-0.2955241799354553,0.5749580264091492
1727722850756,9i,9.231778084079744,0.9s : 0.3s,8.224954775827912,8.221051097932754,0.2533770107824401,0.06495762238934304,-0.17988711595535278,0.3096989095211029,0.1918126791715622,0.0027742385864257812,0.02643570303916931,0.05927014350891113,0.2994933984456812,-2.2126501380752965,1.8565862660214913,-0.7653322815895081,-0.2950361967086792,0.5720317363739014
1727722850766,9i,9.231778084079744,0.9s : 0.3s,8.225761271059689,8.221732078791149,0.2574298215865544,0.057861251754510644,-0.19072352349758148,0.30804163217544556,0.19053196907043457,0.009505867958068848,0.02539166808128357,0.05111581087112427,0.29905554222382297,-2.2087355540117124,1.853804505751265,-0.7676694393157959,-0.29461780190467834,0.5691083073616028
1727722850776,9i,9.231778084079744,0.9s : 0.3s,8.22669325811623,8.22245842605235,0.2639306631972491,0.06756234967871173,-0.19280092418193817,0.31339675188064575,0.20451147854328156,0.014970719814300537,0.03187602758407593,0.05765819549560547,0.29862378026398284,-2.2047720021249493,1.850958900945362,-0.770021378993988,-0.2942051887512207,0.5661364197731018
1727722850786,9i,9.231778084079744,0.9s : 0.3s,8.227759207405729,8.223251517016148,0.2723161084867267,0.08612417292936225,-0.21456880867481232,0.3170229196548462,0.21088281273841858,0.0257415771484375,0.04907083511352539,0.06593024730682373,0.2981588642391981,-2.200727709123318,1.8479504874745618,-0.7724151611328125,-0.2937608063220978,0.563098132610321
1727722850796,9i,9.231778084079744,0.9s : 0.3s,8.228956837076135,8.224109544004559,0.28240544377753785,0.08681909168794844,-0.23491042852401733,0.31808751821517944,0.23102447390556335,0.02804577350616455,0.05210515856742859,0.0635298490524292,0.297677762744894,-2.196583289531288,1.8447071491263325,-0.774856686592102,-0.29330089688301086,0.5599747896194458
1727722850806,9i,9.231778084079744,0.9s : 0.3s,8.230225161148905,8.225011049730321,0.2929154059154907,0.07116460522357287,-0.24346210062503815,0.31920576095581055,0.2531428337097168,0.03044116497039795,0.03837496042251587,0.051624596118927,0.29713793146410794,-2.19235947472773,1.8411923964439016,-0.7773435711860657,-0.29278475046157837,0.5567890405654907
1727722850816,9i,9.231778084079744,0.9s : 0.3s,8.231478738571884,8.225937251206572,0.3019909978344659,0.055568506254749774,-0.25978782773017883,0.31401652097702026,0.25958454608917236,0.02729707956314087,0.022165387868881226,0.043028175830841064,0.29651072698259767,-2.1880950049882184,1.8374876991327864,-0.7798606753349304,-0.292184978723526,0.553575336933136
1727722850826,9i,9.231778084079744,0.9s : 0.3s,8.232682050362904,8.226848016612715,0.3098797410657589,0.04169363584786101,-0.27094992995262146,0.3021497428417206,0.27677151560783386,0.028152167797088623,0.012310057878494263,0.028182923793792725,0.295858515217348,-2.1838695748741754,1.8335939837579143,-0.7823482751846313,-0.29156118631362915,0.550384521484375
1727722850836,9i,9.231778084079744,0.9s : 0.3s,8.233800808774738,8.22777502782867,0.3149505517037213,0.04810414675095256,-0.2696661353111267,0.2904142737388611,0.29777082800865173,0.040312230587005615,0.019930392503738403,0.017079591751098633,0.2950515622763327,-2.1797185517342337,1.8295412958349722,-0.7848190665245056,-0.2907891869544983,0.5472667813301086
1727722850846,9i,9.231778084079744,0.9s : 0.3s,8.234754284664458,8.228697915933394,0.3157669031312224,0.042495257827855376,-0.252424031496048,0.27513012290000916,0.30891668796539307,0.04208528995513916,0.003592371940612793,0.004665851593017578,0.29406722029547827,-2.1756975780291077,1.82548259668004,-0.7872481346130371,-0.2898472249507904,0.5442689657211304
