timestamp,club,max_speed,tempo,speed,l.speed,t.spped,acc,rotation.x,rotation.y,rotation.z,userAcceleration.x,userAcceleration.y,userAcceleration.z,pitch,roll,yaw,gravity.x,gravity.y,gravity.z
1727722744168,9i,8.22432207037798,1.3s : 0.4s,0.022443752777673295,0.00035672892871917785,0.022440917610844983,0.0414153752896927,-0.10146622359752655,0.01210925355553627,-0.041029177606105804,-0.01030278205871582,-0.0012963712215423584,-0.04009246081113815,-0.28514346398187373,1.465920992193803,0.25703323902122993,0.9543487429618835,0.28129512071609497,-0.10045621544122696
1727722744178,9i,8.22432207037798,1.3s : 0.4s,0.023311094056175707,0.0008681993416644365,0.023294920819762487,0.0513440036131519,-0.05585399642586708,0.009207384660840034,-0.03700600937008858,-0.006931722164154053,0.006659865379333496,-0.05043613910675049,-0.2857569799188677,1.4661239949303257,0.2577950153054185,0.954197347164154,0.2818838059902191,-0.1002444326877594
1727722744188,9i,8.22432207037798,1.3s : 0.4s,0.021462225029766552,0.001464149182128861,0.021412224788676427,0.04863706922533228,-0.008356516249477863,0.001963853370398283,-0.032245609909296036,-0.0038444995880126953,0.010587811470031738,-0.04731471836566925,-0.28614793017341683,1.4661029120416724,0.25805765693888,0.9540857076644897,0.28225889801979065,-0.10025303810834885
1727722744198,9i,8.22432207037798,1.3s : 0.4s,0.005480355000262094,0.002098336582531763,0.005062733897343081,0.04400655316611379,0.07840301096439362,0.008741021156311035,-0.022796813398599625,-0.0024217963218688965,0.012524724006652832,-0.04211701452732086,-0.2863238874608436,1.4657993449340374,0.25757191424124476,0.954005777835846,0.28242769837379456,-0.10053744912147522
1727722744208,9i,8.22432207037798,1.3s : 0.4s,0.024430463407731494,0.002761772054145089,0.02427385748984802,0.041943828567371715,0.08255194872617722,0.0097303856164217,-0.06723618507385254,-0.0012766122817993164,0.0124606192111969,-0.04002983868122101,-0.28653387787339973,1.465316416163115,0.2565918437127691,0.9538981318473816,0.282629132270813,-0.10099191963672638
1727722744218,9i,8.22432207037798,1.3s : 0.4s,0.134559063173992,0.003420443104969103,0.13451558293085614,0.03065615041932252,0.10499466955661774,0.027992036193609238,-0.5877534747123718,-0.008928537368774414,0.010822176933288574,-0.027257315814495087,-0.28698524404140857,1.4645334116352948,0.25549390080984835,0.9536916613578796,0.28306207060813904,-0.10172522813081741
1727722744228,9i,8.22432207037798,1.3s : 0.4s,0.28178423876080605,0.004044888232194075,0.2817552059735472,0.031049241136566402,0.08672964572906494,0.1008414700627327,-0.9266828298568726,0.026577889919281006,-0.011204540729522705,-0.011494755744934082,-0.2865326300466661,1.4638914652028168,0.25430309378194044,0.9537535309791565,0.2826279401779175,-0.1023510992527008
1727722744238,9i,8.22432207037798,1.3s : 0.4s,0.24571378367030533,0.004630918806387779,0.24567014079164415,0.03740042630764566,0.09765313565731049,0.08616185933351517,-0.21856211125850677,-0.03184103965759277,-0.010770320892333984,-0.01639939844608307,-0.28642991106950255,1.4632456486575385,0.2533541089047795,0.9537161588668823,0.28252938389778137,-0.10297015309333801
1727722744248,9i,8.22432207037798,1.3s : 0.4s,0.16091296531372934,0.005154507077607629,0.16083038724956286,0.03348458915125911,0.11032898724079132,0.02825409173965454,0.09484799206256866,-0.024825096130371094,-0.022285878658294678,-0.002876095473766327,-0.28666338797887964,1.4624339699474926,0.25220972727717866,0.9535664916038513,0.2827533483505249,-0.10373707115650177
1727722744258,9i,8.22432207037798,1.3s : 0.4s,0.1181996043066904,0.005639190600295006,0.11806500746466636,0.027180101496909748,0.14362795650959015,0.009034456685185432,0.048270802944898605,-0.0202980637550354,-0.016213536262512207,-0.0079917311668396,-0.28655275760617216,1.4614495544060737,0.2506939343882022,0.9534950852394104,0.2826472222805023,-0.1046791523694992
1727722744268,9i,8.22432207037798,1.3s : 0.4s,0.11343237515981672,0.00611178811421323,0.11326760251918624,0.023306493536304696,0.18631576001644135,0.003140881657600403,0.014087534509599209,-0.016526639461517334,-0.004383385181427002,-0.015838205814361572,-0.28640479959352805,1.460449724239973,0.2488306245894169,0.9534314870834351,0.2825053036212921,-0.10563703626394272
1727722744278,9i,8.22432207037798,1.3s : 0.4s,0.111550737786708,0.006566812268872135,0.11135728120506659,0.01596874514162689,0.20927314460277557,0.0028061666525900364,0.0012589881662279367,0.010174036026000977,0.005747407674789429,-0.010883800685405731,-0.2862309694528081,1.4594360668386637,0.2466434656688042,0.9533726572990417,0.28233855962753296,-0.10660888254642487
1727722744288,9i,8.22432207037798,1.3s : 0.4s,0.11672719216459186,0.006975575604613404,0.11651857678333476,0.008667207204957037,0.2143893539905548,0.003811243688687682,0.002821731148287654,0.008553028106689453,-0.0005830526351928711,0.0012752413749694824,-0.2860540100472535,1.4584359245840082,0.24432478009499567,0.953315258026123,0.28216877579689026,-0.10756794363260269
1727722744298,9i,8.22432207037798,1.3s : 0.4s,0.11699597098968138,0.007328979408781028,0.11676619069167252,0.014816739882292646,0.1898449957370758,0.00243638688698411,0.004870068281888962,0.010944962501525879,-0.007440656423568726,0.006661847233772278,-0.2858856819700123,1.4576089135449488,0.24214406176767067,0.9532729983329773,0.2820073068141937,-0.10836166143417358
1727722744308,9i,8.22432207037798,1.3s : 0.4s,0.11526154148550692,0.00763793011091453,0.11500819522640991,0.023826535037341067,0.15918375551700592,-0.006407705135643482,0.011979110538959503,0.008099138736724854,-0.0221216082572937,0.0035696178674697876,-0.28542653278972335,1.4570584936422537,0.24032952457082774,0.9533417820930481,0.2815667390823364,-0.1089010238647461
1727722744318,9i,8.22432207037798,1.3s : 0.4s,0.11218981920228288,0.00792412099533782,0.11190962353208131,0.026373064581268695,0.14658886194229126,-0.012562270276248455,0.01894833706319332,0.006481170654296875,-0.025311321020126343,-0.003587476909160614,-0.2850932934181095,1.456350195205384,0.23874402573130032,0.9533576369285583,0.28124698996543884,-0.10958696156740189
1727722744328,9i,8.22432207037798,1.3s : 0.4s,0.1092797821774573,0.008211594166256098,0.108970824141149,0.025342089066885832,0.1412348449230194,-0.015579632483422756,0.023739628493785858,0.006189227104187012,-0.021271735429763794,-0.012305617332458496,-0.2845887256934714,1.4557806851763901,0.23727362083168022,0.953436017036438,0.2807627320289612,-0.1101461723446846
1727722744338,9i,8.22432207037798,1.3s : 0.4s,0.10091768466583913,0.008504994602763355,0.10055866021939983,0.020449228858742573,0.12105300277471542,-0.01880289986729622,0.027668491005897522,0.0005196928977966309,-0.015064746141433716,-0.013818621635437012,-0.28409938050120986,1.4551756341763777,0.23591612589751934,0.9535055756568909,0.2802930474281311,-0.11073887348175049
1727722744358,9i,8.22432207037798,1.3s : 0.4s,0.09672815318258146,0.008817948172433749,0.09632538298984966,0.02246374480888022,0.11411572992801666,-0.0324476920068264,-0.02298516407608986,0.001482844352722168,-0.010209858417510986,-0.019954442977905273,-0.283508565709736,1.453821402692399,0.23360115667211714,0.9535189270973206,0.2797258794307709,-0.11204933375120163
1727722744368,9i,8.22432207037798,1.3s : 0.4s,0.1952042768635857,0.009130374622730739,0.1949906304546042,0.018038412972933994,0.11961808800697327,0.021690642461180687,-0.8183757662773132,-0.01282346248626709,-8.842349052429199e-05,-0.012686029076576233,-0.28363066949606447,1.453251565055785,0.23250376607502773,0.9534210562705994,0.2798430919647217,-0.11258866637945175
1727722744378,9i,8.22432207037798,1.3s : 0.4s,0.4281380611451108,0.009492923829634431,0.428032806918184,0.16860679809713033,0.16757456958293915,0.10228379815816879,-1.4678955078125,-0.16678929328918457,-0.021298468112945557,-0.012488365173339844,-0.28250268077448115,1.452683088307977,0.2315189174316293,0.9536697864532471,0.27875998616218567,-0.11316777765750885
1727722744388,9i,8.22432207037798,1.3s : 0.4s,0.3985943874969951,0.009969236160547214,0.3984696978121172,0.03843778126628174,0.17197304964065552,0.045382432639598846,-0.46116554737091064,-0.03172093629837036,0.017527729272842407,-0.012807182967662811,-0.28214501232603856,1.4521017295466567,0.23053345868480582,0.9537026882171631,0.2784164845943451,-0.11373396962881088
1727722744398,9i,8.22432207037798,1.3s : 0.4s,0.27827166673244474,0.010400249469460547,0.27807724703223347,0.01844967648746536,0.09286957234144211,-0.01684405654668808,0.03188800439238548,0.009952068328857422,0.01528853178024292,-0.002758204936981201,-0.28237932742149463,1.4515885090417613,0.2295092420906042,0.9535794258117676,0.2786415219306946,-0.1142156571149826
1727722744408,9i,8.22432207037798,1.3s : 0.4s,0.1894689115683764,0.010792025166891104,0.1891613085271468,0.012675270703759647,0.05092291906476021,-0.027479125186800957,0.04774206504225731,0.011652827262878418,-0.004834264516830444,0.001226373016834259,-0.2821531853912913,1.4511141981252769,0.2288385580890083,0.9535875916481018,0.27842432260513306,-0.11467544734477997
1727722744348,9i,8.22432207037798,1.3s : 0.4s,0.1383629580637571,0.01119792054535837,0.13790908142545524,0.021289412754757372,0.10757314413785934,-0.026065073907375336,0.02532331272959709,0.0016213655471801758,-0.016674846410751343,-0.013136200606822968,-0.28372611780463464,1.4544886419657215,0.23475489883312467,0.9535329937934875,0.27993473410606384,-0.11140601336956024
1727722744418,9i,8.22432207037798,1.3s : 0.4s,0.09556577947944893,0.01159493212263005,0.09485976890434779,0.016423237918924395,0.03850126639008522,-0.027766434475779533,0.03914162144064903,-0.01566368341445923,-0.004932761192321777,-0.0001990795135498047,-0.28185860743972346,1.4506991071273048,0.22838195375193993,0.9536214470863342,0.27814140915870667,-0.11508110165596008
1727722744428,9i,8.22432207037798,1.3s : 0.4s,0.06308333946571941,0.011953907548056154,0.06194038918573015,0.004356600741261708,0.019177906215190887,-0.0277565810829401,0.05331389978528023,-0.00305098295211792,0.0017461180686950684,0.0025734305381774902,-0.2815296745186132,1.4503634530180798,0.2281143036668432,0.9536735415458679,0.27782541513442993,-0.1154121682047844
1727722744438,9i,8.22432207037798,1.3s : 0.4s,0.04493615041486582,0.012292176640292215,0.0432222165969227,0.014134820072937992,-0.00015797512605786324,-0.021916355937719345,0.05496099591255188,-0.01338648796081543,0.002177685499191284,0.003981553018093109,-0.28123920557767157,1.4501130693238575,0.22797782536172945,0.9537244439125061,0.27754637598991394,-0.11566063016653061
1727722744448,9i,8.22432207037798,1.3s : 0.4s,0.038167159050087156,0.012598999447271123,0.03602772880549524,0.005471057567954786,-0.014850635081529617,-0.010056502185761929,0.06828612834215164,-0.0013303756713867188,0.003964036703109741,0.003528311848640442,-0.2809999103555064,1.4499247778537614,0.2279453078060649,0.9537686109542847,0.27731648087501526,-0.11584822088479996
1727722744458,9i,8.22432207037798,1.3s : 0.4s,0.023359161524548623,0.012868506982935136,0.01949492126580927,0.006849879671269246,-0.025496620684862137,0.004475036635994911,0.0990496352314949,0.0035827159881591797,0.003772646188735962,0.004455573856830597,-0.28077029336323867,1.4497765041683772,0.22794839302531744,0.953814685344696,0.27709585428237915,-0.1159973293542862
1727722744468,9i,8.22432207037798,1.3s : 0.4s,0.035542919745194516,0.0130816860006798,0.033047974754785756,0.01677822153611944,-0.05090158060193062,0.02138504572212696,0.1339024156332016,0.013422787189483643,0.002442657947540283,0.009765803813934326,-0.2805665046190024,1.4497035305354413,0.2280259040083424,0.9538623690605164,0.276900053024292,-0.11607376486063004
1727722744478,9i,8.22432207037798,1.3s : 0.4s,0.06001899378491768,0.013226270563105864,0.058543534074614136,0.024294255915506158,-0.09855738282203674,0.03860624507069588,0.15746769309043884,0.01907634735107422,0.0007967352867126465,0.015022285282611847,-0.28040555432643544,1.4497812938523997,0.22841247237742776,0.953915536403656,0.27674537897109985,-0.11600495129823685
1727722744488,9i,8.22432207037798,1.3s : 0.4s,0.08465512914894718,0.013295531631003948,0.08360454371548175,0.030146827273188632,-0.10883478820323944,0.046776555478572845,0.17872212827205658,0.02174907922744751,-0.0037398338317871094,0.020538315176963806,-0.2802516753839038,1.449922696288657,0.229047306953959,0.9539743065834045,0.2765974998474121,-0.11587521433830261
1727722744498,9i,8.22432207037798,1.3s : 0.4s,0.1051799201702981,0.01323260947072333,0.10434420757102718,0.035554373227263146,-0.09893501549959183,0.06639064848423004,0.19503332674503326,0.030187904834747314,0.011616766452789307,0.01475989818572998,-0.28008641628737185,1.4500514790495753,0.2295577603060461,0.9540345072746277,0.27643871307373047,-0.11575785279273987
1727722744508,9i,8.22432207037798,1.3s : 0.4s,0.11940397802920016,0.01294134582931518,0.11870059619615977,0.045733397009293915,-0.08860860764980316,0.08296563476324081,0.1933390200138092,0.02736365795135498,0.029196619987487793,0.022143423557281494,-0.27995754765970293,1.450153794163944,0.2298896027829354,0.9540815949440002,0.2763148546218872,-0.1156645193696022
1727722744518,9i,8.22432207037798,1.3s : 0.4s,0.13032711611155462,0.012544665357571275,0.1297219663935958,0.05039539683099727,-0.0865250825881958,0.10179324448108673,0.1917884200811386,0.025201141834259033,0.0400787889957428,0.017271049320697784,-0.27984361582460215,1.4502427671920752,0.23005609329035537,0.9541231393814087,0.2762053608894348,-0.11558341234922409
1727722744528,9i,8.22432207037798,1.3s : 0.4s,0.13094698731590254,0.012086479750561546,0.13038799980960827,0.05392181242495654,-0.0692153349518776,0.12070515006780624,0.15727278590202332,0.031222224235534668,0.04072815179824829,0.01655150204896927,-0.27973954349456276,1.4503128705228676,0.230086378219576,0.9541597962379456,0.2761053144931793,-0.11551998555660248
1727722744538,9i,8.22432207037798,1.3s : 0.4s,0.12901096019648323,0.011631647646393333,0.128485534687173,0.05609201932342615,-0.05130917578935623,0.13234791159629822,0.11370790749788284,0.03175634145736694,0.04555034637451172,0.007938221096992493,-0.27965974567042895,1.4503872427143272,0.22994987556292443,0.954190194606781,0.2760286331176758,-0.11545165628194809
1727722744548,9i,8.22432207037798,1.3s : 0.4s,0.11559001166625926,0.011225899366549325,0.11504360034533889,0.04699101132505495,-0.05149879306554794,0.13208931684494019,0.05248955264687538,0.0207749605178833,0.04206445813179016,0.0026716142892837524,-0.2796351134538849,1.450550449694069,0.2298030527520086,0.9542157649993896,0.27600494027137756,-0.11529674381017685
1727722744558,9i,8.22432207037798,1.3s : 0.4s,0.1046383322249328,0.010859813716325354,0.10407326754196834,0.03854992062257668,-0.05165285989642143,0.12937729060649872,-0.0019891695119440556,0.026654958724975586,0.02690771222114563,0.0071822404861450195,-0.27964012087843315,1.4507804571777159,0.22977062697783263,0.9542410373687744,0.27600976824760437,-0.11507711559534073
1727722744568,9i,8.22432207037798,1.3s : 0.4s,0.09950243259029085,0.010544224991386816,0.09894217205376275,0.036985854080011295,-0.05074525251984596,0.1273471713066101,-0.04856199771165848,0.026051998138427734,0.0258292555809021,0.0047006756067276,-0.279666715995424,1.4510454486551132,0.22980444690272755,0.9542640447616577,0.276035338640213,-0.1148233488202095
1727722744578,9i,8.22432207037798,1.3s : 0.4s,0.0937919027140165,0.010283195117931592,0.09322648182186263,0.0334143257774581,-0.04242793470621109,0.12543092668056488,-0.0923999547958374,0.023398280143737793,0.02320253849029541,0.0055389404296875,-0.2797642998843778,1.451266980753142,0.2298452013021692,0.9542628526687622,0.2761291265487671,-0.1146087497472763
1727722744588,9i,8.22432207037798,1.3s : 0.4s,0.08388576476523575,0.010075054844012173,0.08327853745196667,0.029894267605198286,-0.0379764586687088,0.12457285821437836,-0.13149356842041016,0.023201823234558105,0.017839491367340088,0.00609058141708374,-0.27993058344856425,1.4515146578848088,0.2298854881964485,0.9542456865310669,0.2762889266014099,-0.11436694115400314
1727722744598,9i,8.22432207037798,1.3s : 0.4s,0.08959362994027557,0.009919094589155937,0.08904285534733498,0.02309159657428904,-0.03422846272587776,0.12188497930765152,-0.1707155704498291,0.020960628986358643,0.008841484785079956,0.003962576389312744,-0.28014800042433774,1.4517543956858638,0.22995515310707432,0.9542133212089539,0.27649787068367004,-0.11413101851940155
1727722744608,9i,8.22432207037798,1.3s : 0.4s,0.10552034005134492,0.00983384794117031,0.10506111363973546,0.0158660345120748,-0.04550588130950928,0.11922074854373932,-0.20466554164886475,0.012758255004882812,0.007702857255935669,-0.005442790687084198,-0.280396006316267,1.4520239379539688,0.2300713483348135,0.9541758894920349,0.27673619985580444,-0.1138656809926033
1727722744618,9i,8.22432207037798,1.3s : 0.4s,0.12411455706141043,0.009810689525013856,0.12372620436105639,0.007712764097325004,-0.05649395287036896,0.10755286365747452,-0.2356840968132019,-0.0005220174789428711,-0.004099220037460327,-0.006512343883514404,-0.28072094778456314,1.4523181543625616,0.23040790599156868,0.9541199803352356,0.2770484387874603,-0.1135743111371994
1727722744628,9i,8.22432207037798,1.3s : 0.4s,0.14182582497581234,0.00984075256482073,0.141484006937278,0.010800734600499693,-0.035123951733112335,0.10732835531234741,-0.2581779360771179,-0.002727031707763672,-0.0002295076847076416,-0.010448276996612549,-0.2810765661147228,1.4525769360533445,0.23070159648495797,0.9540514945983887,0.27739012241363525,-0.11331576853990555
1727722744638,9i,8.22432207037798,1.3s : 0.4s,0.15889209284160483,0.009952971598861233,0.15858006029743282,0.02952102368522126,-0.023344388231635094,0.1031615361571312,-0.2830375134944916,-0.010454118251800537,0.0209331214427948,-0.01800018548965454,-0.28139558217397737,1.4528686789286749,0.2308897245263927,0.9539965987205505,0.2776966094970703,-0.11302701383829117
1727722744648,9i,8.22432207037798,1.3s : 0.4s,0.17446634451527876,0.010137571642949903,0.17417156774200546,0.033432912790306094,0.007007658947259188,0.10351786762475967,-0.30246978998184204,-0.018267393112182617,0.02195015549659729,-0.017385415732860565,-0.28171879869329836,1.45312485923651,0.23086526305301747,0.9539362788200378,0.2780070900917053,-0.11277206242084503
1727722744658,9i,8.22432207037798,1.3s : 0.4s,0.18828375517668272,0.01037860183952617,0.18799749223670398,0.032308558992439305,0.022583289071917534,0.09942631423473358,-0.31678810715675354,-0.015435755252838135,0.025040656328201294,-0.013362109661102295,-0.2820120912974401,1.4533600474769228,0.23066342175541701,0.9538818001747131,0.2782888114452362,-0.11253815144300461
1727722744668,9i,8.22432207037798,1.3s : 0.4s,0.20088674618040964,0.010646217514845336,0.20060444372839534,0.025788012749449793,0.02985505200922489,0.0989631935954094,-0.32967647910118103,-0.01753389835357666,0.01786467432975769,-0.00619979202747345,-0.28230259506677585,1.4535998336766875,0.2303714398733067,0.9538285136222839,0.2785678207874298,-0.11229997873306274
1727722744678,9i,8.22432207037798,1.3s : 0.4s,0.21113835781682314,0.0109236650452931,0.21085558964268195,0.021761897853535602,0.022854531183838844,0.09464190155267715,-0.3372242748737335,-0.018051981925964355,0.011274933815002441,-0.004536740481853485,-0.2825705516189246,1.4538468300324319,0.2301113795214782,0.9537818431854248,0.27882516384124756,-0.11205564439296722
1727722744688,9i,8.22432207037798,1.3s : 0.4s,0.21796644392554756,0.011184845430323253,0.21767928222559135,0.015803048029730184,0.008758421055972576,0.08937310427427292,-0.3400733172893524,-0.015616416931152344,-0.0014401674270629883,-0.0019467324018478394,-0.28284534876434597,1.4540335944746634,0.22996525829766637,0.9537266492843628,0.2790890634059906,-0.11186858266592026
1727722744698,9i,8.22432207037798,1.3s : 0.4s,0.2203921614028977,0.011414217665001308,0.22009638898204778,0.018450131421463477,-0.002048952504992485,0.08689236640930176,-0.33822116255760193,-0.012849926948547363,-0.012830376625061035,-0.0032662153244018555,-0.28304351497083313,1.4542104209182427,0.22998913139646945,0.9536916017532349,0.27927935123443604,-0.11169351637363434
1727722744708,9i,8.22432207037798,1.3s : 0.4s,0.22186167792820313,0.011625058954211703,0.22155690496445565,0.013937781450061965,-0.02284850738942623,0.08661912381649017,-0.3373654782772064,-0.01071786880493164,-0.00686413049697876,-0.0056809112429618835,-0.28328179048137453,1.454430324867401,0.23017194105487282,0.9536499381065369,0.27950814366340637,-0.11147605627775192
1727722744718,9i,8.22432207037798,1.3s : 0.4s,0.2226798598484884,0.011809327471279324,0.22236649875109005,0.017756780111767727,-0.04806384816765785,0.07731378078460693,-0.3341198265552521,-0.015294671058654785,-0.008887618780136108,-0.0015448331832885742,-0.28380014523210606,1.4546197099125666,0.23061762962547172,0.9535270929336548,0.2800057828426361,-0.11127864569425583
1727722744728,9i,8.22432207037798,1.3s : 0.4s,0.22301787385860247,0.011948843466704395,0.22269754646205628,0.019226874370063967,-0.07960393279790878,0.07674332708120346,-0.32648932933807373,-0.009187936782836914,-0.01663672924041748,0.0029109716415405273,-0.2843699686958599,1.454920103282638,0.23138061176781577,0.9534018039703369,0.28055277466773987,-0.11097373813390732
1727722744738,9i,8.22432207037798,1.3s : 0.4s,0.2225587623624762,0.012029851676856435,0.22223340291898064,0.024077084530259567,-0.11036517471075058,0.07706712186336517,-0.3111251890659332,-0.009180843830108643,-0.01880478858947754,0.011907897889614105,-0.2847687189159433,1.4555848378015865,0.23254365763907614,0.9533640146255493,0.28093549609184265,-0.11032707244157791
1727722744748,9i,8.22432207037798,1.3s : 0.4s,0.2210837870192888,0.01205952193441566,0.2207546348630162,0.02637607874415638,-0.12513425946235657,0.07483672350645065,-0.2910907566547394,-0.011410176753997803,-0.022975176572799683,0.006135687232017517,-0.2851712250306847,1.4563441130010382,0.23393672913127458,0.9533353447914124,0.28132176399230957,-0.10959027707576752
1727722744758,9i,8.22432207037798,1.3s : 0.4s,0.2186252405806355,0.012077964999182518,0.21829136167154958,0.02313436730727383,-0.1474323719739914,0.07071495056152344,-0.26849237084388733,-0.015783309936523438,-0.01582270860671997,-0.0059772878885269165,-0.285572866891547,1.4571763185526578,0.23551251239004828,0.953313946723938,0.28170716762542725,-0.10878405719995499
1727722744768,9i,8.22432207037798,1.3s : 0.4s,0.21409980767776013,0.012087459297991567,0.21375832375693177,0.024504667317408354,-0.16647851467132568,0.06052996218204498,-0.24446693062782288,-0.016600370407104492,-0.01673758029937744,-0.006690278649330139,-0.28598564602720844,1.458038489316957,0.2373046014760316,0.9532917141914368,0.28210321068763733,-0.10794900357723236
1727722744778,9i,8.22432207037798,1.3s : 0.4s,0.20424667906168298,0.012095702890278733,0.20388820436532423,0.027835573556686418,-0.18035544455051422,0.055357832461595535,-0.2131255865097046,-0.014895379543304443,-0.019639700651168823,-0.0129317045211792,-0.2864181941734767,1.4589211116857033,0.23925578365844535,0.9532651305198669,0.2825181484222412,-0.10709390789270401
1727722744788,9i,8.22432207037798,1.3s : 0.4s,0.1920513692176837,0.012109038649450534,0.19166924531956916,0.027412892686921302,-0.1870272010564804,0.046275123953819275,-0.18150293827056885,-0.015796363353729248,-0.017845511436462402,-0.013545453548431396,-0.2868542963030363,1.4597906622263945,0.2413146206274654,0.9532353281974792,0.2829364538192749,-0.1062512993812561
1727722744798,9i,8.22432207037798,1.3s : 0.4s,0.18216064371333565,0.012141039446523972,0.18175559215389978,0.02877957984259127,-0.2023523598909378,0.037162765860557556,-0.14396947622299194,-0.014699995517730713,-0.015798836946487427,-0.01904129981994629,-0.28728176742215217,1.4606598608643002,0.24344249543239793,0.9532070755958557,0.2833464443683624,-0.1054094135761261
1727722744808,9i,8.22432207037798,1.3s : 0.4s,0.1754188095513685,0.012194050790686858,0.1749944681118047,0.030314896861571305,-0.2201065868139267,0.028650501742959023,-0.10247822105884552,-0.015309035778045654,-0.016488701105117798,-0.0203162282705307,-0.28771473139102965,1.461519097157171,0.2457317932926499,0.9531751275062561,0.2837616503238678,-0.10457693785429001
1727722744818,9i,8.22432207037798,1.3s : 0.4s,0.17137853551527046,0.012259909093178784,0.1709394543819121,0.030407340214612888,-0.24576067924499512,0.019962159916758537,-0.06159454584121704,-0.00768202543258667,-0.020879030227661133,-0.0207282155752182,-0.2881400121544108,1.462401823697397,0.24822119552877725,0.9531469941139221,0.28416940569877625,-0.10372243821620941
1727722744828,9i,8.22432207037798,1.3s : 0.4s,0.1663212140229412,0.012338568290166786,0.16586291317414484,0.023720368071797206,-0.24885021150112152,0.014861143194139004,-0.01675356924533844,0.00042879581451416016,-0.015267550945281982,-0.01814866065979004,-0.28860553179500675,1.4632985224817219,0.2508234675510504,0.9531081914901733,0.284615695476532,-0.10285352915525436
1727722744838,9i,8.22432207037798,1.3s : 0.4s,0.15901280653170102,0.012437079261075764,0.15852568151735508,0.020215360556579604,-0.2227039635181427,0.011414524167776108,-0.009815467521548271,0.011166691780090332,-0.002564340829849243,-0.016655027866363525,-0.2889952006923622,1.4641204076481356,0.2532642453630818,0.9530819654464722,0.28498923778533936,-0.10205832123756409
1727722744848,9i,8.22432207037798,1.3s : 0.4s,0.13883205711086938,0.012558825155638416,0.13826285109293024,0.022998317105163014,-0.16178494691848755,-0.00381183298304677,-0.01242643129080534,0.015498638153076172,0.005819976329803467,-0.01596379280090332,-0.28932202271001517,1.4647455894776666,0.2552844699442782,0.9530529975891113,0.2853024899959564,-0.10145259648561478
1727722744858,9i,8.22432207037798,1.3s : 0.4s,0.11115120468901553,0.012710306030651045,0.1104220921031051,0.03170246377402528,-0.07456403225660324,0.000677191186696291,-0.00793294608592987,0.019972503185272217,0.02047067880630493,-0.013678327202796936,-0.2895584797889318,1.465077812749909,0.2564850429294192,0.9530195593833923,0.28552910685539246,-0.10112884640693665
1727722744868,9i,8.22432207037798,1.3s : 0.4s,0.0786878892534476,0.012944709954223385,0.07761583858571564,0.04558031281054408,0.004016263410449028,-0.000893008429557085,-0.010502628982067108,0.01838064193725586,0.04120245575904846,-0.006486490368843079,-0.2896909764902695,1.4651965477508866,0.25685380900411037,0.9529939889907837,0.2856560945510864,-0.10101170837879181
1727722744878,9i,8.22432207037798,1.3s : 0.4s,0.0661854257634304,0.01321406518270643,0.06485290328762269,0.04279470865078284,0.09836047142744064,0.0032032441813498735,-0.014102923683822155,0.016058802604675293,0.03966042399406433,-0.0007434487342834473,-0.28962824138857934,1.464744209854808,0.25622150724314635,0.9529658555984497,0.28559598326683044,-0.10144465416669846
1727722744888,9i,8.22432207037798,1.3s : 0.4s,0.033471429277682124,0.013533086888780332,0.030613593992728096,0.04430277740534671,0.19614802300930023,0.011423356831073761,-0.02007240056991577,0.011424779891967773,0.04267561435699463,-0.0033169910311698914,-0.28953895893596254,1.4641491649264966,0.25461918221008684,0.9529306292533875,0.285510390996933,-0.10201440006494522
1727722744898,9i,8.22432207037798,1.3s : 0.4s,0.07121005941570618,0.013887416076461228,0.06984276796281524,0.04131285993278694,0.3098193109035492,0.01859121024608612,-0.028582828119397163,0.002171337604522705,0.04104489088058472,-0.0041658878326416016,-0.28939365089531355,1.4633632774620715,0.2519299323030192,0.9528915286064148,0.28537115454673767,-0.10276772826910019
1727722744908,9i,8.22432207037798,1.3s : 0.4s,0.12957667219300148,0.014322780231095568,0.1287826538904378,0.047189976168719595,0.40141475200653076,0.030838554725050926,-0.03436055779457092,-0.0017911195755004883,0.04464724659919739,-0.015175938606262207,-0.2892330873797909,1.4624325664551203,0.2481443795269378,0.9528409242630005,0.2852172553539276,-0.103659488260746
1727722744918,9i,8.22432207037798,1.3s : 0.4s,0.1742671638917521,0.014783915357339982,0.1736389364675498,0.03112433787254127,0.41288140416145325,0.03413141891360283,-0.037627823650836945,-0.008906722068786621,0.027717292308807373,-0.011006653308868408,-0.28911406159509967,1.461423690633255,0.24378936062019002,0.9527696371078491,0.2851031720638275,-0.10462445020675659
1727722744928,9i,8.22432207037798,1.3s : 0.4s,0.19172653449447602,0.015194264187863423,0.19112351599175575,0.018276526099401166,0.3444506824016571,0.023058796301484108,-0.026186084374785423,-0.009906947612762451,-0.0150471031665802,-0.003077089786529541,-0.28901227533887375,1.4605033891253367,0.239769001279566,0.95270174741745,0.2850055992603302,-0.10550443083047867
1727722744938,9i,8.22432207037798,1.3s : 0.4s,0.18813278237097888,0.015190813975923301,0.18751848701766713,0.06512836699656495,0.2561543881893158,0.01319302711635828,-0.0052161552011966705,-0.007208824157714844,-0.06446054577827454,0.0058800578117370605,-0.2888906355718423,1.4597703782253264,0.23663676168970685,0.9526586532592773,0.28488901257514954,-0.10620658099651337
1727722744948,9i,8.22432207037798,1.3s : 0.4s,0.17120863104290557,0.014836541808508118,0.17056456950595034,0.07822110913052144,0.1968713253736496,0.012464120052754879,0.017575975507497787,-0.005442261695861816,-0.07757708430290222,0.008409500122070312,-0.28867744700764175,1.4592365432249186,0.23430531035904661,0.9526621103286743,0.2846846580505371,-0.10672188550233841
1727722744958,9i,8.22432207037798,1.3s : 0.4s,0.14878150370362644,0.014350095469745612,0.14808784759162855,0.06452555476288735,0.14353394508361816,0.005078242626041174,0.029972491785883904,-0.0037909746170043945,-0.06430724263191223,0.003708675503730774,-0.28833277043232175,1.4588647788967104,0.23259306357901152,0.9527196884155273,0.28435420989990234,-0.10708698630332947
1727722744968,9i,8.22432207037798,1.3s : 0.4s,0.1300839999493879,0.013892386865462427,0.12934005037115412,0.04926512176731035,0.1272905319929123,-0.0036550613585859537,0.03312887251377106,-0.004472494125366211,-0.048930615186691284,-0.003583841025829315,-0.2879393224577821,1.4584923084309407,0.2312506037131084,0.9527909159660339,0.2839770019054413,-0.10745437443256378
1727722744978,9i,8.22432207037798,1.3s : 0.4s,0.11908026143175687,0.01352611435328102,0.11830956382794051,0.029688598075071206,0.13635365664958954,-0.004505808465182781,0.03162441775202751,-0.0013797283172607422,-0.023058384656906128,-0.018649935722351074,-0.2875484754093196,1.458078952413018,0.22993714614024688,0.9528567790985107,0.28360220789909363,-0.10786069929599762
1727722744988,9i,8.22432207037798,1.3s : 0.4s,0.11646429696099098,0.013269655262925726,0.11570587157020597,0.022821483601088707,0.14892324805259705,-0.0062280744314193726,0.025735368952155113,-0.0060471296310424805,-0.006796479225158691,-0.020929887890815735,-0.28720260392905156,1.457584835736853,0.2284800459761759,0.9529008269309998,0.2832705080509186,-0.10834259539842606
1727722744998,9i,8.22432207037798,1.3s : 0.4s,0.11366241444973814,0.013112450499145112,0.11290353449051765,0.019176942506772963,0.14464634656906128,-0.011479162611067295,0.02132347784936428,0.001862645149230957,0.00389978289604187,-0.01868361234664917,-0.2869004129762084,1.4570311645387735,0.22696482176227012,0.9529255628585815,0.28298071026802063,-0.10887986421585083
1727722745008,9i,8.22432207037798,1.3s : 0.4s,0.10313550256807966,0.013043681150341206,0.10230735199397255,0.021467586630352663,0.11463624984025955,-0.012009398080408573,0.014446129091084003,0.002352297306060791,0.012078553438186646,-0.01759069412946701,-0.286550385233205,1.456536576359422,0.225631541850894,0.9529699087142944,0.28264495730400085,-0.10936243832111359
1727722745018,9i,8.22432207037798,1.3s : 0.4s,0.09240050022322369,0.013033649549836955,0.09147664412796304,0.01394142474797956,0.09714474529027939,-0.019001837819814682,0.012990212067961693,0.0010194182395935059,0.007111459970474243,-0.011947855353355408,-0.2861451073612339,1.4561050292287667,0.22459499036636532,0.9530362486839294,0.28225618600845337,-0.10978677123785019
1727722745028,9i,8.22432207037798,1.3s : 0.4s,0.08789535421634498,0.013082967794379714,0.08691621969752238,0.02026576959359726,0.10102096945047379,-0.02218537963926792,0.019732538610696793,0.0020866990089416504,0.011575788259506226,-0.016502976417541504,-0.2856907136600178,1.4556485538831025,0.22360173706808173,0.9531134963035583,0.28182023763656616,-0.11023653298616409
1727722745038,9i,8.22432207037798,1.3s : 0.4s,0.08537923879676317,0.013191326381617182,0.0843540356225377,0.0265193808825937,0.0990477055311203,-0.028108293190598488,0.020811550319194794,-0.00027364492416381836,0.018168509006500244,-0.01931600272655487,-0.2851808727954411,1.4551432926715226,0.22261816261031397,0.9532001614570618,0.28133103251457214,-0.11073464900255203
1727722745048,9i,8.22432207037798,1.3s : 0.4s,0.08550349991232903,0.013349420987455516,0.08445496703307231,0.02766157412623304,0.12191466987133026,-0.0355965718626976,0.023060323670506477,-0.0016220808029174805,0.019652247428894043,-0.019398987293243408,-0.284684174417509,1.4544949761117745,0.22150824107248443,0.953266978263855,0.28085434436798096,-0.1113688200712204
1727722745058,9i,8.22432207037798,1.3s : 0.4s,0.08839323755772176,0.013624883478322941,0.08733685932146837,0.04419260571421242,0.14583438634872437,-0.03780015930533409,0.02404383011162281,-0.0006308555603027344,0.033702731132507324,-0.02857821434736252,-0.28424201694247186,1.453670854272781,0.22011258080290758,0.9532979726791382,0.2804299592971802,-0.11216887086629868
1727722745068,9i,8.22432207037798,1.3s : 0.4s,0.08972634062336239,0.013963910968470002,0.08863309422627812,0.04008717929797572,0.14253899455070496,-0.04286256432533264,0.021311426535248756,-7.50422477722168e-05,0.031745314598083496,-0.024478793144226074,-0.2838490911419359,1.4527775199367179,0.21860408626031513,0.9533068537712097,0.2800527811050415,-0.11303341388702393
1727722745078,9i,8.22432207037798,1.3s : 0.4s,0.09031431812300786,0.014313519927280308,0.08917286137225393,0.025933652193102816,0.13340674340724945,-0.04725411534309387,0.013472944498062134,0.0015423297882080078,0.019459515810012817,-0.017073452472686768,-0.2835338211362215,1.451871038180729,0.21718800165591762,0.953291654586792,0.27975010871887207,-0.11390800029039383
1727722745088,9i,8.22432207037798,1.3s : 0.4s,0.09042941413279204,0.014678230458002633,0.08923019943394599,0.025784331095366986,0.12560422718524933,-0.05093513801693916,0.013758434914052486,0.003489375114440918,0.014408856630325317,-0.021095991134643555,-0.2832953870448882,1.450944892194259,0.21583303283341873,0.9532519578933716,0.2795211970806122,-0.11479881405830383
1727722745098,9i,8.22432207037798,1.3s : 0.4s,0.08929006072073317,0.01505453881112751,0.088011793554594,0.025548865037470322,0.10535779595375061,-0.05095244571566582,0.014850596897304058,0.0011141300201416016,0.017186731100082397,-0.01887112855911255,-0.28305620477159243,1.4500599885844567,0.21463282782194323,0.9532163143157959,0.2792915403842926,-0.11565034836530685
1727722745108,9i,8.22432207037798,1.3s : 0.4s,0.0880120447543255,0.015422942373677816,0.08665017524722965,0.021034656085404335,0.10187011957168579,-0.04628392681479454,0.014770436100661755,0.008273124694824219,0.015049964189529419,-0.012145400047302246,-0.28286609971655297,1.4491898390227538,0.21356524442912084,0.9531679153442383,0.27910900115966797,-0.11648617684841156
1727722745118,9i,8.22432207037798,1.3s : 0.4s,0.08859458148247443,0.015786917304537917,0.0871766775581318,0.025352081831063706,0.12640103697776794,-0.05815310403704643,0.00890855211764574,0.006770610809326172,0.0216730535030365,-0.011276774108409882,-0.282801696600004,1.4481846983119977,0.2123960648303167,0.953068196773529,0.2790471315383911,-0.11744638532400131
1727722745128,9i,8.22432207037798,1.3s : 0.4s,0.10302846198098203,0.016157776660049698,0.10175357601367441,0.029845408055258434,0.1934632956981659,-0.05891427770256996,0.012616904452443123,0.006440579891204834,0.024934738874435425,-0.01508396863937378,-0.28269436195778097,1.4469798651587518,0.2107347436941054,0.9529557228088379,0.27894407510757446,-0.11859828978776932
1727722745138,9i,8.22432207037798,1.3s : 0.4s,0.12078073676595863,0.0165498206352459,0.11964150538449848,0.03829426908827918,0.23371709883213043,-0.054773371666669846,0.017570748925209045,-0.0010128617286682129,0.03386649489402771,-0.01784616708755493,-0.2825934431552373,1.4455267092406765,0.2084334382340569,0.9528103470802307,0.2788471579551697,-0.11998647451400757
1727722745148,9i,8.22432207037798,1.3s : 0.4s,0.1319827666760052,0.016951396110156735,0.13088965149838772,0.03345834274809023,0.22756627202033997,-0.05294990539550781,0.016720935702323914,-0.008484840393066406,0.029975205659866333,-0.012204721570014954,-0.28243487314875854,1.4441116735189055,0.20600530797196698,0.9526835680007935,0.27869486808776855,-0.12134021520614624
1727722745158,9i,8.22432207037798,1.3s : 0.4s,0.13219545101951385,0.017338670263233675,0.13105345391768788,0.014458568513091019,0.19003154337406158,-0.05053863674402237,0.01851840317249298,-0.005509018898010254,0.01165953278541565,-0.006538823246955872,-0.28217012645551,1.4428830604315597,0.20382651275285804,0.9526068568229675,0.27844059467315674,-0.12252000719308853
1727722745168,9i,8.22432207037798,1.3s : 0.4s,0.12156022837471582,0.017679679454691465,0.12026769332157505,0.014359931496631183,0.1328074038028717,-0.04800623655319214,0.017641423270106316,-0.005435645580291748,-0.013146966695785522,0.0019541382789611816,-0.2818955486701442,1.441794514705481,0.2021420184959643,0.9525486826896667,0.278176873922348,-0.12356670945882797
1727722745178,9i,8.22432207037798,1.3s : 0.4s,0.10481951267221619,0.017970030355043912,0.10326765343455659,0.02916014240805464,0.08425198495388031,-0.0428752563893795,0.021454505622386932,-0.010304749011993408,-0.02717915177345276,0.002328038215637207,-0.2817146547962194,1.4409122057996364,0.20101225773780942,0.9524891376495361,0.27800312638282776,-0.1244136169552803
1727722745188,9i,8.22432207037798,1.3s : 0.4s,0.08505423074132848,0.018233692024698354,0.08307679966240633,0.030039343379749645,0.03978784382343292,-0.04111384227871895,0.020384978502988815,-0.014745712280273438,-0.025516748428344727,-0.005815640091896057,-0.28154080943365406,1.4402892954796322,0.20039359166459766,0.952459454536438,0.2778361141681671,-0.12501320242881775
1727722745198,9i,8.22432207037798,1.3s : 0.4s,0.06896427709875584,0.018454902104942585,0.06644913922731403,0.03633410085975585,0.023387830704450607,-0.04345902428030968,0.01503994781523943,-0.01547396183013916,-0.032453328371047974,-0.005244508385658264,-0.2814867498603389,1.4397717689398286,0.2001125934908017,0.9524095058441162,0.27778419852256775,-0.12550806999206543
1727722745208,9i,8.22432207037798,1.3s : 0.4s,0.0627886240417566,0.018655252469149234,0.0599532556611345,0.03326563894303747,0.04193195328116417,-0.047241244465112686,0.009908302687108517,-0.0134810209274292,-0.02935585379600525,-0.007943466305732727,-0.28147088909388635,1.4391776345657064,0.19979995392261732,0.9523391127586365,0.27776896953582764,-0.12607449293136597
1727722745218,9i,8.22432207037798,1.3s : 0.4s,0.06200823217779711,0.018851308733908355,0.05907325128037616,0.022477083330170827,0.06273283809423447,-0.0442582368850708,0.004567066673189402,-0.013631701469421387,-0.015828877687454224,-0.008297145366668701,-0.2815423175276393,1.4384727203200702,0.1992101614883667,0.9522303342819214,0.2778375744819641,-0.1267431527376175
1727722745228,9i,8.22432207037798,1.3s : 0.4s,0.061321379395371835,0.01903744839735643,0.05829139841751203,0.022863913057344757,0.06479119509458542,-0.04141052067279816,0.003108187112957239,-0.016778409481048584,-0.01499176025390625,-0.004060864448547363,-0.28165570262751605,1.4377852106925264,0.19853158193903875,0.9521116614341736,0.27794650197029114,-0.12739360332489014
1727722745238,9i,8.22432207037798,1.3s : 0.4s,0.061396143481925035,0.01919563269764255,0.058318214305569424,0.024263783228301514,0.07650072127580643,-0.04247875511646271,0.005442081950604916,-0.014305949211120605,-0.019212275743484497,0.0038677453994750977,-0.28163338199395893,1.4371352437932667,0.19781627650862754,0.9520348310470581,0.277925044298172,-0.1280132532119751
1727722745248,9i,8.22432207037798,1.3s : 0.4s,0.06098018698667736,0.019322945386405017,0.057837764363123025,0.018063723802317928,0.0690273568034172,-0.03844380006194115,0.011111418716609478,-0.009469568729400635,-0.01344841718673706,0.00746762752532959,-0.28136747577951715,1.4365698222686125,0.19706116167508486,0.9520354270935059,0.27766960859298706,-0.12856140732765198
1727722745258,9i,8.22432207037798,1.3s : 0.4s,0.059559322600943945,0.019409715181185564,0.05630786681511356,0.02531150939299517,0.046968791633844376,-0.044115401804447174,0.013096705079078674,-0.008346259593963623,-0.02073270082473755,0.011881396174430847,-0.28099239098008244,1.436051430712942,0.19651028779819904,0.9520719647407532,0.27730926871299744,-0.12906891107559204
1727722745268,9i,8.22432207037798,1.3s : 0.4s,0.05820435248853135,0.019449634819403254,0.05485853036676303,0.03364576461615862,0.049374159425497055,-0.03457276523113251,0.020677661523222923,-0.0040244460105896,-0.030356794595718384,0.013939380645751953,-0.28062275703264516,1.435474978591158,0.19602916827350758,0.9520987272262573,0.2769540846347809,-0.12963151931762695
1727722745278,9i,8.22432207037798,1.3s : 0.4s,0.05597937751929549,0.019447256406824015,0.05249280832356988,0.020447011401952382,0.04699622094631195,-0.026961449533700943,0.01969655230641365,0.0028934478759765625,-0.01051279902458191,0.017297089099884033,-0.2801385397742442,1.4349963649484927,0.19555805047923455,0.9521693587303162,0.2764887809753418,-0.13010533154010773
1727722745288,9i,8.22432207037798,1.3s : 0.4s,0.05475727035591277,0.01940087445260663,0.05120512403368162,0.021825557770755826,0.052913498133420944,-0.021610358729958534,0.019345013424754143,0.004334986209869385,-0.00687795877456665,0.020254790782928467,-0.2796747375931509,1.4345525318908348,0.19505445062597673,0.9522385001182556,0.27604302763938904,-0.13054533302783966
1727722745298,9i,8.22432207037798,1.3s : 0.4s,0.05195880246321442,0.019319744215822755,0.04823343899046097,0.020119838670648163,0.04043792188167572,-0.018703518435359,0.023741360753774643,0.007853209972381592,-0.00824284553527832,0.016588866710662842,-0.2793008241472651,1.4341707094448444,0.19457926734316106,0.9522908329963684,0.2756836414337158,-0.13092295825481415
1727722745308,9i,8.22432207037798,1.3s : 0.4s,0.04809811760094189,0.01920133498997925,0.04409917971296784,0.02966760468491681,0.025738069787621498,-0.01599295251071453,0.0318397656083107,0.004202723503112793,-0.023312240839004517,0.017861783504486084,-0.27892919292425616,1.433890182759486,0.19427088575406845,0.9523555040359497,0.27532637119293213,-0.13120408356189728
1727722745318,9i,8.22432207037798,1.3s : 0.4s,0.04412106834413658,0.019054221302247362,0.03979453885136695,0.03301844094398243,0.007466255687177181,-0.015788380056619644,0.03570837527513504,0.004543721675872803,-0.02894306182861328,0.015227317810058594,-0.27848514930643803,1.433741888660298,0.19416070749622785,0.9524570107460022,0.2748994827270508,-0.13136199116706848
1727722745328,9i,8.22432207037798,1.3s : 0.4s,0.04180607383660648,0.018888638526252548,0.037295671923915794,0.033628155314186496,0.0002525510499253869,-0.012089514173567295,0.04011191055178642,-0.00047767162322998047,-0.03064495325088501,0.013838768005371094,-0.27806518159443316,1.43369439192676,0.194216153019366,0.95256507396698,0.2744956612586975,-0.1314229965209961
1727722745338,9i,8.22432207037798,1.3s : 0.4s,0.039583567031622996,0.018715090010195234,0.034879853567027504,0.024369534497123747,-0.0032966434955596924,-0.00910002738237381,0.038577064871788025,-0.0009695291519165039,-0.021175920963287354,0.012021422386169434,-0.27756440712508346,1.4337317477909546,0.1943243368165807,0.9527059197425842,0.27401408553123474,-0.13140617311000824
1727722745348,9i,8.22432207037798,1.3s : 0.4s,0.03763507714715996,0.018556180222203716,0.032742437408259294,0.021445720859389922,-0.004957923665642738,-0.008480310440063477,0.03794056922197342,-0.0097731351852417,-0.018339455127716064,0.005298033356666565,-0.276994948823052,1.433828138844004,0.1944882180965684,0.9528729915618896,0.2734663784503937,-0.13133561611175537
1727722745358,9i,8.22432207037798,1.3s : 0.4s,0.03687153454863815,0.018419883594960457,0.031940850776388585,0.026189110462237385,0.017913304269313812,-0.005813509225845337,0.03921782225370407,-0.014118969440460205,-0.02189880609512329,0.0026394128799438477,-0.2765550339003465,1.4339451837942971,0.19453848205357374,0.9530075192451477,0.2730432152748108,-0.13124048709869385
1727722745368,9i,8.22432207037798,1.3s : 0.4s,0.03695750482847805,0.018309318474418267,0.03210336462349865,0.012199543359328291,0.035377513617277145,-0.006518447771668434,0.039602912962436676,-0.007163405418395996,-0.009860217571258545,-0.0005390644073486328,-0.2760957350927237,1.434064064900371,0.19437121250648273,0.953147292137146,0.27260133624076843,-0.13114428520202637
1727722745378,9i,8.22432207037798,1.3s : 0.4s,0.03681672066568435,0.018226569250161643,0.03198848377063363,0.014430300559368756,0.025978554040193558,-0.0059015266597270966,0.04265047237277031,-0.0005303025245666504,-0.013592332601547241,-0.004816725850105286,-0.27559760234580316,1.4341209472548138,0.19415334167384668,0.9532892107963562,0.27212202548980713,-0.13110856711864471
1727722745388,9i,8.22432207037798,1.3s : 0.4s,0.03615115631479921,0.018160474055285793,0.03125865136221232,0.0209031443148111,0.008771337568759918,-0.007863743230700493,0.04279641434550285,0.007239162921905518,-0.019340574741363525,-0.00323699414730072,-0.27497465320958925,1.434216664776595,0.19409571291318536,0.9534693956375122,0.27152255177497864,-0.13104034960269928
1727722745398,9i,8.22432207037798,1.3s : 0.4s,0.035610901636313017,0.018113171639665436,0.030660223882143796,0.01898538541475019,0.009127003140747547,-0.009882464073598385,0.04085107147693634,0.009206652641296387,-0.015725433826446533,-0.005328521132469177,-0.27432594932841897,1.4342908852520344,0.1941334780513766,0.9536533355712891,0.27089816331863403,-0.13099351525306702
1727722745408,9i,8.22432207037798,1.3s : 0.4s,0.03623199643508396,0.018085487287022146,0.031395425068995265,0.014878792513501094,0.03516819328069687,-0.01018206961452961,0.04471318796277046,0.012397170066833496,-0.0019858181476593018,-0.007984057068824768,-0.2736533123836228,1.4343014128894938,0.1940311912646982,0.9538352489471436,0.2702506184577942,-0.13100826740264893
1727722745418,9i,8.22432207037798,1.3s : 0.4s,0.03718791351095683,0.018074864863535222,0.03249984879139202,0.019013084702096852,0.04081195965409279,-0.006285510025918484,0.05049777403473854,0.009676575660705566,0.014148354530334473,-0.008227109909057617,-0.27298188040784505,1.4342461794984893,0.1937022767444074,0.9540075063705444,0.2696040868759155,-0.1310856193304062
1727722745428,9i,8.22432207037798,1.3s : 0.4s,0.03708473168750825,0.018078502068379788,0.03237970177901684,0.013745020354141334,0.01284450851380825,-0.011570553295314312,0.04760824516415596,0.008518338203430176,0.007346779108047485,-0.00789862871170044,-0.27235995614372843,1.4341336591811984,0.19350974724305464,0.9541586637496948,0.26900514960289,-0.13121578097343445
1727722745438,9i,8.22432207037798,1.3s : 0.4s,0.036899119778589035,0.018091918130813584,0.03215940824677281,0.006150926846422337,0.004333978518843651,-0.009181209839880466,0.05122112110257149,0.0032845139503479004,-0.0026112794876098633,-0.004497453570365906,-0.2717359677410236,1.4340313126965123,0.1934986644543755,0.9543112516403198,0.268404096364975,-0.1313362866640091
1727722745448,9i,8.22432207037798,1.3s : 0.4s,0.036672464598333517,0.018128168144006626,0.031878506543730194,0.013938143987173553,-0.006358613260090351,-0.006403266452252865,0.05515274778008461,0.00020372867584228516,0.008265107870101929,-0.011221334338188171,-0.2711848599379803,1.4339510316199509,0.19356672995096505,0.9544470310211182,0.2678731679916382,-0.13143303990364075
1727722745458,9i,8.22432207037798,1.3s : 0.4s,0.03655261860369993,0.018189994456038618,0.03170517352857156,0.012781518958512423,-0.006159275770187378,-0.009993340820074081,0.05247164145112038,-0.0060007572174072266,0.0005923807621002197,-0.011269748210906982,-0.2705806109595146,1.433849016237003,0.19371567609849422,0.9545938968658447,0.26729097962379456,-0.13155250251293182
1727722745468,9i,8.22432207037798,1.3s : 0.4s,0.03659527439445753,0.018293682768400855,0.031694720045691405,0.02136944664215827,0.00217908201739192,-0.009477752260863781,0.04968011751770973,-0.00904303789138794,0.0005179047584533691,-0.01935480535030365,-0.26992950976049085,1.4337437735708556,0.19379575596478402,0.9547522068023682,0.26666349172592163,-0.13167670369148254
1727722745478,9i,8.22432207037798,1.3s : 0.4s,0.03673763760350397,0.01846036031229728,0.03176270003992967,0.029477278005972905,0.003947021439671516,-0.010914484038949013,0.04909205809235573,-0.011490285396575928,0.007283896207809448,-0.026150107383728027,-0.2693213639140633,1.4336125832357476,0.19382100104174013,0.9548954367637634,0.26607733964920044,-0.13182412087917328
1727722745488,9i,8.22432207037798,1.3s : 0.4s,0.036796749640975415,0.018685063416785913,0.031699671753053105,0.030232887886662375,-0.00018167728558182716,-0.008637746796011925,0.048657163977622986,-0.009969115257263184,0.005108654499053955,-0.028081059455871582,-0.2688236563187719,1.4334644719521237,0.19384783600920769,0.9550069570541382,0.26559752225875854,-0.1319836527109146
1727722745498,9i,8.22432207037798,1.3s : 0.4s,0.03665093181875033,0.018950496435561036,0.03137147570689772,0.02837507228968913,-0.012925036251544952,-0.01055207196623087,0.046786192804574966,-0.008255720138549805,1.2427568435668945e-05,-0.02714751660823822,-0.26849106033030923,1.433346476231634,0.19397806890769387,0.9550787806510925,0.26527684926986694,-0.1321084350347519
1727722745508,9i,8.22432207037798,1.3s : 0.4s,0.03636355620080319,0.01925083076562802,0.03084985793163596,0.027579824928464218,-0.02824966423213482,-0.013376886956393719,0.04399120435118675,-0.006333708763122559,-0.005083352327346802,-0.026356980204582214,-0.26814225410443215,1.4332350018519457,0.19422648715611673,0.9551556706428528,0.2649405300617218,-0.1322275847196579
1727722745518,9i,8.22432207037798,1.3s : 0.4s,0.036359469919253436,0.019580409639856616,0.030636883182603696,0.027021210842293253,-0.06026298925280571,-0.01811358332633972,0.04195002466440201,-0.003053009510040283,-0.005216121673583984,-0.026336610317230225,-0.2677735741321073,1.4331957151770742,0.19473592266245082,0.9552472233772278,0.264585018157959,-0.13227850198745728
1727722745528,9i,8.22432207037798,1.3s : 0.4s,0.03856413711801139,0.01992621642841947,0.033017246561525534,0.0241255690152691,-0.06362656503915787,-0.02417760342359543,0.03984080255031586,-0.00469595193862915,-0.012341558933258057,-0.0201910138130188,-0.26755161928806637,1.4330642808059209,0.19542969759005213,0.9552879929542542,0.26437094807624817,-0.1324121206998825
1727722745538,9i,8.22432207037798,1.3s : 0.4s,0.043449229696848155,0.020283206375192417,0.03842430351211099,0.0205321057719946,-0.07431528717279434,-0.02652841806411743,0.03838874772191048,-0.004072129726409912,-0.003778219223022461,-0.019766390323638916,-0.26727939816194224,1.4328856699827173,0.19615180066470866,0.9553355574607849,0.26410841941833496,-0.13259263336658478
1727722745548,9i,8.22432207037798,1.3s : 0.4s,0.052182609711625944,0.020641555434775947,0.047926516100682194,0.016827000928457528,-0.09733911603689194,-0.02881021611392498,0.04304315522313118,-0.007952094078063965,-0.0016700029373168945,-0.014735102653503418,-0.26702373163327214,1.432644125301555,0.1970323929976519,0.955370306968689,0.2638618052005768,-0.13283267617225647
1727722745558,9i,8.22432207037798,1.3s : 0.4s,0.0647291343359598,0.020991884814427274,0.06123072434505856,0.012394428064861641,-0.1325473040342331,-0.024845078587532043,0.045196954160928726,-0.003760099411010742,-0.0015502572059631348,-0.011708125472068787,-0.2668362212456955,1.4324216820991134,0.19818420618148216,0.9553896188735962,0.26368093490600586,-0.13305199146270752
1727722745568,9i,8.22432207037798,1.3s : 0.4s,0.07969656016472014,0.021324194545876217,0.07679075744553168,0.010421326367942794,-0.16253051161766052,-0.019320618361234665,0.050716888159513474,-0.005108952522277832,-0.007253557443618774,-0.005467042326927185,-0.2666428405543706,1.4323170390998294,0.19968913229311167,0.9554262757301331,0.2634944021701813,-0.13315901160240173
1727722745578,9i,8.22432207037798,1.3s : 0.4s,0.09686180970966618,0.021637182907590185,0.09441420706681312,0.006744411283837463,-0.19892312586307526,-0.01668204739689827,0.04535427689552307,-0.002530515193939209,-0.0033332407474517822,-0.005288958549499512,-0.2664226688051624,1.4323465879440944,0.20153082066779907,0.9554876089096069,0.26328200101852417,-0.13313879072666168
1727722745588,9i,8.22432207037798,1.3s : 0.4s,0.11929664464804254,0.02193794375264812,0.11726216801759631,0.010294600201259036,-0.2514907419681549,-0.0098225437104702,0.04879721254110336,-0.0023990869522094727,-0.00687563419342041,-0.007276594638824463,-0.2662194625809482,1.432566102926126,0.20383847057302276,0.955569863319397,0.2630859613418579,-0.13293641805648804
1727722745598,9i,8.22432207037798,1.3s : 0.4s,0.147393305237372,0.022213059975156234,0.1457098706173924,0.011492519973868087,-0.31405797600746155,0.0035537160001695156,0.05083006992936134,-0.0008754730224609375,-0.01145792007446289,-0.0001662224531173706,-0.2660977641760755,1.4330340316839614,0.206731034962267,0.9556636810302734,0.2629685401916504,-0.13249365985393524
1727722745608,9i,8.22432207037798,1.3s : 0.4s,0.18534787326887664,0.02246602125910248,0.1839812816948537,0.02008214544474391,-0.40592557191848755,0.016932105645537376,0.04966706782579422,-0.0051337480545043945,-0.019317597150802612,0.0019410401582717896,-0.2660043097840599,1.4338980575172988,0.2104280934647825,0.9558020234107971,0.2628783881664276,-0.1316712200641632
1727722745618,9i,8.22432207037798,1.3s : 0.4s,0.22940382634722933,0.022683718450093985,0.22827957521431175,0.03826794218115856,-0.4894431233406067,0.022813253104686737,0.06900214403867722,-0.006595790386199951,-0.037155330181121826,0.006357073783874512,-0.26603619596597816,1.4351035142576456,0.21506345562951362,0.9559518694877625,0.2629091441631317,-0.130517840385437
1727722745628,9i,8.22432207037798,1.3s : 0.4s,0.2687009473256041,0.022891022425196923,0.26772411207436325,0.03748752356697463,-0.5343509316444397,0.0170483086258173,0.049342162907123566,-0.0004929304122924805,-0.037481725215911865,0.00043785572052001953,-0.26615305974030207,1.43651840735742,0.22038128019565928,0.95610511302948,0.26302191615104675,-0.1291610300540924
1727722745638,9i,8.22432207037798,1.3s : 0.4s,0.29285255236512847,0.02310330539241688,0.2919398135005143,0.023988634522654987,-0.516499936580658,0.015733815729618073,0.05256089195609093,0.0011205077171325684,-0.023005664348602295,-0.006703615188598633,-0.2663159067153421,1.4379490657554188,0.22584185120890912,0.9562464356422424,0.2631790041923523,-0.12778735160827637
1727722745648,9i,8.22432207037798,1.3s : 0.4s,0.30475330846932724,0.02329808461911082,0.303861445853339,0.013146624646420446,-0.4908595383167267,0.020213520154356956,0.05466345697641373,0.012460649013519287,-0.0024283528327941895,-0.003416001796722412,-0.2663862360013298,1.4393912161891946,0.23106173660150153,0.9564114212989807,0.2632468640804291,-0.1264057457447052
1727722745658,9i,8.22432207037798,1.3s : 0.4s,0.3091017399891248,0.023468208581784063,0.3082095534701454,0.012216144458566143,-0.4801594614982605,0.022079862654209137,0.05456984415650368,0.011545002460479736,0.003961324691772461,-0.0005049854516983032,-0.26648502462939666,1.4408110109792347,0.2361004994176567,0.9565642476081848,0.2633421719074249,-0.12504436075687408
1727722745668,9i,8.22432207037798,1.3s : 0.4s,0.30848824306087247,0.02361323901293307,0.30758317744977864,0.00889926770623516,-0.44626274704933167,0.020309926941990852,0.05393095314502716,0.005902349948883057,0.006432652473449707,0.0017263293266296387,-0.26656472629370653,1.442303820290022,0.24093691038973747,0.9567288756370544,0.2634190618991852,-0.12361354380846024
1727722745678,9i,8.22432207037798,1.3s : 0.4s,0.3066883297272637,0.02372741739082754,0.3057690979397039,0.018662232711987765,-0.43189939856529236,0.024879688397049904,0.05578148737549782,0.008788645267486572,0.016315191984176636,0.0022029876708984375,-0.26655422805083795,1.443751629681109,0.24550160285355666,0.9569095969200134,0.26340892910957336,-0.12222860008478165
1727722745688,9i,8.22432207037798,1.3s : 0.4s,0.3056331473438519,0.023804454636784947,0.3047047237814897,0.013744414656320992,-0.43495190143585205,0.027244308963418007,0.060403935611248016,0.001236259937286377,0.00900721549987793,0.01030779629945755,-0.2665373946750701,1.4452165446513474,0.25005006622091736,0.9570919275283813,0.26339268684387207,-0.12082722038030624
1727722745698,9i,8.22432207037798,1.3s : 0.4s,0.29645734859077005,0.02384676427532166,0.2954966858816975,0.013760985755024279,-0.40312299132347107,0.027624741196632385,0.06029997020959854,-0.0022284388542175293,0.002259373664855957,0.01339007169008255,-0.2664935310594839,1.4466527837083862,0.2544643287475035,0.957275927066803,0.26335036754608154,-0.11945392191410065
1727722745708,9i,8.22432207037798,1.3s : 0.4s,0.28229694282374107,0.023869976823047107,0.2812859543846755,0.020748467049816175,-0.36436015367507935,0.02416982315480709,0.05922272428870201,-0.005859375,0.01939976215362549,0.00445149838924408,-0.2663462693360356,1.4479933916131629,0.2584990016533335,0.957473874092102,0.2632082998752594,-0.11817524582147598
1727722745718,9i,8.22432207037798,1.3s : 0.4s,0.2614074696160776,0.023869599681850016,0.2603153998174306,0.029334529924063622,-0.3110567331314087,0.015287736430764198,0.04737797752022743,-0.005124449729919434,0.028880327939987183,0.0004258155822753906,-0.2662305026127895,1.4491418515307504,0.2620612018352123,0.9576390981674194,0.2630966305732727,-0.1170792356133461
1727722745728,9i,8.22432207037798,1.3s : 0.4s,0.23070856673815615,0.023870372249239828,0.22947036430671602,0.03849693519313164,-0.23089425265789032,0.012216312810778618,0.040899306535720825,-0.002085089683532715,0.03754904866218567,-0.008230149745941162,-0.26611800692879317,1.4500422435393914,0.26492354963535997,0.9577735662460327,0.2629880905151367,-0.11622051149606705
1727722745738,9i,8.22432207037798,1.3s : 0.4s,0.19776479807094133,0.023915904722732563,0.1963133843051293,0.04678311530950793,-0.1738394945859909,0.00817691907286644,0.03449493646621704,-0.0023941397666931152,0.04363486170768738,-0.016701102256774902,-0.2659940269515265,1.4507178390337294,0.2670388665600315,0.9578842520713806,0.2628684639930725,-0.1155773252248764
1727722745748,9i,8.22432207037798,1.3s : 0.4s,0.16935749728408817,0.023980527696645944,0.16765111445415545,0.03278054064097994,-0.14725182950496674,0.0031757690012454987,0.030178487300872803,-0.0032685399055480957,0.030205756425857544,-0.012308239936828613,-0.26585311688968455,1.4512338664801212,0.2687344184756681,0.9579804539680481,0.26273250579833984,-0.11508741974830627
1727722745758,9i,8.22432207037798,1.3s : 0.4s,0.14353847486255475,0.024057794709644198,0.14150800782845074,0.01812819264739357,-0.1160181313753128,0.001573655754327774,0.03310286998748779,-0.0008337497711181641,0.01644471287727356,-0.0075833797454833984,-0.2657083084708046,1.4516264858067423,0.270115734648118,0.9580633640289307,0.26259279251098633,-0.1147158220410347
1727722745768,9i,8.22432207037798,1.3s : 0.4s,0.1241979131198807,0.02414032979288451,0.12182924977534833,0.014092120506678324,-0.11071045696735382,-0.008169518783688545,0.02483641915023327,0.00586855411529541,0.011404097080230713,-0.005839049816131592,-0.2655555796545462,1.4519130843811963,0.27132327034546067,0.9581359624862671,0.2624454200267792,-0.11444597691297531
1727722745778,9i,8.22432207037798,1.3s : 0.4s,0.1151332959335291,0.02421794096700178,0.11255739499400476,0.003705881578727614,-0.1347755640745163,-0.008681289851665497,0.016646599397063255,0.003334224224090576,-0.0013130009174346924,0.0009447410702705383,-0.265483236949394,1.4521609724916484,0.2726090014019506,0.9581830501556396,0.2623755931854248,-0.11421070247888565
1727722745788,9i,8.22432207037798,1.3s : 0.4s,0.11347474546396132,0.02428689216061832,0.11084522870782171,0.007839049518402879,-0.14538773894309998,-0.013221446424722672,0.010863278992474079,-0.0014309287071228027,0.007216989994049072,0.002705216407775879,-0.26553034583243523,1.4524401243181106,0.2741026025774154,0.9582027792930603,0.2624210715293884,-0.11394177377223969
1727722745798,9i,8.22432207037798,1.3s : 0.4s,0.10493480175493017,0.024356013501252688,0.10206908065459047,0.019414223132133403,-0.12139558792114258,-0.011857020668685436,0.009037548676133156,-0.003674149513244629,0.01898890733718872,-0.0016834735870361328,-0.2655859713578063,1.452702957622327,0.2755050486082777,0.9582182168960571,0.26247474551200867,-0.11368820816278458
1727722745808,9i,8.22432207037798,1.3s : 0.4s,0.0940857776538736,0.024429850915072323,0.09085876920254579,0.020531275684105604,-0.09532643854618073,-0.010086284950375557,0.012166762724518776,-0.008773088455200195,0.018465548753738403,-0.0018946528434753418,-0.26560650516089196,1.4529067057277139,0.2766279720162946,0.9582359790802002,0.2624945640563965,-0.11349233239889145
1727722745818,9i,8.22432207037798,1.3s : 0.4s,0.08629787578958815,0.024491626685967473,0.08274952318938394,0.015945264117095088,-0.09421376883983612,-0.008780093863606453,0.010608081705868244,-0.007387936115264893,0.012794673442840576,0.005997180938720703,-0.2656167153276395,1.4530943271126495,0.2776158851753778,0.9582545757293701,0.2625043988227844,-0.1133122369647026
1727722745828,9i,8.22432207037798,1.3s : 0.4s,0.08312928247505655,0.024523433806261957,0.07942970980160781,0.01741030382086729,-0.09498874843120575,-0.01032419316470623,0.0046838801354169846,-0.005498290061950684,0.007587730884552002,0.014673575758934021,-0.2659052370653575,1.4531070791283405,0.2785764279062704,0.9581809043884277,0.2627828121185303,-0.11329112946987152
1727722745838,9i,8.22432207037798,1.3s : 0.4s,0.07888125536217612,0.024532366822819625,0.07496942994036608,0.01976928054057378,-0.08689353615045547,-0.007239809259772301,0.0024843085557222366,-0.006260991096496582,0.01381385326385498,0.012680768966674805,-0.26611025070692673,1.4531737429349778,0.27949774986738446,0.9581347703933716,0.2629806101322174,-0.11322090774774551
1727722745848,9i,8.22432207037798,1.3s : 0.4s,0.07269599813321373,0.024526099180679755,0.06843375339380176,0.020316861650132308,-0.0741785392165184,-0.01385803148150444,-0.0013240119442343712,-0.010040462017059326,0.013375341892242432,0.011535346508026123,-0.2662642617524611,1.453217592412552,0.28030592221970424,0.9580994844436646,0.26312917470932007,-0.11317414045333862
1727722745858,9i,8.22432207037798,1.3s : 0.4s,0.06583694837731134,0.024499662245367305,0.06110867631932214,0.017777712092388737,-0.06201295554637909,-0.014394035562872887,-0.009056766517460346,-0.005318284034729004,0.010466009378433228,0.013350114226341248,-0.2663697128603163,1.4532630624881515,0.2810011164970875,0.9580771923065186,0.26323091983795166,-0.11312733590602875
1727722745868,9i,8.22432207037798,1.3s : 0.4s,0.058829157279716014,0.024456210116463737,0.05350479915840205,0.018552051390113122,-0.05050090700387955,-0.012365240603685379,-0.006594940088689327,-0.007693886756896973,0.009898126125335693,0.013675153255462646,-0.26657874235394324,1.4532992679448753,0.2815846404188635,0.9580265283584595,0.2634325623512268,-0.11308617889881134
1727722745878,9i,8.22432207037798,1.3s : 0.4s,0.05593899322721328,0.024398144200778224,0.05033787364234057,0.013408226777986365,-0.05106256902217865,-0.011367887258529663,-0.005574749317020178,-0.0037745237350463867,0.004396259784698486,0.012091584503650665,-0.2668566437073352,1.4532868065619797,0.2820690050766799,0.9579523205757141,0.2637006342411041,-0.11308953166007996
1727722745888,9i,8.22432207037798,1.3s : 0.4s,0.056271862922561,0.02433022602346067,0.050740148387867494,0.016337331358176985,-0.08055867999792099,-0.008049322292208672,-0.010981766507029533,-0.005437672138214111,-0.011328518390655518,0.010440535843372345,-0.2671657256133499,1.453327842630518,0.2827163776550877,0.9578759670257568,0.26399877667427063,-0.11304065585136414
1727722745898,9i,8.22432207037798,1.3s : 0.4s,0.05693321502205285,0.024254139379671674,0.05150852061260121,0.015445667957805694,-0.08639539778232574,-0.009983176365494728,-0.0063397763296961784,-0.003493010997772217,-0.012105464935302734,0.008934497833251953,-0.26744925028035965,1.4535210215944432,0.2835733718706572,0.9578234553337097,0.2642722427845001,-0.11284685879945755
1727722745908,9i,8.22432207037798,1.3s : 0.4s,0.05718634221931024,0.024187641014096747,0.05181926049836344,0.004934420830538036,-0.08004269003868103,-0.01372571662068367,-0.008085211738944054,-0.003349483013153076,-0.0035075247287750244,0.0009092539548873901,-0.26769491032819265,1.4537670897084272,0.28445598923769283,0.9577868580818176,0.2645091414451599,-0.11260359734296799
1727722745918,9i,8.22432207037798,1.3s : 0.4s,0.055885336104426746,0.024133615564940574,0.0504057476015226,0.004934473814087279,-0.05357792228460312,-0.019426612183451653,-0.007842430844902992,-0.004894852638244629,0.0005310177803039551,-0.00032782554626464844,-0.2679690874878011,1.4539027743646211,0.28518149816574184,0.9577299356460571,0.26477354764938354,-0.11246516555547714
1727722745928,9i,8.22432207037798,1.3s : 0.4s,0.04654374752733195,0.024096588600802764,0.039820533041280116,0.01196750776072213,-0.01693842001259327,-0.02531486004590988,-0.00909305177628994,-0.004550337791442871,0.010758429765701294,-0.0026022791862487793,-0.2682181088568484,1.453863839336195,0.2855439902763478,0.9576600790023804,0.2650136649608612,-0.11249476671218872
1727722745938,9i,8.22432207037798,1.3s : 0.4s,0.042935024753106815,0.02408110189844727,0.03554598264089058,0.01858586755688218,-0.006205348297953606,-0.03053785301744938,-0.014570441097021103,-0.006202816963195801,0.016955286264419556,-0.0044133663177490234,-0.26843778069788293,1.4537402781391666,0.28568367201827055,0.9575883150100708,0.26522549986839294,-0.11260629445314407
1727722745948,9i,8.22432207037798,1.3s : 0.4s,0.03998959462470104,0.024088255059123046,0.03192058342910654,0.0165993029432807,0.018223563209176064,-0.03564419969916344,-0.015188295394182205,-0.013899683952331543,0.008336365222930908,-0.003583386540412903,-0.2686728263080054,1.4535351686612503,0.2856619439865606,0.9575033187866211,0.265452116727829,-0.11279541254043579
1727722745958,9i,8.22432207037798,1.3s : 0.4s,0.037009970717264716,0.02412271507290018,0.028068354957219464,0.013829362262413148,0.031215259805321693,-0.0330192968249321,-0.012244369834661484,-0.008335113525390625,0.006493747234344482,-0.008922353386878967,-0.26881143779548217,1.453226158740478,0.2854002028519699,0.9574318528175354,0.2655857503414154,-0.11308696120977402
1727722745968,9i,8.22432207037798,1.3s : 0.4s,0.03476816346357427,0.024172848336666528,0.024989969866375167,0.011259952852710864,0.03818848356604576,-0.04145965352654457,-0.014335483312606812,-0.010199546813964844,-0.0010564029216766357,-0.004651859402656555,-0.26882420378373606,1.4528771763832788,0.2850819977292315,0.9573889970779419,0.2655980587005615,-0.11342068761587143
1727722745978,9i,8.22432207037798,1.3s : 0.4s,0.032826950359038085,0.024242124303698556,0.02213431903444916,0.011266411297765757,0.041576556861400604,-0.042781468480825424,-0.012236647307872772,-0.0045509934425354,-0.003827393054962158,-0.009569302201271057,-0.2688178774713372,1.4524353989780154,0.28465527644557004,0.95734041929245,0.26559194922447205,-0.11384382098913193
1727722745988,9i,8.22432207037798,1.3s : 0.4s,0.03260804769692244,0.02431747791086158,0.021724296137263635,0.007817563032764561,0.022038009017705917,-0.04445286840200424,-0.004855430219322443,-0.0002968311309814453,-0.0048277974128723145,-0.006141543388366699,-0.2688267638903047,1.4519467369843753,0.2843190356954826,0.957282304763794,0.2656005322933197,-0.1143113374710083
1727722745998,9i,8.22432207037798,1.3s : 0.4s,0.03284945790702952,0.024390873465069164,0.02200391275197866,0.02049624258851287,0.009755908511579037,-0.0462091788649559,0.0010274597443640232,-0.005182504653930664,-0.01967880129814148,-0.002445891499519348,-0.2688311620004614,1.4514493114974805,0.2841574217668896,0.9572242498397827,0.26560476422309875,-0.11478737741708755
1727722746008,9i,8.22432207037798,1.3s : 0.4s,0.03358379286426732,0.024473728570215614,0.022997994543468882,0.02447147163404812,0.009539393708109856,-0.05323166772723198,0.0011078871320933104,-0.002681553363800049,-0.022483527660369873,-0.00928187370300293,-0.2688914419098456,1.4509371903349995,0.2840642244048297,0.9571492671966553,0.26566287875175476,-0.11527564376592636
1727722746018,9i,8.22432207037798,1.3s : 0.4s,0.03449003565611725,0.02457577958861878,0.024199041658129104,0.022732200419493573,-0.0009345529833808541,-0.05427713692188263,-0.0018155316356569529,-0.0036177635192871094,-0.017850220203399658,-0.013602733612060547,-0.26902361847827144,1.450361605159215,0.2840067364328593,0.9570478796958923,0.26579031348228455,-0.11582232266664505
1727722746028,9i,8.22432207037798,1.3s : 0.4s,0.03589689693421994,0.02468959716278302,0.026057839539100416,0.02416038896344096,-0.023688068613409996,-0.05353944003582001,-0.004871242679655552,-0.0033840537071228027,-0.02109551429748535,-0.011280596256256104,-0.2691610475250492,1.4498438940844278,0.28413061913570414,0.9569515585899353,0.26592278480529785,-0.1163133755326271
1727722746038,9i,8.22432207037798,1.3s : 0.4s,0.04069181338396476,0.024825503760359816,0.03224155764723185,0.030856501517717606,-0.04164975509047508,-0.062395427376031876,-0.008490212261676788,-0.004830300807952881,-0.027133584022521973,-0.013876616954803467,-0.2693305992990091,1.449282166595329,0.28445657876977204,0.9568414092063904,0.266086220741272,-0.11684544384479523
1727722746048,9i,8.22432207037798,1.3s : 0.4s,0.04531224968547058,0.024976206679325593,0.037807262152528845,0.026442694265585206,-0.039928823709487915,-0.07080729305744171,-0.013498552143573761,-0.0004271864891052246,-0.021825462579727173,-0.014922559261322021,-0.26950674205699426,1.4486948643755724,0.2848600061025121,0.9567260146141052,0.2662560045719147,-0.11740166693925858
1727722746058,9i,8.22432207037798,1.3s : 0.4s,0.04890998838112873,0.025141014077510345,0.041953740889181426,0.01826752791916621,-0.04258705675601959,-0.07405834645032883,-0.01521838828921318,-0.003207266330718994,-0.012363314628601074,-0.013060033321380615,-0.2696632781780333,1.4480346029648234,0.28525665700547825,0.956606924533844,0.2664068937301636,-0.11802822351455688
1727722746068,9i,8.22432207037798,1.3s : 0.4s,0.05061682947480707,0.025302036930471415,0.043839141794186146,0.01032702012453198,-0.01953739859163761,-0.08232053369283676,-0.013670027256011963,-0.0018953680992126465,-0.008709937334060669,-0.005214586853981018,-0.2697990257583856,1.4473095859571647,0.28558154375813877,0.9564853310585022,0.26653772592544556,-0.11871730536222458
1727722746078,9i,8.22432207037798,1.3s : 0.4s,0.050435497080120066,0.025457406493805904,0.04353917569646822,0.009946454390007062,0.0148574598133564,-0.07090049982070923,-0.01123446598649025,-0.001122891902923584,0.009306550025939941,-0.003325536847114563,-0.2697875050715086,1.4465633599388947,0.2855936699795269,0.9563995003700256,0.26652663946151733,-0.11943141371011734
1727722746088,9i,8.22432207037798,1.3s : 0.4s,0.05009335775041149,0.02561666714252945,0.043048006402382474,0.017690918238338585,0.02490849606692791,-0.06952816992998123,-0.000830561388283968,-0.01687091588973999,0.005033552646636963,-0.001733243465423584,-0.26964553440046146,1.4457488923209136,0.28533193040609356,0.9563392400741577,0.26638978719711304,-0.1202150210738182
1727722746098,9i,8.22432207037798,1.3s : 0.4s,0.049579599440804416,0.025774886059614054,0.04235318086430495,0.01261112449916156,0.03949609398841858,-0.06629647314548492,0.00602651247754693,-0.011736571788787842,-0.004065811634063721,-0.002182319760322571,-0.26944507646149013,1.444869220820734,0.2849916034411909,0.9562862515449524,0.2661965787410736,-0.12106295675039291
1727722746108,9i,8.22432207037798,1.3s : 0.4s,0.04926064675414069,0.02593278758343184,0.041881999078229724,0.010274425157424787,0.06300514191389084,-0.06573667377233505,0.01564078964293003,-0.003313302993774414,-0.007579624652862549,-0.006093859672546387,-0.26910126133549295,1.4439932468958159,0.28445764041620836,0.9562704563140869,0.26586514711380005,-0.1219121441245079
1727722746118,9i,8.22432207037798,1.3s : 0.4s,0.051740503991536076,0.026073703155768988,0.04469051081653691,0.002171951374320214,0.07985736429691315,-0.0589258186519146,0.024928830564022064,0.0002675652503967285,-0.002017885446548462,0.0007575750350952148,-0.26860280423439303,1.4430851337521782,0.2837112653399905,0.9562906622886658,0.26538461446762085,-0.12279736250638962
1727722746128,9i,8.22432207037798,1.3s : 0.4s,0.059129743638716294,0.026183780429282218,0.05301637695289492,0.010881259725524403,0.10543675720691681,-0.05727146193385124,0.03260406106710434,0.009361982345581055,0.003122866153717041,0.004582881927490234,-0.2680504463810081,1.4421522383783094,0.2827824509762917,0.9563210010528564,0.26485201716423035,-0.12370822578668594
1727722746138,9i,8.22432207037798,1.3s : 0.4s,0.06795043086115186,0.026285536019841217,0.06266044725634992,0.012522263010420843,0.11745534092187881,-0.054067324846982956,0.03834723308682442,0.011096298694610596,0.0002224743366241455,-0.00579911470413208,-0.26746626440446414,1.4412060518100276,0.2816293942211688,0.9563567042350769,0.26428863406181335,-0.12463299185037613
1727722746148,9i,8.22432207037798,1.3s : 0.4s,0.06804006695660098,0.026382478056880217,0.06271694797291222,0.012991385255774868,0.06924200057983398,-0.05000094324350357,0.04803554713726044,0.006871461868286133,-0.009495049715042114,-0.0056038498878479,-0.2668784975527663,1.4404485118663102,0.2807027237173377,0.9564158916473389,0.2637217342853546,-0.1253776103258133
1727722746158,9i,8.22432207037798,1.3s : 0.4s,0.06542587065589255,0.02644780852757771,0.05984194160595199,0.03186692662557991,0.004128382541239262,-0.05184531956911087,0.05468522757291794,0.001743316650390625,-0.03156161308288574,0.0040405988693237305,-0.2664222491008554,1.4398736514183756,0.2804020007424887,0.9564628601074219,0.26328161358833313,-0.12594309449195862
1727722746168,9i,8.22432207037798,1.3s : 0.4s,0.06082722011850114,0.026461684801617202,0.05476979043966163,0.04098592621141384,-0.06170016527175903,-0.05288182199001312,0.05848050117492676,0.006916940212249756,-0.04003089666366577,0.005434095859527588,-0.265995912681385,1.4394690452862453,0.28079000981683955,0.9565230011940002,0.26287028193473816,-0.12634475529193878
1727722746178,9i,8.22432207037798,1.3s : 0.4s,0.05341460166875811,0.02646383352987757,0.04639811619381787,0.03895820121615259,-0.10898339003324509,-0.05638338625431061,0.06300877034664154,0.005548715591430664,-0.03843560814857483,0.003107607364654541,-0.2655286188017273,1.43919027407663,0.28176346982926925,0.9566094875335693,0.2624194025993347,-0.12662750482559204
1727722746188,9i,8.22432207037798,1.3s : 0.4s,0.06291142048224985,0.026483727526789236,0.057065392344057636,0.029361202983552683,-0.13693593442440033,-0.06210705637931824,0.06771537661552429,-0.0016179084777832031,-0.02898743748664856,-0.004380762577056885,-0.2650195297602368,1.4389495267186887,0.28312419764469376,0.9567112922668457,0.26192811131477356,-0.1268753558397293
1727722746198,9i,8.22432207037798,1.3s : 0.4s,0.07109007247956121,0.02652568763570196,0.0659559421174653,0.024420983924060495,-0.10130270570516586,-0.061632342636585236,0.0645904541015625,0.00505983829498291,-0.02186247706413269,-0.009634032845497131,-0.2645303750454568,1.4387164270297423,0.28448790802593255,0.9568085670471191,0.2614560127258301,-0.12711521983146667
1727722746208,9i,8.22432207037798,1.3s : 0.4s,0.07155342222444522,0.026606267229487328,0.06642287840904548,0.02289436685165528,-0.05974780395627022,-0.061998531222343445,0.06066788733005524,0.0072479248046875,0.005531132221221924,-0.02100062370300293,-0.2640518992892414,1.4384134138336298,0.2853919788008683,0.9568939208984375,0.2609941363334656,-0.12742164731025696
1727722746218,9i,8.22432207037798,1.3s : 0.4s,0.07208113308489587,0.026712197857225624,0.06694884787984706,0.018707925634486963,-0.06938391923904419,-0.06261655688285828,0.05242021009325981,0.0009421706199645996,0.011052310466766357,-0.015064701437950134,-0.2635803084148907,1.4379677002491187,0.28610091351659095,0.9569587707519531,0.26053887605667114,-0.12786439061164856
1727722746228,9i,8.22432207037798,1.3s : 0.4s,0.07223094729414689,0.02681076605800397,0.06707080266697879,0.009222294042852134,-0.05728091672062874,-0.05910757929086685,0.05981208011507988,0.003836989402770996,-0.008358210325241089,-0.0006844997406005859,-0.26304437832626454,1.437517979800118,0.2868260613862538,0.957039475440979,0.2600214183330536,-0.12831328809261322
1727722746238,9i,8.22432207037798,1.3s : 0.4s,0.0723375189625953,0.02691056822231096,0.06714564742123039,0.012046692163425746,-0.04574450105428696,-0.06783649325370789,0.06147252768278122,0.006665647029876709,0.006969094276428223,-0.007219672203063965,-0.26232560897775453,1.4371021541288749,0.2874451366450973,0.9571710228919983,0.2593272924423218,-0.12873612344264984
1727722746248,9i,8.22432207037798,1.3s : 0.4s,0.07213942003191864,0.027007390490087737,0.06689317440111138,0.012659630384911566,-0.029740767553448677,-0.07197131216526031,0.06388987600803375,0.0031698942184448242,0.011300653219223022,-0.004744812846183777,-0.2614745222407767,1.4366038050127368,0.28794088812542434,0.9573250412940979,0.2585052251815796,-0.12924258410930634
1727722746258,9i,8.22432207037798,1.3s : 0.4s,0.07185062300289301,0.027096165376644773,0.06654554716722506,0.007127449997895933,-0.018342971801757812,-0.07345771044492722,0.0680222362279892,0.0024421215057373047,0.006468921899795532,-0.0017290562391281128,-0.26060036271675613,1.4360195628809083,0.288287561010111,0.9574729204177856,0.2576606869697571,-0.1298321783542633
1727722746268,9i,8.22432207037798,1.3s : 0.4s,0.07140156412511209,0.02718976862777879,0.06602196484110685,0.01564837319341971,-0.00773586705327034,-0.0694240853190422,0.07339143753051758,-0.0025700926780700684,0.013883411884307861,-0.006746634840965271,-0.25974900145192403,1.4353465373016767,0.2885142695508157,0.9576023817062378,0.25683799386024475,-0.13050612807273865
1727722746278,9i,8.22432207037798,1.3s : 0.4s,0.07112366891556728,0.027281306901783983,0.06568338125996485,0.008108645717163339,-0.006512410473078489,-0.07335323095321655,0.07024019211530685,-0.0029012560844421387,0.006971597671508789,-0.0029546022415161133,-0.25891192254549483,1.4346197671077165,0.28867659910045645,0.9577199816703796,0.2560288906097412,-0.13123120367527008
1727722746288,9i,8.22432207037798,1.3s : 0.4s,0.0703300787772688,0.027363350834850614,0.06478863335420587,0.00479533906502331,0.013332400470972061,-0.07740149646997452,0.06169703230261803,-0.0029177069664001465,0.0036689341068267822,0.0010105371475219727,-0.2583191467534779,1.433719530364676,0.2887124884047729,0.9577516913414001,0.2554558217525482,-0.13211405277252197
1727722746298,9i,8.22432207037798,1.3s : 0.4s,0.06924470670467857,0.02745438452092313,0.06356953812317857,0.021857524880909775,0.036284852772951126,-0.07669061422348022,0.06010099872946739,-0.004856288433074951,0.019405841827392578,-0.008808016777038574,-0.2577773189375724,1.432806815035598,0.2885173130570826,0.9577676653862,0.2549319565296173,-0.13300716876983643
1727722746308,9i,8.22432207037798,1.3s : 0.4s,0.06780181516289124,0.02753689711591478,0.06195809419769458,0.022527469084896938,0.06497561931610107,-0.06829233467578888,0.06072630733251572,-0.0015385746955871582,0.022334784269332886,-0.0025054067373275757,-0.2570837936795115,1.4320190085682671,0.28810176606767673,0.9578373432159424,0.2542612850666046,-0.13378606736660004
1727722746318,9i,8.22432207037798,1.3s : 0.4s,0.0666816004864596,0.027602607851334657,0.06070034500100678,0.021710356116498304,0.0645630955696106,-0.06695569306612015,0.054456762969493866,-0.0076146721839904785,0.019811302423477173,0.004568219184875488,-0.2565060787750607,1.4311867684243091,0.28750078870941514,0.9578709602355957,0.2537024915218353,-0.1346035897731781
1727722746328,9i,8.22432207037798,1.3s : 0.4s,0.06569306669725321,0.02766714393638252,0.05958278407806446,0.017189254300784745,0.0642099604010582,-0.06461849808692932,0.04738340526819229,-0.012203216552734375,0.012088537216186523,0.0006474852561950684,-0.256034720851757,1.430390941212768,0.2869229349934149,0.9578819274902344,0.253246545791626,-0.13538257777690887
1727722746338,9i,8.22432207037798,1.3s : 0.4s,0.06637054607883265,0.0277487572557819,0.06029142441145457,0.023713684262249148,0.10375470668077469,-0.060991719365119934,0.04788421466946602,-0.020467281341552734,0.011018455028533936,-0.00469285249710083,-0.25551632130866886,1.4296134458191347,0.2861453046830646,0.9579062461853027,0.25274500250816345,-0.13614574074745178
1727722746348,9i,8.22432207037798,1.3s : 0.4s,0.07242715109858427,0.02786022916562475,0.0668543180886323,0.030261323338218588,0.12353134155273438,-0.05352448299527168,0.05095963180065155,-0.024158954620361328,0.016884952783584595,-0.006854996085166931,-0.254988532244397,1.42875214081153,0.2850093380237906,0.957920491695404,0.2522343099117279,-0.13698960840702057
1727722746358,9i,8.22432207037798,1.3s : 0.4s,0.07415095267923268,0.027997269266089593,0.06866233827128142,0.0363865169134434,0.10120673477649689,-0.05287862569093704,0.04887634143233299,-0.0363384485244751,-0.0004897117614746094,0.0018044263124465942,-0.2544313919937901,1.4279844080580175,0.28395345335474836,0.957953929901123,0.2516951560974121,-0.1377449631690979
1727722746368,9i,8.22432207037798,1.3s : 0.4s,0.07674633506140859,0.028142709809767696,0.07140019488713736,0.03201821340142092,0.10884574055671692,-0.052235204726457596,0.049004439264535904,-0.03046560287475586,-0.009229928255081177,0.003438234329223633,-0.2538449324459208,1.427272507089923,0.2829841004234363,0.9580016136169434,0.2511275112628937,-0.13844799995422363
1727722746378,9i,8.22432207037798,1.3s : 0.4s,0.08318457138418826,0.02830034531825686,0.07822252470509072,0.02312240057661412,0.131554514169693,-0.045378804206848145,0.04678083211183548,-0.022217631340026855,0.005544841289520264,-0.0032057762145996094,-0.2533676296803149,1.4264689405934816,0.28181635270813105,0.9580086469650269,0.25066548585891724,-0.1392350047826767
1727722746388,9i,8.22432207037798,1.3s : 0.4s,0.09224141484138898,0.02846242757498874,0.0877403489192956,0.029794571717216604,0.1580287367105484,-0.04606590047478676,0.040073662996292114,-0.024948418140411377,0.016279786825180054,0.0005113482475280762,-0.25293382046891805,1.4256951607888646,0.2804108227590143,0.9580081105232239,0.25024551153182983,-0.13999195396900177
1727722746398,9i,8.22432207037798,1.3s : 0.4s,0.11059489209797313,0.028618263824243043,0.10682801661478294,0.0252193850263723,0.2265578657388687,-0.04317375272512436,0.0331067331135273,-0.019498765468597412,0.015522241592407227,0.0038568824529647827,-0.2524712345901443,1.4248644688674028,0.27853419500150833,0.9580059051513672,0.24979761242866516,-0.14080454409122467
1727722746408,9i,8.22432207037798,1.3s : 0.4s,0.1315539082987121,0.02877430125958207,0.12836849448244209,0.038039016211612264,0.2672403156757355,-0.0371805764734745,0.027788931503891945,-0.01380157470703125,0.035330116748809814,-0.002875089645385742,-0.251933440888895,1.423884452611933,0.2760227417787155,0.9580001831054688,0.24927683174610138,-0.14176297187805176
1727722746418,9i,8.22432207037798,1.3s : 0.4s,0.15026476111618617,0.028929379737133328,0.1474536856824177,0.03765212620144638,0.28592291474342346,-0.03453845530748367,0.022204749286174774,-0.019833862781524658,0.031955450773239136,0.0017747282981872559,-0.25141606742847233,1.4228094899295871,0.2732397739649773,0.9579747319221497,0.24877575039863586,-0.14281171560287476
1727722746428,9i,8.22432207037798,1.3s : 0.4s,0.1662602959034499,0.029069042109724733,0.16369934876084805,0.023064769598622286,0.29991331696510315,-0.030524270609021187,0.018946638330817223,-0.0041536688804626465,0.0224764347076416,0.0030887722969055176,-0.2509469043965379,1.4217265475684304,0.27026786467221103,0.9579347968101501,0.2483213096857071,-0.14386636018753052
1727722746438,9i,8.22432207037798,1.3s : 0.4s,0.18607335455799986,0.029183462114236076,0.18377056025243563,0.02234746061313577,0.34354546666145325,-0.02669757418334484,0.016062568873167038,0.0016363859176635742,0.021388351917266846,0.006266549229621887,-0.2504004389162548,1.420644436949988,0.2670358912299042,0.9579125046730042,0.24779193103313446,-0.144923135638237
1727722746448,9i,8.22432207037798,1.3s : 0.4s,0.20855652021405868,0.029298611034628025,0.206488289051071,0.032175658451681854,0.38774433732032776,-0.020122762769460678,0.0029755285941064358,-0.0021529793739318848,0.031884998083114624,-0.003739595413208008,-0.24977196078974948,1.4195181308591431,0.2632982481833527,0.9579024910926819,0.24718300998210907,-0.1460254043340683
1727722746458,9i,8.22432207037798,1.3s : 0.4s,0.22887981262466564,0.029419824443230113,0.22698115022360685,0.03153925728168071,0.4097083806991577,-0.024158205837011337,-0.006660487502813339,-0.002214968204498291,0.03093087673187256,-0.005753219127655029,-0.24929216704624318,1.4183096793221064,0.25924749953217074,0.9578424096107483,0.24671806395053864,-0.14720086753368378
1727722746468,9i,8.22432207037798,1.3s : 0.4s,0.25890840820504313,0.029542084292328533,0.25721747431878383,0.013255991903195522,0.4876769483089447,-0.034064631909132004,-0.021208003163337708,-0.002987086772918701,0.012693539261817932,-0.002381742000579834,-0.24893322010281063,1.4169544072576448,0.25473182484703794,0.9577295184135437,0.24637019634246826,-0.14851243793964386
1727722746478,9i,8.22432207037798,1.3s : 0.4s,0.3083262216902678,0.02967157146239177,0.3068951886699241,0.030301645664256586,0.629653811454773,-0.022143080830574036,-0.03642963618040085,0.0018618106842041016,0.02916334569454193,-0.008013904094696045,-0.24854963437656497,1.4153302063278135,0.24900022772636765,0.9575803279876709,0.24599842727184296,-0.15008239448070526
1727722746488,9i,8.22432207037798,1.3s : 0.4s,0.3683224566098472,0.029837511752960025,0.3671119106423881,0.05440814256045021,0.7559265494346619,-0.006888760253787041,-0.04577440023422241,-0.006744444370269775,0.05334798991680145,-0.008291587233543396,-0.24809363664159265,1.4134870595295046,0.24186247652790244,0.9574127197265625,0.24555641412734985,-0.1518646478652954
1727722746498,9i,8.22432207037798,1.3s : 0.4s,0.4305613886610259,0.030026967321781707,0.42951308552728357,0.030410483491572982,0.8558568358421326,-0.014291726984083652,-0.045624133199453354,-0.008008837699890137,0.02781727910041809,-0.009319603443145752,-0.24726234029341973,1.4113589189484774,0.23358687241389972,0.9572886228561401,0.2447504848241806,-0.15393418073654175
1727722746508,9i,8.22432207037798,1.3s : 0.4s,0.504285890017989,0.030197750421742553,0.503380924092979,0.011371201349843464,1.0059925317764282,0.004264380782842636,-0.05138641595840454,0.007546126842498779,0.008350446820259094,0.0016217976808547974,-0.24625177299423184,1.40896035749239,0.22405425489697495,0.957160234451294,0.2437705248594284,-0.1562696248292923
1727722746518,9i,8.22432207037798,1.3s : 0.4s,0.5890856713585451,0.03036873451770502,0.5883023611747118,0.02250279507447103,1.1712026596069336,0.019875342026352882,-0.04721653461456299,0.0068694353103637695,0.020512789487838745,-0.006197750568389893,-0.24497646282303656,1.4063738416773042,0.21287125348898558,0.9570587873458862,0.24253349006175995,-0.158795565366745
1727722746528,9i,8.22432207037798,1.3s : 0.4s,0.6788426781546713,0.030525972156238923,0.678155989952255,0.009327429512648158,1.322475552558899,0.010640298947691917,-0.039079513400793076,0.00709301233291626,-0.005689382553100586,-0.002078711986541748,-0.24332821099654597,1.4034778785848536,0.20014145371447373,0.9569877982139587,0.2409341186285019,-0.16163286566734314
1727722746538,9i,8.22432207037798,1.3s : 0.4s,0.7790345476941756,0.03065660288617267,0.7784311139725519,0.0281659773592622,1.508448600769043,0.01952558197081089,-0.028894919902086258,0.025394320487976074,-0.010324791073799133,-0.006469115614891052,-0.24128150670439957,1.4001954842027662,0.18579622790089473,0.9569359421730042,0.23894721269607544,-0.16485655307769775
1727722746548,9i,8.22432207037798,1.3s : 0.4s,0.9016066414697635,0.030765022157409175,0.901081599720048,0.046233536245089475,1.7688236236572266,0.04665014147758484,-0.022601604461669922,0.02767157554626465,0.03593553602695465,-0.008970007300376892,-0.23874111503332124,1.3966027798912812,0.16914814790192012,0.9569322466850281,0.23647964000701904,-0.16839814186096191
1727722746558,9i,8.22432207037798,1.3s : 0.4s,1.0320817262382993,0.030920586196154412,1.0316184405991944,0.08250988815470903,1.9902434349060059,0.06128949299454689,-0.026227597147226334,0.0279502272605896,0.07617196440696716,-0.014983266592025757,-0.23566521816407224,1.3926704573157638,0.14997402102307356,0.9569739103317261,0.23348987102508545,-0.17228783667087555
1727722746568,9i,8.22432207037798,1.3s : 0.4s,1.158341227050145,0.031140232880493536,1.1579225726188191,0.1056245583320559,2.163198232650757,0.08771470934152603,-0.012535220012068748,0.0394476056098938,0.09659966826438904,-0.0163993239402771,-0.23210847894940803,1.3885008806265262,0.1288758783324046,0.9570581316947937,0.23002997040748596,-0.1764259934425354
1727722746578,9i,8.22432207037798,1.3s : 0.4s,1.2679319353806269,0.03148023828667059,1.267541079158966,0.11035376978723234,2.268479108810425,0.07951155304908752,-0.023216161876916885,0.046568334102630615,0.09730897843837738,-0.02324451506137848,-0.22819859558649414,1.384217529797715,0.10650754710831224,0.9571701884269714,0.2262231856584549,-0.1806892454624176
1727722746588,9i,8.22432207037798,1.3s : 0.4s,1.3705355165736899,0.031921472187290696,1.3701637208024837,0.09622621432648067,2.3959896564483643,0.10991233587265015,-0.03183628246188164,0.04199814796447754,0.08338834345340729,-0.023281410336494446,-0.22411667728921045,1.3798446117137162,0.08211331648790753,0.9572694897651672,0.2222452163696289,-0.18504683673381805
1727722746598,9i,8.22432207037798,1.3s : 0.4s,1.4357219372395447,0.03266941686475787,1.435350197781917,0.14054384045324086,2.3621668815612793,0.1254909783601761,-0.03415919095277786,0.0343208909034729,0.13269340991973877,-0.03109833598136902,-0.2198422412280652,1.375654662544337,0.057162947172507195,0.9574089646339417,0.21807566285133362,-0.18923857808113098
1727722746608,9i,8.22432207037798,1.3s : 0.4s,1.4742297900374959,0.033517741604571466,1.4738487150422626,0.07237509228454714,2.3270978927612305,0.08732921630144119,-0.09576103836297989,-0.0055335164070129395,0.07194752991199493,-0.005575582385063171,-0.21598263876261237,1.3716074252214583,0.032823566802587446,0.9574530124664307,0.21430733799934387,-0.19327697157859802
1727722746618,9i,8.22432207037798,1.3s : 0.4s,1.495114696458506,0.03452908055022117,1.49471592557334,0.09778705770144212,2.2962098121643066,0.08946289867162704,-0.10372984409332275,-0.02211451530456543,0.09016424417495728,-0.030719146132469177,-0.21231534686276274,1.3675915488873733,0.008412009203693303,0.9574324488639832,0.21072381734848022,-0.19727769494056702
1727722746628,9i,8.22432207037798,1.3s : 0.4s,1.4844895877238218,0.03579867031971575,1.4840578800248265,0.12458827452006915,2.1681277751922607,0.07232093065977097,-0.17590363323688507,-0.052185118198394775,0.11160455644130707,-0.01853036880493164,-0.20919280150542652,1.363669413575236,-0.015222072020222055,0.9572906494140625,0.20767036080360413,-0.20116569101810455
1727722746638,9i,8.22432207037798,1.3s : 0.4s,1.4819229120913302,0.03743140319819234,1.481450102918037,0.15929026554256256,2.1719777584075928,0.05678622052073479,-0.25748410820961,-0.09129220247268677,0.12982197105884552,-0.01361536979675293,-0.20677718715040516,1.3597584533900862,-0.038200651059775124,0.9569843411445618,0.20530681312084198,-0.20501255989074707
1727722746648,9i,8.22432207037798,1.3s : 0.4s,1.4975322680741148,0.03984555280282699,1.4970020794391168,0.2541908272293551,2.2687506675720215,0.06229550391435623,-0.30279937386512756,-0.08873564004898071,0.23609240353107452,-0.0316123366355896,-0.20485153511945237,1.3557219949846493,-0.0619697864422935,0.9565334916114807,0.20342180132865906,-0.208957701921463
1727722746658,9i,8.22432207037798,1.3s : 0.4s,1.5004373184954776,0.04341315984822004,1.4998091359522692,0.3439758260290689,2.228389263153076,0.06501214951276779,-0.3684949278831482,-0.11648213863372803,0.3196307420730591,-0.050867170095443726,-0.20325017688843966,1.3516444822650704,-0.08626606730803346,0.9559903144836426,0.2018536627292633,-0.21292679011821747
1727722746668,9i,8.22432207037798,1.3s : 0.4s,1.4832793617060824,0.04761849315263484,1.4825148039642222,0.31352344428307477,2.113737106323242,0.060154546052217484,-0.42766663432121277,-0.15388768911361694,0.27297860383987427,-0.009910151362419128,-0.20239952743746734,1.3477693545659586,-0.10974378406876913,0.9553250074386597,0.20102044939994812,-0.21666763722896576
1727722746678,9i,8.22432207037798,1.3s : 0.4s,1.4656374857189156,0.05248279874626988,1.4646975098566337,0.34200775341923156,2.0729730129241943,0.04709453508257866,-0.4813319742679596,-0.1684843897819519,0.2976278066635132,-4.999339580535889e-05,-0.20217504231772368,1.3439098779697312,-0.13256482429946848,0.9545255303382874,0.20080053806304932,-0.22036319971084595
1727722746688,9i,8.22432207037798,1.3s : 0.4s,1.466132607164118,0.05830994938631866,1.464972618035033,0.4009818376355109,2.1277315616607666,0.016623977571725845,-0.5426091551780701,-0.17986488342285156,0.35781651735305786,-0.020059853792190552,-0.2023848807188011,1.3398273373775136,-0.1556023524981601,0.953576922416687,0.20100609958171844,-0.22424858808517456
1727722746698,9i,8.22432207037798,1.3s : 0.4s,1.491706499646402,0.06533539729451182,1.490274997088688,0.46268702107376775,2.232879877090454,0.05031682550907135,-0.6185883283615112,-0.1998143196105957,0.4143769443035126,-0.049449622631073,-0.20301200131627536,1.3354752136680215,-0.17973320789620092,0.9524693489074707,0.20162038505077362,-0.2283671498298645
1727722746708,9i,8.22432207037798,1.3s : 0.4s,1.5006817009797815,0.07359249134870664,1.4988761499445713,0.5200491658611336,2.156486988067627,0.06829210370779037,-0.7248260974884033,-0.2258620262145996,0.46583569049835205,-0.049341559410095215,-0.20434571759205414,1.331383605176701,-0.20409513480943442,0.9512647986412048,0.20292653143405914,-0.23219835758209229
1727722746718,9i,8.22432207037798,1.3s : 0.4s,1.5202886917774543,0.0827075238174672,1.5180372761728833,0.5416396319260557,2.1828391551971436,0.05093991756439209,-0.851333737373352,-0.24867218732833862,0.48077791929244995,0.019703462719917297,-0.20683567783870227,1.3272274824539074,-0.2284246765303829,0.9497982859611511,0.20536406338214874,-0.236027330160141
1727722746728,9i,8.22432207037798,1.3s : 0.4s,1.566436293875891,0.09316968100362985,1.563663030615394,0.6402985485063996,2.3019869327545166,0.029625307768583298,-0.9794498682022095,-0.22243261337280273,0.6003702878952026,-0.007840991020202637,-0.21024191027699307,1.3225625865975468,-0.25384710213350276,0.9480032920837402,0.20869648456573486,-0.24028219282627106
1727722746738,9i,8.22432207037798,1.3s : 0.4s,1.618922509821292,0.10524546017740981,1.6154979065037864,0.7242437167544511,2.348245143890381,0.05790439620614052,-1.118199110031128,-0.22762924432754517,0.6851117610931396,-0.05775606632232666,-0.2146185433283278,1.3175388533343038,-0.2805273255452171,0.9458909630775452,0.21297474205493927,-0.24481047689914703
1727722746748,9i,8.22432207037798,1.3s : 0.4s,1.6706870565440441,0.11830249279080515,1.6664932526425915,0.7049614892488449,2.3573641777038574,0.043735045939683914,-1.2677334547042847,-0.2689458727836609,0.6515251398086548,-0.012402057647705078,-0.22024630193008746,1.3123950027451492,-0.3076838691220808,0.9434453845024109,0.21846997737884521,-0.24936246871948242
1727722746758,9i,8.22432207037798,1.3s : 0.4s,1.7286633670712301,0.1321622442034823,1.7236038343717912,0.7214784542056625,2.4229414463043213,0.037418074905872345,-1.3585642576217651,-0.2662876844406128,0.6705336570739746,-0.002577543258666992,-0.2267755736806608,1.3067849668266776,-0.3357461470488509,0.940634548664093,0.2248368263244629,-0.2542736530303955
1727722746768,9i,8.22432207037798,1.3s : 0.4s,1.7661464613160562,0.14668851471772693,1.7600442615085379,0.7305888280866252,2.3386850357055664,0.02481492981314659,-1.4732298851013184,-0.2239554524421692,0.694689929485321,-0.031778812408447266,-0.2340775835405866,1.3008525280456298,-0.3639620991117782,0.9375022053718567,0.23194582760334015,-0.25940462946891785
1727722746778,9i,8.22432207037798,1.3s : 0.4s,1.801067719616572,0.16126200138136748,1.793833743008341,0.6643845238867542,2.310999870300293,0.012944687157869339,-1.5913528203964233,-0.2531856298446655,0.6137228012084961,0.02545890212059021,-0.24263975160327067,1.2945764816970118,-0.39190113187744957,0.9339108467102051,0.240265890955925,-0.2647320032119751
1727722746788,9i,8.22432207037798,1.3s : 0.4s,1.80814083543203,0.17609838909752287,1.7995451197772445,0.7063952086990227,2.0934741497039795,0.01637190952897072,-1.7563941478729248,-0.24258708953857422,0.6633821725845337,0.00835391879081726,-0.25248461832220137,1.288262720111464,-0.4194862288246051,0.9299039244651794,0.2498105764389038,-0.26995059847831726
1727722746798,9i,8.22432207037798,1.3s : 0.4s,1.8452194078155766,0.19120333814625448,1.8352863390928937,0.7384324899788873,2.1351423263549805,-0.016482708975672722,-1.9426400661468506,-0.23734909296035767,0.6931989192962646,0.09177803993225098,-0.264478770425993,1.2815185097556787,-0.44625399216479195,0.9251237511634827,0.26140618324279785,-0.27534130215644836
1727722746808,9i,8.22432207037798,1.3s : 0.4s,1.9296091537794973,0.20758866869914483,1.918410391698644,0.8959311809126267,2.359881639480591,-0.024876460433006287,-2.1000239849090576,-0.1698857545852661,0.8795822858810425,0.01290401816368103,-0.2772614200989994,1.273699058401989,-0.4753905767439518,0.9196720719337463,0.27372267842292786,-0.28156551718711853
1727722746818,9i,8.22432207037798,1.3s : 0.4s,2.018402231778694,0.22517992983458374,2.005801976379748,0.9404834919228653,2.414231061935425,-0.03236890584230423,-2.252981662750244,-0.13137006759643555,0.9301650524139404,-0.04521149396896362,-0.2909482116225235,1.2648090721488883,-0.5066235103415685,0.9134745597839355,0.28686070442199707,-0.2885745167732239
1727722746828,9i,8.22432207037798,1.3s : 0.4s,2.0920642514056578,0.24283673837725323,2.0779227970508947,0.815849910690402,2.3310911655426025,-0.05608648806810379,-2.4227168560028076,-0.14781945943832397,0.8022595047950745,0.01183938980102539,-0.30597769446741196,1.2552435302103704,-0.5384110595017709,0.9064711928367615,0.30122560262680054,-0.2959275245666504
1727722746838,9i,8.22432207037798,1.3s : 0.4s,2.158235609277324,0.26046845342586106,2.142460531707084,0.7926681769737508,2.2843644618988037,-0.09956227988004684,-2.5608348846435547,-0.11810201406478882,0.7815724611282349,0.05932319164276123,-0.3223548385521259,1.2448208135139653,-0.5703390661794728,0.8985432386398315,0.316800981760025,-0.3037385046482086
1727722746848,9i,8.22432207037798,1.3s : 0.4s,2.233016061793331,0.2781320535137121,2.2156270654230696,0.8319614555690011,2.3458659648895264,-0.1524990051984787,-2.681867837905884,-0.05067014694213867,0.8300727605819702,0.023908406496047974,-0.3396591388127068,1.2330941454005035,-0.6030059152133941,0.8896135687828064,0.3331657350063324,-0.3123910427093506
1727722746858,9i,8.22432207037798,1.3s : 0.4s,2.311110797217844,0.2957877481448631,2.292104431535415,0.8233686466106235,2.3887104988098145,-0.19882605969905853,-2.8044233322143555,0.011337876319885254,0.8232705593109131,-0.005741685628890991,-0.35748218321312997,1.2198557561825745,-0.6372250485428699,0.8796837329864502,0.3499166965484619,-0.3220475912094116
1727722746868,9i,8.22432207037798,1.3s : 0.4s,2.378160593624063,0.31301302848850415,2.3574712411952796,0.7727062928453856,2.330681324005127,-0.2546139359474182,-2.9271786212921143,0.049944400787353516,0.7710905075073242,3.263354301452637e-05,-0.37606238519355256,1.2052542276555058,-0.6721629433875335,0.8686650991439819,0.3672608733177185,-0.332475870847702
1727722746878,9i,8.22432207037798,1.3s : 0.4s,2.432649998996159,0.3293995434233026,2.4102452071124487,0.7198696416107829,2.2365708351135254,-0.3358328342437744,-3.0400490760803223,0.1054999828338623,0.7120966911315918,0.0005975067615509033,-0.39554966196798996,1.1892554954857877,-0.7072932341023941,0.856429398059845,0.385315477848053,-0.3435998857021332
1727722746888,9i,8.22432207037798,1.3s : 0.4s,2.4905390265847203,0.34489807019563495,2.4665421066985442,0.7016518058415299,2.239015579223633,-0.4206523895263672,-3.1443989276885986,0.17645740509033203,0.6790879964828491,-0.004187345504760742,-0.4156976795586559,1.1715178291777968,-0.7430733572561884,0.8428754806518555,0.40382829308509827,-0.35564541816711426
1727722746898,9i,8.22432207037798,1.3s : 0.4s,2.5401387764171885,0.35987725210751903,2.514516527460846,0.7077904579536981,2.140194892883301,-0.4880102574825287,-3.2580060958862305,0.23029178380966187,0.6684331893920898,-0.03361693024635315,-0.4363971240726628,1.1520616262796202,-0.7795800217470675,0.8279814720153809,0.42267701029777527,-0.36849793791770935
1727722746908,9i,8.22432207037798,1.3s : 0.4s,2.5772041986972813,0.37389317430557717,2.549938308271515,0.667337838397526,1.969520092010498,-0.5776594281196594,-3.369236707687378,0.2720772624015808,0.6090357303619385,-0.01972898840904236,-0.4582578185135597,1.1311959494728443,-0.8159326206178058,0.8115561008453369,0.44238635897636414,-0.38166868686676025
1727722746918,9i,8.22432207037798,1.3s : 0.4s,2.6189294883940426,0.38773510283552354,2.5900681757839905,0.6888256454297579,1.9494354724884033,-0.6578428149223328,-3.4484195709228516,0.33996957540512085,0.598818302154541,-0.01783531904220581,-0.480562320751007,1.1085682437507975,-0.8525593386330051,0.7936821579933167,0.462277889251709,-0.3954337537288666
1727722746928,9i,8.22432207037798,1.3s : 0.4s,2.6670315212571403,0.40120826059372433,2.6366814496655704,0.7796807804692405,1.9541417360305786,-0.7230305671691895,-3.5339138507843018,0.41422849893569946,0.6584831476211548,-0.052123069763183594,-0.5027147298909204,1.0837921427083215,-0.8906077357812531,0.7744007706642151,0.4818061590194702,-0.4100809395313263
1727722746938,9i,8.22432207037798,1.3s : 0.4s,2.70868393811828,0.4142794888938685,2.676815492652004,0.7778041419926128,1.8992832899093628,-0.7835965752601624,-3.592503309249878,0.4563307762145996,0.6268465518951416,-0.06168392300605774,-0.5247264407071255,1.05708286809532,-0.9298925935937291,0.7537521719932556,0.5009762644767761,-0.4253003001213074
1727722746948,9i,8.22432207037798,1.3s : 0.4s,2.744016277503728,0.42702546465526425,2.7105856532752055,0.7550260180205113,1.825901985168457,-0.8540915250778198,-3.6469571590423584,0.49628710746765137,0.566567599773407,-0.05257898569107056,-0.5466848535609732,1.028511480177967,-0.9700344866070629,0.7316944003105164,0.5198581218719482,-0.44087493419647217
1727722746958,9i,8.22432207037798,1.3s : 0.4s,2.776944579239075,0.43926057971861454,2.7419831033889595,0.7842913798542488,1.7609305381774902,-0.9332950711250305,-3.703403949737549,0.5474472641944885,0.559566080570221,-0.04796105623245239,-0.568386913476207,0.9979771051409416,-1.0109819083738585,0.708244264125824,0.538273274898529,-0.4567844271659851
1727722746968,9i,8.22432207037798,1.3s : 0.4s,2.8120575185146994,0.4511526132411044,2.775631244780324,0.7986099372908579,1.7424300909042358,-1.0057815313339233,-3.7565438747406006,0.581089973449707,0.5453022122383118,-0.052514493465423584,-0.5896768619057614,0.9651957237716957,-1.053313894272999,0.683314323425293,0.5560925006866455,-0.4731203019618988
1727722746978,9i,8.22432207037798,1.3s : 0.4s,2.848808875070889,0.46289597893686796,2.8109498962746997,0.8217422191450998,1.7476966381072998,-1.0764590501785278,-3.7984282970428467,0.6152978539466858,0.5401356816291809,-0.07015889883041382,-0.610190441455584,0.9299809980514572,-1.0973405430935022,0.6569494605064392,0.5730235576629639,-0.4899607300758362
1727722746988,9i,8.22432207037798,1.3s : 0.4s,2.883690158491427,0.47462626765096333,2.8443626414780567,0.8479261473944565,1.7112926244735718,-1.1527239084243774,-3.841702699661255,0.6539099216461182,0.5352038741111755,-0.0702664852142334,-0.6297675606613204,0.8923321833528374,-1.1430204431713509,0.6291863918304443,0.5889569520950317,-0.5072024464607239
1727722746998,9i,8.22432207037798,1.3s : 0.4s,2.912026348043273,0.48626258526579547,2.8711402177303826,0.8679571255596813,1.6513268947601318,-1.2372117042541504,-3.86175274848938,0.7046787738800049,0.5038540363311768,-0.053930580615997314,-0.6484469236210735,0.852411799060243,-1.1899032266749028,0.6000545024871826,0.6039493083953857,-0.5245758891105652
1727722747008,9i,8.22432207037798,1.3s : 0.4s,2.9375020456782317,0.49765406080476726,2.8950403631259305,0.8758760889941168,1.5810269117355347,-1.3190280199050903,-3.894127130508423,0.7471519112586975,0.45294296741485596,-0.061364591121673584,-0.6662482042827885,0.8102182506789988,-1.237916954398906,0.5695136785507202,0.6180408596992493,-0.5419220924377441
1727722747018,9i,8.22432207037798,1.3s : 0.4s,2.9592444455749227,0.5088771753064262,2.9151623812608083,0.8886878969588087,1.529455304145813,-1.3871811628341675,-3.9094982147216797,0.7764890193939209,0.42755991220474243,-0.06343108415603638,-0.6829835260043507,0.7658543885258061,-1.2871853254310848,0.5376741886138916,0.6311101317405701,-0.5591122508049011
1727722747028,9i,8.22432207037798,1.3s : 0.4s,2.9748110050966146,0.5200982469216315,2.9289927158654687,0.9005265708750506,1.4581912755966187,-1.4476956129074097,-3.9133710861206055,0.7945186495780945,0.41799497604370117,-0.07048702239990234,-0.6984415364964939,0.7195131470460462,-1.3374501695913104,0.5047062039375305,0.6430249214172363,-0.5760126113891602
1727722747038,9i,8.22432207037798,1.3s : 0.4s,2.988793859158336,0.5312924081421826,2.941193143877678,0.9038683644398379,1.412707805633545,-1.5011951923370361,-3.9228575229644775,0.8140506148338318,0.38982337713241577,-0.04834616184234619,-0.7125370125831826,0.6713068920447769,-1.3890421493283767,0.4706783592700958,0.6537556648254395,-0.5925076603889465
1727722747048,9i,8.22432207037798,1.3s : 0.4s,3.0027341817464763,0.542681921891692,2.95328781155522,0.9233942333515968,1.3850058317184448,-1.5486828088760376,-3.9326930046081543,0.8331542015075684,0.39638811349868774,-0.03724849224090576,-0.7250217167941294,0.6212293072689653,-1.441669331776175,0.43564465641975403,0.6631516814231873,-0.6086407899856567
1727722747058,9i,8.22432207037798,1.3s : 0.4s,3.0153404486826543,0.5542648635984053,2.9639616195966427,0.9350886881158788,1.2840632200241089,-1.6269066333770752,-3.950251817703247,0.8544707298278809,0.3792670965194702,-0.020666301250457764,-0.7359826338570502,0.5694042462121768,-1.4952663809330105,0.39958807826042175,0.6713157892227173,-0.6242311596870422
1727722747068,9i,8.22432207037798,1.3s : 0.4s,3.0217276408273555,0.5658071596378615,2.968282364169991,0.934938008863261,1.1979142427444458,-1.6890853643417358,-3.9403257369995117,0.8810054063796997,0.31292998790740967,0.0036574602127075195,-0.745690609147276,0.5159984651659901,-1.549499065126908,0.3624638617038727,0.6784793138504028,-0.6389724016189575
1727722747078,9i,8.22432207037798,1.3s : 0.4s,3.0242220326178844,0.5774457383212871,2.968581365208983,0.9516174545824813,1.1637885570526123,-1.7354034185409546,-3.9135262966156006,0.8978945016860962,0.31467485427856445,-0.018465638160705566,-0.7537099107609575,0.46140463047888136,-1.6040523239381899,0.3246243894100189,0.6843485832214355,-0.6529058218002319
1727722747088,9i,8.22432207037798,1.3s : 0.4s,3.0225499129748017,0.5894314818170018,2.9645199450614252,0.9349502791104676,1.061008095741272,-1.7728663682937622,-3.8823609352111816,0.8879555463790894,0.28997886180877686,-0.03973954916000366,-0.7599113160734678,0.40601590383709724,-1.6588464342276992,0.28629976511001587,0.6888571381568909,-0.6659641861915588
1727722747098,9i,8.22432207037798,1.3s : 0.4s,3.0134207033392317,0.6016811091647379,2.9527418068953812,0.9332951146454253,0.9315646290779114,-1.8244225978851318,-3.865574836730957,0.8982893228530884,0.25119972229003906,-0.03185534477233887,-0.7649633622350953,0.35009284910857075,-1.7134281314494724,0.24743206799030304,0.6925105452537537,-0.6776478290557861
1727722747108,9i,8.22432207037798,1.3s : 0.4s,3.012207059347555,0.6139640980278731,2.948972610031511,0.9539393059897416,0.8662189245223999,-1.8577827215194702,-3.8656935691833496,0.9216528534889221,0.24350881576538086,-0.035491883754730225,-0.76869334278342,0.29365179566682564,-1.767818233994066,0.2080620676279068,0.6951965689659119,-0.68804931640625
1727722747118,9i,8.22432207037798,1.3s : 0.4s,3.0247115847364148,0.626409743441651,2.9591368681019197,0.9678277507598814,1.031781792640686,-1.8636616468429565,-3.9049618244171143,0.9314543008804321,0.2556689977645874,-0.06096559762954712,-0.7699055421977855,0.23631533648127154,-1.8229849565393839,0.16809405386447906,0.6960674524307251,-0.6980218291282654
1727722747128,9i,8.22432207037798,1.3s : 0.4s,3.0449931797341487,0.6402514502551956,2.976921487892081,1.055879761887333,1.200622797012329,-1.924355149269104,-3.8871896266937256,0.9561128616333008,0.4179461598396301,-0.1614040732383728,-0.7668074418618326,0.17829865528144156,-1.8787571039665678,0.12771888077259064,0.6938397288322449,-0.7087131142616272
1727722747138,9i,8.22432207037798,1.3s : 0.4s,3.0546242929646827,0.6545179193982122,2.983678244106865,0.9942414388026045,0.9213293194770813,-2.0030572414398193,-3.8959856033325195,0.9189828038215637,0.3192397356033325,-0.2051161527633667,-0.7619627403153875,0.12011665139425362,-1.9339462674421253,0.08669346570968628,0.6903427839279175,-0.7182695269584656
1727722747148,9i,8.22432207037798,1.3s : 0.4s,3.055668022928717,0.6674646372536257,2.9818782712184917,0.9127336677948644,0.6149179935455322,-2.094882011413574,-3.8733747005462646,0.9100934863090515,0.061566948890686035,-0.03197038173675537,-0.7579598514819047,0.0622130612503205,-1.9877320395365499,0.04515247419476509,0.6874412298202515,-0.7248349785804749
1727722747158,9i,8.22432207037798,1.3s : 0.4s,3.043310158120154,0.6805854813450695,2.966233322093799,0.9345599439326822,0.4571372866630554,-2.139164686203003,-3.814279794692993,0.9235823750495911,0.131361186504364,-0.056054651737213135,-0.753932661603939,0.004627997464668215,-2.0402770918825848,0.003373810090124607,0.6845109462738037,-0.7289947867393494
1727722747168,9i,8.22432207037798,1.3s : 0.4s,3.024987408384368,0.6935021490113283,2.9444190581845926,0.9065091534192736,0.3358217775821686,-2.1598639488220215,-3.7461557388305664,0.8908767700195312,0.1447421908378601,-0.08454066514968872,-0.7490681307849653,-0.05206178931831058,-2.0912995238030527,-0.03810886666178703,0.6809566020965576,-0.7313315272331238
1727722747178,9i,8.22432207037798,1.3s : 0.4s,3.0020393871713034,0.7060480568133553,2.91783080791158,0.8937848639486874,0.2686954736709595,-2.1686935424804688,-3.672283411026001,0.8863887786865234,0.09567379951477051,-0.0633469820022583,-0.7433481617097923,-0.10770209422098313,-2.1408643501089344,-0.07913781702518463,0.6767566204071045,-0.7319410443305969
1727722747188,9i,8.22432207037798,1.3s : 0.4s,2.9842408942709153,0.7188911271221742,2.896357930640459,0.9074507360445612,0.23078641295433044,-2.168734312057495,-3.650355577468872,0.8921341896057129,0.14476174116134644,-0.08128631114959717,-0.7360555604407428,-0.16231096299493883,-2.1889929673138213,-0.11976481974124908,0.6713698506355286,-0.7313815355300903
1727722747198,9i,8.22432207037798,1.3s : 0.4s,2.9723580387232094,0.7318083005112892,2.8808625308517,0.8791801777814358,0.2384263575077057,-2.184088945388794,-3.631702423095703,0.8604716062545776,0.14518213272094727,-0.10709130764007568,-0.7269811839601007,-0.21570631484474426,-2.2356875751015486,-0.15992537140846252,0.6646170616149902,-0.7298685312271118
1727722747208,9i,8.22432207037798,1.3s : 0.4s,2.966171404630432,0.7446884400177722,2.8711690874887825,0.8654503855385499,0.3339211940765381,-2.160151720046997,-3.6394753456115723,0.8508423566818237,0.12280440330505371,-0.09995365142822266,-0.7155526660027679,-0.26791808589149285,-2.281107798503337,-0.19979563355445862,0.6560346484184265,-0.7278050780296326
1727722747218,9i,8.22432207037798,1.3s : 0.4s,2.966716293076457,0.7579082767365577,2.868271362277205,0.8534925615377068,0.5046417713165283,-2.14374041557312,-3.6380093097686768,0.8280348777770996,0.18919241428375244,-0.08374977111816406,-0.7010705050487338,-0.3182074972524613,-2.324688054370264,-0.23907610774040222,0.6450361013412476,-0.7257899641990662
1727722747228,9i,8.22432207037798,1.3s : 0.4s,2.9689703233023668,0.7714464785895164,2.866994089865201,0.8482095850514134,0.6692834496498108,-2.1478590965270996,-3.621171236038208,0.8167440891265869,0.19939833879470825,-0.11237835884094238,-0.6832942893718746,-0.366473122837599,-2.365853992480243,-0.2778799831867218,0.6313511729240417,-0.7240017056465149
1727722747238,9i,8.22432207037798,1.3s : 0.4s,2.9609482046729014,0.7851338184477381,2.854956945014294,0.8396498838722145,0.7270259857177734,-2.1230309009552,-3.57441782951355,0.8173768520355225,0.17270755767822266,-0.0841374397277832,-0.6631950079851462,-0.4122330251284572,-2.4042685814189815,-0.31572890281677246,0.6156377792358398,-0.7220149040222168
1727722747248,9i,8.22432207037798,1.3s : 0.4s,2.953333178214376,0.7984310208631241,2.8433580088454034,0.7736826970379499,0.7379026412963867,-2.1306281089782715,-3.544952630996704,0.7635883688926697,0.12149214744567871,-0.027520477771759033,-0.6415816361678135,-0.4558677828497768,-2.440353294356912,-0.3526996970176697,0.5984632968902588,-0.719336211681366
1727722747258,9i,8.22432207037798,1.3s : 0.4s,2.9352476908056326,0.8113520326565671,2.820884060978731,0.7493090427777048,0.762626588344574,-2.1147308349609375,-3.463367462158203,0.7390822172164917,0.10717403888702393,-0.06111663579940796,-0.6188103452871914,-0.49729179299066056,-2.4738568773597422,-0.3885878622531891,0.5800665020942688,-0.7159066796302795
1727722747268,9i,8.22432207037798,1.3s : 0.4s,2.9184267015114376,0.8238996296394825,2.7997149519861573,0.7412412044180076,0.7307203412055969,-2.140418291091919,-3.4198310375213623,0.7339416742324829,0.0819968581199646,-0.06359761953353882,-0.5953271215775913,-0.536711538464266,-2.504939225441685,-0.4233490526676178,0.5607796311378479,-0.7115488648414612
1727722747278,9i,8.22432207037798,1.3s : 0.4s,2.9051318613388126,0.83589259397379,2.782278688971629,0.7108920013213321,0.7343980073928833,-2.183115005493164,-3.3763914108276367,0.7067183256149292,0.038433730602264404,-0.06662952899932861,-0.5711945076682783,-0.5748810829654912,-2.53405072994622,-0.4574202299118042,0.5406373143196106,-0.7060297727584839
1727722747288,9i,8.22432207037798,1.3s : 0.4s,2.892633109916158,0.8479198620741523,2.7655665271483483,0.7350208442257634,0.7072902321815491,-2.2307443618774414,-3.323944330215454,0.7257227301597595,0.07949817180633545,-0.08521854877471924,-0.5464809042161952,-0.6117747967179592,-2.5610914649374696,-0.49067631363868713,0.5196838974952698,-0.6994035840034485
1727722747298,9i,8.22432207037798,1.3s : 0.4s,2.88088200012664,0.8598360415911225,2.7495750726675166,0.7250200176528266,0.6152398586273193,-2.2686054706573486,-3.2909157276153564,0.7220770716667175,0.05455058813095093,-0.03581845760345459,-0.5216612333332774,-0.6477650700017289,-2.5866821702902425,-0.523148238658905,0.4983211159706116,-0.6913696527481079
1727722747308,9i,8.22432207037798,1.3s : 0.4s,2.8682528442801245,0.8715759065315805,2.7326232484326627,0.7004727138620356,0.6233893632888794,-2.287310838699341,-3.240593910217285,0.6933326125144958,0.058309346437454224,-0.0809440016746521,-0.4966994403653854,-0.6828895676925334,-2.610899161946978,-0.5547828078269958,0.4765264093875885,-0.6820107102394104
1727722747318,9i,8.22432207037798,1.3s : 0.4s,2.8531275508325287,0.8833744203501401,2.7129294968337594,0.7009254417952782,0.6367524266242981,-2.3105688095092773,-3.1731560230255127,0.6774865388870239,0.08595311641693115,-0.1578623652458191,-0.4710890981305852,-0.7165968778121864,-2.6329887816744,-0.5852776765823364,0.45385703444480896,-0.6719105839729309
1727722747328,9i,8.22432207037798,1.3s : 0.4s,2.833343053820904,0.894856260162699,2.6883201324029087,0.6671883846751432,0.5418049097061157,-2.3302507400512695,-3.109898805618286,0.6586818695068359,0.03711456060409546,-0.09950399398803711,-0.4457299267363655,-0.7493786693480408,-2.6537010155579788,-0.6146297454833984,0.43111661076545715,-0.6605821251869202
1727722747338,9i,8.22432207037798,1.3s : 0.4s,2.820090182334071,0.9059702007845061,2.6706041698064307,0.6552735856525097,0.5079444050788879,-2.3887581825256348,-3.068925380706787,0.6538127064704895,0.013517051935195923,-0.04158973693847656,-0.42057086909851754,-0.781661906462859,-2.6733575359096866,-0.6430704593658447,0.4082816541194916,-0.6478938460350037
1727722747348,9i,8.22432207037798,1.3s : 0.4s,2.811044118519336,0.917205375089,2.657198399850865,0.6729966858868965,0.5128275752067566,-2.400109052658081,-3.0507616996765137,0.6649489402770996,0.06578245759010315,-0.0802503228187561,-0.39508417235046916,-0.813287203519045,-2.6917403841785728,-0.6705794334411621,0.38488587737083435,-0.6341814398765564
1727722747358,9i,8.22432207037798,1.3s : 0.4s,2.8017921742040564,0.9285835341078011,2.64343942764251,0.6674743945687267,0.4443354606628418,-2.405853033065796,-3.029147148132324,0.6562206745147705,0.08794346451759338,-0.08463120460510254,-0.369438787964198,-0.8441215671360006,-2.7090085962681165,-0.6969616413116455,0.36109215021133423,-0.6195619106292725
1727722747368,9i,8.22432207037798,1.3s : 0.4s,2.7912961396670215,0.9396048482450599,2.6283981563823993,0.6135530154804593,0.3454006314277649,-2.422266960144043,-2.9963467121124268,0.6088423132896423,0.028150320053100586,-0.07046914100646973,-0.3440286412822299,-0.8745162339359974,-2.725908221954728,-0.7222761511802673,0.3372823894023895,-0.6037862300872803
1727722747378,9i,8.22432207037798,1.3s : 0.4s,2.77606395459462,0.950570377190379,2.6082459696139972,0.6179362061107555,0.3235264718532562,-2.394073247909546,-2.9578018188476562,0.5992372632026672,0.06319579482078552,-0.13698959350585938,-0.3188422915697284,-0.9041441045132808,-2.7419837867747914,-0.7462862730026245,0.313467413187027,-0.5871925950050354
1727722747388,9i,8.22432207037798,1.3s : 0.4s,2.7565185672787553,0.9615209783223618,2.583383831334115,0.5992688113720723,0.309974730014801,-2.400240659713745,-2.884516477584839,0.5706781148910522,0.08911070227622986,-0.15971499681472778,-0.2937421905185413,-0.9328914453981589,-2.756975028589336,-0.7689356207847595,0.28953614830970764,-0.5700061321258545
1727722747398,9i,8.22432207037798,1.3s : 0.4s,2.740474109624387,0.9722263196412054,2.562220585530937,0.5778718698441765,0.2987232804298401,-2.421889543533325,-2.8427977561950684,0.5559532642364502,0.052626579999923706,-0.14860117435455322,-0.2686790335384386,-0.9611477651606319,-2.7707283037391908,-0.7904350161552429,0.2654581069946289,-0.5520365834236145
1727722747408,9i,8.22432207037798,1.3s : 0.4s,2.725787067679284,0.9830410557992957,2.5423503733633246,0.6117332982019145,0.2648870050907135,-2.4209227561950684,-2.813504219055176,0.5957916975021362,0.08917997777462006,-0.10628646612167358,-0.24371565531986183,-0.9888875782736448,-2.7835420450899515,-0.8107270002365112,0.24131013453006744,-0.5333772301673889
