timestamp,club,max_speed,tempo,speed,l.speed,t.spped,acc,rotation.x,rotation.y,rotation.z,userAcceleration.x,userAcceleration.y,userAcceleration.z,pitch,roll,yaw,gravity.x,gravity.y,gravity.z
1727722880580,9i,9.372794062854265,0.9s : 0.3s,0.05744690332445999,0.000546522881145554,0.057444303584517735,0.021308403168539262,0.11355287581682205,-0.0270526185631752,-0.013044217601418495,-0.0010783076286315918,-0.0002487599849700928,-0.021279647946357727,-0.2367216621076687,1.4734433011478556,0.2149066261929352,0.9675091505050659,0.23451697826385498,-0.09448864310979843
1727722880590,9i,9.372794062854265,0.9s : 0.3s,0.05731619454738159,0.0010609981614303804,0.057306373470101354,0.02938322866163991,0.08902809023857117,-0.028163954615592957,-0.008646007627248764,-0.006435513496398926,-0.012280434370040894,-0.025906547904014587,-0.23669820675729097,1.4725958014946676,0.21376170709406359,0.9674340486526489,0.2344941794872284,-0.09530909359455109
1727722880600,9i,9.372794062854265,0.9s : 0.3s,0.05410203814165902,0.0015372468999711522,0.054080194184655594,0.038518384455327674,0.05078616738319397,-0.0315127894282341,-0.007114489562809467,-0.005587399005889893,-0.025361716747283936,-0.028446972370147705,-0.23667147120109921,1.4717997415587099,0.21295649684979115,0.9673642516136169,0.23446819186210632,-0.09607983380556107
1727722880610,9i,9.372794062854265,0.9s : 0.3s,0.05402772840603202,0.001985195579775231,0.05399124406073636,0.03725971706047886,0.04923327639698982,0.007376284338533878,-0.0805482268333435,-0.005006015300750732,-0.025636106729507446,-0.026570968329906464,-0.23682813110362644,1.471213167012413,0.21243643111676974,0.9672710299491882,0.23462048172950745,-0.09664358198642731
1727722880620,9i,9.372794062854265,0.9s : 0.3s,0.17534925859293837,0.002417161838263024,0.1753325977043083,0.03490412021097511,0.08210400491952896,0.13154789805412292,-0.7349737882614136,0.025333940982818604,-0.009365752339363098,-0.022108182311058044,-0.23732585337891202,1.4704678931701562,0.21193538463602984,0.9670823812484741,0.2351042777299881,-0.09735272824764252
1727722880630,9i,9.372794062854265,0.9s : 0.3s,0.3704004894365227,0.002844306168846373,0.3703895685588803,0.037763512052866,0.1281367540359497,0.023484546691179276,-1.2305947542190552,-0.03504413366317749,-0.004152953624725342,-0.013444125652313232,-0.23593479319233113,1.4696371440150824,0.21170177762458875,0.967325747013092,0.23375198245048523,-0.09818904101848602
1727722880640,9i,9.372794062854265,0.9s : 0.3s,0.37113209973508343,0.0032663815354514133,0.3711177255338753,0.015571059628756462,0.11850129067897797,-0.05183705687522888,-0.5533304214477539,-0.007016301155090332,0.0063308775424957275,-0.012375354766845703,-0.23574539986578796,1.4692152350175336,0.21116304231790362,0.9673283100128174,0.23356783390045166,-0.09860164672136307
1727722880650,9i,9.372794062854265,0.9s : 0.3s,0.274919353018476,0.0037258190485230376,0.27489410495046096,0.03718953115504805,0.12396929413080215,-0.038141220808029175,-0.05126437544822693,-0.018375515937805176,0.01922382414340973,-0.025997042655944824,-0.23621694227548806,1.4686942461660948,0.20999027113889254,0.9671670794487,0.23402631282806396,-0.09909436106681824
1727722880660,9i,9.372794062854265,0.9s : 0.3s,0.20122036779635238,0.004193648585177145,0.20117666297968897,0.025518072406965856,0.17018260061740875,-0.027302246540784836,0.01343253068625927,-0.013961732387542725,0.008938968181610107,-0.019399404525756836,-0.2363586603758781,1.467911568008565,0.20840691421891608,0.9670562744140625,0.23416408896446228,-0.09984791278839111
1727722880670,9i,9.372794062854265,0.9s : 0.3s,0.16324001313446435,0.004649013167776395,0.16317379864643078,0.016003801857908822,0.2232559323310852,-0.029003741219639778,0.008521128445863724,-0.003920197486877441,0.01150117814540863,-0.010415211319923401,-0.23628150171262377,1.4671121221177557,0.20631328339962998,0.9669941067695618,0.23408907651901245,-0.10062285512685776
1727722880680,9i,9.372794062854265,0.9s : 0.3s,0.15713054074896796,0.005073658055257097,0.15704860658408087,0.007480910111683335,0.22887787222862244,-0.03593665361404419,0.0004968247376382351,0.0022733211517333984,0.0014575570821762085,-0.006976500153541565,-0.23608092249398682,1.4662120331983821,0.20399263741943496,0.9669498801231384,0.23389406502246857,-0.10149809718132019
1727722880700,9i,9.372794062854265,0.9s : 0.3s,0.1529547578374005,0.005474042458513826,0.15285677218972085,0.009627891906578213,0.23926499485969543,-0.033279091119766235,0.0013683440629392862,-0.005336761474609375,-0.0007289499044418335,-0.007980220019817352,-0.2355519433408815,1.4643756527769456,0.19908484484405506,0.9668846130371094,0.23337972164154053,-0.1032867282629013
1727722880690,9i,9.372794062854265,0.9s : 0.3s,0.15025629175003144,0.005873655989199885,0.150141444564088,0.01949536122079699,0.2437516301870346,-0.03293394297361374,0.001472340663895011,-0.012353599071502686,0.007460609078407288,-0.013107135891914368,-0.23583898864533806,1.4652994070295406,0.20157829590215467,0.966913104057312,0.2336588352918625,-0.1023864820599556
1727722880710,9i,9.372794062854265,0.9s : 0.3s,0.14156430284328728,0.006215210060620171,0.14142780138080463,0.024698151455621074,0.19164207577705383,-0.030919795855879784,0.0041430918499827385,-0.010804176330566406,-0.022052332758903503,0.0026387646794319153,-0.2352922153746937,1.463547114789177,0.19687665695799245,0.9668589234352112,0.233127161860466,-0.10409427434206009
1727722880720,9i,9.372794062854265,0.9s : 0.3s,0.12266514467096613,0.006479085911652315,0.12249391479946455,0.03691362213601614,0.13253456354141235,-0.03265049308538437,0.00785500556230545,-0.007654786109924316,-0.03560136258602142,0.006046712398529053,-0.2350717732172262,1.4628529923334312,0.19524418187186052,0.9668376445770264,0.23291277885437012,-0.10477091372013092
1727722880730,9i,9.372794062854265,0.9s : 0.3s,0.10614624504176925,0.006704038578066784,0.10593432495282687,0.031485552565127556,0.10712773352861404,-0.026788875460624695,0.006429947912693024,-0.007027029991149902,-0.030640795826911926,-0.0017613917589187622,-0.23488202515215204,1.462269444566494,0.19403431455053413,0.9668202996253967,0.2327282577753067,-0.1053398847579956
1727722880740,9i,9.372794062854265,0.9s : 0.3s,0.09249344921393915,0.006909749925406671,0.09223499066764132,0.029556108532600333,0.09234106540679932,-0.02179429680109024,0.00395613769069314,-0.010693371295928955,-0.027078837156295776,-0.00509430468082428,-0.2347182900300051,1.4618069113820937,0.19303831992165524,0.9668093323707581,0.23256900906562805,-0.10579120367765427
1727722880750,9i,9.372794062854265,0.9s : 0.3s,0.08016681248613933,0.007105121346482738,0.07985133107744403,0.021993461482998772,0.07578978687524796,-0.01752524822950363,-0.0007342214230448008,-0.008219242095947266,-0.01979176700115204,-0.004943922162055969,-0.23461528187477693,1.4614173444048693,0.19218512913020155,0.9667918086051941,0.23246882855892181,-0.10617044568061829
1727722880760,9i,9.372794062854265,0.9s : 0.3s,0.07730283045322336,0.007291390969736454,0.07695819133663578,0.03208973128801886,0.06511290371417999,0.023665154352784157,-0.07651033997535706,-0.024599432945251465,-0.020536839962005615,0.0016902536153793335,-0.23473810958271416,1.4611808745071284,0.19147093735723392,0.9667382836341858,0.2325882911682129,-0.10639593005180359
1727722880770,9i,9.372794062854265,0.9s : 0.3s,0.16872884940023802,0.007796417765206738,0.16854862945143922,0.16661462353515927,0.12022063136100769,0.1617489904165268,-0.6701803803443909,-0.1600082516670227,-0.04644279181957245,-0.0009269639849662781,-0.23509535746978563,1.4608324397700234,0.19100171344087757,0.9666184186935425,0.23293572664260864,-0.10672363638877869
1727722880780,9i,9.372794062854265,0.9s : 0.3s,0.28094532802740685,0.00822051165796983,0.2808250354375628,0.021503044332645414,0.11283954977989197,0.028747396543622017,-0.8216349482536316,-0.00988149642944336,-0.00968247652053833,0.016461670398712158,-0.2335560616063132,1.4604062144176222,0.1911396090075442,0.9669281244277954,0.23143848776817322,-0.10717500001192093
1727722880790,9i,9.372794062854265,0.9s : 0.3s,0.2676585712466213,0.008588756198612532,0.26752073569864343,0.020379382365518544,0.02999979443848133,-0.026082295924425125,-0.35801374912261963,0.01505422592163086,0.00046494603157043457,0.013728559017181396,-0.2335400393134915,1.460345319606752,0.19126114537422614,0.9669252038002014,0.23142290115356445,-0.10723428428173065
1727722880800,9i,9.372794062854265,0.9s : 0.3s,0.20340535581256705,0.008943726499697435,0.20320863300936703,0.016634264943646025,-0.03869924321770668,-0.011750450357794762,-0.0887172743678093,0.005417943000793457,-0.010947078466415405,0.011291861534118652,-0.23366391764916197,1.4604003202629665,0.1915015887473448,0.9669027328491211,0.2315434217453003,-0.10717795789241791
1727722880810,9i,9.372794062854265,0.9s : 0.3s,0.1411504383746846,0.009278416500416114,0.14084515341541023,0.02156968981222132,-0.0805572047829628,0.00330546498298645,-0.0016971537843346596,0.0016652345657348633,-0.017001837491989136,0.013168752193450928,-0.23375494935046262,1.4604452020997711,0.19220146614407227,0.9668864607810974,0.23163197934627533,-0.10713222622871399
1727722880820,9i,9.372794062854265,0.9s : 0.3s,0.09746327870267411,0.009605693954141181,0.09698876913918697,0.008787700798131704,-0.08846227079629898,-0.004099809564650059,0.011388154700398445,-0.0019104480743408203,0.008527427911758423,0.0009256601333618164,-0.23380067760635115,1.4605917453316104,0.1930406320531805,0.9668916463851929,0.23167645931243896,-0.10698936879634857
1727722880830,9i,9.372794062854265,0.9s : 0.3s,0.08953993050352028,0.009908160040684177,0.08899004168547979,0.00541991706880917,-0.0990011990070343,-0.0012720648664981127,-0.06104050204157829,0.002297699451446533,0.004253283143043518,0.0024506449699401855,-0.23399063467126652,1.4607455194785737,0.19399486656318218,0.9668643474578857,0.23186124861240387,-0.10683585703372955
1727722880840,9i,9.372794062854265,0.9s : 0.3s,0.10374347491820439,0.010193824361660867,0.10324143806140881,0.016627843180806286,-0.08529244363307953,0.005157471634447575,-0.18660466372966766,0.007452726364135742,0.011543437838554382,-0.009364351630210876,-0.2341197363518537,1.460904759727455,0.19494803632562618,0.9668514728546143,0.23198682069778442,-0.10667859017848969
1727722880850,9i,9.372794062854265,0.9s : 0.3s,0.13966711704207083,0.010449699651824861,0.13927565243081852,0.019297128719866163,-0.09646600484848022,0.01617070846259594,-0.31828516721725464,0.004804551601409912,-0.018237575888633728,0.004084885120391846,-0.23422529571842088,1.4610691246894034,0.19594144734372734,0.9668446779251099,0.23208950459957123,-0.106516994535923
1727722880860,9i,9.372794062854265,0.9s : 0.3s,0.1906879548008663,0.010656854051554405,0.1903899355739717,0.020666333110844634,-0.12689034640789032,0.021819407120347023,-0.44324326515197754,0.018765687942504883,-0.008653998374938965,-0.00023365020751953125,-0.23438111300352077,1.4614125605211856,0.19723307375639698,0.9668453335762024,0.23224106431007385,-0.10618100315332413
1727722880870,9i,9.372794062854265,0.9s : 0.3s,0.248215008877607,0.010827624627941797,0.24797873533234038,0.022528804319972638,-0.13406597077846527,0.031812120229005814,-0.5533942580223083,0.019755840301513672,7.878243923187256e-05,-0.010828092694282532,-0.23462724137373245,1.4618214254613338,0.19873602120248146,0.9668318629264832,0.23248045146465302,-0.10577946901321411
1727722880880,9i,9.372794062854265,0.9s : 0.3s,0.31082420120118154,0.010937176343730426,0.31063171477809337,0.030385016014214887,-0.1337144374847412,0.039327289909124374,-0.667290210723877,0.029937148094177246,0.0006480216979980469,-0.005157172679901123,-0.2348891299296229,1.4622147172229136,0.20030507577241255,0.966812789440155,0.23273515701293945,-0.10539260506629944
1727722880890,9i,9.372794062854265,0.9s : 0.3s,0.3759316687845858,0.010903228198150981,0.375773521166703,0.03876869775235371,-0.10807405412197113,0.05031256377696991,-0.7796657681465149,0.03756296634674072,0.007189348340034485,-0.006352066993713379,-0.23517640285210578,1.462590908260981,0.20175315148501047,0.9667859077453613,0.2330145388841629,-0.10502167046070099
1727722880900,9i,9.372794062854265,0.9s : 0.3s,0.44387318655987174,0.010657446050844508,0.44374522486499846,0.04444318394451923,-0.08235883712768555,0.06316258758306503,-0.8944575786590576,0.04264277219772339,0.012361392378807068,-0.001996636390686035,-0.23545954318356432,1.4629396532736494,0.2029324809895923,0.9667567610740662,0.23328986763954163,-0.10467738658189774
1727722880910,9i,9.372794062854265,0.9s : 0.3s,0.5149010577617225,0.010301913809858915,0.514797989366698,0.044202391755484814,-0.08747237920761108,0.07720569521188736,-1.0088484287261963,0.04369795322418213,0.005291670560836792,0.004042096436023712,-0.23576270796627155,1.4632986478903642,0.20407401664665614,0.9667237997055054,0.23358465731143951,-0.10432271659374237
1727722880920,9i,9.372794062854265,0.9s : 0.3s,0.5869765936706638,0.009796689532759691,0.5868948341836162,0.055289255479143234,-0.08599725365638733,0.09445516765117645,-1.1189069747924805,0.051546454429626465,0.019726455211639404,0.003275938332080841,-0.2360923027077628,1.4636880451921541,0.2052734402618092,0.966687798500061,0.2339051216840744,-0.1039380431175232
1727722880930,9i,9.372794062854265,0.9s : 0.3s,0.6443130688030324,0.009235550769848496,0.6442468744451608,0.054426169952026676,-0.08772511035203934,0.09851435571908951,-1.1523038148880005,0.05090051889419556,0.01870538294315338,0.004631824791431427,-0.23638920687349535,1.4641088261496518,0.20650440367468964,0.9666624069213867,0.23419378697872162,-0.1035238727927208
1727722880940,9i,9.372794062854265,0.9s : 0.3s,0.6774966230787852,0.008669953353958867,0.6774411459248676,0.050175841489462775,-0.0776306614279747,0.1002969890832901,-1.1180319786071777,0.046014249324798584,0.01953817903995514,0.004308536648750305,-0.2367568212449127,1.464528496581488,0.2077000264519329,0.9666199684143066,0.23455116152763367,-0.10310903191566467
1727722880950,9i,9.372794062854265,0.9s : 0.3s,0.6938255741554507,0.0081335547273474,0.6937778986387776,0.03929381632785568,-0.07143294811248779,0.09867459535598755,-1.0839952230453491,0.03507661819458008,0.017661049962043762,0.0013123154640197754,-0.23708680360040232,1.4649519511038198,0.20884937536712064,0.9665866494178772,0.23487192392349243,-0.10269153863191605
1727722880960,9i,9.372794062854265,0.9s : 0.3s,0.6959193558550125,0.007641684186032787,0.6958773990556502,0.03256233845039037,-0.056450143456459045,0.09555403888225555,-1.0514838695526123,0.030354321002960205,0.011622041463851929,0.001961946487426758,-0.2373657894054361,1.4653619558992932,0.20996409372496025,0.9665634632110596,0.23514309525489807,-0.10228832066059113
1727722880970,9i,9.372794062854265,0.9s : 0.3s,0.6948409605809964,0.007194649065228613,0.6948037115084734,0.027368297127989594,-0.04253406077623367,0.0862169936299324,-1.016971468925476,0.024327754974365234,0.008422479033470154,0.009286865592002869,-0.23759642403496098,1.4657341979549454,0.21097505832388508,0.9665476679801941,0.23536725342273712,-0.10192283987998962
1727722880980,9i,9.372794062854265,0.9s : 0.3s,0.6853056792302875,0.006810732510227072,0.6852718350464725,0.03643167275321544,-0.030044768005609512,0.07760197669267654,-0.9851471781730652,0.029134631156921387,0.02186274528503418,-0.0006785392761230469,-0.23777186588496996,1.4659837933163238,0.21185849802085446,0.9665319323539734,0.23553776741027832,-0.10167726874351501
1727722880990,9i,9.372794062854265,0.9s : 0.3s,0.6720066302074631,0.0065460559262324695,0.6719747466941006,0.04410905237702127,-0.008773567155003548,0.07216380536556244,-0.953252911567688,0.021751582622528076,0.0332576185464859,-0.019141785800457,-0.23796382258448728,1.4661052920689293,0.21258667589636415,0.9664992094039917,0.2357243150472641,-0.10155509412288666
1727722881000,9i,9.372794062854265,0.9s : 0.3s,0.6544155755515042,0.0064149437887804145,0.6543841333808403,0.029895931459780783,0.009224474430084229,0.07909463346004486,-0.9115231037139893,0.005473434925079346,0.022993385791778564,-0.018306076526641846,-0.2381471805574829,1.4661990194995331,0.2131132098644534,0.9664657115936279,0.23590250313282013,-0.10145999491214752
1727722881010,9i,9.372794062854265,0.9s : 0.3s,0.6346361296939789,0.0063767681415127005,0.6346040922819692,0.013114405689048298,0.022481955587863922,0.08077109605073929,-0.8738681077957153,0.006799578666687012,0.00930681824684143,-0.006255917251110077,-0.23831930912724356,1.4663095754832214,0.21348274752788213,0.966436505317688,0.23606976866722107,-0.10134890675544739
1727722881020,9i,9.372794062854265,0.9s : 0.3s,0.6124478697161118,0.006402070761841781,0.6124144075785317,0.013779482752000227,0.020264076068997383,0.08098619431257248,-0.8317447900772095,0.005622267723083496,0.01249644160270691,0.0014502406120300293,-0.23849149740466213,1.4664309843214538,0.2138116575881077,0.9664084315299988,0.23623709380626678,-0.10122734308242798
1727722881030,9i,9.372794062854265,0.9s : 0.3s,0.5879733746778508,0.006479905295762511,0.5879376668979615,0.014247468866522934,0.01645868457853794,0.0756169930100441,-0.7873967289924622,0.009968876838684082,0.010167345404624939,0.0004867762327194214,-0.23865862519398634,1.4665395048012297,0.21416616232757255,0.9663801789283752,0.23639948666095734,-0.10111836344003677
1727722881040,9i,9.372794062854265,0.9s : 0.3s,0.561287344701985,0.0066011247531461495,0.561248526478777,0.013538413880767354,0.028634658083319664,0.0749722421169281,-0.7395731210708618,0.011888444423675537,0.006460919976234436,-0.00045831501483917236,-0.23881414872558476,1.4666293042528016,0.214479304013553,0.9663527607917786,0.23655059933662415,-0.10102776437997818
1727722881050,9i,9.372794062854265,0.9s : 0.3s,0.533269050029906,0.006760035818913789,0.5332262011900066,0.0073608759167741,0.041400253772735596,0.07194475829601288,-0.69278484582901,0.00568467378616333,0.0026501864194869995,-0.0038527250289916992,-0.23893568818395522,1.4666965802325684,0.2146509362339143,0.9663307666778564,0.2366686910390854,-0.10095974802970886
1727722881060,9i,9.372794062854265,0.9s : 0.3s,0.50447577517769,0.006948183641363159,0.5044279239744932,0.007366640752113368,0.048823945224285126,0.06675633788108826,-0.6468873620033264,0.004294693470001221,0.001107335090637207,-0.005881905555725098,-0.23900025589925594,1.4667104857148732,0.21469573962481958,0.9663169980049133,0.2367314249277115,-0.10094472020864487
1727722881070,9i,9.372794062854265,0.9s : 0.3s,0.4751924442373524,0.007152188312703762,0.4751386168925958,0.010332741224067072,0.036478329449892044,0.06022334471344948,-0.6021925806999207,-0.0022968649864196777,-0.005649298429489136,-0.008341185748577118,-0.23905996114089917,1.4666959007474865,0.21476108809430533,0.966301441192627,0.23678942024707794,-0.10095734149217606
1727722881080,9i,9.372794062854265,0.9s : 0.3s,0.4455069199940367,0.007356655720613781,0.44544617562527283,0.006691852861949522,0.034753937274217606,0.053201206028461456,-0.5569936037063599,-0.004010200500488281,-0.0025415271520614624,-0.004715912044048309,-0.23915939200394523,1.4666682854278625,0.2149150769156884,0.9662752747535706,0.23688602447509766,-0.10098158568143845
1727722881090,9i,9.372794062854265,0.9s : 0.3s,0.41457449189041434,0.007559946662071707,0.41450555669696626,0.006905651872021077,0.040100764483213425,0.04986239969730377,-0.5062380433082581,-0.004309475421905518,0.0028422027826309204,-0.004586756229400635,-0.23922490208624597,1.4666119224010996,0.21500568334606696,0.9662541151046753,0.23694966733455658,-0.10103443264961243
1727722881100,9i,9.372794062854265,0.9s : 0.3s,0.38286185830605934,0.007759495912469218,0.38278321902710605,0.012301664012278777,0.0436096116900444,0.04451712593436241,-0.4561288058757782,-0.009346067905426025,0.0005570352077484131,-0.00797945261001587,-0.23925258886382106,1.4665376780903758,0.21502927623841694,0.9662400484085083,0.23697656393051147,-0.10110548138618469
1727722881110,9i,9.372794062854265,0.9s : 0.3s,0.3522304369400674,0.007963380833694573,0.3521404056235074,0.013873309618891392,0.03611654043197632,0.04054262489080429,-0.41472357511520386,-0.006113290786743164,0.008728250861167908,-0.008883357048034668,-0.23927598566103586,1.466461861886799,0.21507072463625182,0.9662269353866577,0.2369993031024933,-0.10117816925048828
1727722881120,9i,9.372794062854265,0.9s : 0.3s,0.3217434170090099,0.008182284957359558,0.32163935797957033,0.025556821712075673,0.05680970475077629,0.04291732236742973,-0.3674134314060211,-0.012625336647033691,0.016701743006706238,-0.0146561861038208,-0.23933015862670243,1.466402543983562,0.21501725604911026,0.9662081599235535,0.23705193400382996,-0.10123414546251297
1727722881130,9i,9.372794062854265,0.9s : 0.3s,0.29034038210988533,0.00839877433835873,0.2902188795949146,0.020895670780308254,0.06886370480060577,0.039616066962480545,-0.31535929441452026,-0.014450430870056152,0.011171117424964905,-0.010149888694286346,-0.239305888919436,1.4662874509537716,0.21470915073749902,0.9662021398544312,0.2370283454656601,-0.10134594142436981
1727722881140,9i,9.372794062854265,0.9s : 0.3s,0.2583579665871072,0.008577941683099175,0.2582155258994047,0.017959672039573434,0.05394986644387245,0.03287156671285629,-0.266850084066391,-0.014388680458068848,-0.010502040386199951,-0.0022853538393974304,-0.2392017738693252,1.4661889246014388,0.2143959813796933,0.9662167429924011,0.23692719638347626,-0.10144371539354324
1727722881150,9i,9.372794062854265,0.9s : 0.3s,0.22669777045915232,0.008731982803978092,0.22652953804628115,0.01041013841061794,0.045175548642873764,0.020966172218322754,-0.22228369116783142,-0.004732906818389893,-0.008965626358985901,-0.002363920211791992,-0.2390653142327123,1.466052613962782,0.21420367017834624,0.9662351012229919,0.2367946207523346,-0.10157880187034607
1727722881160,9i,9.372794062854265,0.9s : 0.3s,0.19758778004627872,0.008873183389699545,0.1973884430257997,0.010114631870960945,0.06157969310879707,0.017737222835421562,-0.1843438595533371,-0.008629441261291504,-0.0006963461637496948,-0.005230069160461426,-0.23890927003405596,1.4658961318588686,0.21397338264617421,0.9662559032440186,0.2366430163383484,-0.10173386335372925
1727722881170,9i,9.372794062854265,0.9s : 0.3s,0.1711529728511264,0.009011419930739437,0.17091557689868495,0.007212590301381179,0.08868294954299927,0.012412233278155327,-0.14634135365486145,-0.003032863140106201,0.0013902634382247925,-0.0063945576548576355,-0.23872475935654908,1.4656531616035486,0.2134033535172005,0.9662744998931885,0.2364637404680252,-0.10197320580482483
1727722881180,9i,9.372794062854265,0.9s : 0.3s,0.14737366522748668,0.00913514268792495,0.14709026606357936,0.008825708967907355,0.09118885546922684,0.007921477779746056,-0.11448559165000916,-0.0033665895462036133,-0.006870239973068237,-0.004399888217449188,-0.23854197374678413,1.4653622057839992,0.2126720711242719,0.9662877321243286,0.23628613352775574,-0.10225889831781387
1727722881190,9i,9.372794062854265,0.9s : 0.3s,0.12529975524883463,0.009249884157825414,0.12495786613288766,0.004172013419318473,0.08460977673530579,0.0033653415739536285,-0.08392608165740967,-0.0022579431533813477,-0.0012803226709365845,-0.0032662153244018555,-0.23839531485842883,1.4650770806349713,0.2119272912649032,0.9662930369377136,0.23614363372325897,-0.10253806412220001
1727722881200,9i,9.372794062854265,0.9s : 0.3s,0.10504620858391099,0.009354790397113346,0.1046288384456246,0.006679050490622044,0.08996380120515823,0.0018324260599911213,-0.04913454130291939,-0.0030601024627685547,-0.004254952073097229,-0.004140153527259827,-0.23823744685265294,1.4648012194975961,0.2111587406248212,0.9663019180297852,0.2359902262687683,-0.10280857980251312
1727722881210,9i,9.372794062854265,0.9s : 0.3s,0.08528257071111488,0.009449685573564634,0.08475742038109155,0.011703901750812146,0.065932497382164,-0.000638454919680953,-0.024647310376167297,-0.004220306873321533,-0.008934453129768372,-0.006272628903388977,-0.23805964439915647,1.4645493028136098,0.210430741257441,0.9663176536560059,0.23581743240356445,-0.10305645316839218
1727722881220,9i,9.372794062854265,0.9s : 0.3s,0.0659901867422617,0.009540464753260413,0.06529689333016056,0.010809907884187809,0.044881537556648254,-0.0058663287200033665,-0.0013146905694156885,-0.0027587413787841797,-0.007417216897010803,-0.007363989949226379,-0.2378958307847283,1.4643565478442653,0.20991898161815484,0.9663362503051758,0.23565824329853058,-0.10324681550264359
1727722881230,9i,9.372794062854265,0.9s : 0.3s,0.051048831425650136,0.009641646029852456,0.05013004938915854,0.010402398893346687,0.027001073583960533,-0.009496483951807022,-0.0041967639699578285,-0.002926647663116455,0.005587399005889893,-0.008271977305412292,-0.23776591096172087,1.4642099661982726,0.20958376636983644,0.966351330280304,0.2355319857597351,-0.10339169949293137
1727722881240,9i,9.372794062854265,0.9s : 0.3s,0.04453956486909612,0.009775308240526935,0.043453609603013504,0.024245039007308105,0.03931087255477905,-0.01296076737344265,-0.0023779908660799265,-0.003013789653778076,0.020037978887557983,-0.013312339782714844,-0.23773402451985548,1.4639475390696555,0.2092469455854056,0.9663317203521729,0.2355009913444519,-0.10364610701799393
1727722881250,9i,9.372794062854265,0.9s : 0.3s,0.043058404495637116,0.00992845166231574,0.04189811505663426,0.022263755373611395,0.04845137521624565,-0.01055113971233368,-0.0035114323254674673,-0.006319224834442139,0.018977701663970947,-0.009776964783668518,-0.23775738612186725,1.4636517073119308,0.20877699527581925,0.9662956595420837,0.23552370071411133,-0.10393139719963074
1727722881260,9i,9.372794062854265,0.9s : 0.3s,0.041567565806380796,0.010085894642734787,0.04032539220297122,0.013181167295394194,0.04270986095070839,-0.01411906536668539,-0.004909192211925983,-0.007235467433929443,0.00570283830165863,-0.0094270259141922,-0.23769430122670143,1.4633701302008195,0.208290611382519,0.9662811160087585,0.23546238243579865,-0.10420507192611694
1727722881270,9i,9.372794062854265,0.9s : 0.3s,0.04110329864504517,0.010264802430360237,0.03980094208143122,0.02028138765419496,0.058688562363386154,-0.01685972511768341,-0.0019496213644742966,-0.0070070624351501465,0.010469526052474976,-0.015894174575805664,-0.2376881309879343,1.4630675955765087,0.20776383164057358,0.9662509560585022,0.23545639216899872,-0.10449755191802979
1727722881280,9i,9.372794062854265,0.9s : 0.3s,0.04030914016129045,0.010453653533301962,0.03893003863789814,0.015585809682676392,0.048372674733400345,-0.017550326883792877,-0.004936589859426022,-0.0059899091720581055,0.0031844675540924072,-0.014032021164894104,-0.23764786872836907,1.4627364494475434,0.2071799800700328,0.9662257432937622,0.23541726171970367,-0.10481853783130646
1727722881290,9i,9.372794062854265,0.9s : 0.3s,0.038902923527623555,0.010632788175889835,0.037421668517087586,0.010261976161310565,0.039710212498903275,-0.014132958836853504,0.0030371807515621185,-0.0013772845268249512,-0.00660860538482666,-0.007729008793830872,-0.23751912954379423,1.4624070210978226,0.20670848895057609,0.9662212133407593,0.23529213666915894,-0.10514011234045029
1727722881300,9i,9.372794062854265,0.9s : 0.3s,0.037286265289594445,0.01080383017550596,0.035686731887143185,0.014682860568966461,0.03328480198979378,-0.015013311058282852,0.005276632960885763,-0.0049207210540771484,-0.009174510836601257,-0.010353803634643555,-0.23736457889519763,1.462095519820618,0.20632408799623114,0.9662244915962219,0.23514191806316376,-0.1054450199007988
1727722881310,9i,9.372794062854265,0.9s : 0.3s,0.0357132903508277,0.010980129627584044,0.03398346452385298,0.01710477775125079,0.02889884263277054,-0.018584076315164566,0.004359440412372351,-0.004292726516723633,-0.0066495537757873535,-0.015163421630859375,-0.23735713466849304,1.461767292422786,0.20599341514289884,0.9661915898323059,0.23513469099998474,-0.10576234757900238
1727722881320,9i,9.372794062854265,0.9s : 0.3s,0.03658532538139549,0.011187609771830505,0.03483279232068287,0.02317017699565811,0.06407973170280457,-0.023904096335172653,0.0007256236858665943,-0.0037370920181274414,0.006473571062088013,-0.021931350231170654,-0.23749784675339003,1.4612983647909243,0.20550744010247757,0.9661089777946472,0.23527145385742188,-0.10621178895235062
1727722881330,9i,9.372794062854265,0.9s : 0.3s,0.04067900580642861,0.011415352192128256,0.03904447781350296,0.02210957388364876,0.07979211956262589,-0.02562103420495987,-0.00030555250123143196,-0.006828188896179199,0.0012473315000534058,-0.020991742610931396,-0.2376157021836818,1.4607806197791573,0.20473357906371584,0.9660263061523438,0.23538599908351898,-0.10670892894268036
1727722881340,9i,9.372794062854265,0.9s : 0.3s,0.04769971080963582,0.011649173454730547,0.04625536908451266,0.020526590703598607,0.09271137416362762,-0.028572263196110725,-7.411465048789978e-06,-0.007320582866668701,-0.006286934018135071,-0.018116965889930725,-0.2375963436232867,1.4602061501096395,0.2038375173668623,0.965969443321228,0.23536717891693115,-0.10726437717676163
1727722881350,9i,9.372794062854265,0.9s : 0.3s,0.05636298984080164,0.011882324312491137,0.05509625207513748,0.02355845809456728,0.11077772825956345,-0.026952527463436127,0.007682199589908123,-0.00917583703994751,-0.012481257319450378,-0.017748892307281494,-0.2375641671815943,1.459510068641194,0.20274981111355075,0.9659020304679871,0.23533590137958527,-0.10793757438659668
1727722881360,9i,9.372794062854265,0.9s : 0.3s,0.06012065399928401,0.012101391079832177,0.05889014663960842,0.029476885490677153,0.10731521993875504,-0.02888922207057476,0.012733450159430504,-0.010549485683441162,-0.02298523485660553,-0.015141800045967102,-0.23738188573507182,1.4588379167789631,0.20160009594542816,0.9658719301223755,0.2351587414741516,-0.10859158635139465
1727722881370,9i,9.372794062854265,0.9s : 0.3s,0.0674546013195882,0.012337096997687444,0.06631680991162228,0.025773869850346753,0.12093356251716614,-0.035409703850746155,0.012195492163300514,-0.0032427310943603516,-0.012036174535751343,-0.02255897969007492,-0.23707482342695427,1.4582000428179884,0.20046142756084834,0.9658740162849426,0.23486027121543884,-0.10921575874090195
1727722881380,9i,9.372794062854265,0.9s : 0.3s,0.07761024572887104,0.01260190553540786,0.07658029915697902,0.02204744766352757,0.14701522886753082,-0.02803993970155716,0.013318614102900028,9.739398956298828e-05,0.005865022540092468,-0.021252810955047607,-0.23672677997425187,1.4574733497448542,0.19906399939316513,0.9658755660057068,0.23452195525169373,-0.10992686450481415
1727722881390,9i,9.372794062854265,0.9s : 0.3s,0.08802676577584939,0.012864039953020871,0.08708173154596395,0.012301734226198593,0.16239818930625916,-0.03342591971158981,0.013922885060310364,0.003596007823944092,-0.004337504506111145,-0.010935604572296143,-0.236360014894836,1.4566596199082835,0.1974604284391078,0.9658712148666382,0.23416540026664734,-0.11072257906198502
1727722881400,9i,9.372794062854265,0.9s : 0.3s,0.0978804392749581,0.013142117492343324,0.09699415003223752,0.018858542445823846,0.17551957070827484,-0.031909603625535965,0.016417067497968674,0.005832314491271973,0.0002119690179824829,-0.01793275773525238,-0.236075043369901,1.4557127770101104,0.1956746076695979,0.9658321142196655,0.23388834297657013,-0.11164470762014389
1727722881410,9i,9.372794062854265,0.9s : 0.3s,0.10309742187177384,0.013406104118217537,0.10222208552449918,0.011729980948937667,0.17350782454013824,-0.03600607439875603,0.015653274953365326,0.00815117359161377,-0.005627065896987915,-0.006283864378929138,-0.23574027019115085,1.45475168864704,0.19386056881146288,0.9658020734786987,0.23356284201145172,-0.11258196085691452
1727722881420,9i,9.372794062854265,0.9s : 0.3s,0.11080538155307412,0.013663799907056332,0.10995968876466623,0.013166014117476794,0.18709087371826172,-0.037455592304468155,0.018052948638796806,0.01107776165008545,0.00021886825561523438,-0.007111907005310059,-0.23533043143957494,1.4538036641478436,0.1919979566303631,0.9657900333404541,0.23316432535648346,-0.1135086938738823
1727722881430,9i,9.372794062854265,0.9s : 0.3s,0.11916719263348562,0.01391285477107865,0.11835223813796317,0.010474142222174397,0.20023757219314575,-0.04156298562884331,0.020809054374694824,0.005601465702056885,-0.0038631409406661987,-0.007962875068187714,-0.23483645385159632,1.4527870821926088,0.1899976898062018,0.9657883644104004,0.232683926820755,-0.11450397968292236
1727722881440,9i,9.372794062854265,0.9s : 0.3s,0.12311791967398894,0.014146013429819847,0.12230254473597083,0.014653115348363888,0.19968949258327484,-0.04613971710205078,0.02229583077132702,0.002356112003326416,-0.012514129281044006,-0.00724976509809494,-0.2342081568739274,1.4517505768141166,0.1879463074479084,0.9658141136169434,0.2320728302001953,-0.11552230268716812
1727722881450,9i,9.372794062854265,0.9s : 0.3s,0.12311657050482455,0.01435085991457595,0.12227731904397335,0.0328148088087614,0.1744784265756607,-0.04663027077913284,0.024185342714190483,-6.687641143798828e-05,-0.03211529552936554,-0.006739065051078796,-0.2336682770624951,1.4506527359051522,0.18599979829985303,0.9658108949661255,0.23154765367507935,-0.11659753322601318
1727722881460,9i,9.372794062854265,0.9s : 0.3s,0.11435180511296794,0.014515700924146252,0.1134267594497654,0.037020396852694176,0.1283721774816513,-0.05138712003827095,0.020688878372311592,-0.00031191110610961914,-0.03664061427116394,-0.005279950797557831,-0.23334786568836757,1.44964092410245,0.18444476047578806,0.9657660126686096,0.23123595118522644,-0.11758365482091904
1727722881470,9i,9.372794062854265,0.9s : 0.3s,0.10095267640504262,0.014681536063302246,0.0998794041440136,0.03803180225388388,0.09013450145721436,-0.05078204721212387,0.01441686786711216,-0.003391087055206299,-0.034639209508895874,-0.01533113420009613,-0.23301595424826452,1.4488402451337243,0.18335984950504838,0.9657476544380188,0.23091301321983337,-0.11836621165275574
1727722881480,9i,9.372794062854265,0.9s : 0.3s,0.08585814358803094,0.014855920687575835,0.08456312695795606,0.03486730332106844,0.05901147425174713,-0.048877179622650146,0.010154278948903084,-0.004241943359375,-0.030985787510871887,-0.015414789319038391,-0.23282106376109418,1.4480477670403158,0.18259970716789536,0.9656984210014343,0.23072338104248047,-0.11913704872131348
1727722881490,9i,9.372794062854265,0.9s : 0.3s,0.07203971627439879,0.015038891434310428,0.0704524837413338,0.030002615981767494,0.03844041749835014,-0.04890567436814308,0.009432029910385609,-0.003683328628540039,-0.026648372411727905,-0.013283610343933105,-0.23262881451954417,1.4474739809315011,0.18212262237760315,0.9656738042831421,0.2305363267660141,-0.11969657242298126
1727722881500,9i,9.372794062854265,0.9s : 0.3s,0.0603243501056935,0.015218796302857867,0.058373071315174115,0.030435631663872264,0.02233894355595112,-0.0476987324655056,0.014788245782256126,-0.0006479024887084961,-0.02954922616481781,-0.007262997329235077,-0.2324737409216733,1.4469323295310408,0.18183655298291548,0.9656442403793335,0.230385422706604,-0.12022402137517929
1727722881510,9i,9.372794062854265,0.9s : 0.3s,0.05363111665471263,0.01539747062186221,0.05137328656101617,0.020801440510772304,0.013337194919586182,-0.049538709223270416,0.015696384012699127,0.0014615654945373535,-0.020089805126190186,-0.0051926374435424805,-0.23227094913171176,1.4463902624174723,0.181679383989405,0.9656252861022949,0.23018808662891388,-0.12075324356555939
1727722881520,9i,9.372794062854265,0.9s : 0.3s,0.05127303067054928,0.015568877831198097,0.04885216184797061,0.014528410403039,0.009456835687160492,-0.050672635436058044,0.01977051980793476,-0.0001570582389831543,-0.014444246888160706,-0.0015536323189735413,-0.2319731944661068,1.4458383150499146,0.181574469864449,0.9656263589859009,0.22989831864833832,-0.12129472941160202
1727722881530,9i,9.372794062854265,0.9s : 0.3s,0.04866068320706941,0.015725856828200924,0.04604953330054164,0.013897008566196628,-0.0043015871196985245,-0.04878978058695793,0.017567021772265434,-0.008453965187072754,-0.01093919575214386,0.001411139965057373,-0.23150750856183983,1.445310163293693,0.18156952951536837,0.9656683802604675,0.22944507002830505,-0.12181811034679413
1727722881540,9i,9.372794062854265,0.9s : 0.3s,0.04735650182785031,0.015876941893881634,0.044615703305781206,0.007961795963452771,0.012788583524525166,-0.048503804951906204,0.01833544299006462,-0.007147848606109619,0.0033441632986068726,-0.0010559484362602234,-0.2310046754032767,1.4447987252332184,0.1815765927420978,0.9657202363014221,0.22895562648773193,-0.12232644855976105
1727722881550,9i,9.372794062854265,0.9s : 0.3s,0.04711188228537729,0.016026169225006864,0.04430227254264379,0.014385400406796272,0.03715704008936882,-0.04636954888701439,0.017578573897480965,-0.008171379566192627,0.011352553963661194,-0.0033597350120544434,-0.23050568330001375,1.444133922420453,0.18130130418963933,0.9657520055770874,0.2284698635339737,-0.12298286706209183
1727722881560,9i,9.372794062854265,0.9s : 0.3s,0.04710567824821918,0.01615695000713437,0.04424813995742318,0.011017072476870492,0.043599359691143036,-0.04674278944730759,0.013196374289691448,-0.00887531042098999,0.00582122802734375,0.0029526352882385254,-0.23004334587989442,1.443425906335464,0.1808709639759788,0.965769350528717,0.22801972925662994,-0.1236800029873848
1727722881570,9i,9.372794062854265,0.9s : 0.3s,0.0472177445527045,0.01625723569759224,0.04433077585738138,0.009490066016591829,0.042935699224472046,-0.04948584362864494,0.014849132858216763,-0.0025351643562316895,0.0004957914352416992,0.00913172960281372,-0.2296360346379128,1.4427436570855645,0.18042697644551953,0.9657768607139587,0.2276231348514557,-0.12435072660446167
1727722881580,9i,9.372794062854265,0.9s : 0.3s,0.04701910516612851,0.016328512086902294,0.04409281056647828,0.01172372085420452,0.03975175693631172,-0.04614752531051636,0.014107342809438705,0.0035164952278137207,-0.00495697557926178,0.010025382041931152,-0.22920282181457208,1.4421315990406947,0.17999811714017283,0.9657981991767883,0.22720126807689667,-0.12495444715023041
1727722881590,9i,9.372794062854265,0.9s : 0.3s,0.0457474987900792,0.016365487527214468,0.04272007096839711,0.018227214610712254,0.012126521207392216,-0.04844982922077179,0.00742254126816988,0.0006756782531738281,-0.012246444821357727,0.013483300805091858,-0.22890077044048712,1.4416095834294633,0.17975086352891517,0.9658007621765137,0.22690710425376892,-0.1254674196243286
1727722881600,9i,9.372794062854265,0.9s : 0.3s,0.044253256824059096,0.01637865151384216,0.04111071045511436,0.012509661206592667,0.005131329409778118,-0.04546269774436951,0.007853074930608273,0.00606149435043335,-0.002629801630973816,0.010622337460517883,-0.22870902829704942,1.441149248069389,0.17969304466882197,0.9657859802246094,0.22672036290168762,-0.12591761350631714
1727722881610,9i,9.372794062854265,0.9s : 0.3s,0.04227242272918313,0.016357116406619764,0.03897951341737155,0.01680928913872346,-0.011653243564069271,-0.04452952370047569,0.0024561788886785507,0.0045174360275268555,0.0005799829959869385,0.016180500388145447,-0.22860952386203648,1.4407531889880343,0.1797388959512616,0.9657586216926575,0.22662344574928284,-0.1263030618429184
1727722881620,9i,9.372794062854265,0.9s : 0.3s,0.039632203594163466,0.016291784273801173,0.03612878806305504,0.02218695121132292,-0.0375056117773056,-0.040917567908763885,-0.0015717856585979462,4.887580871582031e-06,-0.005089327692985535,0.021595358848571777,-0.22871199303646406,1.4404203917672407,0.18000030241072126,0.9656934142112732,0.22672323882579803,-0.12662142515182495
1727722881630,9i,9.372794062854265,0.9s : 0.3s,0.0370281872595352,0.016192250955938087,0.033300115025433875,0.018988115963779688,-0.048058122396469116,-0.03578219562768936,-0.006071195937693119,-1.4007091522216797e-05,0.0024397671222686768,0.018830716609954834,-0.22894033111547843,1.4401318738010114,0.1804426465332222,0.9656054973602295,0.2269456386566162,-0.1268932968378067
1727722881640,9i,9.372794062854265,0.9s : 0.3s,0.03468190454269235,0.01606736739873876,0.030735552827017298,0.017947820671177537,-0.05528660863637924,-0.03010411374270916,-0.008485585451126099,-0.0043885111808776855,0.007808089256286621,0.015553101897239685,-0.2291468792882393,1.4399801472016818,0.18097356123037847,0.965539813041687,0.22714678943157196,-0.12703369557857513
1727722881650,9i,9.372794062854265,0.9s : 0.3s,0.03295683610426758,0.01592192198311331,0.02885559644795456,0.01878615710518833,-0.060293883085250854,-0.03329351171851158,-0.007143884431570768,-0.007120907306671143,0.010390982031822205,0.013936996459960938,-0.22931494271297162,1.4399262029904738,0.18157995022728962,0.9654949903488159,0.227310448884964,-0.1270807832479477
1727722881660,9i,9.372794062854265,0.9s : 0.3s,0.032183572580758504,0.01577091479625009,0.02805460016735884,0.023374845083027986,-0.0392470546066761,-0.03042329102754593,-0.005253738723695278,-0.0038318634033203125,0.021873772144317627,0.007296457886695862,-0.22938485056725358,1.439863926424232,0.18211597260956275,0.9654713273048401,0.22737853229045868,-0.12713883817195892
1727722881670,9i,9.372794062854265,0.9s : 0.3s,0.03151990484639645,0.015619201104639945,0.027377818729378358,0.03207659331296328,-0.03286931663751602,-0.02813616767525673,-0.0008656485006213188,-0.010503888130187988,0.030027806758880615,0.004111811518669128,-0.22934757460533534,1.4398288796806158,0.1824923283709318,0.9654753804206848,0.22734223306179047,-0.1271737962961197
1727722881680,9i,9.372794062854265,0.9s : 0.3s,0.03105792327690774,0.015468605108163537,0.02693170722924903,0.03960735342342931,-0.03092707321047783,-0.02927875518798828,-0.0044078524224460125,-0.014574706554412842,0.03665746748447418,0.003542661666870117,-0.22938702812518114,1.439753369782557,0.18285993025540692,0.9654567837715149,0.2273806482553482,-0.12724551558494568
1727722881690,9i,9.372794062854265,0.9s : 0.3s,0.030366293859450316,0.015374044284751011,0.026186839539910214,0.04834802293790747,-0.012380019761621952,-0.027253953740000725,-0.0036749504506587982,-0.015943944454193115,0.045344457030296326,-0.005215570330619812,-0.2294447931602739,1.439703867355474,0.1831180439368663,0.9654373526573181,0.22743690013885498,-0.12729157507419586
1727722881700,9i,9.372794062854265,0.9s : 0.3s,0.029589007651656726,0.01532266014746077,0.025312555379005452,0.041805302055004344,-0.005586695857346058,-0.025668617337942123,-0.003875985974445939,-0.01783508062362671,0.03657892346382141,-0.009569510817527771,-0.22945196823603106,1.4397089875888773,0.18325604585162464,0.9654363393783569,0.2274438887834549,-0.1272864192724228
1727722881710,9i,9.372794062854265,0.9s : 0.3s,0.028666281512035218,0.01533261352366231,0.024221202659266527,0.04050079266057883,0.005056893918663263,-0.02336658164858818,-0.004213142208755016,-0.009682536125183105,0.03523145616054535,-0.017473042011260986,-0.22951951422105757,1.4396747653748672,0.1832984492516548,0.9654169082641602,0.22750966250896454,-0.12731745839118958
1727722881720,9i,9.372794062854265,0.9s : 0.3s,0.02757573876094756,0.015405190275081722,0.022871411867231836,0.03608358339802771,0.013689130544662476,-0.01899966225028038,-0.00837835855782032,-0.012929081916809082,0.027651607990264893,-0.019241943955421448,-0.22964103083719842,1.4396224319760476,0.1832452231453048,0.9653828740119934,0.22762799263000488,-0.1273643672466278
1727722881730,9i,9.372794062854265,0.9s : 0.3s,0.02662737480124994,0.015538834747063416,0.021623175148661564,0.027107625697198958,0.017061226069927216,-0.017722411081194878,-0.01084151677787304,-0.011354267597198486,0.011584177613258362,-0.021718904376029968,-0.22981328183991057,1.4395433463988956,0.1830882794447627,0.9653338193893433,0.22779572010040283,-0.127435564994812
1727722881740,9i,9.372794062854265,0.9s : 0.3s,0.02594871266415571,0.015705881004215612,0.020655773788660983,0.017017500191709632,-0.002100484911352396,-0.017244817689061165,-0.010843713767826557,-0.006206691265106201,-0.005696982145309448,-0.01478569209575653,-0.23010377869114612,1.4394177693478594,0.1830094995400294,0.965252161026001,0.22807857394218445,-0.12754812836647034
1727722881750,9i,9.372794062854265,0.9s : 0.3s,0.025539404756398234,0.015894926382995486,0.01999031041755707,0.013456015786446023,-0.010473729111254215,-0.018734857439994812,-0.01398757565766573,-0.003522157669067383,-0.0030641555786132812,-0.012620210647583008,-0.23050275199778356,1.4392960250347793,0.18308995580050896,0.9651463627815247,0.22846700251102448,-0.12765370309352875
1727722881760,9i,9.372794062854265,0.9s : 0.3s,0.025268943946798395,0.016114226181787934,0.01946410138559239,0.01805680847983392,0.00712976511567831,-0.021107200533151627,-0.01538633368909359,-0.0004323720932006836,0.003243163228034973,-0.017757907509803772,-0.23098307608995422,1.4391341281890293,0.1831015488816701,0.9650169014930725,0.22893460094928741,-0.12779554724693298
1727722881770,9i,9.372794062854265,0.9s : 0.3s,0.02534060381937966,0.016376985307667073,0.01933754260921526,0.02664442739031411,0.031971994787454605,-0.02648518793284893,-0.012409985065460205,-0.004808783531188965,0.0011498481035232544,-0.026181653141975403,-0.23147198805235622,1.4387876897387477,0.18285821598434232,0.9648615121841431,0.22941049933433533,-0.12811510264873505
1727722881780,9i,9.372794062854265,0.9s : 0.3s,0.02544994287328737,0.016669029811027254,0.019231303580690393,0.02535455844623876,0.031059466302394867,-0.023907292634248734,-0.00709148682653904,-0.00863581895828247,-0.004610821604728699,-0.023388385772705078,-0.23184086573767848,1.438348170312769,0.18247131575288686,0.964721143245697,0.2297695279121399,-0.12852798402309418
1727722881790,9i,9.372794062854265,0.9s : 0.3s,0.029235497859531744,0.016978154224879978,0.023800349035484235,0.02243972352960901,0.05994677171111107,-0.031020594760775566,-0.004305288195610046,-0.0002670884132385254,-0.00762428343296051,-0.021103084087371826,-0.23213077202541582,1.4377416196389345,0.18199492834789205,0.9645769000053406,0.2300516664981842,-0.12910425662994385
1727722881800,9i,9.372794062854265,0.9s : 0.3s,0.038923671439299264,0.017344942766978042,0.03484544674307932,0.03756874544500676,0.09108231961727142,-0.036262404173612595,-0.003437829203903675,0.0005816221237182617,0.0036213546991348267,-0.037389278411865234,-0.23230334329585384,1.4370294549404645,0.1811332953614597,0.9644453525543213,0.23021960258483887,-0.12978586554527283
1727722881810,9i,9.372794062854265,0.9s : 0.3s,0.05013091761966805,0.01771391437658726,0.04689697366407431,0.022543747062186006,0.1087779626250267,-0.03712260723114014,0.0004069763235747814,0.005439639091491699,-0.009339824318885803,-0.01978379487991333,-0.23226294036462988,1.4362112524158277,0.18006877559342016,0.9643480181694031,0.2301802933216095,-0.13057619333267212
1727722881820,9i,9.372794062854265,0.9s : 0.3s,0.0602583039546449,0.01807641288846121,0.057483097451131206,0.022760612369976077,0.11544132232666016,-0.0431266613304615,0.005743850953876972,0.0061424970626831055,-0.013402983546257019,-0.01733998954296112,-0.2320165022475295,1.4354255165198646,0.17889391801048746,0.9643012285232544,0.22994045913219452,-0.13134150207042694
1727722881830,9i,9.372794062854265,0.9s : 0.3s,0.070266546226456,0.018438729809752835,0.06780413528390146,0.025772062024007152,0.1263301968574524,-0.052764639258384705,0.008087166585028172,0.011687755584716797,-0.011028647422790527,-0.020148560404777527,-0.23175616267821283,1.4345804060272724,0.17767605680957543,0.9642491936683655,0.22968709468841553,-0.13216452300548553
1727722881840,9i,9.372794062854265,0.9s : 0.3s,0.08202057823984919,0.01880763429562938,0.07983513103265434,0.025811979748093034,0.15149280428886414,-0.0540165901184082,0.010053910315036774,0.011665046215057373,-0.0061178058385849,-0.022198140621185303,-0.23147656030335614,1.4335817531234707,0.17623654189914578,0.9641803503036499,0.2294149547815323,-0.13313619792461395
1727722881850,9i,9.372794062854265,0.9s : 0.3s,0.09006845345698632,0.01916709098684298,0.08800539148958654,0.03181155531710544,0.1477196365594864,-0.05829576030373573,0.018230881541967392,0.013006389141082764,-0.022101953625679016,-0.01882319152355194,-0.23114008538953904,1.4324504228693633,0.1746608335727738,0.964105486869812,0.2290874421596527,-0.13423755764961243
1727722881860,9i,9.372794062854265,0.9s : 0.3s,0.08973818521939465,0.019475135070885826,0.08759943493220224,0.04702048675448385,0.10687007755041122,-0.06677406281232834,0.016194861382246017,0.008679211139678955,-0.04364745318889618,-0.015182137489318848,-0.2307796404392602,1.431344495792717,0.17334561041136745,0.9640381336212158,0.22873656451702118,-0.1353151798248291
1727722881870,9i,9.372794062854265,0.9s : 0.3s,0.08789548796690698,0.019771203562923282,0.08564295834809853,0.05054111930299511,0.07725945115089417,-0.0764906033873558,0.01728116348385811,0.00671619176864624,-0.04571862518787384,-0.020472049713134766,-0.23043070105885505,1.4302746488885145,0.17240232123582785,0.963971734046936,0.22839686274528503,-0.1363576352596283
1727722881880,9i,9.372794062854265,0.9s : 0.3s,0.08600616363254204,0.02007559628898095,0.08363032115464733,0.05065028108339675,0.06637031584978104,-0.0840725377202034,0.017761198803782463,0.01043635606765747,-0.04456833004951477,-0.021684035658836365,-0.2301895501569901,1.4290072349560963,0.17164267214261042,0.96385258436203,0.22816208004951477,-0.1375870406627655
1727722881890,9i,9.372794062854265,0.9s : 0.3s,0.08497546381807954,0.020387238215167823,0.08249357531987413,0.03702598684496841,0.07190383225679398,-0.0902492105960846,0.022779660299420357,0.010448217391967773,-0.031626343727111816,-0.016171976923942566,-0.22981083493608476,1.4278604492330123,0.17094232254866604,0.963779628276825,0.22779333591461182,-0.1387045830488205
1727722881900,9i,9.372794062854265,0.9s : 0.3s,0.08624420130680317,0.02070257858271676,0.08372255072007079,0.022960871600061005,0.09708642214536667,-0.10343700647354126,0.0287163108587265,0.004912912845611572,-0.01895013451576233,-0.011998221278190613,-0.22932901862584487,1.4266175307854538,0.17012098990273256,0.9637150764465332,0.22732415795326233,-0.13991813361644745
1727722881910,9i,9.372794062854265,0.9s : 0.3s,0.10177622476681956,0.021041388623736414,0.09957740653667915,0.022850455931650655,0.1713382750749588,-0.10723600536584854,0.023698650300502777,0.0021425485610961914,-0.01057770848274231,-0.020141124725341797,-0.22878541847715153,1.4251580216347528,0.1687944334938235,0.9636320471763611,0.2267947643995285,-0.14134247601032257
1727722881920,9i,9.372794062854265,0.9s : 0.3s,0.1291450976342655,0.021396226326799297,0.12736034603414184,0.018709418507134336,0.26523667573928833,-0.11029219627380371,0.02615225315093994,0.002717137336730957,0.006554007530212402,-0.017311975359916687,-0.22816278749138846,1.423462626385411,0.16658081938331373,0.963530421257019,0.2261883020401001,-0.142996683716774
1727722881930,9i,9.372794062854265,0.9s : 0.3s,0.17210628461954003,0.02178250261727289,0.17072227676923307,0.02759930291319472,0.39576539397239685,-0.10855688154697418,0.012803691439330578,0.0030941367149353027,0.008100122213363647,-0.026201829314231873,-0.22731187290850477,1.4215378756273793,0.16324938507185194,0.963443398475647,0.22535936534404755,-0.144879549741745
1727722881940,9i,9.372794062854265,0.9s : 0.3s,0.24397672616557678,0.022210993775291985,0.24296360769873906,0.03526751317611777,0.6090273261070251,-0.11268079280853271,0.009873747825622559,0.0039048194885253906,0.010491639375686646,-0.03344361484050751,-0.22611029903916116,1.419276947958831,0.1582323646659192,0.9633803963661194,0.22418853640556335,-0.14709822833538055
1727722881950,9i,9.372794062854265,0.9s : 0.3s,0.3550128107673561,0.022716058078927327,0.3542853038361786,0.053666164742865584,0.9147113561630249,-0.10793637484312057,0.001927408273331821,-0.0004678964614868164,0.04075990617275238,-0.03490656614303589,-0.22459712880963423,1.4163664643688765,0.15051897333189698,0.9632823467254639,0.2227136343717575,-0.14995351433753967
1727722881960,9i,9.372794062854265,0.9s : 0.3s,0.5110199997380918,0.02344481265415175,0.5104819104453467,0.08427858398664237,1.3035905361175537,-0.10774990171194077,-0.026702672243118286,-0.020301103591918945,0.06216055154800415,-0.053167760372161865,-0.2228051490560606,1.4127516882201514,0.1392767865567665,0.963126540184021,0.22096629440784454,-0.1534971445798874
1727722881970,9i,9.372794062854265,0.9s : 0.3s,0.7133403659574855,0.02449742349216605,0.712919598514871,0.09440668561169872,1.7641685009002686,-0.11940469592809677,-0.030077429488301277,-0.0279197096824646,0.04751700162887573,-0.07665015757083893,-0.2206572587009737,1.4082181908511044,0.12376713677776646,0.9628869891166687,0.21887099742889404,-0.15793834626674652
1727722881980,9i,9.372794062854265,0.9s : 0.3s,0.95419261142445,0.02589895235262828,0.9538410685035782,0.10524638255184934,2.259801149368286,-0.08619014918804169,-0.010009678080677986,-0.0331348180770874,0.034390270709991455,-0.0937880277633667,-0.21756626538993398,1.4027407914168215,0.10336415745819147,0.9626697897911072,0.21585389971733093,-0.16332244873046875
1727722881990,9i,9.372794062854265,0.9s : 0.3s,1.1688542622578812,0.027250737577228634,1.1685365564242791,0.06151181325867794,2.489814519882202,-0.03656188026070595,-0.004436747170984745,-0.046430885791778564,-0.021526232361793518,-0.03412473201751709,-0.21352908244720906,1.3970110537624636,0.07924089689654691,0.9625686407089233,0.21191014349460602,-0.16898487508296967
1727722882000,9i,9.372794062854265,0.9s : 0.3s,1.3523540586009475,0.028335498485610587,1.3520571731032778,0.03378267997430764,2.6540486812591553,-0.01888962835073471,-0.008795710280537605,-0.031899869441986084,0.011103898286819458,0.0006092935800552368,-0.20909002665639836,1.3912945006982065,0.053316144819341736,0.9625029563903809,0.20756983757019043,-0.1746508777141571
1727722882010,9i,9.372794062854265,0.9s : 0.3s,1.5036654454557696,0.029273642655189558,1.5033804660508912,0.09189556916082395,2.766951084136963,-0.012814960442483425,-0.011204006150364876,0.023374736309051514,0.08771070837974548,-0.014326512813568115,-0.20428026454585543,1.3856119869568515,0.026089629622817623,0.9624651670455933,0.2028624415397644,-0.18029922246932983
1727722882020,9i,9.372794062854265,0.9s : 0.3s,1.6192842513415873,0.03019477409622426,1.619002706069438,0.16244341129604167,2.8150453567504883,0.02431771717965603,-0.04384893178939819,0.030758917331695557,0.1589767336845398,-0.012967228889465332,-0.19931982796031603,1.3800328224585117,-0.001710049881621897,0.9624205231666565,0.1980026662349701,-0.18585465848445892
1727722882030,9i,9.372794062854265,0.9s : 0.3s,1.684878127068924,0.031012258355824367,1.684592693474288,0.20092210617390008,2.738219738006592,0.020310459658503532,-0.04750918596982956,0.01390761137008667,0.1982107311487198,0.029812365770339966,-0.1944149357892936,1.37482413416326,-0.029333738381307393,0.9623804092407227,0.1931925266981125,-0.19105187058448792
1727722882040,9i,9.372794062854265,0.9s : 0.3s,1.719265789001278,0.0321888511943652,1.7189644356672928,0.21643407482326724,2.68035626411438,-0.011348090134561062,-0.06382486969232559,-0.002609550952911377,0.2164156287908554,-0.0010837912559509277,-0.18964156040647687,1.3696960932848699,-0.056141887962698325,0.9622806310653687,0.18850688636302948,-0.19616642594337463
1727722882050,9i,9.372794062854265,0.9s : 0.3s,1.73344217158785,0.03417569393939102,1.7331052432506697,0.25278905173818866,2.6307384967803955,-0.03333701193332672,-0.07100262492895126,-0.044797539710998535,0.24471095204353333,-0.044855713844299316,-0.18494571533231166,1.364529889950952,-0.08247275460521632,0.9621102809906006,0.18389317393302917,-0.20131421089172363
1727722882060,9i,9.372794062854265,0.9s : 0.3s,1.7237833599240222,0.03685793520589013,1.7233892666960966,0.24582596983572672,2.5322303771972656,-0.06564537435770035,-0.0974310040473938,-0.09606653451919556,0.22108227014541626,-0.04821056127548218,-0.18039198989676158,1.3593606718363378,-0.10802443024402396,0.9618656039237976,0.17941521108150482,-0.2064584642648697
1727722882070,9i,9.372794062854265,0.9s : 0.3s,1.710415303184782,0.04015037054371446,1.7099439923909476,0.27291657928321694,2.4965426921844482,-0.10540157556533813,-0.14708538353443146,-0.13473349809646606,0.23414969444274902,-0.03878484666347504,-0.17626174873021247,1.35397339377118,-0.1328956375481148,0.9614546895027161,0.17535047233104706,-0.21179485321044922
1727722882080,9i,9.372794062854265,0.9s : 0.3s,1.689515942040298,0.044345074511142404,1.6889338746010505,0.3518636149434781,2.43744158744812,-0.06594382226467133,-0.18129773437976837,-0.16699731349945068,0.30682042241096497,-0.042203426361083984,-0.17247274628568843,1.3488049691761537,-0.15744338553131035,0.9609885215759277,0.17161892354488373,-0.21690595149993896
1727722882090,9i,9.372794062854265,0.9s : 0.3s,1.643757118203143,0.04925731334049269,1.6430189228143348,0.3853433795840573,2.276545524597168,-0.04847561940550804,-0.26867127418518066,-0.21465903520584106,0.32001709938049316,0.00027367472648620605,-0.16940907150009443,1.3442279399031107,-0.18099005434363513,0.9604935646057129,0.1685999035835266,-0.22141923010349274
1727722882100,9i,9.372794062854265,0.9s : 0.3s,1.5956334807728532,0.05531409366611874,1.5946744357407838,0.4536132854065572,2.184324026107788,-0.04044570028781891,-0.3765294551849365,-0.2193082571029663,0.3967543840408325,-0.0159643292427063,-0.16748893787897537,1.3399365293780703,-0.20337288226374012,0.9598478674888611,0.16670694947242737,-0.22561269998550415
1727722882110,9i,9.372794062854265,0.9s : 0.3s,1.5462204305138967,0.06284333591853157,1.5449428257606204,0.5492958800971396,2.08563494682312,-0.027189815416932106,-0.49644094705581665,-0.24063003063201904,0.4937289357185364,-0.007408797740936279,-0.16681850174341423,1.3359286682934322,-0.22499907449763065,0.9590443968772888,0.16604585945606232,-0.22948376834392548
1727722882120,9i,9.372794062854265,0.9s : 0.3s,1.528210272461181,0.07226209523614477,1.5265008439067302,0.6521028628358919,2.1399850845336914,-0.017808474600315094,-0.619131326675415,-0.2666533589363098,0.5937426686286926,-0.040047138929367065,-0.16732147211513015,1.3320238090603087,-0.24671199033879854,0.9580597877502441,0.16654182970523834,-0.23320718109607697
1727722882130,9i,9.372794062854265,0.9s : 0.3s,1.5257505026667608,0.08347156919363835,1.523465488130343,0.7108906311464623,2.128757953643799,0.0009556247387081385,-0.7457864880561829,-0.30337584018707275,0.6410548090934753,-0.048757776618003845,-0.16879714590500866,1.32815137444582,-0.2695063547522968,0.9569098353385925,0.16799671947956085,-0.2368561029434204
1727722882140,9i,9.372794062854265,0.9s : 0.3s,1.5227355195387204,0.09633209793850209,1.5196853586751518,0.7843905593882725,2.0728092193603516,-0.013857009820640087,-0.9079664945602417,-0.36000752449035645,0.6968892812728882,-0.0029088854789733887,-0.17176727292057273,1.324277840132404,-0.2916936804084101,0.955497145652771,0.1709238737821579,-0.24043813347816467
1727722882150,9i,9.372794062854265,0.9s : 0.3s,1.5552310723921614,0.11152804613281382,1.5512269928865567,0.9410918686337645,2.2354092597961426,0.003739293897524476,-1.0284348726272583,-0.36230534315109253,0.8673896193504333,-0.04498879611492157,-0.1759051023409073,1.3201253803943265,-0.3149421042223761,0.9537971019744873,0.17499934136867523,-0.24422617256641388
1727722882160,9i,9.372794062854265,0.9s : 0.3s,1.5959190459045347,0.12842225087153508,1.5907436394849828,0.9649690572737121,2.245969533920288,0.026923663914203644,-1.196096420288086,-0.39515262842178345,0.8799716830253601,0.025875061750411987,-0.18099727041356228,1.3158504160157671,-0.33949445620781293,0.9518697261810303,0.18001064658164978,-0.24807344377040863
1727722882170,9i,9.372794062854265,0.9s : 0.3s,1.644764789199113,0.14677706293844836,1.638202583804691,1.002000698855902,2.2530462741851807,0.02773353084921837,-1.3796913623809814,-0.41000086069107056,0.9131955504417419,0.044481247663497925,-0.1877437059209606,1.3114851305536597,-0.36445370895201584,0.9495822191238403,0.18664272129535675,-0.251909077167511
1727722882180,9i,9.372794062854265,0.9s : 0.3s,1.71626502684901,0.16678601351307443,1.7081417002349217,1.079063006235133,2.3570475578308105,0.023834219202399254,-1.5366873741149902,-0.38686639070510864,1.0073188543319702,-0.0044825077056884766,-0.19588148823566578,1.306682981855865,-0.39062306972874417,0.9468640089035034,0.19463124871253967,-0.25606122612953186
1727722882190,9i,9.372794062854265,0.9s : 0.3s,1.7852214762809195,0.1877099285772896,1.7753255200351665,1.0475325184679516,2.3336598873138428,0.0157597828656435,-1.7343595027923584,-0.37464088201522827,0.9777080416679382,0.03248956799507141,-0.20545129492165537,1.3013890290979033,-0.4177663632163889,0.9436565637588501,0.20400898158550262,-0.26056259870529175
1727722882200,9i,9.372794062854265,0.9s : 0.3s,1.8608887271196042,0.20935598197190639,1.8490746138361749,1.0608964617339363,2.3347177505493164,-0.01643446274101734,-1.949807047843933,-0.3497791886329651,1.0005292892456055,0.045792609453201294,-0.21695855589571825,1.295582721501069,-0.44523554360965373,0.9398060441017151,0.21526047587394714,-0.26538172364234924
1727722882210,9i,9.372794062854265,0.9s : 0.3s,1.9564730007104605,0.23183858378747227,1.9426882080190875,1.102199419472998,2.4440131187438965,-0.0478949174284935,-2.1270740032196045,-0.2996319532394409,1.06044602394104,-0.022770226001739502,-0.22999803267839714,1.2887345174930183,-0.47416002403854635,0.9351911544799805,0.22797560691833496,-0.27100712060928345
1727722882220,9i,9.372794062854265,0.9s : 0.3s,2.0494896065011803,0.2544034798189289,2.033638737979876,1.0319851884646871,2.438709020614624,-0.07554677873849869,-2.3207154273986816,-0.29335540533065796,0.9894115328788757,-0.0009241104125976562,-0.244414250279394,1.2809237456283884,-0.5044310136665116,0.9297996163368225,0.24198801815509796,-0.2773350775241852
1727722882230,9i,9.372794062854265,0.9s : 0.3s,2.1434008143579772,0.2767551821717929,2.125458449401328,0.9836407878201443,2.4270973205566406,-0.132074773311615,-2.5305380821228027,-0.2744184732437134,0.9445853233337402,-0.0015059709548950195,-0.26062578057608116,1.2720667105982408,-0.535312720918311,0.9234358668327332,0.25768524408340454,-0.28436732292175293
1727722882240,9i,9.372794062854265,0.9s : 0.3s,2.232486094984263,0.29909856224081427,2.2123594225088206,0.997409335953239,2.3856215476989746,-0.1601780503988266,-2.720372438430786,-0.23417580127716064,0.9695274829864502,0.0018807649612426758,-0.27842544843183537,1.2620651607974631,-0.5669448116333985,0.9160301089286804,0.2748420834541321,-0.2921485900878906
1727722882250,9i,9.372794062854265,0.9s : 0.3s,2.3189797886678085,0.3213714404938396,2.2966035046312867,0.9864647869092563,2.313628911972046,-0.2017129808664322,-2.933696985244751,-0.21370071172714233,0.9624971151351929,0.0323123037815094,-0.29810915294722007,1.2510410234919236,-0.5988726083267468,0.9074415564537048,0.2937132716178894,-0.30047011375427246
1727722882260,9i,9.372794062854265,0.9s : 0.3s,2.4041905944676816,0.34360455359940895,2.379510101948007,1.0035635822653428,2.2683446407318115,-0.2683265507221222,-3.1100192070007324,-0.11342614889144897,0.9971295595169067,-0.002648383378982544,-0.31941630509176594,1.2387041570426824,-0.631305141459225,0.8975448608398438,0.31401243805885315,-0.3095310628414154
1727722882270,9i,9.372794062854265,0.9s : 0.3s,2.4869450175970833,0.36573474738524514,2.459905204495899,0.998682119413425,2.2334864139556885,-0.33185282349586487,-3.2605443000793457,-0.01780027151107788,0.9984514713287354,-0.011991053819656372,-0.341976602461031,1.2247716027798399,-0.6644256170900522,0.8862542510032654,0.3353498876094818,-0.3195212781429291
1727722882280,9i,9.372794062854265,0.9s : 0.3s,2.56778178416734,0.3877028892004027,2.538343901209461,0.9882492746390963,2.189358949661255,-0.3943595588207245,-3.4132139682769775,0.048217713832855225,0.9870685338973999,-0.002718508243560791,-0.3656772447840912,1.2091960513344493,-0.6983681661313607,0.873489499092102,0.35758185386657715,-0.33038076758384705
1727722882290,9i,9.372794062854265,0.9s : 0.3s,2.641233945976087,0.40945173837126764,2.609303744549714,0.9838417644949865,2.0776095390319824,-0.48113200068473816,-3.568807363510132,0.13166159391403198,0.9745581746101379,-0.029089629650115967,-0.3905005134222459,1.1919169785984935,-0.7329845629691577,0.8591374158859253,0.3806512951850891,-0.3420345187187195
1727722882300,9i,9.372794062854265,0.9s : 0.3s,2.715803487646892,0.4306675204016432,2.6814388060118253,1.020894029369876,2.0355374813079834,-0.5710728168487549,-3.705169916152954,0.23237484693527222,0.9925316572189331,-0.05574458837509155,-0.41648442686937714,1.172617931354457,-0.7683118773521297,0.8429731130599976,0.40454789996147156,-0.3545946478843689
1727722882310,9i,9.372794062854265,0.9s : 0.3s,2.793073311631086,0.45115738620458085,2.7563953883684564,1.0325194592837414,1.9984736442565918,-0.6554497480392456,-3.8475191593170166,0.3178015947341919,0.9795826077461243,-0.07427310943603516,-0.4431681572376314,1.151130362699514,-0.8047970185800827,0.8250054717063904,0.4288037121295929,-0.3680943250656128
1727722882320,9i,9.372794062854265,0.9s : 0.3s,2.870886900327814,0.4707338109717115,2.832031298146596,1.0247336575572141,1.953657865524292,-0.7536765933036804,-3.9816055297851562,0.422717809677124,0.9277729988098145,-0.10308241844177246,-0.4707552395915288,1.1270959782461256,-0.8427839046544228,0.8049281239509583,0.4535595178604126,-0.3825894892215729
1727722882330,9i,9.372794062854265,0.9s : 0.3s,2.945000197303085,0.48939963866034375,2.9040513349103065,1.0593057276177502,1.911708116531372,-0.8411521315574646,-4.0887556076049805,0.550934910774231,0.9000381231307983,-0.0923619270324707,-0.4985309820091631,1.1005600681845167,-0.8822004537601715,0.7829579710960388,0.4781358242034912,-0.397948682308197
1727722882340,9i,9.372794062854265,0.9s : 0.3s,3.010855924841676,0.5070039686560185,2.967861246069511,1.044123519353688,1.8703500032424927,-0.912582278251648,-4.164264678955078,0.6315204501152039,0.8294037580490112,-0.05886638164520264,-0.5262825840025349,1.0715364672940706,-0.9231373078672598,0.7591351270675659,0.5023224353790283,-0.4139881730079651
1727722882350,9i,9.372794062854265,0.9s : 0.3s,3.069167629625471,0.5236867640088075,3.024159736512411,1.076523536807024,1.8135799169540405,-0.9870783686637878,-4.235710620880127,0.7249019742012024,0.7956390380859375,-0.019456982612609863,-0.5538558600040053,1.0400234024267596,-0.9656124875185718,0.7334873080253601,0.5259705781936646,-0.4305245876312256
1727722882360,9i,9.372794062854265,0.9s : 0.3s,3.1089710173748037,0.5395739563063449,3.0617904455648888,1.1247391606502322,1.7124524116516113,-1.0529108047485352,-4.252471923828125,0.8299601674079895,0.7589450478553772,-0.014377564191818237,-0.5808664429718996,1.0061038609526127,-1.0094695402726634,0.7062031030654907,0.5487484931945801,-0.4473837614059448
1727722882370,9i,9.372794062854265,0.9s : 0.3s,3.1260153027493893,0.5544210681105134,3.0764572079355426,1.0903458856880819,1.4277117252349854,-1.147070288658142,-4.28273868560791,0.8726234436035156,0.6534299850463867,-0.020291149616241455,-0.6078677558728975,0.9703578430298707,-1.05332863200349,0.6772881150245667,0.5711184740066528,-0.4637938439846039
1727722882380,9i,9.372794062854265,0.9s : 0.3s,3.141761991066322,0.5687219108030009,3.089858216274916,1.100277649464587,1.1540086269378662,-1.2375218868255615,-4.36928129196167,0.8909887671470642,0.6424843072891235,-0.06295901536941528,-0.6356194072218064,0.9328619039282203,-1.096746782043098,0.6464411020278931,0.5936760902404785,-0.47923141717910767
1727722882390,9i,9.372794062854265,0.9s : 0.3s,3.1625611341509976,0.583288324238569,3.108306236207978,1.1785876763891494,1.0583020448684692,-1.2743219137191772,-4.421215534210205,0.9387289881706238,0.7051103711128235,-0.10332551598548889,-0.6636879779016822,0.8932255350095918,-1.1411397410414401,0.6137154698371887,0.6160261631011963,-0.49382707476615906
1727722882400,9i,9.372794062854265,0.9s : 0.3s,3.2038911012638236,0.598743443178733,3.1474472955091706,1.275877002128006,1.1165213584899902,-1.316317081451416,-4.518681526184082,1.0035812854766846,0.7724253535270691,-0.1550670862197876,-0.6909546985438545,0.8505171676360587,-1.1883682698071811,0.5792282223701477,0.6372731924057007,-0.5083085894584656
1727722882410,9i,9.372794062854265,0.9s : 0.3s,3.2514874690648954,0.6150016365984774,3.1927956007967744,1.3120378596966495,1.185355305671692,-1.3411515951156616,-4.581854820251465,1.0547864437103271,0.7583359479904175,-0.18383550643920898,-0.7166614792237687,0.8037495185864171,-1.2397718868275012,0.5428545475006104,0.6568710803985596,-0.5232871770858765
1727722882420,9i,9.372794062854265,0.9s : 0.3s,3.286905643056725,0.631067683494422,3.2257560796202696,1.2739470393552064,1.0315312147140503,-1.3956146240234375,-4.613114833831787,1.1109256744384766,0.6080306768417358,-0.13814449310302734,-0.7409710543941931,0.7538468080622444,-1.2938414781415415,0.5049952864646912,0.6750046610832214,-0.5379113554954529
1727722882430,9i,9.372794062854265,0.9s : 0.3s,3.30406124940903,0.646686324672663,3.2401570235603896,1.2797125393774567,0.8405160903930664,-1.4719836711883545,-4.5880961418151855,1.1634691953659058,0.5181155800819397,-0.12473917007446289,-0.7646337049529,0.7014331232005387,-1.3491503771756908,0.4656812250614166,0.6922727227210999,-0.5512709021568298
1727722882440,9i,9.372794062854265,0.9s : 0.3s,3.3209042086969602,0.6625687764464039,3.254136963899875,1.3080578750579266,0.7477332949638367,-1.539932131767273,-4.601531982421875,1.1682988405227661,0.5552486777305603,-0.19440197944641113,-0.7871104606289399,0.6463261618544371,-1.4059698807208103,0.425130695104599,0.7083165049552917,-0.5635172724723816
1727722882450,9i,9.372794062854265,0.9s : 0.3s,3.3447717340678715,0.6790772885631612,3.275110988833371,1.302211204119993,0.7987034916877747,-1.5922601222991943,-4.62739896774292,1.134714126586914,0.5791332721710205,-0.2697823643684387,-0.8075698423421176,0.5875315426587788,-1.4658838985901417,0.3831692337989807,0.7226094603538513,-0.5753408670425415
1727722882460,9i,9.372794062854265,0.9s : 0.3s,3.3741312874926845,0.6961509797857474,3.301535363823987,1.2863293193900371,0.9235185980796814,-1.6547949314117432,-4.641668796539307,1.1351451873779297,0.5250687599182129,-0.300651490688324,-0.8247026453279674,0.5245858357019642,-1.5296769422606942,0.3399677574634552,0.7343459725379944,-0.5875014066696167
1727722882470,9i,9.372794062854265,0.9s : 0.3s,3.411216740223399,0.7137147537570784,3.335717448923069,1.2869845879139272,0.9945448040962219,-1.7464550733566284,-4.678666591644287,1.1461951732635498,0.4892563819885254,-0.3212384581565857,-0.8383365366018057,0.4575919645632159,-1.5970690402182584,0.2954246401786804,0.7435317635536194,-0.5999040007591248
1727722882480,9i,9.372794062854265,0.9s : 0.3s,3.4611134023554975,0.7323203802634308,3.3827522588294388,1.4049374364948295,1.1268948316574097,-1.8434250354766846,-4.738986968994141,1.2036566734313965,0.5969341397285461,-0.4107668995857239,-0.8477698051841676,0.386543900281805,-1.6680491560183224,0.24943779408931732,0.7498066425323486,-0.6128382682800293
1727722882490,9i,9.372794062854265,0.9s : 0.3s,3.5107671840274244,0.7514742447813002,3.4293982970594454,1.4201848650380315,1.2014633417129517,-1.9966819286346436,-4.737282752990723,1.237844467163086,0.5196987986564636,-0.4632270336151123,-0.8527582386973473,0.3120100559825021,-1.7414610647320858,0.20195965468883514,0.7530979514122009,-0.6261436343193054
1727722882500,9i,9.372794062854265,0.9s : 0.3s,3.5477120226370498,0.7706982685035151,3.4629878392060736,1.3618669669518642,0.9735050201416016,-2.1174612045288086,-4.742745399475098,1.278731346130371,0.34355658292770386,-0.3185853958129883,-0.8551191355036719,0.2354973742294251,-1.815323176850485,0.15309232473373413,0.7546491026878357,-0.6380184888839722
1727722882510,9i,9.372794062854265,0.9s : 0.3s,3.5652817437588378,0.7897267518580747,3.4767176430909306,1.3932408965040661,0.7637336850166321,-2.2278521060943604,-4.6828932762146,1.3045586347579956,0.3583798408508301,-0.3328826427459717,-0.8558995805394719,0.1586068681449739,-1.8880891174712358,0.10353768616914749,0.755160927772522,-0.6473113298416138
1727722882520,9i,9.372794062854265,0.9s : 0.3s,3.5709978507200586,0.8092022072808226,3.4781054379617533,1.3499089257991528,0.6948938965797424,-2.3006646633148193,-4.619650840759277,1.2459523677825928,0.35234320163726807,-0.3817211985588074,-0.8542627619033624,0.08178421649125676,-1.9594452242259623,0.05365394055843353,0.7540869116783142,-0.6545794010162354
1727722882530,9i,9.372794062854265,0.9s : 0.3s,3.5736047201612853,0.8285334337279721,3.4762311553108707,1.2969168510497464,0.632161557674408,-2.352612257003784,-4.562222003936768,1.1909512281417847,0.34678012132644653,-0.37864500284194946,-0.849549508316413,0.00577290316686829,-2.029232211308321,0.0038119512610137463,0.7509829998016357,-0.6603105664253235
1727722882540,9i,9.372794062854265,0.9s : 0.3s,3.575170037449446,0.8477869281331449,3.4731971037018385,1.2763334352710456,0.5593900084495544,-2.4199461936950684,-4.52221155166626,1.181113362312317,0.33262938261032104,-0.35122066736221313,-0.8421945497052991,-0.06913729979559358,-2.097070622391471,-0.04599682241678238,0.7461060881614685,-0.6642364263534546
1727722882550,9i,9.372794062854265,0.9s : 0.3s,3.579960229074484,0.8670121762901781,3.4733852547507023,1.241990157072434,0.558536171913147,-2.4867796897888184,-4.530817985534668,1.1510155200958252,0.3295045495033264,-0.3303476572036743,-0.8318450943982245,-0.14276011424185497,-2.1628625076390295,-0.09582453966140747,0.7391753196716309,-0.6666615009307861
1727722882560,9i,9.372794062854265,0.9s : 0.3s,3.596186518043396,0.8868387012925923,3.485121890328479,1.2485490247878717,0.6564468741416931,-2.5120909214019775,-4.556805610656738,1.1186387538909912,0.42244118452072144,-0.3592568039894104,-0.817956253361022,-0.215262021371641,-2.2270524305497603,-0.14604365825653076,0.7297500371932983,-0.667934238910675
1727722882570,9i,9.372794062854265,0.9s : 0.3s,3.6194807641745252,0.9072049866999774,3.5039435090103974,1.2854827597051581,0.8280825614929199,-2.5819132328033447,-4.546505451202393,1.1436928510665894,0.43077635765075684,-0.39857786893844604,-0.7994307182852688,-0.28495585290599973,-2.287831647140611,-0.19596955180168152,0.7169593572616577,-0.6690032482147217
1727722882580,9i,9.372794062854265,0.9s : 0.3s,3.6428362029623287,0.9277796420580592,3.5227092609801924,1.2438986814470172,0.8601468801498413,-2.6362087726593018,-4.539813041687012,1.1444741487503052,0.36884796619415283,-0.31845569610595703,-0.777150796721982,-0.3516988337264294,-2.3448496341907417,-0.24559415876865387,0.7012510299682617,-0.6692761778831482
1727722882590,9i,9.372794062854265,0.9s : 0.3s,3.658675584707955,0.9485343462856032,3.5335802846482265,1.2365539954214073,0.8851521015167236,-2.6861190795898438,-4.491766452789307,1.1510229110717773,0.3589361310005188,-0.2745485305786133,-0.7521269304201494,-0.4154349904139762,-2.3980428603286748,-0.2947150766849518,0.6831934452056885,-0.6681241393089294
1727722882600,9i,9.372794062854265,0.9s : 0.3s,3.6635084256234336,0.9689368578279117,3.5330518465140677,1.190369852248659,0.8790714740753174,-2.725311279296875,-4.41603422164917,1.1301720142364502,0.2886626720428467,-0.23741412162780762,-0.7249177364045043,-0.47550880419508695,-2.4467462662396584,-0.3426811695098877,0.6630738377571106,-0.6655093431472778
1727722882610,9i,9.372794062854265,0.9s : 0.3s,3.668463796105853,0.9890064813643028,3.532632559884875,1.1756439295544872,0.8324429392814636,-2.802830457687378,-4.38057279586792,1.1228209733963013,0.26331931352615356,-0.22819870710372925,-0.6962087253068501,-0.5327855963114981,-2.4917352401993598,-0.38972780108451843,0.6413133144378662,-0.660930871963501
1727722882620,9i,9.372794062854265,0.9s : 0.3s,3.6709072616026814,1.0093595573853784,3.529412615039802,1.2035647358503139,0.8771830797195435,-2.827362060546875,-4.323344707489014,1.1386189460754395,0.3075282573699951,-0.23987776041030884,-0.6658775935244076,-0.5872001487279939,-2.5329010084641554,-0.435677170753479,0.6177495121955872,-0.6546533703804016
1727722882630,9i,9.372794062854265,0.9s : 0.3s,3.6659504727840972,1.0292162718848377,3.5185091636364145,1.1442924314482221,0.8732881546020508,-2.8423819541931152,-4.280562400817871,1.10428786277771,0.21622180938720703,-0.20784997940063477,-0.6339051335616943,-0.63845390392954,-2.570315150392151,-0.4801729917526245,0.5922957062721252,-0.6470083594322205
1727722882640,9i,9.372794062854265,0.9s : 0.3s,3.6519155365476412,1.0483561159608674,3.4982047596167796,1.1227399769617676,0.8234975337982178,-2.8665528297424316,-4.1958088874816895,1.0949034690856934,0.14015179872512817,-0.2051558494567871,-0.6011209003704,-0.6870346217329597,-2.604397637794505,-0.5230652093887329,0.5655672550201416,-0.6376022100448608
1727722882650,9i,9.372794062854265,0.9s : 0.3s,3.6354264663899327,1.0671547535860917,3.475270683619767,1.135575640670283,0.7555730938911438,-2.8995866775512695,-4.131873607635498,1.1041452884674072,0.11866968870162964,-0.2373030185699463,-0.5680355140710536,-0.7333718887012916,-2.635576379926628,-0.5642589926719666,0.5379770994186401,-0.6262528300285339
1727722882660,9i,9.372794062854265,0.9s : 0.3s,3.6181654330488806,1.0861747206263375,3.451281729616128,1.1804273591364558,0.7503676414489746,-2.9312021732330322,-4.060676097869873,1.139146089553833,0.1473345160484314,-0.27211666107177734,-0.5344563933195318,-0.7776938753023469,-2.6639458651664256,-0.6037916541099548,0.5093733072280884,-0.6131676435470581
1727722882670,9i,9.372794062854265,0.9s : 0.3s,3.6009937142924606,1.10526414957315,3.4271776857995198,1.1934713998516864,0.7581435441970825,-2.9440438747406006,-4.002997875213623,1.1693317890167236,0.11831951141357422,-0.20745515823364258,-0.5002640674392336,-0.8200211293919365,-2.690030153540809,-0.641560971736908,0.47965726256370544,-0.5986055135726929
1727722882680,9i,9.372794062854265,0.9s : 0.3s,3.5809357268235247,1.124500309074484,3.399794072371519,1.1776328195657342,0.7226889133453369,-2.9522578716278076,-3.937150239944458,1.1599854230880737,0.09959590435028076,-0.17701280117034912,-0.4657179614859413,-0.8604527563736328,-2.7132335505392464,-0.677395761013031,0.4490644037723541,-0.5826458930969238
1727722882690,9i,9.372794062854265,0.9s : 0.3s,3.5578569206714157,1.143588477918778,3.369057918935337,1.2056099610031472,0.6446958780288696,-2.9945805072784424,-3.8473763465881348,1.1932107210159302,0.05485239624977112,-0.16350769996643066,-0.4313291467929994,-0.8996211869594969,-2.734427590919257,-0.7113687992095947,0.41807857155799866,-0.5649468302726746
1727722882700,9i,9.372794062854265,0.9s : 0.3s,3.521979501806393,1.1627504236006594,3.3245076422774087,1.196728956471431,0.5794506669044495,-2.9742040634155273,-3.7271792888641357,1.1954851150512695,0.02423924207687378,-0.048867106437683105,-0.39754179735203643,-0.9374077291712204,-2.7537251981551267,-0.7431689500808716,0.3871529996395111,-0.5457220077514648
1727722882710,9i,9.372794062854265,0.9s : 0.3s,3.479955363036093,1.1818861866137913,3.273107754201682,1.1833856266882357,0.4672785997390747,-2.9863412380218506,-3.606043577194214,1.1818861961364746,-0.03463062644004822,-0.04844874143600464,-0.3645349025286108,-0.9740179700928014,-2.771446556488992,-0.7727981209754944,0.3565148115158081,-0.5250527262687683
1727722882720,9i,9.372794062854265,0.9s : 0.3s,3.4240466795692774,1.2003339612866055,3.2067575594752094,1.2114833570700985,0.38351258635520935,-2.946929454803467,-3.451903820037842,1.2067065238952637,-0.10739842057228088,0.004107177257537842,-0.33266222299101167,-1.0094647502287195,-2.787701362675991,-0.8001362681388855,0.32656046748161316,-0.5031304955482483
1727722882730,9i,9.372794062854265,0.9s : 0.3s,3.3535569352819463,1.2185243164075892,3.1243467490822874,1.1632190867847945,0.2888635993003845,-2.8514404296875,-3.30623722076416,1.1418945789337158,-0.1888873279094696,0.11609044671058655,-0.302040442805544,-1.0432353228684044,-2.802533059744313,-0.8249238133430481,0.297468900680542,-0.4806380569934845
1727722882740,9i,9.372794062854265,0.9s : 0.3s,3.274904867130228,1.236088604803688,3.032669921014769,1.1471113493731955,0.261001855134964,-2.7781972885131836,-3.145972490310669,1.113870620727539,-0.24535763263702393,0.1222960352897644,-0.2725855439693618,-1.0753722337933953,-2.816007881052791,-0.8472844958305359,0.2692224085330963,-0.45785194635391235
1727722882750,9i,9.372794062854265,0.9s : 0.3s,3.1856308362976504,1.2533839662576696,2.9286980824760107,1.1614011817474326,0.29643920063972473,-2.669680595397949,-2.9708642959594727,1.12093186378479,-0.2691959738731384,0.1410602331161499,-0.24416422892189324,-1.1057377818106762,-2.8275357795272305,-0.8672851324081421,0.24174542725086212,-0.43517324328422546
1727722882760,9i,9.372794062854265,0.9s : 0.3s,3.0826823095997455,1.269943309333849,2.8089453916011635,1.1808806653742865,0.30017879605293274,-2.527827739715576,-2.78200364112854,1.0969889163970947,-0.3519028425216675,0.25934311747550964,-0.216958492700307,-1.1340175895381923,-2.837036792319165,-0.8848766088485718,0.21526041626930237,-0.4131057560443878
1727722882770,9i,9.372794062854265,0.9s : 0.3s,2.9647488069343395,1.2843094503818357,2.672131120263094,1.2387721304907735,0.3138783872127533,-2.3868906497955322,-2.5516464710235596,1.093132495880127,-0.4776708483695984,0.33383873105049133,-0.1913299678401085,-1.1603238515086858,-2.8447856788636217,-0.900200366973877,0.19016475975513458,-0.3917609453201294
1727722882780,9i,9.372794062854265,0.9s : 0.3s,2.838191480515138,1.2966208528880283,2.5246990402669054,1.302721741026262,0.3176405131816864,-2.239807367324829,-2.335777521133423,1.0796488523483276,-0.5924946665763855,0.4247262179851532,-0.16757287275437432,-1.1846444520287969,-2.8507423375179584,-0.9133891463279724,0.166789710521698,-0.37135085463523865
1727722882790,9i,9.372794062854265,0.9s : 0.3s,2.6961850595886734,1.3072586206523045,2.358068865465852,1.3595790966788868,0.3408251702785492,-2.0461435317993164,-2.0796589851379395,1.071436882019043,-0.6569353342056274,0.5185694694519043,-0.14583986245167946,-1.2069144177862439,-2.8550696141772103,-0.9246015548706055,0.14532342553138733,-0.35212641954421997
1727722882800,9i,9.372794062854265,0.9s : 0.3s,2.5519813036285828,1.3166761124516153,2.186086134846736,1.4451679723045947,0.4446243941783905,-1.8759547472000122,-1.8430511951446533,1.0932093858718872,-0.7198753356933594,0.6125220060348511,-0.12618525702125807,-1.226917358947635,-2.857450997068531,-0.9339686632156372,0.125850647687912,-0.33446094393730164
1727722882810,9i,9.372794062854265,0.9s : 0.3s,2.3942000811883997,1.3247611093663392,1.9942923636901901,1.5481166905855537,0.46525299549102783,-1.6464298963546753,-1.5589174032211304,1.077940583229065,-0.8467235565185547,0.7195613980293274,-0.10865599162615804,-1.2446890481326127,-2.85802185175774,-0.9417102336883545,0.10844231396913528,-0.31846871972084045
1727722882820,9i,9.372794062854265,0.9s : 0.3s,2.226010823282567,1.3320438099835197,1.7834751115885306,1.6294750614112397,0.5225417017936707,-1.3783090114593506,-1.2637660503387451,1.0974808931350708,-0.8874605894088745,0.8143330812454224,-0.09366746991688939,-1.2597913522618227,-2.857009337657697,-0.9478533267974854,0.0935305655002594,-0.3046741187572479
1727722882830,9i,9.372794062854265,0.9s : 0.3s,2.0591003817929256,1.3385357215490135,1.564677763770238,1.7371388528755571,0.5937005281448364,-1.123823642730713,-0.9772523045539856,1.0940229892730713,-0.9981978535652161,0.9079461097717285,-0.08126456790293067,-1.272176614708814,-2.854394394373674,-0.9525894522666931,0.08117515593767166,-0.2932303845882416
1727722882840,9i,9.372794062854265,0.9s : 0.3s,1.8861467742541609,1.3445514619688064,1.322773986797035,1.9181046014932797,0.697080671787262,-0.7806199193000793,-0.6161895990371704,1.1348892450332642,-1.0897536277770996,1.0970818996429443,-0.07180999945903252,-1.2814112346833502,-2.849777799167265,-0.9559494256973267,0.07174830138683319,-0.2846274971961975
1727722882850,9i,9.372794062854265,0.9s : 0.3s,1.7173934491329559,1.350037341990808,1.0615269352942414,2.095484202237351,0.7931203842163086,-0.3811982274055481,-0.22272910177707672,1.1326289176940918,-1.2250558137893677,1.2678501605987549,-0.06566389198996724,-1.2868383716662402,-2.842967542076267,-0.9578853249549866,0.06561671197414398,-0.27955353260040283
1727722882860,9i,9.372794062854265,0.9s : 0.3s,1.572815148713185,1.3555224956954959,0.7976880691630862,2.281740003903807,0.8881388902664185,0.06499936431646347,0.2218538522720337,1.1999245882034302,-1.3538167476654053,1.3905749320983887,-0.0633164531911762,-1.2879194141284005,-2.8340821434712637,-0.9583323001861572,0.06327415257692337,-0.278560072183609
1727722882870,9i,9.372794062854265,0.9s : 0.3s,1.4842666429917053,1.3616127727877283,0.5908114119405449,2.4651246073827355,0.9578679203987122,0.564379096031189,0.6911976337432861,1.2695441246032715,-1.456771969795227,1.5306575298309326,-0.06509428485530638,-1.2841506896244521,-2.823098179809529,-0.957166314125061,0.06504832208156586,-0.28213754296302795
1727722882880,9i,9.372794062854265,0.9s : 0.3s,1.4901696697419053,1.3691204293179613,0.5883153020642081,2.569519535576447,1.0197865962982178,1.0595299005508423,1.1853764057159424,1.348050832748413,-1.5076932907104492,1.5849449634552002,-0.07126069238952515,-1.2751667599206684,-2.8101045330360668,-0.9541911482810974,0.07120039314031601,-0.29060277342796326
1727722882890,9i,9.372794062854265,0.9s : 0.3s,1.6054207010329515,1.3788192792615808,0.8223338874457922,2.700896877542954,1.0502116680145264,1.5464305877685547,1.659020185470581,1.477254033088684,-1.6110821962356567,1.5864988565444946,-0.08176960881418172,-1.2610334041662226,-2.7951039241950606,-0.9492237567901611,0.08167851716279984,-0.3038143515586853
1727722882900,9i,9.372794062854265,0.9s : 0.3s,1.8276758552900212,1.391713301943338,1.1847080303619462,2.859868515283153,1.1451407670974731,2.062238931655884,2.155076265335083,1.642966389656067,-1.660963535308838,1.649457335472107,-0.09644628121918804,-1.241589675524615,-2.7780277630715893,-0.9419013857841492,0.09629683196544647,-0.32178995013237
1727722882910,9i,9.372794062854265,0.9s : 0.3s,2.142636196849682,1.4088473061824207,1.614323121284275,2.994457639371449,1.3301169872283936,2.628697633743286,2.6502268314361572,1.8465681076049805,-1.6948165893554688,1.6384625434875488,-0.11494569591530471,-1.2160434518296592,-2.757537854174548,-0.9315443634986877,0.11469274014234543,-0.34506645798683167
1727722882920,9i,9.372794062854265,0.9s : 0.3s,2.5387729576737397,1.4313871826599982,2.09678297969345,3.215461388694554,1.5908154249191284,3.2110109329223633,3.231489419937134,2.144230842590332,-1.7897363901138306,1.5932073593139648,-0.13707389616176485,-1.1838069365869657,-2.732452920777652,-0.9173632860183716,0.13664504885673523,-0.37386220693588257
1727722882930,9i,9.372794062854265,0.9s : 0.3s,3.003091235237682,1.4603800729037666,2.6240897488132866,3.5332763347633533,1.830998420715332,3.8955633640289307,3.8211188316345215,2.4733057022094727,-1.916754961013794,1.6409908533096313,-0.16258749454787025,-1.1438183487941482,-2.7017589820081658,-0.8982171416282654,0.16187211871147156,-0.4086604416370392
1727722882940,9i,9.372794062854265,0.9s : 0.3s,3.530500557456003,1.497265955709516,3.1972846047967667,3.9467946416121964,2.0857925415039062,4.597762107849121,4.50135612487793,2.8909659385681152,-2.0499370098114014,1.7370268106460571,-0.1913927450955972,-1.0949759152592384,-2.6649503113049287,-0.8726859092712402,0.19022639095783234,-0.44970372319221497
1727722882950,9i,9.372794062854265,0.9s : 0.3s,4.113182528898224,1.5440173783021638,3.8123851919152267,4.468003251894377,2.331902503967285,5.332827091217041,5.228763580322266,3.437161684036255,-2.1857001781463623,1.8362154960632324,-0.22330268953123975,-1.036289830166506,-2.620636533749485,-0.8391546010971069,0.2214515060186386,-0.4967683255672455
1727722882960,9i,9.372794062854265,0.9s : 0.3s,4.751274851667986,1.6028251357637306,4.472758019416725,5.066552905477507,2.482395648956299,6.145235061645508,6.040240287780762,4.0703511238098145,-2.272813081741333,1.9840667247772217,-0.2576330241302051,-0.9664367377242568,-2.5680387789153225,-0.7957081198692322,0.2547924220561981,-0.5494810938835144
1727722882970,9i,9.372794062854265,0.9s : 0.3s,5.437446794629498,1.676038750916669,5.172689991663166,5.769297194438491,2.455662727355957,6.962677478790283,6.971903324127197,4.8100738525390625,-2.33565092086792,2.1662673950195312,-0.2946219205241092,-0.8842471893618965,-2.5065238384546813,-0.7401121258735657,0.2903780937194824,-0.606559693813324
1727722882980,9i,9.372794062854265,0.9s : 0.3s,6.1868906241109904,1.7660272007669326,5.929482567717338,6.565542037800178,2.287382125854492,7.915233612060547,8.010729789733887,5.6738433837890625,-2.3926239013671875,2.277980327606201,-0.3342373446133313,-0.7878342565461331,-2.434911979292573,-0.669601321220398,0.32804882526397705,-0.6663467884063721
1727722882990,9i,9.372794062854265,0.9s : 0.3s,7.011837655187731,1.8753133871183874,6.756409327653493,7.472769840387331,2.099268913269043,8.960397720336914,9.145918846130371,6.721980571746826,-2.42761492729187,2.182647943496704,-0.37526475005972926,-0.6744198458231991,-2.35125824729461,-0.5809895992279053,0.36651885509490967,-0.7267152070999146
1727722883000,9i,9.372794062854265,0.9s : 0.3s,7.908888767412017,2.0060085232833766,7.650258253144819,8.433121161151037,2.2472116947174072,10.001956939697266,10.29040241241455,7.9201579093933105,-2.338620185852051,1.7086505889892578,-0.4131393346935917,-0.5411452148907812,-2.251569867766198,-0.47177842259407043,0.40148651599884033,-0.785005509853363
1727722883010,9i,9.372794062854265,0.9s : 0.3s,8.825773107710551,2.1603714109179535,8.557281479282725,9.607553191575237,2.40356707572937,10.874556541442871,11.368744850158691,9.300650596618652,-2.1315884590148926,1.122188687324524,-0.44078313846306977,-0.38779243971759675,-2.13422387160263,-0.34200170636177063,0.4266478717327118,-0.8372612595558167
1727722883020,9i,9.372794062854265,0.9s : 0.3s,9.704619037747783,2.340308297082629,9.418205123186844,10.867747980106923,2.367870807647705,11.656800270080566,12.196022033691406,10.70920181274414,-1.6936758756637573,0.7432393431663513,-0.45286319852694285,-0.21746253141251104,-2.0015986333852873,-0.19400432705879211,0.4375419020652771,-0.878020167350769
1727722883030,9i,9.372794062854265,0.9s : 0.3s,10.474004387210854,2.5469608962399297,10.159614072214401,12.149490088899674,1.5585904121398926,12.260295867919922,12.740668296813965,12.100881576538086,-1.013545274734497,0.3892306089401245,-0.4486584712468101,-0.03647531447390656,-1.8617494462465676,-0.03285805881023407,0.43375715613365173,-0.9004305005073547
1727722883040,9i,9.372794062854265,0.9s : 0.3s,11.13721869359541,2.7818181939535194,10.784207331313702,13.679556617047263,-0.275543212890625,12.631043434143066,13.352091789245605,13.67478084564209,0.1396450400352478,-0.33337265253067017,-0.43411981444057934,0.14968397373426134,-1.7180268049665202,0.13529284298419952,0.42061203718185425,-0.8970960974693298
1727722883050,9i,9.372794062854265,0.9s : 0.3s,11.66388930248739,3.0440779862388774,11.259658204154142,15.182031091740619,-3.081441640853882,12.530037879943848,13.706385612487793,15.009838104248047,1.7590115070343018,-1.4507607221603394,-0.4173685385553599,0.3373262704955682,-1.5699067197523635,0.30255478620529175,0.4053562879562378,-0.8626394867897034
1727722883060,9i,9.372794062854265,0.9s : 0.3s,12.128072012374007,3.3293151793012785,11.662152081592993,16.44457301072907,-6.642341613769531,11.778517723083496,14.17371940612793,15.67735767364502,4.148497581481934,-2.7266106605529785,-0.40502765540451346,0.5219685027443174,-1.4161109153018039,0.45824751257896423,0.3940441906452179,-0.7967047095298767
1727722883070,9i,9.372794062854265,0.9s : 0.3s,12.480835801349249,3.627663425262108,11.941998173390278,16.93088575896371,-11.511247634887695,10.519068717956543,13.127735137939453,15.0338134765625,7.0236921310424805,-3.3626022338867188,-0.40586194303474127,0.7026816824629919,-1.2460772328465393,0.593765377998352,0.39481082558631897,-0.701118528842926
1727722883080,9i,9.372794062854265,0.9s : 0.3s,12.898808268891194,3.9305733812541037,12.285350937282685,17.161093472333896,-16.224029541015625,7.674120903015137,12.49526596069336,13.7537202835083,9.918432235717773,-2.63875150680542,-0.41575315884511993,0.8761076298264443,-1.0430115299329998,0.7028074264526367,0.4038790464401245,-0.5856137871742249
1727722883090,9i,9.372794062854265,0.9s : 0.3s,13.77404554244083,4.225737534857697,13.109823526338134,16.881202888304642,-20.630863189697266,4.29203987121582,13.339768409729004,11.21047592163086,12.604745864868164,-0.6485539674758911,-0.4157491308162944,1.037216344834302,-0.7966383013042797,0.7876473665237427,0.40387535095214844,-0.46529173851013184
1727722883100,9i,9.372794062854265,0.9s : 0.3s,14.864259404906322,4.501042553997693,14.166397692548658,16.489844723943914,-21.906593322753906,1.6259933710098267,14.699751853942871,8.053131103515625,14.352861404418945,1.028313159942627,-0.3875407965585177,1.1767973302603618,-0.5183575857282328,0.8549044132232666,0.3779127299785614,-0.3554157018661499
1727722883110,9i,9.372794062854265,0.9s : 0.3s,15.180317884335096,4.74810102357316,14.41865415839521,15.973668356327886,-17.372814178466797,0.10701131075620651,15.19700813293457,4.90692138671875,15.080754280090332,1.9107730388641357,-0.3107750250989456,1.2720048675953044,-0.2693578720994866,0.9099122881889343,0.30579662322998047,-0.28026440739631653
1727722883120,9i,9.372794062854265,0.9s : 0.3s,15.68407886377688,4.961792255655235,14.878539828117962,12.585601421516394,-19.10584259033203,-0.7155961990356445,14.958568572998047,2.5541458129882812,11.72185230255127,3.804192543029785,-0.2109372073639849,1.3267497377918005,-0.05031077032378579,0.9488600492477417,0.20937642455101013,-0.2362755537033081
1727722883130,9i,9.372794062854265,0.9s : 0.3s,17.33508816189747,5.140340628230087,16.55542750298297,5.707121854358953,-28.583715438842773,-1.8827515840530396,13.298196792602539,2.5698506832122803,2.722132444381714,4.307795524597168,-0.12305704340109483,1.3579917470830176,0.2137438657458346,0.970051109790802,0.12274669855833054,-0.20960496366024017
1727722883140,9i,9.372794062854265,0.9s : 0.3s,14.633074921944287,5.321946638483556,13.630985498061703,9.796934567308725,-4.6297526359558105,-4.831075668334961,10.801474571228027,8.42170524597168,1.2675726413726807,-4.842320442199707,-0.056110971828991385,1.2946118412390477,0.42544518810729753,0.960588812828064,0.056081533432006836,-0.27225759625434875
1727722883150,9i,9.372794062854265,0.9s : 0.3s,15.938432652201016,5.521924662087338,14.951320457905352,11.87559344468972,-27.987104415893555,-3.0902812480926514,6.478784084320068,11.3253173828125,-1.5477980375289917,3.2204389572143555,0.02903411159882271,1.2723200292412435,0.6151420331573076,0.9553829431533813,-0.029030032455921173,-0.29394030570983887
1727722883160,9i,9.372794062854265,0.9s : 0.3s,16.59094549503854,5.669605997018292,15.592146749499049,11.453246841253877,-26.869787216186523,-13.065261840820312,-1.824806571006775,1.7721508741378784,-5.398314952850342,9.944573402404785,-0.07919893802176269,1.1910908910409264,0.9003997608868384,0.9258626699447632,0.07911616563796997,-0.36948513984680176
1727722883170,9i,9.372794062854265,0.9s : 0.3s,13.850089972601962,5.891973351873936,12.534338525425936,24.906099716323457,-6.8021674156188965,-6.708186626434326,0.3500535190105438,11.776700973510742,21.676345825195312,3.429161548614502,-0.12949656651455668,1.1126407264629325,1.0518232012684536,0.8893604278564453,0.12913493812084198,-0.4385913908481598
1727722883180,9i,9.372794062854265,0.9s : 0.3s,12.519849161870647,6.0757376323788215,10.946781959027454,5.791918741259155,-8.165006637573242,-11.208036422729492,-3.2840158939361572,2.954249382019043,2.1574594974517822,4.490445613861084,-0.17750110942821254,1.030636943359998,1.0962635855990424,0.8441516757011414,0.17657050490379333,-0.5061924457550049
1727722883190,9i,9.372794062854265,0.9s : 0.3s,12.458745595278973,6.258318032669776,10.772826797542207,9.185572022027102,-9.456307411193848,-12.867316246032715,-3.279171943664551,7.121406555175781,1.461890459060669,5.614550590515137,-0.2592187587546148,0.9250181897516914,1.161694122034219,0.7719498872756958,0.25632548332214355,-0.5817136168479919
1727722883200,9i,9.372794062854265,0.9s : 0.3s,12.160586999028625,6.408294872394912,10.335068117307264,5.605263066586923,-7.04948091506958,-14.72508430480957,-3.594149351119995,1.7334208488464355,2.9884698390960693,4.4139862060546875,-0.33854733729005865,0.7944527918047184,1.1980996805386297,0.6729817986488342,0.3321172297000885,-0.6609036326408386
1727722883210,9i,9.372794062854265,0.9s : 0.3s,12.132952152760637,6.5385942642851,10.220338203221896,6.787439249973661,-6.123320579528809,-14.81906509399414,-4.325527191162109,1.790864109992981,3.530811309814453,5.513212203979492,-0.41437138750686514,0.6541737345521349,1.2152521593874057,0.5570058226585388,0.4026145935058594,-0.7263924479484558
1727722883220,9i,9.372794062854265,0.9s : 0.3s,11.992102807524638,6.65200055603168,9.978046820334857,5.936545031653935,-3.469355583190918,-14.576824188232422,-4.004022121429443,1.550028681755066,2.681554079055786,5.064508438110352,-0.4779282839181807,0.5012981996697018,1.204086300628119,0.42671704292297363,0.4599405825138092,-0.7786958813667297
1727722883230,9i,9.372794062854265,0.9s : 0.3s,11.84336560651414,6.7458771097425245,9.734395251365845,4.559260358629037,-1.8814969062805176,-14.215197563171387,-3.38519024848938,0.7375289797782898,1.7604042291641235,4.140517234802246,-0.5192899613361369,0.34160477009112566,1.1707549344860344,0.2908371686935425,0.4962638318538666,-0.8180073499679565
1727722883240,9i,9.372794062854265,0.9s : 0.3s,11.69822297157939,6.8267734959085145,9.499662327069778,4.934075855325965,-1.0402332544326782,-13.428863525390625,-4.134227275848389,1.0254379510879517,0.7990980744361877,4.759729385375977,-0.5457899654230048,0.17770687063191867,1.1213647621962728,0.15109099447727203,0.5190934538841248,-0.8412570953369141
1727722883250,9i,9.372794062854265,0.9s : 0.3s,11.551786774838277,6.893908679464266,9.269185552708274,4.724897751767392,-0.15666183829307556,-12.607080459594727,-5.287258625030518,0.21446119248867035,0.8473332524299622,4.6433491706848145,-0.5572531628682214,0.01652458785772659,1.0612776942908593,0.014023961499333382,0.5288569331169128,-0.848595142364502
1727722883260,9i,9.372794062854265,0.9s : 0.3s,11.439574693489405,6.950031228559045,9.08630480943586,3.404062174690584,0.5558376312255859,-12.221806526184082,-5.429624080657959,0.40523937344551086,0.39050358533859253,3.35722017288208,-0.5513093270235696,-0.1407889263930071,0.998322519617598,-0.11953375488519669,0.5238029956817627,-0.8434109687805176
1727722883270,9i,9.372794062854265,0.9s : 0.3s,11.364721926749993,6.997861982290825,8.954710053885654,3.0426248780198404,0.7346044182777405,-11.98206901550293,-5.380053520202637,0.6922545433044434,-0.38485610485076904,2.9377262592315674,-0.5334927871031431,-0.2928239495561597,0.9387140760241208,-0.24854420125484467,0.508543848991394,-0.8243839740753174
1727722883280,9i,9.372794062854265,0.9s : 0.3s,11.272195742220186,7.039771286580571,8.803636582887927,2.4875518980183022,0.7295851707458496,-11.540426254272461,-5.33282470703125,0.7956428527832031,-0.3079366385936737,2.3366732597351074,-0.5076718444056174,-0.4377138279441416,0.8840190653318988,-0.3704109191894531,0.4861440360546112,-0.7914921045303345
1727722883290,9i,9.372794062854265,0.9s : 0.3s,11.127109564847883,7.079561893102218,8.584426053608022,2.030803960517389,1.0520814657211304,-10.915425300598145,-5.200253963470459,1.0525567531585693,0.360015332698822,1.699022650718689,-0.4743978780553246,-0.5726203549498048,0.8368823645156205,-0.4820001721382141,0.4568029046058655,-0.747667670249939
1727722883300,9i,9.372794062854265,0.9s : 0.3s,10.938498445033664,7.1204355797851955,8.303622425552172,2.1354344215761665,1.618377923965454,-10.091486930847168,-5.340922832489014,1.4640746116638184,0.6210876703262329,1.4250669479370117,-0.4325254548802,-0.6945437537769683,0.7986283321686843,-0.5810942053794861,0.4191650152206421,-0.6975889205932617
1727722883310,9i,9.372794062854265,0.9s : 0.3s,10.713035276605021,7.16309912532086,7.966124262061895,2.2291033870763486,2.2629785537719727,-9.135957717895508,-5.4577436447143555,1.6298930644989014,0.7256057262420654,1.3363558053970337,-0.3813486282500241,-0.8020136476448491,0.7701865050210972,-0.6671245694160461,0.3721725642681122,-0.6453157663345337
1727722883320,9i,9.372794062854265,0.9s : 0.3s,10.49113849783384,7.2083194736312635,7.622605679608488,2.359302105939926,2.804048538208008,-8.286725044250488,-5.587434768676758,1.8137969970703125,0.952972412109375,1.1697394847869873,-0.32304880322032964,-0.8955446389269555,0.7513306980697478,-0.7401733994483948,0.3174591362476349,-0.5927589535713196
1727722883330,9i,9.372794062854265,0.9s : 0.3s,10.316154224087773,7.255099123374716,7.333933097947611,2.250006260252511,3.303773880004883,-7.71406364440918,-5.7024030685424805,1.9572193622589111,0.8015180230140686,0.7677170038223267,-0.25958447127561957,-0.978000503576534,0.7424770010025901,-0.8015949130058289,0.256678968667984,-0.5399643182754517
1727722883340,9i,9.372794062854265,0.9s : 0.3s,10.19728985714387,7.302401410880144,7.117559558232369,2.1886075106397858,3.7226994037628174,-7.37397575378418,-5.711851596832275,2.0663795471191406,0.6644304394721985,0.28037580847740173,-0.19267063010181623,-1.0534686321467732,0.7420622729342682,-0.8530616164207458,0.19148078560829163,-0.4854081869125366
1727722883350,9i,9.372794062854265,0.9s : 0.3s,10.12429076716946,7.349319049089052,6.963388044112549,2.1551694673191464,4.003973007202148,-7.1002044677734375,-5.772169589996338,2.0559821128845215,0.643752932548523,-0.05722889304161072,-0.12368248497330585,-1.1246980268126754,0.7494017304813928,-0.8952459692955017,0.12336739152669907,-0.4281531572341919
1727722883360,9i,9.372794062854265,0.9s : 0.3s,10.062365031486127,7.396434349266332,6.822312580340187,2.1795487099237447,4.348242282867432,-6.712865829467773,-5.675509929656982,2.103973388671875,0.5404483079910278,0.17788812518119812,-0.05450353574134284,-1.1926299535179308,0.765361349865237,-0.9279631972312927,0.054476555436849594,-0.3686687648296356
1727722883370,9i,9.372794062854265,0.9s : 0.3s,9.965403200797873,7.445633827372156,6.623578931602155,2.4388047496445178,4.71943473815918,-6.097062587738037,-5.23589563369751,2.2618629932403564,0.5237553119659424,0.7466088533401489,0.012204733428666329,-1.2563237724836462,0.7893362907945897,-0.9508889317512512,-0.012204430066049099,-0.30929192900657654
1727722883380,9i,9.372794062854265,0.9s : 0.3s,9.84434829565866,7.496145155179734,6.381144190402924,2.4425572617661886,4.7668137550354,-5.47368049621582,-4.952436447143555,2.1962695121765137,0.45780277252197266,0.9658689498901367,0.07443341189534293,-1.3154040430178782,0.8206553979423142,-0.9648853540420532,-0.07436469942331314,-0.251925528049469
1727722883390,9i,9.372794062854265,0.9s : 0.3s,9.730854648461106,7.5476768348506225,6.14183251042687,2.46815162100583,4.895875453948975,-5.071314334869385,-4.614772796630859,2.2809362411499023,0.34748953580856323,0.8765576481819153,0.13194495847837293,-1.3718129955503016,0.8569897512453375,-0.9717474579811096,-0.13156244158744812,-0.19595463573932648
1727722883400,9i,9.372794062854265,0.9s : 0.3s,9.647825010395275,7.600930002088024,5.9419180854810465,2.570289687862429,5.297628879547119,-4.7713398933410645,-4.21594762802124,2.384671211242676,0.6473857760429382,0.7075478434562683,0.18399042811983263,-1.4278629206754079,0.9003692614031195,-0.9730960726737976,-0.1829540878534317,-0.14004293084144592
1727722883410,9i,9.372794062854265,0.9s : 0.3s,9.5862392282252,7.655409659464519,5.769808097895543,2.5699271069636187,5.489222526550293,-4.5019121170043945,-3.9216246604919434,2.256580352783203,0.8599947094917297,0.8790788054466248,0.2306407592363347,-1.4845097688880635,0.9504394623995824,-0.9698984026908875,-0.2286013662815094,-0.08389751613140106
1727722883420,9i,9.372794062854265,0.9s : 0.3s,9.532872458624283,7.710093689999502,5.606256558865928,2.503004453554029,5.535374641418457,-4.200790882110596,-3.7024898529052734,2.08782696723938,0.8594983816146851,1.0804038047790527,0.2717827729413966,-1.541767556345998,1.0052398275973182,-0.9628880620002747,-0.26844918727874756,-0.0279593113809824
1727722883430,9i,9.372794062854265,0.9s : 0.3s,9.477382606563152,7.762180816957702,5.437768847242371,2.099609767159632,5.355423927307129,-3.89353346824646,-3.667191743850708,1.7317410707473755,0.6938244104385376,0.9633492231369019,0.3085128046224234,-1.5987611303099376,1.0623507279866673,-0.9524137377738953,-0.30364200472831726,0.026641007512807846
1727722883440,9i,9.372794062854265,0.9s : 0.3s,9.438616269281322,7.810976399540567,5.298690853839497,1.8766666230002123,5.390057563781738,-3.6797914505004883,-3.60054874420166,1.5009219646453857,0.7784240245819092,0.8143506050109863,0.34185212316530356,-1.6555007648525106,1.1210846746121634,-0.9387578368186951,-0.33523261547088623,0.07970767468214035
1727722883450,9i,9.372794062854265,0.9s : 0.3s,9.401740271965924,7.855712657977387,5.165316909619367,1.6809814645197754,5.338662147521973,-3.3551673889160156,-3.6193392276763916,1.1857542991638184,0.7566332817077637,0.920430064201355,0.3717173738759735,-1.7121057733162794,1.1823159936772254,-0.9224182367324829,-0.3632160425186157,0.1312209963798523
1727722883460,9i,9.372794062854265,0.9s : 0.3s,9.363894153466067,7.895812989773828,5.033751180564537,1.5265913710324215,5.294947624206543,-3.0029704570770264,-3.6211869716644287,0.9195497035980225,0.524763822555542,1.0997874736785889,0.39834405855469707,-1.7676174111388667,1.2453550016650474,-0.90390944480896,-0.38789257407188416,0.1802419126033783
1727722883470,9i,9.372794062854265,0.9s : 0.3s,9.304401286583301,7.933402714137337,4.8613788863954355,1.6433519399183578,5.1542863845825195,-2.529717445373535,-3.4387505054473877,1.0178231000900269,0.5123172402381897,1.184133768081665,0.4212576950045663,-1.820610532997871,1.3093597347240749,-0.8842477202415466,-0.40890851616859436,0.22561050951480865
1727722883480,9i,9.372794062854265,0.9s : 0.3s,9.235782158233851,7.96867182371463,4.669040740911058,1.585504311230492,5.0378546714782715,-2.1094062328338623,-3.2251312732696533,0.9437693357467651,0.4473915100097656,1.192880630493164,0.4395596569748949,-1.8703062054987591,1.373229244136363,-0.8646525740623474,-0.4255410134792328,0.2670041024684906
1727722883490,9i,9.372794062854265,0.9s : 0.3s,9.173489226585234,8.000319528626651,4.4886291927659165,1.3041951079091219,4.998987674713135,-1.8649972677230835,-2.9779770374298096,0.7616546750068665,0.16727736592292786,1.0453828573226929,0.4529811486143874,-1.9174207805645227,1.4368192448098498,-0.8456696271896362,-0.4376479685306549,0.305462509393692
1727722883500,9i,9.372794062854265,0.9s : 0.3s,9.105576036009422,8.028344213600679,4.296184834884734,1.1496050869804342,4.834685802459717,-1.70791757106781,-2.6463630199432373,0.6627318263053894,0.03445082902908325,0.9387180209159851,0.46112742081393016,-1.9624473638216908,1.4992181116533576,-0.8277403116226196,-0.44495806097984314,0.3418453633785248
1727722883510,9i,9.372794062854265,0.9s : 0.3s,9.023166967376127,8.05344439969455,4.069345822386712,1.1881225572608776,4.495334625244141,-1.5702054500579834,-2.3257150650024414,0.5713427066802979,0.014434754848480225,1.0416306257247925,0.46476385708174756,-2.0044152938959794,1.5577915451672668,-0.8111956715583801,-0.4482117295265198,0.3755904734134674
1727722883520,9i,9.372794062854265,0.9s : 0.3s,8.936619575333664,8.075751630504847,3.8269315432386746,1.1357916827756638,4.266728401184082,-1.3577758073806763,-1.9641339778900146,0.4557170867919922,-0.013149231672286987,1.0402748584747314,0.4645805301681167,-2.0427503787935355,1.61180449033286,-0.7962781190872192,-0.44804781675338745,0.4064415395259857
1727722883530,9i,9.372794062854265,0.9s : 0.3s,8.840992782976535,8.095928545858076,3.5523364661872248,1.1741001195447691,3.8618528842926025,-1.085749864578247,-1.71829092502594,0.4168471693992615,-0.04287412762641907,1.0967731475830078,0.4616802410699566,-2.0766458050419576,1.6614449732295795,-0.7831803560256958,-0.44545307755470276,0.4338209331035614
1727722883540,9i,9.372794062854265,0.9s : 0.3s,8.745498225598066,8.115145356759331,3.260085129656337,1.1961992126784076,3.505948543548584,-0.8215547204017639,-1.4232085943222046,0.436531126499176,0.029518932104110718,1.1133111715316772,0.4566646357155433,-2.1051241716572124,1.7055337716893728,-0.7724227905273438,-0.4409569799900055,0.45707765221595764
1727722883550,9i,9.372794062854265,0.9s : 0.3s,8.663468113599487,8.13274756345656,2.9856484763693225,1.0919952294517257,3.2714314460754395,-0.6020556688308716,-1.186299204826355,0.3516787886619568,-0.012317091226577759,1.0337426662445068,0.4500490708669724,-2.1293004966185007,1.7450115876113383,-0.7636051774024963,-0.4350097179412842,0.4771522283554077
1727722883560,9i,9.372794062854265,0.9s : 0.3s,8.596890966694355,8.14876875596298,2.73936161451396,0.9806585936170132,3.0952961444854736,-0.4064876139163971,-0.9737262725830078,0.2960885763168335,0.01640862226486206,0.9347478747367859,0.44192346784658926,-2.149735653101432,1.7810815342425501,-0.7566295266151428,-0.4276789426803589,0.49457356333732605
1727722883570,9i,9.372794062854265,0.9s : 0.3s,8.537446165369273,8.163246339052948,2.499879243987025,0.9366455142492827,2.8121137619018555,-0.25655511021614075,-0.7945208549499512,0.24729514122009277,-0.024607181549072266,0.9030749797821045,0.432860783537646,-2.1666394673727263,1.8136103232813572,-0.7513387203216553,-0.4194694459438324,0.5094464421272278
1727722883580,9i,9.372794062854265,0.9s : 0.3s,8.48754757406987,8.176155405241172,2.2779259451187,0.8435391288668376,2.5826315879821777,-0.16094273328781128,-0.6191310286521912,0.19786417484283447,-0.03942790627479553,0.8190564513206482,0.42336262155289134,-2.180642940429357,1.8423122687774844,-0.7473636269569397,-0.41082850098609924,0.5221759080886841
1727722883590,9i,9.372794062854265,0.9s : 0.3s,8.446333374279451,8.187290541238305,2.075769992753695,0.7108572026172588,2.3697168827056885,-0.06585855782032013,-0.5043607950210571,0.12206566333770752,-0.03388836979866028,0.699478030204773,0.41361051368326907,-2.192112424119159,1.8679601186199803,-0.744547963142395,-0.4019179940223694,0.5330201983451843
1727722883600,9i,9.372794062854265,0.9s : 0.3s,8.410635859198061,8.196763888224751,1.884637184373422,0.6538748678404525,2.1341423988342285,0.023221425712108612,-0.408964604139328,0.07018506526947021,-0.039057910442352295,0.648922860622406,0.4040852399526117,-2.201342237519379,1.8907955982782296,-0.7426551580429077,-0.3931778371334076,0.5421019792556763
1727722883610,9i,9.372794062854265,0.9s : 0.3s,8.38076284830403,8.204720746624629,1.7087256624222824,0.6020305582510302,1.9273598194122314,0.0958213284611702,-0.3419259190559387,0.029558420181274414,-0.04521515965461731,0.5996021032333374,0.3950990798656751,-2.208529278697317,1.9108863122352082,-0.7415487170219421,-0.38489964604377747,0.5495068430900574
1727722883620,9i,9.372794062854265,0.9s : 0.3s,8.355908555395768,8.211410664104212,1.5472371154971027,0.533743891955789,1.739034652709961,0.1587318480014801,-0.2736673057079315,0.010635197162628174,-0.02682974934577942,0.5329630374908447,0.3866312070393189,-2.2140436795487086,1.9287494271923467,-0.7410885691642761,-0.37707042694091797,0.5555226802825928
1727722883630,9i,9.372794062854265,0.9s : 0.3s,8.334251665348404,8.216716514411823,1.3947474836523908,0.516914670383967,1.527435064315796,0.2513155937194824,-0.27495309710502625,-0.055726468563079834,-0.05297765135765076,0.5111640691757202,0.3790048096711529,-2.217880268271957,1.9446025762226467,-0.7412248849868774,-0.3699961006641388,0.5600793361663818
1727722883640,9i,9.372794062854265,0.9s : 0.3s,8.31625005547019,8.221026221726508,1.25488758332894,0.49901419536668257,1.3565387725830078,0.3212379217147827,-0.2200719267129898,-0.05441504716873169,-0.05356258153915405,0.4931381344795227,0.372225105408207,-2.2200806107485107,1.9585858121060793,-0.7419716715812683,-0.3636890649795532,0.5632126331329346
1727722883650,9i,9.372794062854265,0.9s : 0.3s,8.303979246116912,8.224675256320255,1.144896610185272,0.4798815826972361,1.314247488975525,0.17363224923610687,-0.13042673468589783,-0.03364384174346924,-0.07532277703285217,0.4727376699447632,0.36577805594935386,-2.2215958658985406,1.9709326596738035,-0.7429674863815308,-0.3576759994029999,0.5657450556755066
1727722883660,9i,9.372794062854265,0.9s : 0.3s,8.294487222676567,8.228054919747814,1.0476786362041564,0.43825249975561725,1.1721915006637573,0.478718638420105,-0.11907634139060974,-0.007882177829742432,-0.025755882263183594,0.4374240040779114,0.35826293544417287,-2.222387554454879,1.981560373060565,-0.7446355223655701,-0.3506479859352112,0.5679470896720886
1727722883670,9i,9.372794062854265,0.9s : 0.3s,8.284731698639103,8.229921951117726,0.9514010704987448,0.4786511759029609,1.014701008796692,0.47650450468063354,-0.05774960294365883,-0.17681092023849487,-0.15086668729782104,0.41843050718307495,0.3532287772452973,-2.2215097874357825,1.9915514874498517,-0.7465289235115051,-0.34592902660369873,0.5683554410934448
1727722883680,9i,9.372794062854265,0.9s : 0.3s,8.276399058355578,8.231571525768139,0.8602392628288155,0.32523134247536156,0.8785132765769958,0.44742757081985474,-0.08288484811782837,-0.04499870538711548,-0.03419569134712219,0.3202829957008362,0.3481132403905661,-2.2196634474990504,2.0001294258731708,-0.7489770650863647,-0.34112483263015747,0.5680379867553711
1727722883690,9i,9.372794062854265,0.9s : 0.3s,8.270064545218217,8.232736193417004,0.7848709140215862,0.2989507754977256,0.810212254524231,0.45720216631889343,-0.022155990824103355,-0.07778435945510864,-0.05995318293571472,0.2823593020439148,0.3434415332856007,-2.217685155123864,2.007638939200101,-0.7513629198074341,-0.33672964572906494,0.5675095319747925
1727722883700,9i,9.372794062854265,0.9s : 0.3s,8.264695879928498,8.233856196699934,0.7133092735785728,0.28044585083104523,0.701157808303833,0.4524732530117035,-0.012269703671336174,-0.050050199031829834,0.0042951107025146484,0.2759101390838623,0.3390302631125305,-2.215362474358639,2.0142097873017204,-0.7538589239120483,-0.33257269859313965,0.5666497349739075
1727722883710,9i,9.372794062854265,0.9s : 0.3s,8.259864798139288,8.235141063847173,0.6386064062305108,0.27321514327371266,0.5523715615272522,0.4655461609363556,0.0338253527879715,-0.02370750904083252,0.026461362838745117,0.2708953022956848,0.33512860603527145,-2.2125122133284925,2.0199966906921434,-0.7565047740936279,-0.3288906216621399,0.5652711987495422
1727722883720,9i,9.372794062854265,0.9s : 0.3s,8.255662269075435,8.236309592414074,0.5649458371770677,0.2264830729872253,0.43046849966049194,0.43968304991722107,0.06025303155183792,-0.02760392427444458,-0.022332966327667236,0.2236824631690979,0.3318700731661377,-2.2091979232504437,2.024335720265481,-0.7592307329177856,-0.32581162452697754,0.5633965134620667
1727722883730,9i,9.372794062854265,0.9s : 0.3s,8.252309441860444,8.237395794801765,0.4959048739437856,0.1545327047250853,0.3343803286552429,0.40257909893989563,0.08997897058725357,0.00038313865661621094,-0.028591036796569824,0.15186429023742676,0.3289481960120626,-2.2058821896932588,2.027619280710092,-0.7618576884269714,-0.32304778695106506,0.5614383220672607
1727722883740,9i,9.372794062854265,0.9s : 0.3s,8.24976975903514,8.238622086342819,0.4287274139998553,0.1525506042095498,0.21967211365699768,0.3742752969264984,0.10035837441682816,0.019412338733673096,0.01053956151008606,0.15094292163848877,0.326522097695319,-2.202564699486197,2.0298976727817997,-0.7643464803695679,-0.3207508325576782,0.5593691468238831
1727722883750,9i,9.372794062854265,0.9s : 0.3s,8.248556267549922,8.240048314839454,0.3745454152016633,0.152173111997,0.1544845849275589,0.36715027689933777,0.10307986289262772,0.022008061408996582,0.06382250785827637,0.13637810945510864,0.32457262248616775,-2.1991453365422777,2.031334318821198,-0.7667589783668518,-0.31890374422073364,0.5571187138557434
1727722883760,9i,9.372794062854265,0.9s : 0.3s,8.24792170217797,8.241524332750414,0.32479082182412683,0.12973336528773552,0.05789227783679962,0.349695086479187,0.08748698234558105,0.014556288719177246,0.07162931561470032,0.1071825623512268,0.3231823909288592,-2.195655147081979,2.032168906645427,-0.76905757188797,-0.3175857961177826,0.5546979904174805
1727722883770,9i,9.372794062854265,0.9s : 0.3s,8.247876681794455,8.24295978904533,0.2847519521803064,0.10966387241029907,0.009918094612658024,0.32198941707611084,0.08773412555456161,0.010913610458374023,0.07178741693496704,0.0821804404258728,0.32231943278511316,-2.1921892248560595,2.0318827531642474,-0.7711981534957886,-0.3167673945426941,0.5521886348724365
1727722883780,9i,9.372794062854265,0.9s : 0.3s,8.248139743155168,8.244181021611704,0.2555161550923551,0.06617142852570781,0.0011293969582766294,0.29556289315223694,0.09362324327230453,0.003714263439178467,0.03001725673675537,0.05885428190231323,0.3214918133369546,-2.1889433477386624,2.031912759781699,-0.7731996774673462,-0.31598228216171265,0.549834132194519
1727722883790,9i,9.372794062854265,0.9s : 0.3s,8.248305474856737,8.245105753001853,0.22972663834944315,0.07102198764729946,-0.035476021468639374,0.26215487718582153,0.09989738464355469,-0.003614187240600586,-0.024089336395263672,0.06671404838562012,0.32086589954393846,-2.185935646417197,2.0316574786798527,-0.7750114798545837,-0.31538838148117065,0.5476202964782715
1727722883800,9i,9.372794062854265,0.9s : 0.3s,8.248597704905174,8.245878225837913,0.21179325300656376,0.07041852661356489,-0.06802809983491898,0.25272461771965027,0.1050577238202095,0.007876098155975342,-0.03829997777938843,0.05856490135192871,0.3202820362171444,-2.183027422053256,2.0310577588670413,-0.7767512798309326,-0.31483426690101624,0.5454697012901306
1727722883810,9i,9.372794062854265,0.9s : 0.3s,8.249254379389896,8.246614214158575,0.2086907250482356,0.09484582269769878,-0.10815101861953735,0.25740325450897217,0.12609456479549408,0.012372791767120361,-0.05391824245452881,0.07704198360443115,0.3198390280394364,-2.180022216105465,2.030027563399128,-0.7785013318061829,-0.31441375613212585,0.5432127118110657
1727722883820,9i,9.372794062854265,0.9s : 0.3s,8.249923448806733,8.247337639056246,0.20654001689094767,0.09762874316231192,-0.14802239835262299,0.2547214925289154,0.14815163612365723,0.020705044269561768,-0.05186626315116882,0.08007848262786865,0.3194449112862084,-2.1768578371235727,2.0286227778611448,-0.7803180813789368,-0.31403958797454834,0.5408170223236084
1727722883830,9i,9.372794062854265,0.9s : 0.3s,8.250695787655776,8.24805265235855,0.20882630189186346,0.09133651582059372,-0.20062755048274994,0.25815829634666443,0.17518804967403412,0.029982388019561768,-0.0575028657913208,0.06431823968887329,0.319117070907874,-2.173479592930372,2.0265788481961886,-0.7822255492210388,-0.31372833251953125,0.5382362604141235
1727722883840,9i,9.372794062854265,0.9s : 0.3s,8.251745046752463,8.248762849765255,0.2218282329560065,0.07838799506437968,-0.24966967105865479,0.2560054063796997,0.20717760920524597,0.038091063499450684,-0.053947657346725464,0.042230308055877686,0.3187794660722975,-2.1699072718241044,2.0239521584092968,-0.7842305302619934,-0.3134077489376068,0.5354980230331421
1727722883850,9i,9.372794062854265,0.9s : 0.3s,8.252864869198865,8.249474397761968,0.23653902410936978,0.0644745102801233,-0.24798256158828735,0.24897705018520355,0.23248402774333954,0.04300194978713989,-0.04160246253013611,0.024021446704864502,0.31837866982467644,-2.1663066168945453,2.0209368022660987,-0.7862575054168701,-0.31302711367607117,0.5327412486076355
1727722883860,9i,9.372794062854265,0.9s : 0.3s,8.254066343799709,8.250213659695921,0.25216220417408514,0.050880691300453,-0.2624034583568573,0.24836324155330658,0.25115156173706055,0.039299190044403076,-0.016825079917907715,0.02759230136871338,0.3177652034474866,-2.162662012912357,2.017783039349611,-0.7883531451225281,-0.31244441866874695,0.5299791693687439
