timestamp,club,max_speed,tempo,speed,l.speed,t.spped,acc,rotation.x,rotation.y,rotation.z,userAcceleration.x,userAcceleration.y,userAcceleration.z,pitch,roll,yaw,gravity.x,gravity.y,gravity.z
1727722675645,9i,9.199264662411114,0.9s : 0.3s,0.023953080777405572,0.00017838371384671042,0.023952416537367387,0.031273397286231776,0.029582876712083817,-0.027099668979644775,-0.025757016614079475,-0.0010495781898498535,-0.02044391632080078,0.02364254742860794,-0.2816923660866922,1.4545042244387467,0.25104508695525773,0.9540981650352478,0.277981698513031,-0.1114569753408432
1727722675655,9i,9.199264662411114,0.9s : 0.3s,0.019969882108296175,0.00035610689415928337,0.019966706771502904,0.024611350027931522,0.054899416863918304,-0.023380830883979797,-0.02362249232828617,-0.008129298686981201,-0.011310338973999023,0.020290620625019073,-0.28174671429589343,1.4542252893822945,0.25060041656553145,0.9540520310401917,0.27803391218185425,-0.11172135174274445
1727722675665,9i,9.199264662411114,0.9s : 0.3s,0.020148608205938442,0.0005542451207217033,0.020140983714371202,0.023919058365199617,0.05349832773208618,-0.015408656559884548,-0.022551368921995163,-0.007783234119415283,-0.00324895977973938,0.022382736206054688,-0.28177361129302164,1.4540626650384085,0.25003974818414365,0.954026460647583,0.2780597507953644,-0.11187563091516495
1727722675675,9i,9.199264662411114,0.9s : 0.3s,0.03297146972707203,0.0007811353267331451,0.03296221539224203,0.027892502826420928,0.06055956706404686,0.002766574267297983,-0.11956450343132019,-0.009739995002746582,-0.0045518577098846436,0.025737226009368896,-0.2819862486065609,1.4540739851492341,0.24950859439330317,0.9539690613746643,0.27826398611068726,-0.11185795068740845
1727722675685,9i,9.199264662411114,0.9s : 0.3s,0.19181857130784333,0.0010357307971250271,0.19181577505590633,0.031078065937242424,0.10884108394384384,0.06897169351577759,-0.8565738201141357,-0.013586580753326416,-0.011046171188354492,0.025675535202026367,-0.28218659455556583,1.454035885761793,0.2490005781630734,0.9539093971252441,0.2784564197063446,-0.11188780516386032
1727722675695,9i,9.199264662411114,0.9s : 0.3s,0.3981277079470091,0.0013841005956742893,0.39812530201015855,0.041202204110524825,0.13668283820152283,0.074811652302742,-1.3039371967315674,0.029504001140594482,-0.0010429620742797852,0.02874104678630829,-0.2810021213054352,1.4542535473898413,0.24872947003906584,0.9542607069015503,0.2773185968399048,-0.11171844601631165
1727722675705,9i,9.199264662411114,0.9s : 0.3s,0.3782698938898698,0.001748490932655252,0.378265852811104,0.02649086903330222,0.09419715404510498,0.04780666530132294,-0.48387396335601807,-0.011135578155517578,-0.00032067298889160156,0.02403460443019867,-0.2810920894913616,1.454113664129519,0.24821786807591129,0.9542203545570374,0.2774050533771515,-0.11184903234243393
1727722675715,9i,9.199264662411114,0.9s : 0.3s,0.2705489639962258,0.0021099737629210764,0.2705407361750738,0.04370745726639849,0.03047357127070427,0.013952560722827911,-0.022906335070729256,-0.038209736347198486,-0.0006746947765350342,0.021210908889770508,-0.2815717490112096,1.454114276247945,0.2477657489618874,0.9540879726409912,0.27786585688591003,-0.11183292418718338
1727722675725,9i,9.199264662411114,0.9s : 0.3s,0.18796945552282343,0.0024896263498645848,0.1879529674418171,0.03553980882114645,0.037491265684366226,0.020195987075567245,0.016612578183412552,-0.027288854122161865,-0.004158705472946167,0.02238529920578003,-0.2817199287405791,1.4541098133836659,0.24738782727780342,0.9540466070175171,0.27800819277763367,-0.111832395195961
1727722675735,9i,9.199264662411114,0.9s : 0.3s,0.13268616300637684,0.0028965471977712093,0.132654543336012,0.027495157339365955,0.03816411271691322,0.021369153633713722,0.006680019199848175,-0.01131528615951538,-0.0023345351219177246,0.02494990825653076,-0.28174298039562423,1.4541877845690316,0.246941031971063,0.9540489912033081,0.2780303359031677,-0.11175726354122162
1727722675745,9i,9.199264662411114,0.9s : 0.3s,0.09676251148173216,0.0033356287532765854,0.09670500095172258,0.03134101168037515,0.02761932648718357,0.025974825024604797,-0.007200909778475761,-0.006986081600189209,0.010528326034545898,0.02868114411830902,-0.28177508341954144,1.4543061776953081,0.24656567813856012,0.9540534019470215,0.2780611515045166,-0.11164327710866928
1727722675755,9i,9.199264662411114,0.9s : 0.3s,0.07209404183210075,0.0037962241045613153,0.07199402440645085,0.02865254003471141,0.0066354828886687756,0.02987244911491871,-0.013652349822223186,-0.009456217288970947,0.006187796592712402,0.02632981538772583,-0.28187769000393326,1.4545441615482664,0.2463760550322073,0.9540514945983887,0.2781597375869751,-0.1114129051566124
1727722675765,9i,9.199264662411114,0.9s : 0.3s,0.05467340539205665,0.0042731384244903406,0.05450616061666162,0.02760225453557098,-0.0137249156832695,0.034554287791252136,-0.014727202244102955,-0.005364894866943359,0.008522987365722656,0.0256994366645813,-0.2820200512645451,1.454880186447542,0.24640299204778252,0.9540495276451111,0.27829647064208984,-0.11108773201704025
1727722675775,9i,9.199264662411114,0.9s : 0.3s,0.04513878000590631,0.004752931595887521,0.044887850267822146,0.021887920759892782,-0.023174211382865906,0.036329858005046844,-0.015547421760857105,-0.0048424601554870605,0.002966642379760742,0.021138370037078857,-0.282197017005826,1.4552887138570707,0.24658470069317176,0.9540458917617798,0.27846643328666687,-0.11069228500127792
1727722675785,9i,9.199264662411114,0.9s : 0.3s,0.042653632489032055,0.005231656424947627,0.0423315737430197,0.020590453999647804,-0.020691879093647003,0.04195312410593033,-0.012045898474752903,-0.0060076117515563965,0.001142054796218872,0.01966141164302826,-0.28236509182202585,1.4557595521538496,0.2468043520120477,0.9540514945983887,0.278627872467041,-0.11023771017789841
1727722675795,9i,9.199264662411114,0.9s : 0.3s,0.04077689162102082,0.005701760464658775,0.040376290293638074,0.017822143520183645,-0.021030766889452934,0.04244115203619003,-0.015065556392073631,-0.0035135746002197266,0.00585368275642395,0.016462624073028564,-0.28252743878903797,1.4562440913564332,0.24701318594208485,0.9540597796440125,0.27878376841545105,-0.10977023839950562
1727722675805,9i,9.199264662411114,0.9s : 0.3s,0.039494560698892456,0.006150411314838081,0.03901272568607341,0.013277913694997971,-0.027819430455565453,0.044020939618349075,-0.018590783700346947,-0.004094064235687256,0.007586359977722168,0.010098949074745178,-0.2827251727016572,1.4567500932615778,0.2472544577499733,0.9540603160858154,0.27897366881370544,-0.10928118973970413
1727722675815,9i,9.199264662411114,0.9s : 0.3s,0.03875768035912352,0.006575589788308629,0.03819580350975589,0.012516033994421414,-0.028340743854641914,0.047789618372917175,-0.020193105563521385,-0.006361901760101318,0.007514446973800659,0.0077272504568099976,-0.28295903238532133,1.4572930152243824,0.24752397102681262,0.9540548324584961,0.27919822931289673,-0.10875581204891205
1727722675825,9i,9.199264662411114,0.9s : 0.3s,0.05928250609423982,0.006966584616149734,0.05887174388108107,0.010395386605682396,-0.03353364020586014,0.07245182245969772,-0.14106865227222443,-0.004404783248901367,0.009225606918334961,0.001884177327156067,-0.28349701159960233,1.4579298838272179,0.24778927346708235,0.9539743065834045,0.27971476316452026,-0.10813122987747192
1727722675835,9i,9.199264662411114,0.9s : 0.3s,0.2497362452118585,0.007328998940513754,0.24962868013721393,0.009648917090476302,0.06611505895853043,0.12421634793281555,-1.0463824272155762,-0.009049475193023682,0.0023927688598632812,0.002341635525226593,-0.2841772514795837,1.4584676737976132,0.24810725188556246,0.9538430571556091,0.28036779165267944,-0.10759682953357697
1727722675845,9i,9.199264662411114,0.9s : 0.3s,0.45335609391590886,0.007829730459947988,0.4532884768131823,0.19906291580070626,0.1644594669342041,0.07408367097377777,-1.3787922859191895,-0.19759708642959595,-0.00905454158782959,-0.022348403930664062,-0.28255961936140295,1.4589219182509319,0.24849174262303372,0.9543414115905762,0.2788146734237671,-0.1072140485048294
1727722675855,9i,9.199264662411114,0.9s : 0.3s,0.417373918875655,0.008517531232115112,0.4172869993413787,0.08250968495014524,0.06521077454090118,0.023247968405485153,-0.49285459518432617,-0.07821375131607056,0.017696261405944824,-0.0194242000579834,-0.28276391748017043,1.4594646073226498,0.24867832095321252,0.9543428421020508,0.2790108621120453,-0.10668978840112686
1727722675865,9i,9.199264662411114,0.9s : 0.3s,0.3084754231155656,0.009098997648979501,0.30834119884976624,0.01783649005930914,0.007860403507947922,0.020565899088978767,-0.07866913080215454,-0.00697779655456543,0.014169275760650635,-0.008287481963634491,-0.2833064785482291,1.4599449609993442,0.24866314678621262,0.9542433023452759,0.2795318365097046,-0.10621459037065506
1727722675875,9i,9.199264662411114,0.9s : 0.3s,0.22018902009589705,0.009633642854524626,0.2199781750450322,0.042447723728548326,0.009115951135754585,0.036896802484989166,-0.015553914941847324,0.030506610870361328,0.026582151651382446,-0.012827515602111816,-0.2834735393902597,1.4602999127917078,0.24860966691500216,0.9542345404624939,0.27969223260879517,-0.10587072372436523
1727722675885,9i,9.199264662411114,0.9s : 0.3s,0.1559928066974869,0.010162953661689296,0.15566139570950108,0.03167948673194144,0.024213409051299095,0.032748397439718246,-0.0004905422683805227,-0.017164528369903564,0.01887717843055725,-0.018778204917907715,-0.2835840302229054,1.460615954881965,0.24838250385152733,0.9542372226715088,0.27979832887649536,-0.10556573420763016
1727722675895,9i,9.199264662411114,0.9s : 0.3s,0.11759607450912071,0.01063558861354629,0.11711413661380966,0.03381553336049782,0.01749691739678383,0.030121810734272003,-0.03313250467181206,0.00796288251876831,0.022644072771072388,-0.023818664252758026,-0.2837768672808897,1.4608708636597452,0.2481306639455428,0.9542104601860046,0.2799834609031677,-0.10531657189130783
1727722675905,9i,9.199264662411114,0.9s : 0.3s,0.10746014205856773,0.011089907389454381,0.10688636996989317,0.031566553044757126,0.016195164993405342,0.031343668699264526,-0.11868496239185333,-0.01740175485610962,0.008186757564544678,-0.02503204345703125,-0.28389570780502854,1.4610832244859902,0.2479009102503394,0.9541997909545898,0.2800975441932678,-0.1051102951169014
1727722675915,9i,9.199264662411114,0.9s : 0.3s,0.11855768517844065,0.01151547756529639,0.11799711221599196,0.028200792595479758,0.015983177348971367,0.03707221895456314,-0.21120430529117584,-0.009993135929107666,0.008482396602630615,-0.024969398975372314,-0.2840009817020366,1.4612860569828403,0.24772937055618022,0.9541916847229004,0.2801986038684845,-0.10491351783275604
1727722675925,9i,9.199264662411114,0.9s : 0.3s,0.14239176911808787,0.011928640472461293,0.14189123809826173,0.030213600410324108,0.014342669397592545,0.04614853858947754,-0.29120299220085144,-0.01741766929626465,0.004666417837142944,-0.02424275130033493,-0.2840977065497885,1.4614809078019073,0.24758197474442173,0.9541851282119751,0.28029143810272217,-0.10472463071346283
1727722675935,9i,9.199264662411114,0.9s : 0.3s,0.1741161460684087,0.012325834892218718,0.17367931977044704,0.03123115571125106,0.015480240806937218,0.05928470939397812,-0.36453884840011597,-0.016634821891784668,-0.0011994540691375732,-0.02640509605407715,-0.2841839854528896,1.461665430653894,0.24745171048843279,0.9541805386543274,0.2803742587566376,-0.10454593598842621
1727722675945,9i,9.199264662411114,0.9s : 0.3s,0.21226280839450776,0.01272605971869879,0.21188097420853913,0.03212553155503682,0.039231907576322556,0.07112113386392593,-0.44121310114860535,-0.02265828847885132,-0.0005890727043151855,-0.02276630699634552,-0.2842475428878559,1.4617997685636865,0.2472001591396977,0.9541769027709961,0.2804352641105652,-0.10441581904888153
1727722675955,9i,9.199264662411114,0.9s : 0.3s,0.2550974570921953,0.013129997946638107,0.25475932911048754,0.03426018759137884,0.0585334338247776,0.08579941093921661,-0.5185880064964294,-0.022636115550994873,0.003581911325454712,-0.02546638250350952,-0.28428967152569734,1.461845645681921,0.24669882557781428,0.9541698694229126,0.2804757058620453,-0.10437075048685074
1727722675965,9i,9.199264662411114,0.9s : 0.3s,0.30161058110876443,0.013558152727748018,0.301305690506133,0.03751590481896398,0.06316281110048294,0.10121352225542068,-0.5990879535675049,-0.030103683471679688,0.004318803548812866,-0.02196723222732544,-0.2843803662058724,1.4618535948626696,0.24605318823449723,0.9541453719139099,0.28056275844573975,-0.10436040163040161
1727722675975,9i,9.199264662411114,0.9s : 0.3s,0.35073526869510635,0.014019368165937759,0.3504549700358897,0.03796476620194538,0.04504585266113281,0.10972178727388382,-0.6831119656562805,-0.03401237726211548,-0.0019869208335876465,-0.016749143600463867,-0.2844320667908287,1.4618684252970344,0.24552329397168526,0.9541325569152832,0.28061237931251526,-0.1043446809053421
1727722675985,9i,9.199264662411114,0.9s : 0.3s,0.4018177611274298,0.014513094147070875,0.40155557928602914,0.0384976409294697,0.04599553719162941,0.12351802736520767,-0.7649202942848206,-0.035030484199523926,-0.012380123138427734,-0.01008296012878418,-0.28451359672479654,1.4618997508374503,0.2451325801465487,0.9541130661964417,0.28069064021110535,-0.10431230068206787
1727722675995,9i,9.199264662411114,0.9s : 0.3s,0.44801704598569136,0.01505078645594703,0.44776416484663284,0.04429958724027993,0.05341217294335365,0.13722291588783264,-0.814723014831543,-0.041840553283691406,-0.010677874088287354,-0.009889617562294006,-0.28450473696019807,1.4619212815142897,0.2447393326771334,0.9541178345680237,0.28068214654922485,-0.10429203510284424
1727722676005,9i,9.199264662411114,0.9s : 0.3s,0.4807885708939586,0.01562653582671555,0.4805345578419011,0.039714537720557,0.0587153285741806,0.1382635086774826,-0.81629878282547,-0.038934528827667236,-0.006277263164520264,-0.004684329032897949,-0.28454609668804687,1.4619658265532185,0.2443784431104338,0.954110860824585,0.28072184324264526,-0.10424826294183731
1727722676015,9i,9.199264662411114,0.9s : 0.3s,0.5051195378218002,0.01623919317898401,0.5048584317352783,0.04284319639047627,0.07374528050422668,0.13397283852100372,-0.822878360748291,-0.04140359163284302,-0.00992700457572937,-0.004768297076225281,-0.28456498388915313,1.4619892398167436,0.24396150378542672,0.9541078805923462,0.280739963054657,-0.10422533005475998
1727722676025,9i,9.199264662411114,0.9s : 0.3s,0.5232774007705737,0.016886048668592637,0.52300487523308,0.04329518952773092,0.07147253304719925,0.12279023230075836,-0.8304790258407593,-0.042043983936309814,-0.004897773265838623,-0.009098827838897705,-0.2845714341975603,1.4620019263792696,0.2435348070701714,0.9541075229644775,0.2807461619377136,-0.10421304404735565
1727722676035,9i,9.199264662411114,0.9s : 0.3s,0.536087225724158,0.017568383842578535,0.5357992772240218,0.04423249492989638,0.06895984709262848,0.10971543937921524,-0.8330969214439392,-0.04360926151275635,-0.004471540451049805,-0.005895018577575684,-0.28458838339692566,1.4619859813128124,0.2432271713795084,0.9541011452674866,0.2807624042034149,-0.10422774404287338
1727722676045,9i,9.199264662411114,0.9s : 0.3s,0.545238333441072,0.01827637493915955,0.5449319355412021,0.043376890272759844,0.07287415862083435,0.10177682340145111,-0.8346841335296631,-0.04181116819381714,-0.006573140621185303,-0.009496033191680908,-0.28461590020369876,1.4619370146863282,0.24295906957519414,0.9540883302688599,0.2807888388633728,-0.10427361726760864
1727722676055,9i,9.199264662411114,0.9s : 0.3s,0.5476616582919005,0.01902165842594794,0.5473312237336374,0.047599277081812025,0.0706138014793396,0.09295576810836792,-0.828507661819458,-0.04689347743988037,0.0008518397808074951,-0.008122026920318604,-0.28465399136374664,1.4619031012657255,0.24274829062382944,0.9540742039680481,0.2808253765106201,-0.10430482029914856
1727722676065,9i,9.199264662411114,0.9s : 0.3s,0.548614462672155,0.019800969964214127,0.5482570111193596,0.0486860527817883,0.07440454512834549,0.08428823947906494,-0.8221954107284546,-0.04765963554382324,-0.0006521642208099365,-0.009922981262207031,-0.2846789249847132,1.4618547314517691,0.2425752426187629,0.9540621638298035,0.28084930777549744,-0.10435020178556442
1727722676075,9i,9.199264662411114,0.9s : 0.3s,0.5487843202386674,0.02061164938705797,0.5483971098112765,0.05070097163181447,0.07068024575710297,0.07349520176649094,-0.8133731484413147,-0.04850125312805176,-0.001056671142578125,-0.014734327793121338,-0.284702904444483,1.461795090017382,0.24243677252917242,0.954049289226532,0.28087231516838074,-0.10440637171268463
1727722676085,9i,9.199264662411114,0.9s : 0.3s,0.5476788434463337,0.021462351789805562,0.5472581502493721,0.056511626499680855,0.06848713755607605,0.0656127855181694,-0.7953499555587769,-0.05407130718231201,-0.00366172194480896,-0.016014039516448975,-0.28473032467645265,1.4617281114042386,0.24236194874688727,0.9540346264839172,0.2808986306190491,-0.104469433426857
1727722676095,9i,9.199264662411114,0.9s : 0.3s,0.5415139186353921,0.022348054983072792,0.5410525746305358,0.055127758734361765,0.06683517247438431,0.05939509719610214,-0.7748027443885803,-0.05248671770095825,0.002986043691635132,-0.016592100262641907,-0.2847515243016429,1.4616615474381645,0.24234340448556824,0.9540218114852905,0.28091898560523987,-0.10453230142593384
1727722676105,9i,9.199264662411114,0.9s : 0.3s,0.5317122941852307,0.023270258815842732,0.5312028415232406,0.0570758324579696,0.06678564101457596,0.05043436214327812,-0.753239631652832,-0.05426657199859619,0.005672752857208252,-0.016751408576965332,-0.2847979855596241,1.4615871773378453,0.242345573877468,0.9540009498596191,0.28096356987953186,-0.10460181534290314
1727722676115,9i,9.199264662411114,0.9s : 0.3s,0.5190535279919807,0.02422933329263191,0.5184877089470072,0.05765418738402455,0.07528086006641388,0.04400557652115822,-0.7236400842666626,-0.055635809898376465,0.007613152265548706,-0.013065293431282043,-0.2848271739503811,1.4614810810149497,0.24231892570095961,0.9539818167686462,0.2809915840625763,-0.10470214486122131
1727722676125,9i,9.199264662411114,0.9s : 0.3s,0.5050061640423957,0.0252162362199658,0.504376215886231,0.056590435712819825,0.06815264374017715,0.031236521899700165,-0.6990032196044922,-0.05316811800003052,0.009360671043395996,-0.01697075366973877,-0.2848664967692868,1.4613350169780104,0.24227549389109979,0.9539554119110107,0.2810293436050415,-0.10484027117490768
1727722676135,9i,9.199264662411114,0.9s : 0.3s,0.4896391051709404,0.026226743867450334,0.4889362036285617,0.05632145316660595,0.07051180303096771,0.024096984416246414,-0.6711983680725098,-0.05330395698547363,0.0019187629222869873,-0.018086254596710205,-0.28495730433509797,1.4611258441027006,0.24225490433684158,0.9539081454277039,0.2811164855957031,-0.10503701865673065
1727722676145,9i,9.199264662411114,0.9s : 0.3s,0.4720924757076248,0.0272536196436543,0.4713051515059785,0.05522314165064548,0.06923668086528778,0.018319522961974144,-0.637330174446106,-0.05140441656112671,-0.0022603869438171387,-0.020051732659339905,-0.28506680762285425,1.460911294586651,0.2422239039674647,0.953855037689209,0.28122156858444214,-0.10523830354213715
1727722676155,9i,9.199264662411114,0.9s : 0.3s,0.45181269305270894,0.028298743070256434,0.4509255933568031,0.05504460319477915,0.06729177385568619,0.012282492592930794,-0.5974715948104858,-0.05275386571884155,-0.0014658570289611816,-0.015645742416381836,-0.2851769675011957,1.4606877456229332,0.2421916801205199,0.9538005590438843,0.2813272774219513,-0.10544811934232712
1727722676165,9i,9.199264662411114,0.9s : 0.3s,0.430128675147619,0.029334536299673555,0.4291272097692351,0.044181680711192474,0.06116383522748947,0.007488270290195942,-0.5605095624923706,-0.04141026735305786,-0.004065871238708496,-0.0148552805185318,-0.2852786938307873,1.4604636217090157,0.24217793389333594,0.9537485241889954,0.281424880027771,-0.10565874725580215
1727722676175,9i,9.199264662411114,0.9s : 0.3s,0.40685339610721216,0.030361887898881106,0.40571891955784845,0.044504314924153285,0.05002090707421303,-0.001035087974742055,-0.5210971832275391,-0.04182165861129761,-0.008175015449523926,-0.012835577130317688,-0.28541060714555283,1.460229534255674,0.24223426454419586,0.9536869525909424,0.2815514802932739,-0.10587791353464127
1727722676185,9i,9.199264662411114,0.9s : 0.3s,0.3817477631673132,0.03137254700971358,0.38045646002843786,0.03901313487242481,0.0494999922811985,-0.0037957208696752787,-0.47673216462135315,-0.03765296936035156,-0.0056518614292144775,-0.008505001664161682,-0.28554805289903845,1.45998807823749,0.24232397667646643,0.9536228179931641,0.2816833555698395,-0.10610389709472656
1727722676195,9i,9.199264662411114,0.9s : 0.3s,0.3556536279006976,0.032359253844569495,0.3541784602845726,0.034376619123520344,0.04481509327888489,-0.007496582809835672,-0.43423739075660706,-0.03272515535354614,0.004637241363525391,-0.009450510144233704,-0.28567041570594576,1.4597435280315236,0.2423838922975146,0.9535626173019409,0.2818007469177246,-0.10633328557014465
1727722676205,9i,9.199264662411114,0.9s : 0.3s,0.32875504495305125,0.03332583279239216,0.3270615667588845,0.035294779659384434,0.046778108924627304,-0.014430655166506767,-0.3903796374797821,-0.03366672992706299,0.0020083487033843994,-0.010403811931610107,-0.28580219475489266,1.4594747587821448,0.24241514201956366,0.9534969925880432,0.2819271981716156,-0.10658542811870575
1727722676215,9i,9.199264662411114,0.9s : 0.3s,0.30108112393999376,0.03426218715062404,0.29912530104393625,0.029497252207155527,0.053962383419275284,-0.017614686861634254,-0.3445912301540375,-0.02850574254989624,0.0017650723457336426,-0.00737529993057251,-0.28591259058511914,1.4591594238967442,0.2423512125571825,0.9534324407577515,0.28203311562538147,-0.10688263177871704
1727722676225,9i,9.199264662411114,0.9s : 0.3s,0.27302664303865626,0.03516704234432145,0.27075233506234164,0.02813045282751004,0.03656022250652313,-0.02180463820695877,-0.30222219228744507,-0.02624332904815674,0.0060960352420806885,-0.008090019226074219,-0.28602659143222686,1.4588490546089203,0.242293592392189,0.953367292881012,0.2821424901485443,-0.10717495530843735
1727722676235,9i,9.199264662411114,0.9s : 0.3s,0.24464410788461263,0.036036257404634106,0.24197546915942728,0.026826248578766896,0.03634823486208916,-0.02890959568321705,-0.25713515281677246,-0.023530542850494385,-0.0039033889770507812,-0.012276999652385712,-0.28615892038233515,1.4585149022506292,0.2422958465135603,0.9532942175865173,0.2822694480419159,-0.10748932510614395
1727722676245,9i,9.199264662411114,0.9s : 0.3s,0.21585326882608766,0.03686788777550227,0.21268143434225809,0.026995798004227647,0.03684118762612343,-0.028065374121069908,-0.21088163554668427,-0.020072221755981445,0.001418381929397583,-0.01799631118774414,-0.28627398906202367,1.4581560590359186,0.2422180687374399,0.9532233476638794,0.2823798358440399,-0.10782775282859802
1727722676255,9i,9.199264662411114,0.9s : 0.3s,0.18708029686985647,0.03766289431226363,0.18324994916489576,0.026050037142671536,0.03837250545620918,-0.03153174743056297,-0.16507846117019653,-0.018599987030029297,0.0023767054080963135,-0.018083035945892334,-0.2863725261257512,1.4577795065417074,0.24208294347268272,0.9531549215316772,0.2824743390083313,-0.10818353295326233
1727722676265,9i,9.199264662411114,0.9s : 0.3s,0.15923795927021475,0.03841306290462154,0.15453531722822506,0.021922560214022148,0.038026291877031326,-0.038223203271627426,-0.1225922554731369,-0.01308584213256836,0.004044592380523682,-0.01711726188659668,-0.28644717035774003,1.457356069042247,0.24187541733152193,0.9530882239341736,0.28254595398902893,-0.10858475416898727
1727722676275,9i,9.199264662411114,0.9s : 0.3s,0.13273752421981966,0.0391106535290125,0.1268448150952208,0.01672549083311922,0.03802056983113289,-0.0449056513607502,-0.08119411021471024,-0.007749199867248535,0.0042810142040252686,-0.01419030874967575,-0.28651883850179194,1.4568762392023515,0.2416287549977165,0.9530158042907715,0.28261470794677734,-0.10903974622488022
1727722676285,9i,9.199264662411114,0.9s : 0.3s,0.10864482730776547,0.03975671332119333,0.1011093578588581,0.012651551181639907,0.049013566225767136,-0.04726041853427887,-0.04133431240916252,-0.006986677646636963,0.0034742355346679688,-0.009958803653717041,-0.2865804415357137,1.45634071265555,0.24127134227192482,0.9529399871826172,0.28267377614974976,-0.10954810678958893
1727722676295,9i,9.199264662411114,0.9s : 0.3s,0.09093560422093343,0.04034953447597795,0.08149355301248137,0.013171120275256052,0.07088051736354828,-0.048119109123945236,-0.01582142896950245,-0.0028769373893737793,0.00928574800491333,-0.008886873722076416,-0.28663036064412817,1.45572651734023,0.24068312877134435,0.952858567237854,0.2827216684818268,-0.11013177037239075
1727722676305,9i,9.199264662411114,0.9s : 0.3s,0.08783917514638595,0.040891703527509295,0.07774052529418457,0.01627864791464355,0.08990667015314102,-0.05144992470741272,-0.009115057066082954,-0.00109100341796875,0.00946509838104248,-0.013199090957641602,-0.28661839710150905,1.4549999561321245,0.23983138962957548,0.952781617641449,0.2827101945877075,-0.11082444339990616
1727722676315,9i,9.199264662411114,0.9s : 0.3s,0.08489847907123582,0.041388795832328434,0.07412637403892693,0.01442027240430055,0.08466410636901855,-0.04571085795760155,-0.0036447569727897644,-0.0015528202056884766,0.0048133134841918945,-0.013504259288311005,-0.28658429020764237,1.4542643916816511,0.23890789442140825,0.9527093172073364,0.28267747163772583,-0.11152634769678116
1727722676325,9i,9.199264662411114,0.9s : 0.3s,0.07863658614331664,0.0418529344900012,0.06657360253772457,0.009320254906621096,0.06642970442771912,-0.04380510002374649,-0.0017933272756636143,-0.006497323513031006,-0.0027822554111480713,-0.006075441837310791,-0.28653314940141217,1.453595807083307,0.2381003569280947,0.9526489973068237,0.2826284170150757,-0.11216498911380768
1727722676335,9i,9.199264662411114,0.9s : 0.3s,0.06913976955357662,0.04229478738710603,0.05469422907218985,0.01490310501023754,0.032215412706136703,-0.043532971292734146,0.0008758592884987593,-0.010313928127288818,-0.008696764707565308,-0.006331801414489746,-0.286542884613183,1.4528233858210686,0.23754124722614148,0.9525593519210815,0.2826377749443054,-0.11290048062801361
1727722676345,9i,9.199264662411114,0.9s : 0.3s,0.06077528976291691,0.04270840603255971,0.0432391940249183,0.014764458567495213,0.005927614402025938,-0.03947777301073074,0.004317994695156813,-0.007347226142883301,-0.01235055923461914,-0.0033869147300720215,-0.286566074987165,1.452149818552093,0.2372964936415264,0.9524765610694885,0.28266000747680664,-0.11354129016399384
1727722676355,9i,9.199264662411114,0.9s : 0.3s,0.05621042610514198,0.04311231702693652,0.03606854756558054,0.018261951877866313,-0.012181349098682404,-0.03108224831521511,0.0036221772897988558,-0.013604164123535156,-0.009329617023468018,-0.0078347846865654,-0.28658226249344787,1.4516605802706841,0.23730136390626233,0.9524163007736206,0.28267553448677063,-0.11400671303272247
1727722676365,9i,9.199264662411114,0.9s : 0.3s,0.05394462268587845,0.043498143403980755,0.03190507541330245,0.014149791398909844,-0.019904782995581627,-0.022963067516684532,0.005260021425783634,-0.008660316467285156,-0.004872679710388184,-0.010073356330394745,-0.28661264903187494,1.4513343860449053,0.23745033602814222,0.9523705244064331,0.2827046811580658,-0.11431635916233063
1727722676375,9i,9.199264662411114,0.9s : 0.3s,0.051821867749615495,0.04387187892274505,0.02758195455087687,0.017256280355571762,-0.013397879898548126,-0.01638009026646614,-0.001092283520847559,-0.009409010410308838,0.0007579624652862549,-0.014445595443248749,-0.2867238414810338,1.4510826994165824,0.23760814340863323,0.9523105025291443,0.28281134366989136,-0.11455229669809341
1727722676385,9i,9.199264662411114,0.9s : 0.3s,0.05017559754416569,0.04423311153140998,0.023685912124381692,0.018220328065818872,-0.009774116799235344,-0.010540841147303581,-0.0017756507731974125,-0.00810176134109497,0.008634626865386963,-0.013848647475242615,-0.28686375705976686,1.450803369964526,0.23766888102489347,0.9522391557693481,0.28294554352760315,-0.11481355875730515
1727722676395,9i,9.199264662411114,0.9s : 0.3s,0.0494610081379951,0.044591334727535174,0.02140103252751449,0.018477291578787174,-0.01983007974922657,-0.006469090469181538,-0.003431304357945919,-0.012780845165252686,0.011719435453414917,-0.006380841135978699,-0.2869565509542037,1.4505851702323416,0.23775551030566994,0.9521880149841309,0.2830345332622528,-0.11501818895339966
1727722676405,9i,9.199264662411114,0.9s : 0.3s,0.048903383933175726,0.04493313231522923,0.019301672996341335,0.012715544163210505,-0.025805680081248283,-0.006684008054435253,-0.0005478998646140099,-0.009940683841705322,-0.0015706419944763184,0.007771804928779602,-0.2869880370177754,1.4505118203350695,0.23798976422118262,0.9521706700325012,0.28306472301483154,-0.11508695781230927
1727722676415,9i,9.199264662411114,0.9s : 0.3s,0.048463709463123436,0.04525527018785991,0.01734046294508421,0.02405222426832261,-0.021483369171619415,-0.0023217496927827597,-0.00042785797268152237,-0.010402977466583252,-0.005919277667999268,0.0208626389503479,-0.2869402333506017,1.4504346776495294,0.23819068575834415,0.9521753787994385,0.28301888704299927,-0.11516204476356506
1727722676425,9i,9.199264662411114,0.9s : 0.3s,0.04808713496639377,0.04555837659155126,0.015388530521741342,0.03457924375182528,-0.02452496625483036,0.003695129882544279,-0.0020284177735447884,-0.011806488037109375,-0.006046295166015625,0.03193388879299164,-0.2868499445846088,1.4504768956670155,0.23843233076241668,0.9522057175636292,0.2829322814941406,-0.11512492597103119
1727722676435,9i,9.199264662411114,0.9s : 0.3s,0.047702556071571374,0.04584025997210555,0.013198652258893271,0.0370203668665596,-0.008780092000961304,0.01125815138220787,0.00010184478014707565,-0.012825071811676025,-0.008338898420333862,0.033711835741996765,-0.28680618486960746,1.4504701161546916,0.23857792482953874,0.952217161655426,0.28289031982421875,-0.11513286828994751
1727722676445,9i,9.199264662411114,0.9s : 0.3s,0.047474142245254196,0.04610605295990736,0.011314860245749667,0.017092263938950837,0.01922144927084446,0.010794496163725853,-0.0026385479141026735,-0.008059918880462646,-0.006491214036941528,0.01360321044921875,-0.2868047257934152,1.4501631337689895,0.2384166588199235,0.9521821737289429,0.28288891911506653,-0.1154252216219902
1727722676455,9i,9.199264662411114,0.9s : 0.3s,0.04747995763918848,0.04635762903909069,0.010262387991748704,0.017083797033383686,0.04546663165092468,0.011471204459667206,-0.002244400093331933,-0.00806659460067749,-0.006470590829849243,0.013598442077636719,-0.28678321163805004,1.4501689024223265,0.2380645705704241,0.9521888494491577,0.28286829590797424,-0.11542046070098877
1727722676465,9i,9.199264662411114,0.9s : 0.3s,0.047824006535662635,0.04658623779977645,0.010810090137726984,0.018203623584142774,0.0357050858438015,0.017003212124109268,-0.004653829149901867,-0.0036995410919189453,-0.011104017496109009,0.013942241668701172,-0.28687318016094854,1.4499648923726243,0.2375447181298897,0.9521400332450867,0.2829545736312866,-0.11561165004968643
1727722676475,9i,9.199264662411114,0.9s : 0.3s,0.047820073677964425,0.046791013353792106,0.009867143248741996,0.026371654186292028,0.003436759579926729,0.019213413819670677,-0.009734373539686203,-0.003033936023712158,-0.020895034074783325,0.015800535678863525,-0.2870746508401312,1.4499771027568527,0.2372937599058889,0.9520847797393799,0.28314781188964844,-0.11559314280748367
1727722676485,9i,9.199264662411114,0.9s : 0.3s,0.04774450047567336,0.04697717693061331,0.008525384055948802,0.029178761802195554,-0.047565970569849014,0.02579701505601406,-0.016625570133328438,-0.004249274730682373,-0.024191856384277344,0.015751123428344727,-0.2872506540827831,1.4503593051114159,0.23752194738212354,0.9520794153213501,0.28331661224365234,-0.11522325873374939
1727722676495,9i,9.199264662411114,0.9s : 0.3s,0.05320636558147494,0.04715578116344479,0.02464243578169306,0.036947511893991564,-0.09109334647655487,0.03236112743616104,-0.02261951193213463,-0.00960075855255127,-0.030752480030059814,0.018089473247528076,-0.2875204403534866,1.4511149923981013,0.23831175333935448,0.952090322971344,0.2835753262042999,-0.11449462175369263
1727722676505,9i,9.199264662411114,0.9s : 0.3s,0.0637102653106958,0.04732628629320096,0.04265232152712473,0.03310929309684114,-0.11898436397314072,0.03675401210784912,-0.026255525648593903,-0.007255136966705322,-0.027527153491973877,0.016906924545764923,-0.28786452188635364,1.452136522838695,0.23947635937785244,0.9521097540855408,0.2839052677154541,-0.11351040750741959
1727722676515,9i,9.199264662411114,0.9s : 0.3s,0.07912651832253435,0.04748352079244984,0.06329550659406517,0.021672783515355242,-0.1596689373254776,0.04192072153091431,-0.025306377559900284,-0.002837538719177246,-0.01872885227203369,0.010530337691307068,-0.28825284098426085,1.4533071316082506,0.24097552687487303,0.9521326422691345,0.2842775881290436,-0.11238287389278412
1727722676525,9i,9.199264662411114,0.9s : 0.3s,0.09868934710667211,0.047625232943717254,0.08643740173904975,0.02542580922585559,-0.2042883336544037,0.04174202308058739,-0.026196938008069992,-0.0012130141258239746,-0.022868752479553223,0.011046290397644043,-0.28873527506682545,1.4544631945490656,0.24291532127436735,0.9521254301071167,0.2847400903701782,-0.1112661212682724
1727722676535,9i,9.199264662411114,0.9s : 0.3s,0.11611541471023375,0.04773871380495475,0.10584802661163877,0.025688573439497146,-0.2192228138446808,0.04811674728989601,-0.02277197875082493,0.006025731563568115,-0.02406167984008789,0.006680488586425781,-0.2891679209130486,1.4556521035834968,0.24511736834430983,0.9521346092224121,0.285154789686203,-0.11011989414691925
1727722676545,9i,9.199264662411114,0.9s : 0.3s,0.128458750058415,0.04783998311028019,0.11921823049592054,0.007878858078552315,-0.21867206692695618,0.0467233806848526,-0.018852071836590767,0.001824498176574707,-0.007230490446090698,-0.002543151378631592,-0.289517413753526,1.4568817801334546,0.24742730392344067,0.952170193195343,0.2854897677898407,-0.10893765836954117
1727722676555,9i,9.199264662411114,0.9s : 0.3s,0.12958230975237833,0.04792897278539287,0.12039264333213386,0.009895989952109796,-0.18820589780807495,0.047271594405174255,-0.021104540675878525,0.003138422966003418,0.0033987760543823242,-0.008748099207878113,-0.28971482151194894,1.4580873354838075,0.2495609516081496,0.9522446990013123,0.2856789529323578,-0.10778333246707916
1727722676565,9i,9.199264662411114,0.9s : 0.3s,0.1285225388788315,0.04801001699850469,0.11921862802290606,0.030117925265463738,-0.1539216935634613,0.048478271812200546,-0.01770341768860817,0.0031194090843200684,0.020179182291030884,-0.022139541804790497,-0.2898466226235448,1.4591824371212962,0.2513266435361911,0.9523248076438904,0.28580525517463684,-0.10673627257347107
1727722676575,9i,9.199264662411114,0.9s : 0.3s,0.12056236359737493,0.048094677607140424,0.11055399360516499,0.030489544928004195,-0.1273919641971588,0.043145157396793365,-0.012365012429654598,-0.0019428133964538574,0.017698436975479126,-0.02475082129240036,-0.28985586094546184,1.4601775947020097,0.25279661115207624,0.9524279236793518,0.285814106464386,-0.1057882159948349
1727722676585,9i,9.199264662411114,0.9s : 0.3s,0.11144230785154204,0.048185779018770754,0.10048641042266392,0.02891068382714201,-0.10783237963914871,0.0419459342956543,-0.0016670934855937958,-0.003016948699951172,0.0075228214263916016,-0.027751266956329346,-0.2897900860635605,1.4610710435598262,0.25403396093260006,0.9525407552719116,0.285751074552536,-0.1049392893910408
1727722676595,9i,9.199264662411114,0.9s : 0.3s,0.10372525337556683,0.048291320680912755,0.09179802032025955,0.03037756346451478,-0.09979136288166046,0.04130034148693085,0.010923965834081173,-0.005285799503326416,0.0046620965003967285,-0.029548630118370056,-0.28965439953591127,1.461825055154512,0.2550933571231559,0.9526580572128296,0.2856210470199585,-0.10422524064779282
1727722676605,9i,9.199264662411114,0.9s : 0.3s,0.09964060758249714,0.048405567580016275,0.08709277643217986,0.030120093640988284,-0.09978283941745758,0.030385375022888184,0.015897685661911964,-0.004333019256591797,-0.0007731914520263672,-0.029796764254570007,-0.2894029596751207,1.462542103959354,0.25617528891832364,0.952803909778595,0.2853800654411316,-0.10354986041784286
1727722676615,9i,9.199264662411114,0.9s : 0.3s,0.09763590210526865,0.048518448461742525,0.08472738364174145,0.03603112680867764,-0.09907962381839752,0.029843999072909355,0.02450638636946678,-9.21487808227539e-05,0.002637118101119995,-0.03593437373638153,-0.28902888668088383,1.4631503698020092,0.2572177465689809,0.9529728293418884,0.28502151370048523,-0.10298175364732742
1727722676625,9i,9.199264662411114,0.9s : 0.3s,0.09501174457313395,0.04860598163116989,0.08163755359208667,0.03945401290058243,-0.09479726105928421,0.02191869728267193,0.023552177473902702,0.007649660110473633,0.007465839385986328,-0.03797845542430878,-0.2888305689280195,1.4635884097499758,0.25822447126637826,0.9530739784240723,0.2848314344882965,-0.10257034748792648
1727722676635,9i,9.199264662411114,0.9s : 0.3s,0.09096311117500741,0.048686266285132264,0.0768370683319578,0.04398136165680791,-0.08395393937826157,0.02226552926003933,0.024494336917996407,0.0045945048332214355,0.011925846338272095,-0.04208354651927948,-0.2887145415136065,1.4638968251490267,0.2591180364246944,0.9531384706497192,0.28472021222114563,-0.10227992385625839
1727722676645,9i,9.199264662411114,0.9s : 0.3s,0.08747159853040007,0.04875444509001777,0.0726242702781097,0.05277188009354663,-0.07871922850608826,0.01781538687646389,0.025743624195456505,0.007186233997344971,0.019035935401916504,-0.04869150370359421,-0.28874693078052555,1.4640087835840359,0.25990687249211697,0.9531407952308655,0.2847512662410736,-0.10217224061489105
1727722676655,9i,9.199264662411114,0.9s : 0.3s,0.07837939777990932,0.04879711136071224,0.06133654635852514,0.05317558617721764,-0.04701776057481766,0.008087481372058392,0.032499466091394424,0.014261126518249512,0.020311087369918823,-0.047028958797454834,-0.2887060879677506,1.4639467445631498,0.2604793826520929,0.9531460404396057,0.2847121059894562,-0.10223261266946793
1727722676665,9i,9.199264662411114,0.9s : 0.3s,0.06675566059548486,0.048773703825374166,0.045578986788807105,0.06837590784013999,-0.006015997380018234,-0.006051506847143173,0.03271597996354103,0.021478772163391113,0.027689754962921143,-0.058712899684906006,-0.2884900832250507,1.4636449714138973,0.26068102911114066,0.9531763195991516,0.28450503945350647,-0.10252682119607925
1727722676675,9i,9.199264662411114,0.9s : 0.3s,0.0606514172252655,0.04873876031296379,0.03609885946382099,0.07434168904147061,0.03487497568130493,-0.015337861143052578,0.020026616752147675,0.019636154174804688,0.031130194664001465,-0.0645911693572998,-0.2882438407032253,1.4630803776990917,0.26042967609286705,0.953187882900238,0.28426894545555115,-0.10307248681783676
1727722676685,9i,9.199264662411114,0.9s : 0.3s,0.05778785996042963,0.04873341851190275,0.031056250239685407,0.06361528733242336,0.04274914413690567,-0.023943599313497543,0.041442424058914185,0.011239290237426758,0.030101299285888672,-0.05490441620349884,-0.2878369412055987,1.4624558225518163,0.25995496506953236,0.953238308429718,0.2838788330554962,-0.10368029028177261
1727722676695,9i,9.199264662411114,0.9s : 0.3s,0.05392692803048405,0.04874900779699004,0.023057489143747015,0.045353552285347556,0.05589703842997551,-0.029566731303930283,0.042599137872457504,0.011802732944488525,0.015653789043426514,-0.0408974215388298,-0.2874045691147131,1.4617340579703482,0.25940945102631435,0.9532850384712219,0.2834642231464386,-0.10438162088394165
1727722676705,9i,9.199264662411114,0.9s : 0.3s,0.054790825988058484,0.048796983928173866,0.024917643788433246,0.04164393047064933,0.053584080189466476,-0.03603315353393555,0.052346039563417435,0.00462031364440918,0.02521878480911255,-0.03281588852405548,-0.2869137658168454,1.4609555742513352,0.25880449971884495,0.9533417820930481,0.28299349546432495,-0.10513895004987717
1727722676715,9i,9.199264662411114,0.9s : 0.3s,0.05970805098744204,0.04886231854764761,0.03431508675301859,0.033578358663586744,0.0768839493393898,-0.04149427264928818,0.050816021859645844,0.007344365119934082,0.024281084537506104,-0.021999895572662354,-0.28639597021918617,1.46007880163874,0.25811597315047613,0.9533947110176086,0.282496839761734,-0.1059909462928772
1727722676725,9i,9.199264662411114,0.9s : 0.3s,0.06774102473018997,0.04894452494456032,0.04683246640363416,0.03638396404664935,0.0958150252699852,-0.0482051745057106,0.053395822644233704,0.0051993727684021,0.03255510330200195,-0.015392355620861053,-0.28586716785360927,1.4590553896552036,0.2571740399981766,0.9534339308738708,0.28198954463005066,-0.1069832369685173
1727722676735,9i,9.199264662411114,0.9s : 0.3s,0.07808169325971628,0.049044122970411684,0.06075709690536211,0.0404010949452884,0.1246473416686058,-0.049606483429670334,0.05138936638832092,0.0013031959533691406,0.040022581815719604,-0.0053612589836120605,-0.28532028838771756,1.457962918826542,0.2560159825642704,0.9534696936607361,0.2814648151397705,-0.10804212838411331
1727722676745,9i,9.199264662411114,0.9s : 0.3s,0.08981514430896251,0.04917231589791437,0.07515878855114336,0.04329269334119743,0.15145659446716309,-0.046076465398073196,0.04909079521894455,-0.0056882500648498535,0.042816728353500366,-0.002937495708465576,-0.28477782448103767,1.456735227212423,0.2545309226078772,0.9534878730773926,0.28094422817230225,-0.10922998189926147
1727722676755,9i,9.199264662411114,0.9s : 0.3s,0.10042220732918944,0.049331866484076656,0.08746991868101825,0.043011420602189425,0.1611655354499817,-0.052167247980833054,0.04419060796499252,-0.008251070976257324,0.042029500007629395,-0.003927245736122131,-0.2842626606375268,1.4554221769138094,0.2528525987209858,0.9534872770309448,0.280449777841568,-0.11049851030111313
1727722676765,9i,9.199264662411114,0.9s : 0.3s,0.11214429472153119,0.04953686411554577,0.10061034704337125,0.03733910121468197,0.18322663009166718,-0.05420403555035591,0.04690410569310188,-0.01670539379119873,0.032765597105026245,-0.006446234881877899,-0.2837716969514321,1.454063965067354,0.2510444071457113,0.9534728527069092,0.279978483915329,-0.11180945485830307
1727722676775,9i,9.199264662411114,0.9s : 0.3s,0.1259840299837825,0.04979182084935202,0.1157270512346212,0.034145725248321206,0.2130284607410431,-0.05254914611577988,0.05362159386277199,-0.02201402187347412,0.025023818016052246,-0.007424414157867432,-0.2831259381898621,1.4527275753716002,0.24897081456590153,0.9535019993782043,0.27935850620269775,-0.11310485005378723
1727722676785,9i,9.199264662411114,0.9s : 0.3s,0.13811380750536612,0.05008184084832912,0.12871376399154813,0.029124321502091783,0.22379721701145172,-0.0541294626891613,0.0574304461479187,-0.018699467182159424,0.02144131064414978,-0.006231069564819336,-0.28247098565691675,1.4513707434722576,0.2466997571398872,0.9535291194915771,0.27872955799102783,-0.11442026495933533
1727722676795,9i,9.199264662411114,0.9s : 0.3s,0.14435714240107797,0.050391782600494005,0.13527620932207426,0.018730279469823866,0.21293552219867706,-0.05491909384727478,0.06202087178826332,-0.01443403959274292,0.007434576749801636,-0.00933857262134552,-0.28180290477487585,1.4500923468447815,0.24447054633308654,0.9535667896270752,0.27808788418769836,-0.11566156148910522
1727722676805,9i,9.199264662411114,0.9s : 0.3s,0.14427856442578418,0.05069307418035835,0.13507966680041017,0.014035179551254332,0.17735037207603455,-0.06491073966026306,0.06435433030128479,-0.0038945674896240234,-0.007713109254837036,-0.011060133576393127,-0.2812265929123992,1.448893780792217,0.24251845274714964,0.9535863995552063,0.27753427624702454,-0.11682386696338654
1727722676815,9i,9.199264662411114,0.9s : 0.3s,0.1435258175347194,0.0509479637013777,0.13417885561329201,0.015440679847191857,0.1669071763753891,-0.06543897837400436,0.05910254642367363,0.008978843688964844,-0.012549132108688354,-0.0005605742335319519,-0.2808125686470721,1.4478347634081836,0.24083661623456104,0.9535759687423706,0.2771364748477936,-0.11784772574901581
1727722676825,9i,9.199264662411114,0.9s : 0.3s,0.14183099726488707,0.05115882875255201,0.13228305267803378,0.01236227506256584,0.15632085502147675,-0.06572899967432022,0.053289398550987244,0.012142658233642578,0.002227783203125,-0.0006470531225204468,-0.2805041978842536,1.44681637965417,0.23926062311830515,0.9535401463508606,0.2768401801586151,-0.11882932484149933
1727722676835,9i,9.199264662411114,0.9s : 0.3s,0.13938135785615482,0.051312997342871265,0.12959220355220438,0.017755320871514223,0.15247537195682526,-0.0641864463686943,0.04614909738302231,0.014991700649261475,-0.0034959018230438232,0.008847542107105255,-0.28026769954875913,1.445796905083178,0.23775414062009767,0.953483521938324,0.27661290764808655,-0.11980953812599182
1727722676845,9i,9.199264662411114,0.9s : 0.3s,0.13642084999319132,0.05141621002502892,0.12636068082883584,0.02139149051106976,0.14582332968711853,-0.06607143580913544,0.043665431439876556,0.012176334857940674,0.0037630796432495117,0.01718056946992874,-0.28000216099651315,1.444748511707319,0.23627567412903103,0.9534302353858948,0.2763577401638031,-0.12081833183765411
1727722676855,9i,9.199264662411114,0.9s : 0.3s,0.13625126237037727,0.05150165516623897,0.12614272080726338,0.014815734948307508,0.1636783629655838,-0.0743243470788002,0.04716106504201889,-0.0009866952896118164,0.00349271297454834,0.01436430960893631,-0.279680159995714,1.443600973804835,0.2347396507153525,0.9533791542053223,0.2760482430458069,-0.12192362546920776
1727722676865,9i,9.199264662411114,0.9s : 0.3s,0.1378774103878796,0.05159446877139204,0.12786004492203817,0.015859507889715,0.18711444735527039,-0.07854439318180084,0.05344186723232269,-0.007944464683532715,0.01170620322227478,0.00716758519411087,-0.27923124011659683,1.442347455723429,0.2329968829414701,0.9533483982086182,0.27561673521995544,-0.12313447892665863
1727722676875,9i,9.199264662411114,0.9s : 0.3s,0.13994665106712434,0.05170448127325132,0.1300450374338347,0.014133060584608205,0.1912471354007721,-0.07690788060426712,0.058581169694662094,-0.012790143489837646,0.005245625972747803,0.0029392242431640625,-0.27853926951036717,1.4410144745088682,0.2310994887840434,0.9533723592758179,0.2749515175819397,-0.12442982196807861
1727722676885,9i,9.199264662411114,0.9s : 0.3s,0.14327849126256093,0.05182209688551452,0.1335784276478208,0.015421029129200856,0.19862036406993866,-0.07265694439411163,0.06852807104587555,-0.012750208377838135,-0.006953626871109009,0.005185306072235107,-0.2776266721855301,1.4396851390365693,0.22917704069778588,0.9534544944763184,0.2740739583969116,-0.12572981417179108
1727722676895,9i,9.199264662411114,0.9s : 0.3s,0.14916877417517987,0.05194047657909075,0.13983386600413625,0.01992611426620552,0.21352887153625488,-0.06776822358369827,0.07120438665151596,-0.013534009456634521,-0.007618695497512817,0.01248343288898468,-0.2765571836696975,1.4385205943622585,0.22717691686996883,0.9535973072052002,0.27304527163505554,-0.12687863409519196
1727722676905,9i,9.199264662411114,0.9s : 0.3s,0.15454315703943666,0.05205760133923078,0.14551148934198188,0.009444388901059704,0.22445343434810638,-0.06459054350852966,0.06707355380058289,-0.007802605628967285,-0.0009174644947052002,0.005241572856903076,-0.27560294912926225,1.4373822910425624,0.22502895672751264,0.95371013879776,0.2721271812915802,-0.12799865007400513
1727722676915,9i,9.199264662411114,0.9s : 0.3s,0.15639118674463948,0.05215552905217558,0.14743813645283355,0.0051522281408098,0.22212930023670197,-0.06015113741159439,0.06674318760633469,0.0013408660888671875,-0.002665907144546509,0.004200056195259094,-0.27462919515673495,1.4363835541410135,0.22287481996715297,0.9538439512252808,0.2711900472640991,-0.12898653745651245
1727722676925,9i,9.199264662411114,0.9s : 0.3s,0.15631780795941563,0.05220511706257407,0.14734273934510544,0.03125822665945577,0.19652698934078217,-0.06317649036645889,0.07160265743732452,-0.0027040839195251465,-0.024295777082443237,0.01948024332523346,-0.2736866119277464,1.4355013502626195,0.220900819856494,0.9539825916290283,0.27028265595436096,-0.12986238300800323
1727722676935,9i,9.199264662411114,0.9s : 0.3s,0.15621021682029623,0.05213122824755205,0.1472547686169979,0.03503296542387348,0.19554175436496735,-0.056828178465366364,0.08075444400310516,0.009462952613830566,-0.022488713264465332,0.025139987468719482,-0.2728241511646203,1.4346240454151493,0.21902654147245923,0.9540989995002747,0.26945221424102783,-0.13073088228702545
1727722676945,9i,9.199264662411114,0.9s : 0.3s,0.15283212219332484,0.05203330749035734,0.14370174837394742,0.029651610777402127,0.1675969362258911,-0.059661515057086945,0.0697297528386116,-0.001071631908416748,-0.019665658473968506,0.022165998816490173,-0.2720160122117906,1.4337259415572279,0.2173130060192595,0.9541966915130615,0.2686738669872284,-0.13161742687225342
1727722676955,9i,9.199264662411114,0.9s : 0.3s,0.1467454257907353,0.05185271869636058,0.1372789698180326,0.041193749782671756,0.15420936048030853,-0.05085022374987602,0.07330109179019928,0.004501402378082275,-0.02702254056930542,0.030764341354370117,-0.27119453824662626,1.4328541547184894,0.21579211167705117,0.954299807548523,0.26788249611854553,-0.13247953355312347
1727722676965,9i,9.199264662411114,0.9s : 0.3s,0.14459572226298437,0.051651595645586246,0.13505567579342592,0.036455109991672084,0.15956710278987885,-0.04639475792646408,0.07136230915784836,0.0019484758377075195,-0.016518890857696533,0.03243924677371979,-0.270317739798547,1.4320603714141267,0.21431595615145432,0.9544264674186707,0.26703765988349915,-0.13326939940452576
1727722676975,9i,9.199264662411114,0.9s : 0.3s,0.1439004406525639,0.05145382713778393,0.13438690595767552,0.03153158786919257,0.17358624935150146,-0.0477416068315506,0.06507904827594757,-0.005146384239196777,-0.0045053958892822266,0.030780792236328125,-0.26944202269219697,1.4313539561199549,0.212770498605308,0.9545634388923645,0.2661936283111572,-0.1339760720729828
1727722676985,9i,9.199264662411114,0.9s : 0.3s,0.14378191165693344,0.0512644559462159,0.13433239994975413,0.029513198565529277,0.18408043682575226,-0.04768328368663788,0.06128697097301483,-0.006376862525939941,-0.004411816596984863,0.02847631275653839,-0.2686326195344522,1.4305226531294581,0.21103608906628504,0.9546647071838379,0.2654133439064026,-0.13479962944984436
1727722676995,9i,9.199264662411114,0.9s : 0.3s,0.14190095910241923,0.051093387986086355,0.13238333693592144,0.03039965960813496,0.16352882981300354,-0.042337965220212936,0.0545160174369812,-0.011251509189605713,-0.006265223026275635,0.027537062764167786,-0.26784875124235247,1.4297308897957153,0.20935686249990573,0.9547632932662964,0.26465749740600586,-0.13558465242385864
1727722677005,9i,9.199264662411114,0.9s : 0.3s,0.1346603975217485,0.050935414956325045,0.1246555500727597,0.03599309271720364,0.14319558441638947,-0.03729287162423134,0.055440399795770645,-0.012023687362670898,-0.013422578573226929,0.031157150864601135,-0.26696377673142396,1.4292181168739928,0.20794967214026455,0.9549251794815063,0.26380398869514465,-0.1361072063446045
1727722677015,9i,9.199264662411114,0.9s : 0.3s,0.12651643490984296,0.05078332650130035,0.115876926313045,0.041099866593768096,0.12694151699543,-0.03550535812973976,0.05347971245646477,-0.010977745056152344,-0.015239059925079346,0.03655761480331421,-0.2660946068279063,1.4288377863851267,0.20674784453773395,0.9550999999046326,0.26296550035476685,-0.13650277256965637
1727722677025,9i,9.199264662411114,0.9s : 0.3s,0.1214284871367524,0.050654690447140834,0.11035841528413129,0.03903119649962315,0.1244373545050621,-0.03127652406692505,0.052454929798841476,-0.016971886157989502,-0.01851382851600647,0.029876872897148132,-0.2653136433369692,1.4284501557457912,0.20560073735695183,0.9552501440048218,0.26221194863319397,-0.1369021087884903
1727722677035,9i,9.199264662411114,0.9s : 0.3s,0.12072221713148684,0.0505572637955061,0.10962580347095964,0.031218026781111095,0.14302754402160645,-0.02788356877863407,0.049899958074092865,-0.0172957181930542,-0.011399328708648682,0.023355484008789062,-0.26448742770113093,1.4281370573305416,0.20441001637162665,0.9554212689399719,0.2614145576953888,-0.13723193109035492
1727722677045,9i,9.199264662411114,0.9s : 0.3s,0.12131787469751619,0.05048707949784799,0.11031356002278331,0.020248577274651968,0.1670873463153839,-0.024336237460374832,0.04699365049600601,-0.011558294296264648,0.0017260909080505371,0.01653575897216797,-0.2637257472896363,1.4278143850530798,0.20296585355208616,0.9555737376213074,0.2606792747974396,-0.13756854832172394
1727722677055,9i,9.199264662411114,0.9s : 0.3s,0.1289139917877738,0.05045485914851336,0.11863020048437029,0.017137795638212938,0.20191124081611633,-0.026770589873194695,0.04233228787779808,-0.013306796550750732,0.00847354531288147,0.006695687770843506,-0.26305880911474944,1.427407252523368,0.20124809917847034,0.955689549446106,0.26003533601760864,-0.13798239827156067
1727722677065,9i,9.199264662411114,0.9s : 0.3s,0.1435836782037719,0.05045812045170246,0.13442563270078295,0.017276274023756637,0.25166040658950806,-0.03798462823033333,0.037898123264312744,-0.01048809289932251,0.013651162385940552,-0.0014544129371643066,-0.2623585092578582,1.426797863065577,0.19906274073315922,0.9557852149009705,0.25935906171798706,-0.13859085738658905
1727722677075,9i,9.199264662411114,0.9s : 0.3s,0.15843847310594664,0.0504933963119844,0.1501771177277839,0.022658027051657023,0.27525466680526733,-0.033593252301216125,0.03791044279932976,-0.006885826587677002,0.01845189929008484,-0.011202633380889893,-0.2616377804683868,1.426009563964734,0.19645875087015977,0.9558603167533875,0.2586629390716553,-0.13937117159366608
1727722677085,9i,9.199264662411114,0.9s : 0.3s,0.172833186337747,0.050551010377274774,0.16527524209480085,0.01616051232171338,0.2933061122894287,-0.04525390639901161,0.03864281252026558,-0.006142854690551758,0.011794805526733398,-0.009182050824165344,-0.26082090622806875,1.4252047194124347,0.19372620918845973,0.955956757068634,0.2578737735748291,-0.140171080827713
1727722677095,9i,9.199264662411114,0.9s : 0.3s,0.18686521777268955,0.050619294292183474,0.17987856086425646,0.011682578145852465,0.31210780143737793,-0.04407527670264244,0.04844364523887634,-0.002900540828704834,0.003280431032180786,-0.010830894112586975,-0.25988920921829395,1.4243323893155126,0.19074946919842128,0.9560713768005371,0.2569734752178192,-0.14103993773460388
1727722677105,9i,9.199264662411114,0.9s : 0.3s,0.1891421149941454,0.05069883857143046,0.18222065588721428,0.013844840873999932,0.28408440947532654,-0.04390909522771835,0.053504183888435364,-0.004032135009765625,0.011542081832885742,-0.00649629533290863,-0.2589034848652491,1.4234443447326746,0.18782470552040748,0.9561957120895386,0.256020724773407,-0.14192602038383484
1727722677115,9i,9.199264662411114,0.9s : 0.3s,0.18249925041526158,0.05078837312863684,0.17528981019180412,0.014811941042990863,0.22104698419570923,-0.05487745627760887,0.05578108876943588,-0.008112132549285889,-0.011051386594772339,-0.005608364939689636,-0.25801465624937225,1.4225507690692718,0.1853725626856763,0.9562931656837463,0.25516143441200256,-0.14281395077705383
1727722677125,9i,9.199264662411114,0.9s : 0.3s,0.17163676180627416,0.050857881424543595,0.1639288074145321,0.03281627080114408,0.19089947640895844,-0.057849809527397156,0.052233755588531494,-0.000589907169342041,-0.03258460760116577,-0.003847464919090271,-0.2572762083273756,1.4216799585989324,0.18342023329147358,0.956354558467865,0.2544473707675934,-0.1436745971441269
1727722677135,9i,9.199264662411114,0.9s : 0.3s,0.16846837126359807,0.05093438732446739,0.16058418447683648,0.02484273361954384,0.20152294635772705,-0.06906185299158096,0.041013289242982864,-0.004564046859741211,-0.019115567207336426,-0.015196248888969421,-0.25666552769085915,1.4206631552300535,0.1815474878603352,0.9563614130020142,0.25385671854019165,-0.14467017352581024
1727722677145,9i,9.199264662411114,0.9s : 0.3s,0.16799907927032123,0.05103773283938829,0.16005886561603172,0.031442443497955094,0.21742813289165497,-0.06452915072441101,0.048298366367816925,-0.0049797892570495605,-0.00277632474899292,-0.03092120587825775,-0.25603758773310437,1.4195002660230183,0.17947382960630798,0.9563499093055725,0.25324931740760803,-0.1458061933517456
1727722677155,9i,9.199264662411114,0.9s : 0.3s,0.16730903925140267,0.05118684425950405,0.1592866020416679,0.0339984080663414,0.21056370437145233,-0.0670488178730011,0.05521336570382118,-0.009820342063903809,-0.006735742092132568,-0.03184466063976288,-0.2553670386216884,1.4182749365938094,0.177343635708147,0.956338107585907,0.2526005506515503,-0.14700369536876678
1727722677165,9i,9.199264662411114,0.9s : 0.3s,0.16679343310646588,0.05136171255610957,0.1586884488888359,0.04113213396619223,0.2051447033882141,-0.07693393528461456,0.07431195676326752,-0.00681912899017334,-0.02582642436027527,-0.03127855062484741,-0.2545491023851466,1.4170298463577982,0.17533083748447917,0.9563582539558411,0.2518090605735779,-0.14822591841220856
1727722677175,9i,9.199264662411114,0.9s : 0.3s,0.16542506243483618,0.051576377188130365,0.15717928806848933,0.05062836089451084,0.1886695921421051,-0.07508907467126846,0.07845956832170486,-0.008305966854095459,-0.0328313410282135,-0.03763435781002045,-0.253572817177031,1.4157535714781297,0.17340304498976306,0.9564107060432434,0.2508641183376312,-0.14948426187038422
1727722677185,9i,9.199264662411114,0.9s : 0.3s,0.1518046031494769,0.0518491747464303,0.14267550811363636,0.0594812190646964,0.12833622097969055,-0.07483580708503723,0.08599524945020676,-0.013890385627746582,-0.04393622279167175,-0.03761224448680878,-0.25260780124647986,1.4146688068255797,0.1719365813905808,0.956486701965332,0.24992984533309937,-0.1505592167377472
1727722677195,9i,9.199264662411114,0.9s : 0.3s,0.13684613155165543,0.05211196113671044,0.12653539910688616,0.06979902706372645,0.08277498930692673,-0.07761193066835403,0.0978025421500206,-0.008360326290130615,-0.06389264762401581,-0.026827946305274963,-0.25147121904070546,1.4136819933887579,0.17101575713201433,0.9566178321838379,0.2488291710615158,-0.1515474021434784
1727722677205,9i,9.199264662411114,0.9s : 0.3s,0.11984393785732549,0.052361206951588905,0.10780015513775189,0.07156386915657287,0.017698785290122032,-0.07883698493242264,0.10724291205406189,-0.00035887956619262695,-0.06271803379058838,-0.034463122487068176,-0.25029014926760484,1.4128429375432683,0.17066735346023015,0.9567798376083374,0.24768507480621338,-0.15239612758159637
1727722677215,9i,9.199264662411114,0.9s : 0.3s,0.11242822529883151,0.05259749410799286,0.09936603774632695,0.08511297358452186,-0.01790221780538559,-0.09148544818162918,0.09644003212451935,-3.910064697265625e-05,-0.07695157825946808,-0.03636854887008667,-0.2492635413576155,1.4120056907509373,0.1708629175069974,0.9569024443626404,0.24669033288955688,-0.1532372534275055
1727722677225,9i,9.199264662411114,0.9s : 0.3s,0.1099267423492866,0.05286181423969824,0.09638214190820867,0.06898534143487292,-0.006009872071444988,-0.10113860666751862,0.09225966781377792,0.005427241325378418,-0.04387609660625458,-0.05295668542385101,-0.24832466123932215,1.41099349372886,0.17113508566655478,0.956974983215332,0.2457803636789322,-0.15424251556396484
1727722677235,9i,9.199264662411114,0.9s : 0.3s,0.10997460486603146,0.05317159733150151,0.09626627110601309,0.061215773269873756,0.04749050363898277,-0.11335563659667969,0.08634588867425919,0.0014676451683044434,-0.007530719041824341,-0.060733065009117126,-0.24744431846583512,1.4097640569188932,0.1710408027218043,0.956997811794281,0.24492692947387695,-0.15545356273651123
1727722677245,9i,9.199264662411114,0.9s : 0.3s,0.11668141355207762,0.05352098358785181,0.10368247964000407,0.04890460559437961,0.10536472499370575,-0.12333449721336365,0.08451443165540695,-0.0030387043952941895,0.009461075067520142,-0.047884389758110046,-0.2463966972025505,1.408275752108908,0.17037908483589773,0.9570180773735046,0.24391107261180878,-0.15691913664340973
1727722677255,9i,9.199264662411114,0.9s : 0.3s,0.13156787922946617,0.05389383245081151,0.12002317138245953,0.047560497134857375,0.18243408203125,-0.13479644060134888,0.08310079574584961,-0.002637028694152832,0.02852386236190796,-0.037966251373291016,-0.24524360707925774,1.4064899486104114,0.1690300780436223,0.9570131897926331,0.24279265105724335,-0.15867383778095245
1727722677265,9i,9.199264662411114,0.9s : 0.3s,0.1514033712896212,0.05429305849178417,0.14133380571353266,0.05511641550340613,0.24254988133907318,-0.13799196481704712,0.08484276384115219,-0.009057283401489258,0.04240137338638306,-0.034028053283691406,-0.2439307769261105,1.4045022431655934,0.16697794709940744,0.957009494304657,0.24151889979839325,-0.16062840819358826
1727722677275,9i,9.199264662411114,0.9s : 0.3s,0.1726708857352281,0.054708770176926054,0.16377480040078352,0.05870757269310815,0.28289929032325745,-0.1448434293270111,0.07895208150148392,-0.008413255214691162,0.04842424392700195,-0.032107457518577576,-0.2425203096629424,1.4024109850027051,0.16442671847082208,0.9570062756538391,0.24014994502067566,-0.1626863181591034
1727722677285,9i,9.199264662411114,0.9s : 0.3s,0.19781451445818862,0.05514508964942838,0.1899726328129539,0.05261413105329541,0.3393809497356415,-0.1506856083869934,0.07626495510339737,-0.012644827365875244,0.04023520648479462,-0.031456053256988525,-0.24110079997318293,1.4001160641465396,0.16139626467391904,0.956965446472168,0.2387717366218567,-0.16493989527225494
1727722677295,9i,9.199264662411114,0.9s : 0.3s,0.23463672014835305,0.0556017917997171,0.2279535724454378,0.044910098254754956,0.44687438011169434,-0.15847519040107727,0.06591637432575226,-0.014677047729492188,0.03012724220752716,-0.029897332191467285,-0.23955231571646884,1.3975803868726506,0.15756702197205244,0.9569072127342224,0.23726774752140045,-0.16742944717407227
1727722677305,9i,9.199264662411114,0.9s : 0.3s,0.28079663210313394,0.05609592466080779,0.27513632227845114,0.0563942527850925,0.5571790933609009,-0.15189477801322937,0.06417839974164963,-0.02058166265487671,0.03761400282382965,-0.03663186728954315,-0.23794023587081156,1.3947210719623981,0.15252636424009025,0.9567998051643372,0.23570139706134796,-0.1702316254377365
1727722677315,9i,9.199264662411114,0.9s : 0.3s,0.3271437013077824,0.056619650202945945,0.3222067915427166,0.05799712090770121,0.6242437362670898,-0.16114646196365356,0.06046019494533539,-0.019082725048065186,0.04342220723628998,-0.03337705135345459,-0.2362661205510439,1.3916468355784302,0.14662624911574404,0.9566589593887329,0.23407411575317383,-0.17324231564998627
1727722677325,9i,9.199264662411114,0.9s : 0.3s,0.37361247514372053,0.05714184768852603,0.36921686151333677,0.03320214556286758,0.6958010196685791,-0.16035151481628418,0.05762392655014992,-0.011279881000518799,0.020376354455947876,-0.02366328239440918,-0.23449820179748637,1.3885085062135012,0.1400562245856602,0.9565160274505615,0.23235495388507843,-0.17631851136684418
1727722677335,9i,9.199264662411114,0.9s : 0.3s,0.4207075858846778,0.05764172940092617,0.41674009148698904,0.022401945885431134,0.7699963450431824,-0.15665681660175323,0.06248433142900467,-0.007032513618469238,0.017875060439109802,-0.011527061462402344,-0.2325678111586961,1.3852379097041332,0.1328059232680555,0.9563732743263245,0.2304769605398178,-0.1795283555984497
1727722677345,9i,9.199264662411114,0.9s : 0.3s,0.47295443639182133,0.05810721965703176,0.4693713347941423,0.019883864007600945,0.8706204295158386,-0.14134497940540314,0.07031801342964172,-0.005847632884979248,0.018991097807884216,-0.0007151514291763306,-0.23038654081755555,1.3818797953511759,0.12464504911510119,0.956256628036499,0.22835387289524078,-0.18283294141292572
1727722677355,9i,9.199264662411114,0.9s : 0.3s,0.530654887379114,0.058551878996791235,0.5274147200877933,0.014922166999565467,0.9794642329216003,-0.1260875016450882,0.07362762093544006,-0.00996166467666626,0.010723352432250977,-0.002906203269958496,-0.2279239960234635,1.3784575905110654,0.11547825334736436,0.956174373626709,0.22595569491386414,-0.18621130287647247
1727722677365,9i,9.199264662411114,0.9s : 0.3s,0.5944301790200843,0.058970600804654036,0.5914978495063086,0.008508917588367177,1.1012022495269775,-0.0934978649020195,0.07491180300712585,-0.006014227867126465,0.004703089594841003,-0.0037565529346466064,-0.22519217045310005,1.3750342080221691,0.10508896666281273,0.9561330676078796,0.22329369187355042,-0.18960288166999817
1727722677375,9i,9.199264662411114,0.9s : 0.3s,0.6557418093542294,0.05935865362497228,0.6530496694547736,0.011741513635180393,1.1862527132034302,-0.07179678231477737,0.06423050165176392,-0.008582115173339844,-0.003425896167755127,0.0072438716888427734,-0.22224616991440554,1.3717064269971995,0.09375249768091218,0.9561375975608826,0.22042110562324524,-0.19291290640830994
1727722677385,9i,9.199264662411114,0.9s : 0.3s,0.7174152871014766,0.05969094626337047,0.7149277481683569,0.03427858076008138,1.279287576675415,-0.04837854579091072,0.08334134519100189,-0.004898190498352051,-0.02185337245464325,0.025951087474822998,-0.21908205328798527,1.3684198390751117,0.08150504793116395,0.9561768174171448,0.21733370423316956,-0.19619350135326385
1727722677395,9i,9.199264662411114,0.9s : 0.3s,0.8274202905943135,0.05983418540487961,0.8252540260696174,0.05002199429042403,1.6134549379348755,-0.06128493323922157,0.046457625925540924,-0.0008894205093383789,0.008460059762001038,0.04929336905479431,-0.21549396193383857,1.3646940141016903,0.06729339576729135,0.9561964273452759,0.21382999420166016,-0.19991299510002136
1727722677405,9i,9.199264662411114,0.9s : 0.3s,0.947554927674128,0.059993173517970365,0.9456538267731827,0.10422109877001642,1.826721429824829,-0.06441201269626617,0.05425189808011055,-0.012707650661468506,0.10337652266025543,0.0037212371826171875,-0.21144316690949427,1.360500938766409,0.05002194494562541,0.9561890363693237,0.20987114310264587,-0.20409975945949554
1727722677415,9i,9.199264662411114,0.9s : 0.3s,1.0616656910504814,0.06024275706771797,1.0599551168679624,0.072021751499112,1.9751445055007935,-0.10248611867427826,0.010144392028450966,-0.026086628437042236,0.0669403225183487,0.00506100058555603,-0.20721391924857907,1.355734907939998,0.031249266697953547,0.9560641050338745,0.2057342231273651,-0.2088422179222107
1727722677425,9i,9.199264662411114,0.9s : 0.3s,1.172792996296055,0.06051614455880247,1.1712306384349827,0.0653202516852327,2.1311793327331543,-0.08184635639190674,0.009308159351348877,-0.02174919843673706,0.06063579022884369,0.01081705093383789,-0.20261907446583874,1.3506751688892855,0.010624632663840415,0.9559074640274048,0.20123551785945892,-0.21388109028339386
1727722677435,9i,9.199264662411114,0.9s : 0.3s,1.2661356134786972,0.06093335842728215,1.2646685405867615,0.10822267360927987,2.2068963050842285,-0.11686190962791443,-0.025084668770432472,-0.021020352840423584,0.10470478236675262,-0.017527133226394653,-0.19796199635434886,1.3453905272570503,-0.011404784249724156,0.9556670188903809,0.19667154550552368,-0.2191368043422699
1727722677445,9i,9.199264662411114,0.9s : 0.3s,1.371710490287436,0.06128889271936457,1.3703405929891417,0.1250636399173133,2.406827449798584,-0.11534924060106277,-0.03913550451397896,0.009686112403869629,0.12420280277729034,-0.010988950729370117,-0.1930493483564784,1.3397320595333182,-0.0349340403412312,0.9553406238555908,0.19185248017311096,-0.22475941479206085
1727722677455,9i,9.199264662411114,0.9s : 0.3s,1.4525151934300102,0.06160861735561344,1.451208036572479,0.20673543363060326,2.440953493118286,-0.10765380412340164,-0.07243557274341583,0.050142109394073486,0.19276991486549377,-0.05536305904388428,-0.1879116204374865,1.3340110603409934,-0.059718338877382135,0.954984724521637,0.18680769205093384,-0.2304493933916092
1727722677465,9i,9.199264662411114,0.9s : 0.3s,1.4874835754447435,0.061880602367478575,1.4861958747986472,0.15750124798440537,2.3330764770507812,-0.08734693378210068,-0.11707254499197006,0.04423046112060547,0.14954009652137756,-0.02209228277206421,-0.18313153052469527,1.328597737432123,-0.08420719173064593,0.9545792937278748,0.18210962414741516,-0.23582710325717926
1727722677475,9i,9.199264662411114,0.9s : 0.3s,1.5371173928898025,0.062109520469633306,1.5358620663950835,0.2000380919364267,2.4551193714141846,-0.07852073013782501,-0.195328027009964,0.03824448585510254,0.19400013983249664,0.030274465680122375,-0.1789628869409786,1.3234494855390864,-0.10854635687991496,0.9540802240371704,0.17800912261009216,-0.24092212319374084
1727722677485,9i,9.199264662411114,0.9s : 0.3s,1.6307222581921093,0.06287896504266118,1.6295095333008445,0.3873011110893364,2.7462637424468994,-0.06070126220583916,-0.21518003940582275,0.03219187259674072,0.385787695646286,0.011562347412109375,-0.17451446387846578,1.3181862420896855,-0.1353107775619161,0.9535562992095947,0.1736299991607666,-0.24613581597805023
1727722677495,9i,9.199264662411114,0.9s : 0.3s,1.7205207932342477,0.06468809641855407,1.7193042924779631,0.4789486737606329,2.8642418384552,-0.07071194797754288,-0.23987816274166107,0.044895172119140625,0.4756617248058319,-0.033498942852020264,-0.16958967492250898,1.3127295162381514,-0.16420492734565934,0.9530143141746521,0.1687779277563095,-0.2515506148338318
1727722677505,9i,9.199264662411114,0.9s : 0.3s,1.7623616181655404,0.06734879131444081,1.7610742782436932,0.37063034748942403,2.7573277950286865,-0.016715558245778084,-0.27760156989097595,0.006007373332977295,0.3691858649253845,0.032133519649505615,-0.16480810190549752,1.3075749509196213,-0.19329208883209414,0.9524734020233154,0.16406303644180298,-0.2566666603088379
1727722677515,9i,9.199264662411114,0.9s : 0.3s,1.768955677709957,0.07067716639233342,1.7675431898126406,0.33581743898502125,2.6389963626861572,0.01762479357421398,-0.3518065810203552,-0.08281469345092773,0.30537042021751404,0.11253437399864197,-0.1607599024042038,1.3031863418915501,-0.22108203177378347,0.9519704580307007,0.1600683629512787,-0.26101768016815186
1727722677525,9i,9.199264662411114,0.9s : 0.3s,1.7797745936141132,0.07512684314847584,1.7781882806701956,0.3959790579936306,2.6557750701904297,0.037514083087444305,-0.4417404532432556,-0.14219188690185547,0.35270601511001587,0.11036008596420288,-0.15754262155636792,1.299248454647291,-0.24854375641170257,0.9514264464378357,0.15689173340797424,-0.26490119099617004
1727722677535,9i,9.199264662411114,0.9s : 0.3s,1.8011555451139825,0.08128554508813877,1.7993204155609894,0.5133358551913779,2.7093446254730225,0.055509328842163086,-0.5306108593940735,-0.1752786636352539,0.4789651334285736,0.05816778540611267,-0.15497043308462835,1.2954230919273166,-0.2765296040274848,0.9507914185523987,0.1543508917093277,-0.2686476409435272
1727722677545,9i,9.199264662411114,0.9s : 0.3s,1.8031934095599056,0.08941177525732102,1.8009752932024394,0.5920180586658069,2.627875328063965,0.10886922478675842,-0.6479744911193848,-0.22837495803833008,0.5461742877960205,0.004889547824859619,-0.1533085697688484,1.2920712613569005,-0.30475095178648015,0.950130820274353,0.1527087241411209,-0.2719031870365143
1727722677555,9i,9.199264662411114,0.9s : 0.3s,1.8209266195146543,0.09926808203307887,1.81821879914012,0.6529239301292108,2.6705992221832275,0.13434897363185883,-0.7854132056236267,-0.30988502502441406,0.5691077709197998,0.07998296618461609,-0.15289221269324413,1.2890481384638617,-0.3330420559551692,0.949365496635437,0.152297243475914,-0.274791955947876
1727722677565,9i,9.199264662411114,0.9s : 0.3s,1.843548611077206,0.11100619613293394,1.8402035501065614,0.7413160429399404,2.6817855834960938,0.13435377180576324,-0.9133493304252625,-0.31818246841430664,0.6684931516647339,0.03776636719703674,-0.15355109034227196,1.2860710885187077,-0.36200725053226307,0.9484466314315796,0.15294839441776276,-0.27758878469467163
1727722677575,9i,9.199264662411114,0.9s : 0.3s,1.8623744912574718,0.1243374507081458,1.8582192938504125,0.7802805555996436,2.649000406265259,0.14528700709342957,-1.0435564517974854,-0.3058536648750305,0.7174619436264038,0.023230165243148804,-0.15541633245901676,1.2830661536053263,-0.3912080184875418,0.9473329782485962,0.1547914296388626,-0.2803560793399811
1727722677585,9i,9.199264662411114,0.9s : 0.3s,1.8761084981389708,0.13886357690792098,1.8709623202506254,0.786211171154713,2.5885655879974365,0.13913670182228088,-1.1981651782989502,-0.32981419563293457,0.712897002696991,0.03359264135360718,-0.1586632546952385,1.2800422632118134,-0.4203044988434014,0.94599449634552,0.15799839794635773,-0.28307390213012695
1727722677595,9i,9.199264662411114,0.9s : 0.3s,1.8979458899672352,0.15462511818671024,1.891636771177085,0.8423989502505403,2.5656981468200684,0.1365193873643875,-1.3857941627502441,-0.3505539894104004,0.7657783031463623,0.018206655979156494,-0.16360039687044242,1.2768194479738115,-0.4496223310581938,0.9443191289901733,0.1628715693950653,-0.28589165210723877
1727722677605,9i,9.199264662411114,0.9s : 0.3s,1.935417509552392,0.17191983295854846,1.9277667149625466,0.9468426394175228,2.5895323753356934,0.10761451721191406,-1.5619758367538452,-0.36160504817962646,0.874940037727356,0.015254616737365723,-0.17025381889309646,1.2731853424971697,-0.47937325503205686,0.9422171711921692,0.16943250596523285,-0.2889973819255829
1727722677615,9i,9.199264662411114,0.9s : 0.3s,2.0034063417099786,0.19068001834961185,1.994311435209143,1.0040990877385934,2.6948745250701904,0.07108335942029953,-1.7770309448242188,-0.3593410849571228,0.9375215172767639,-0.011931777000427246,-0.17853776145072187,1.2687070860808303,-0.5103730772591767,0.939541220664978,0.1775907725095749,-0.29278630018234253
1727722677625,9i,9.199264662411114,0.9s : 0.3s,2.0672404562420716,0.21070804362349052,2.056473978506971,1.042337812917992,2.666368246078491,0.06747903674840927,-1.954689621925354,-0.337335467338562,0.9853149652481079,-0.0427471399307251,-0.1881409973486172,1.2636004705384796,-0.5426763954521738,0.9363649487495422,0.1870330274105072,-0.29705092310905457
1727722677635,9i,9.199264662411114,0.9s : 0.3s,2.1178130995909097,0.23123672430409656,2.105151277730882,0.9842498772814284,2.5497450828552246,0.033820584416389465,-2.1583054065704346,-0.33021557331085205,0.9270099401473999,0.018922656774520874,-0.19982066265093507,1.2580388463832408,-0.5746794705105662,0.93255615234375,0.1984935700893402,-0.30156126618385315
1727722677645,9i,9.199264662411114,0.9s : 0.3s,2.1715740806882025,0.2521687510875773,2.156883146786525,0.9948227016483497,2.505751371383667,0.004467757418751717,-2.3374667167663574,-0.32648539543151855,0.9383891820907593,0.05005234479904175,-0.21334144233097138,1.2517307772282071,-0.6068290343636523,0.9280020594596863,0.21172676980495453,-0.3065679371356964
1727722677655,9i,9.199264662411114,0.9s : 0.3s,2.2333132095024184,0.27358184217133,2.2164929206681747,1.0350205535152084,2.481083631515503,-0.04104526713490486,-2.525672435760498,-0.2593272924423218,1.0016542673110962,0.026563704013824463,-0.228509095203453,1.2444960428091603,-0.639234928531768,0.9226115345954895,0.22652561962604523,-0.3122083246707916
1727722677665,9i,9.199264662411114,0.9s : 0.3s,2.3165064644365954,0.29505480164883513,2.297638975949116,0.9982587428799076,2.5482304096221924,-0.07732604444026947,-2.720431089401245,-0.22686946392059326,0.9699316024780273,0.06544807553291321,-0.24519483586025448,1.2361054243269212,-0.6727394289868958,0.916261613368988,0.24274533987045288,-0.31865251064300537
1727722677675,9i,9.199264662411114,0.9s : 0.3s,2.391253310444634,0.3166441725118792,2.3701959544996885,1.0119784817352944,2.4708847999572754,-0.1081690862774849,-2.8959498405456543,-0.19318854808807373,0.9933524131774902,0.005442023277282715,-0.2632639186689094,1.2265646114366557,-0.7072453579029878,0.9089019894599915,0.26023340225219727,-0.3258461654186249
1727722677685,9i,9.199264662411114,0.9s : 0.3s,2.4521107794629247,0.33790500907853666,2.4287172498250813,0.9483512430008477,2.2806904315948486,-0.1612541526556015,-3.1092300415039062,-0.1362866759300232,0.9382437467575073,0.022241711616516113,-0.2833677380697959,1.2161958878846144,-0.7411414949149027,0.9003857374191284,0.2795906662940979,-0.3333684802055359
1727722677695,9i,9.199264662411114,0.9s : 0.3s,2.5360872936757564,0.3591024707572439,2.5105346396016257,0.9639342658956505,2.342921257019043,-0.21086905896663666,-3.2954061031341553,-0.07006525993347168,0.9601173996925354,0.04934275150299072,-0.3052356373043628,1.2043569648513055,-0.7757000026517951,0.8904540538787842,0.3005179166793823,-0.3417317569255829
1727722677705,9i,9.199264662411114,0.9s : 0.3s,2.635591896348231,0.3805270453196486,2.6079769576966667,1.0863912180002977,2.4242823123931885,-0.2727329730987549,-3.4667961597442627,0.04196649789810181,1.085390329360962,-0.020310699939727783,-0.32807123927482224,1.1906094395537892,-0.8120617854149403,0.8790692090988159,0.322217732667923,-0.3513019382953644
1727722677715,9i,9.199264662411114,0.9s : 0.3s,2.7256432731103284,0.4018351353197306,2.695859747144528,1.0714469490288658,2.347928047180176,-0.3572186529636383,-3.6320784091949463,0.1292690634727478,1.0629353523254395,-0.03816425800323486,-0.35185744980435896,1.1748956891766047,-0.8498105224668453,0.8661227226257324,0.3446420431137085,-0.3620128035545349
1727722677725,9i,9.199264662411114,0.9s : 0.3s,2.810446143176819,0.42302292295281035,2.778427456377783,1.00111177510602,2.2774767875671387,-0.44967615604400635,-3.791339635848999,0.18930602073669434,0.9827388525009155,-0.02474600076675415,-0.3769551826013921,1.1571947815197354,-0.888114010934962,0.8513891696929932,0.3680911362171173,-0.373691588640213
1727722677735,9i,9.199264662411114,0.9s : 0.3s,2.895889760926135,0.4440552993995808,2.861641556609069,1.0225338193245537,2.271754026412964,-0.5319536924362183,-3.9271137714385986,0.2770161032676697,0.9832988977432251,-0.044280558824539185,-0.40282794956925244,1.137257230802783,-0.9276402924916055,0.834846019744873,0.392021507024765,-0.3864598274230957
1727722677745,9i,9.199264662411114,0.9s : 0.3s,2.9763453605674206,0.4642763839454489,2.9399114178290726,1.0591838264597384,2.249164581298828,-0.6161191463470459,-4.040468215942383,0.3799722194671631,0.9878921508789062,-0.039504289627075195,-0.42908442663485413,1.1149684820832197,-0.9685613607887104,0.8164998888969421,0.4160383939743042,-0.4002998173236847
1727722677755,9i,9.199264662411114,0.9s : 0.3s,3.051791711217262,0.48379781647031506,3.0131996816395925,1.0897023421412346,2.23848557472229,-0.7095284461975098,-4.134759426116943,0.48166853189468384,0.9769527316093445,-0.0317801833152771,-0.4555066277809689,1.0900724329454725,-1.0111044273538938,0.7962549924850464,0.43991735577583313,-0.4152718782424927
1727722677765,9i,9.199264662411114,0.9s : 0.3s,3.118669009666449,0.5025558329796382,3.07791065929342,1.115657999105055,2.1214451789855957,-0.8610934615135193,-4.24990177154541,0.5981600284576416,0.9393473863601685,-0.06725949048995972,-0.48204421422823746,1.0623633061483575,-1.0548690391162623,0.7739713191986084,0.46359142661094666,-0.43133673071861267
1727722677775,9i,9.199264662411114,0.9s : 0.3s,3.171340672665085,0.5202155310141399,3.128382563464946,1.071567613676503,1.9034892320632935,-0.9766908884048462,-4.366014003753662,0.6762499809265137,0.8246093392372131,-0.10470220446586609,-0.5094617779575908,1.0319824411179808,-1.0990838730656132,0.7493175864219666,0.4877074360847473,-0.4479558765888214
1727722677785,9i,9.199264662411114,0.9s : 0.3s,3.2093121842050074,0.536855536359331,3.164090837628884,1.0859617788975933,1.7116124629974365,-1.056329607963562,-4.43158483505249,0.7414100170135498,0.7825241088867188,-0.13145413994789124,-0.5373882685688377,0.9995828672985066,-1.1433125982300933,0.7226707339286804,0.5118941068649292,-0.46444737911224365
1727722677795,9i,9.199264662411114,0.9s : 0.3s,3.2392967464749804,0.5528465941325519,3.1917713036932063,1.1330505183006518,1.4747852087020874,-1.1612426042556763,-4.512577056884766,0.8155896067619324,0.7716900706291199,-0.15202468633651733,-0.565822285311298,0.9650970484452908,-1.1877286894443204,0.6939775943756104,0.5361101031303406,-0.48060479760169983
1727722677805,9i,9.199264662411114,0.9s : 0.3s,3.2725651484813687,0.5684233207287143,3.2228213694690906,1.168676493409441,1.3169240951538086,-1.2751673460006714,-4.591846466064453,0.8836581110954285,0.7523899078369141,-0.13734087347984314,-0.5945185014077616,0.9280202302405824,-1.232871791031344,0.6630947589874268,0.5601099133491516,-0.49657028913497925
1727722677815,9i,9.199264662411114,0.9s : 0.3s,3.3100239155847855,0.5840189844784239,3.25809455779172,1.2710292570528532,1.2418131828308105,-1.3428239822387695,-4.655442714691162,0.996656596660614,0.7728591561317444,-0.15773308277130127,-0.6233445322333492,0.8880791788233918,-1.279480651689398,0.6299455761909485,0.5837539434432983,-0.5122498273849487
1727722677825,9i,9.199264662411114,0.9s : 0.3s,3.3477988048218097,0.6002118838750156,3.293554695465303,1.3562342147089892,1.2136116027832031,-1.4067481756210327,-4.691888332366943,1.0691170692443848,0.8217156529426575,-0.14540743827819824,-0.6508348484722994,0.8449670285171363,-1.3286610053441303,0.595052182674408,0.6058508157730103,-0.528069794178009
1727722677835,9i,9.199264662411114,0.9s : 0.3s,3.3883794115808126,0.6163505032952192,3.3318504008902416,1.3027086683106024,1.0830135345458984,-1.4966315031051636,-4.769245624542236,1.084999442100525,0.7029484510421753,-0.16027963161468506,-0.6778037782316345,0.7986482087470335,-1.3798708035767517,0.5580517053604126,0.6270837783813477,-0.5434557795524597
1727722677845,9i,9.199264662411114,0.9s : 0.3s,3.431416012582526,0.6327522599204243,3.3725717826272223,1.3458232063890754,1.1367367506027222,-1.545556664466858,-4.805452823638916,1.1334658861160278,0.7033868432044983,-0.17816323041915894,-0.7033840617680749,0.7487381345305315,-1.4340509237032866,0.5191525220870972,0.6468022465705872,-0.5586837530136108
1727722677855,9i,9.199264662411114,0.9s : 0.3s,3.4682511018415987,0.649594422845928,3.4068743433289304,1.400870684811639,1.0167921781539917,-1.6319708824157715,-4.837174415588379,1.195298433303833,0.6916738152503967,-0.23513329029083252,-0.7270652184640329,0.6951122640423464,-1.4913833051380654,0.47851449251174927,0.6646798253059387,-0.5737809538841248
1727722677865,9i,9.199264662411114,0.9s : 0.3s,3.485175175337474,0.6660651893957152,3.420936007332473,1.3667516074966446,0.7050566673278809,-1.7432869672775269,-4.815317153930664,1.233655571937561,0.5410839319229126,-0.23093736171722412,-0.7501594148895577,0.6388487084024289,-1.5496078391234196,0.4362204968929291,0.6817553639411926,-0.5873000025749207
1727722677875,9i,9.199264662411114,0.9s : 0.3s,3.495258302227305,0.682062516735393,3.428063786243407,1.3767045172141952,0.5183773636817932,-1.8233494758605957,-4.797163963317871,1.2864525318145752,0.46212369203567505,-0.16369760036468506,-0.772752666123307,0.5801017864558303,-1.6084893136350544,0.3924415707588196,0.6981087923049927,-0.5988603830337524
1727722677885,9i,9.199264662411114,0.9s : 0.3s,3.50360813843203,0.6980912297264297,3.4333567572663046,1.390859204545706,0.4202747344970703,-1.896235704421997,-4.774837970733643,1.2984726428985596,0.46542423963546753,-0.17843317985534668,-0.7938498731794549,0.5184665756305219,-1.6691603201422816,0.3474319279193878,0.7130576968193054,-0.6089661717414856
1727722677895,9i,9.199264662411114,0.9s : 0.3s,3.517251553245817,0.7146166322243444,3.443890468316095,1.4024478856002198,0.5021321773529053,-1.9495232105255127,-4.769013404846191,1.297613501548767,0.48858344554901123,-0.21058368682861328,-0.8122001929598356,0.45331101931433015,-1.7325160450384658,0.3012634813785553,0.7258024215698242,-0.6184263825416565
1727722677905,9i,9.199264662411114,0.9s : 0.3s,3.5398946397707323,0.7320606893996072,3.463371364395296,1.4481580124028923,0.6624011993408203,-1.978639841079712,-4.796548366546631,1.3266024589538574,0.5235917568206787,-0.2512751817703247,-0.8264079729566235,0.38442097444693124,-1.7995204807499667,0.2540859878063202,0.7355024218559265,-0.6280736327171326
1727722677915,9i,9.199264662411114,0.9s : 0.3s,3.5729352092697018,0.750468026512165,3.493231133323712,1.4517692299346328,0.9360251426696777,-2.0083301067352295,-4.830501079559326,1.3201842308044434,0.5291330218315125,-0.29114556312561035,-0.8354122073964927,0.31193785658517065,-1.870229013410943,0.20589300990104675,0.7415730953216553,-0.6384961605072021
1727722677925,9i,9.199264662411114,0.9s : 0.3s,3.611064180612679,0.7699830225352713,3.5280179508488,1.486243530767986,1.1961729526519775,-2.050602674484253,-4.840076446533203,1.3415253162384033,0.5489775538444519,-0.328410267829895,-0.8381563384953516,0.2368220801912679,-1.9436158480853492,0.15691834688186646,0.7434113025665283,-0.650166392326355
1727722677935,9i,9.199264662411114,0.9s : 0.3s,3.6450653807043434,0.7901730033023467,3.5583884350168193,1.4832375285170227,1.0533170700073242,-2.1766703128814697,-4.8419599533081055,1.3610451221466064,0.49090826511383057,-0.3264334797859192,-0.8365067494393231,0.16047059228011631,-2.0174372232460773,0.10706402361392975,0.7423069477081299,-0.6614511013031006
1727722677945,9i,9.199264662411114,0.9s : 0.3s,3.6639124843785624,0.8098913544212585,3.5732801019817617,1.412029827669639,0.8221206068992615,-2.282848358154297,-4.803782939910889,1.3792669773101807,0.25308042764663696,-0.1655328869819641,-0.8331264983148365,0.08405065964701088,-2.089905524599907,0.05646301805973053,0.740037739276886,-0.6701909899711609
1727722677955,9i,9.199264662411114,0.9s : 0.3s,3.667967933029654,0.8298328309359784,3.5728652690011433,1.4098782297375494,0.7824187278747559,-2.334812641143799,-4.721874237060547,1.3832015991210938,0.23777908086776733,-0.1340562105178833,-0.8274449206168257,0.008443994619491151,-2.160441490098359,0.005714481230825186,0.7362046241760254,-0.6767348051071167
1727722677965,9i,9.199264662411114,0.9s : 0.3s,3.669792626158191,0.8494975043169115,3.5701165119873006,1.3690478085129842,0.765824019908905,-2.3654541969299316,-4.681448936462402,1.3260818719863892,0.2839896082878113,-0.18747979402542114,-0.818325806309766,-0.06544269382872009,-2.2286362195480396,-0.04469451680779457,0.7300026416778564,-0.6819813251495361
1727722677975,9i,9.199264662411114,0.9s : 0.3s,3.6732956519701645,0.8688660581997311,3.569057679513092,1.3062993186607699,0.8035660982131958,-2.4072108268737793,-4.665962219238281,1.2653310298919678,0.26271867752075195,-0.19061529636383057,-0.8058612460068232,-0.1376380332338292,-2.2945279906312352,-0.09501232206821442,0.721427321434021,-0.6859411001205444
1727722677985,9i,9.199264662411114,0.9s : 0.3s,3.676761333828654,0.8882776684663493,3.56784762702129,1.2863501386588796,0.8980158567428589,-2.433744192123413,-4.630743503570557,1.2356723546981812,0.29017943143844604,-0.20882147550582886,-0.789546712524373,-0.2073630448926901,-2.357469309335578,-0.14497406780719757,0.7100341320037842,-0.6890820264816284
1727722677995,9i,9.199264662411114,0.9s : 0.3s,3.680199937533665,0.9078234643468373,3.5664727866344497,1.2715776889075185,0.9785916805267334,-2.4789512157440186,-4.588294506072998,1.219639778137207,0.29386258125305176,-0.207444965839386,-0.7692669563245713,-0.27385756921801885,-2.4164789765540253,-0.19429491460323334,0.6956087946891785,-0.6916486620903015
1727722678005,9i,9.199264662411114,0.9s : 0.3s,3.683450521911393,0.9271940424021484,3.5648448711133667,1.2245389424657391,1.0522757768630981,-2.512159824371338,-4.5498247146606445,1.1810860633850098,0.24834346771240234,-0.20701897144317627,-0.7458928830199464,-0.33723020744861654,-2.471614370812071,-0.24302148818969727,0.6786279082298279,-0.693112313747406
1727722678015,9i,9.199264662411114,0.9s : 0.3s,3.6825329348724005,0.9465137534691499,3.5588144839136637,1.2094809708676664,1.1640146970748901,-2.514080286026001,-4.496919631958008,1.1704987287521362,0.2534688711166382,-0.16890966892242432,-0.7193552677190701,-0.3968787686861737,-2.5223465792397164,-0.29076847434043884,0.6588998436927795,-0.6937612891197205
1727722678025,9i,9.199264662411114,0.9s : 0.3s,3.673342368803261,0.9661649014423058,3.5440047321732138,1.2113618260791812,1.1774426698684692,-2.5600404739379883,-4.419380187988281,1.159813642501831,0.3067876696586609,-0.16766369342803955,-0.6901634625908128,-0.4526044473150043,-2.5684773048955236,-0.3372274935245514,0.6366632580757141,-0.6934966444969177
1727722678035,9i,9.199264662411114,0.9s : 0.3s,3.6604646406507935,0.985511340006342,3.5253040697468423,1.1556703260992331,1.0184385776519775,-2.634219169616699,-4.361005783081055,1.1251693964004517,0.22248446941375732,-0.14166295528411865,-0.6601550654347363,-0.5057945111710742,-2.6113189301141047,-0.38270723819732666,0.6132393479347229,-0.6909939646720886
1727722678045,9i,9.199264662411114,0.9s : 0.3s,3.638851711163433,1.0040348255393057,3.497592864377056,1.1247911739135537,0.8767728805541992,-2.6713061332702637,-4.2823805809021,1.1135365962982178,0.10914534330368042,-0.11523336172103882,-0.6300917786528261,-0.5567645875133312,-2.6512295223339764,-0.4269672930240631,0.5892189145088196,-0.685944676399231
1727722678055,9i,9.199264662411114,0.9s : 0.3s,3.6133640043460944,1.0220899175330806,3.465794516179697,1.0809774970241535,0.7917211055755615,-2.7056591510772705,-4.203423023223877,1.0584378242492676,0.1388605237007141,-0.17011606693267822,-0.599874714234166,-0.605455285552245,-2.6883629729426377,-0.4697688817977905,0.5645390748977661,-0.678684651851654
1727722678065,9i,9.199264662411114,0.9s : 0.3s,3.58856390850369,1.0398507960240284,3.4346035065817238,1.0608537886735858,0.6462571024894714,-2.7327513694763184,-4.158960342407227,1.0283039808273315,0.14415138959884644,-0.21730637550354004,-0.5694303906010516,-0.6522478932456812,-2.7230559723187255,-0.5111988186836243,0.5391523838043213,-0.6693208813667297
1727722678075,9i,9.199264662411114,0.9s : 0.3s,3.5651211863740695,1.0575866735624064,3.4046438141803406,1.07498055652004,0.6266902089118958,-2.731773614883423,-4.109813213348389,1.0518889427185059,0.15872985124588013,-0.1546534299850464,-0.5387384759997462,-0.6971038749244908,-2.755642596483441,-0.5510648488998413,0.5130535364151001,-0.6581060290336609
1727722678085,9i,9.199264662411114,0.9s : 0.3s,3.5500688713549042,1.0757598295678503,3.3831538215770256,1.109311815649114,0.6215739846229553,-2.7467963695526123,-4.094830513000488,1.059363603591919,0.2816968560218811,-0.1702008843421936,-0.5069347496559825,-0.7399245183766601,-2.7857240255946056,-0.5894385576248169,0.485499769449234,-0.6456408500671387
1727722678095,9i,9.199264662411114,0.9s : 0.3s,3.5337461348856007,1.0943641674732785,3.3600191688098207,1.1270907560115397,0.5291747450828552,-2.7586371898651123,-4.0519914627075195,1.0751960277557373,0.28568312525749207,-0.18075460195541382,-0.4746797671059136,-0.7810065469725862,-2.81368661322376,-0.6261603236198425,0.45705363154411316,-0.6316843032836914
1727722678105,9i,9.199264662411114,0.9s : 0.3s,3.5122927257339316,1.1131804757942687,3.3312204099329628,1.0980584715438257,0.37025004625320435,-2.817640542984009,-3.9579997062683105,1.0673702955245972,0.1863078773021698,-0.1781640648841858,-0.44274671139261984,-0.8210892556001494,-2.840259395619342,-0.6613185405731201,0.4284229576587677,-0.615720272064209
1727722678115,9i,9.199264662411114,0.9s : 0.3s,3.4860155004454803,1.1321510875874614,3.297049891072424,1.106419798110881,0.2689872086048126,-2.827759265899658,-3.8735337257385254,1.072831153869629,0.14374491572380066,-0.22920620441436768,-0.4114690785091146,-0.8601658891561603,-2.865372145118294,-0.6946878433227539,0.39995622634887695,-0.5978659987449646
1727722678125,9i,9.199264662411114,0.9s : 0.3s,3.4652530355008464,1.151250469957426,3.2684248431730287,1.1024200270332725,0.23168803751468658,-2.846832752227783,-3.829763412475586,1.079545259475708,0.13283318281173706,-0.17963099479675293,-0.3802464345078657,-0.8980129062033798,-2.8890494664753343,-0.7262279391288757,0.37114930152893066,-0.5786545276641846
1727722678135,9i,9.199264662411114,0.9s : 0.3s,3.4500661585709986,1.1705123256103593,3.2454363950185607,1.09938569054748,0.21804292500019073,-2.8814854621887207,-3.783886671066284,1.0786497592926025,0.16082894802093506,-0.13891595602035522,-0.34864823657387456,-0.9347998620751964,-2.9109940798990426,-0.7560788989067078,0.34162768721580505,-0.5582428574562073
1727722678145,9i,9.199264662411114,0.9s : 0.3s,3.4265377707522187,1.1902603119500137,3.213166893298299,1.170808265816331,0.10090804845094681,-2.884840965270996,-3.6873557567596436,1.139277458190918,0.17889246344566345,-0.20208007097244263,-0.31726314578803205,-0.9706238285316179,-2.931495206506387,-0.784052848815918,0.3119674623012543,-0.5365979671478271
1727722678155,9i,9.199264662411114,0.9s : 0.3s,3.3988559647300494,1.2099320660833874,3.1762062691903714,1.1773241537254329,-0.023583006113767624,-2.9021708965301514,-3.587120771408081,1.1631783246994019,0.06467944383621216,-0.1700732707977295,-0.2866895130214268,-1.0057733219427945,-2.951224483953486,-0.8101050853729248,0.28277841210365295,-0.5135815739631653
1727722678165,9i,9.199264662411114,0.9s : 0.3s,3.357753673333116,1.229509800980616,3.1245504284736136,1.190394580371796,0.015953483060002327,-2.8592982292175293,-3.4506943225860596,1.1798819303512573,0.026378750801086426,-0.155634343624115,-0.25675206722543875,-1.0396852664455078,-2.9691339996076844,-0.8339803814888,0.2539404332637787,-0.4898888170719147
1727722678175,9i,9.199264662411114,0.9s : 0.3s,3.3081652078480466,1.2490744303275338,3.063293996651032,1.1850004219915375,0.01575840637087822,-2.805330991744995,-3.3311352729797363,1.1804561614990234,0.007952272891998291,-0.10337316989898682,-0.22708771530508942,-1.0721276591438558,-2.9850748042986326,-0.8556728363037109,0.22514097392559052,-0.46597808599472046
1727722678185,9i,9.199264662411114,0.9s : 0.3s,3.242749894351107,1.2681192862776596,2.9845100691880324,1.2079842043320324,-0.037765007466077805,-2.7047765254974365,-3.181952476501465,1.2040748596191406,-0.0970974862575531,0.0012839436531066895,-0.19830928770871403,-1.1030208548607583,-2.9996717123838788,-0.8750800490379333,0.1970120370388031,-0.44206464290618896
1727722678195,9i,9.199264662411114,0.9s : 0.3s,3.1522146963941498,1.2862090950185125,2.87786790107797,1.2372407488481252,0.021397117525339127,-2.584801435470581,-2.9467532634735107,1.2079936265945435,-0.21935410797595978,0.1529700756072998,-0.1708369647743396,-1.1319762325393596,-3.0123693051577485,-0.8920757174491882,0.17000718414783478,-0.41868674755096436
1727722678205,9i,9.199264662411114,0.9s : 0.3s,3.047188209794122,1.3031049813372166,2.75450057061574,1.245510026178295,0.1337745189666748,-2.4523236751556396,-2.7384862899780273,1.1854057312011719,-0.33063942193984985,0.1917968988418579,-0.14463498727671734,-1.1589778961299146,-3.022604093626248,-0.9068259596824646,0.14413124322891235,-0.3960969150066376
1727722678215,9i,9.199264662411114,0.9s : 0.3s,2.9236443018969593,1.3187367903362255,2.609335026750737,1.328762760192728,0.21783506870269775,-2.279283046722412,-2.4971630573272705,1.2106622457504272,-0.4665403664112091,0.2867882251739502,-0.11985753237365467,-1.1837575400226088,-3.030233508794531,-0.9193871021270752,0.1195707619190216,-0.37473994493484497
1727722678225,9i,9.199264662411114,0.9s : 0.3s,2.780212648111649,1.3326790223464995,2.439989547542687,1.4071985989392601,0.35345202684402466,-2.067422866821289,-2.2240707874298096,1.1810648441314697,-0.6252384781837463,0.44087478518486023,-0.09682522616234446,-1.2061948128517694,-3.0352869601267143,-0.9298898577690125,0.09667400270700455,-0.35490682721138
1727722678235,9i,9.199264662411114,0.9s : 0.3s,2.6182505712613535,1.3450601944504221,2.2463412757671968,1.5058261268559017,0.5086302757263184,-1.8269660472869873,-1.915107250213623,1.1896944046020508,-0.7567692399024963,0.528620719909668,-0.0759186728777963,-1.2259836910076485,-3.038485168653692,-0.9384278059005737,0.07584576308727264,-0.33704668283462524
1727722678245,9i,9.199264662411114,0.9s : 0.3s,2.4433511162648953,1.3559388410078206,2.0325832176812044,1.6128787953415848,0.6696444749832153,-1.5262222290039062,-1.6203773021697998,1.1724779605865479,-0.8621063232421875,0.6953029036521912,-0.05729760977995776,-1.2428031007740101,-3.037744908169714,-0.945137083530426,0.05726626515388489,-0.32161521911621094
1727722678255,9i,9.199264662411114,0.9s : 0.3s,2.2553812327353735,1.3655123302441894,1.7950266240159267,1.7502442353962362,0.7598470449447632,-1.2085590362548828,-1.264327883720398,1.1713285446166992,-0.9632004499435425,0.8738359212875366,-0.04135252675872248,-1.2563915348251085,-3.0344593326868106,-0.9501676559448242,0.04134074226021767,-0.3089861273765564
1727722678265,9i,9.199264662411114,0.9s : 0.3s,2.059806644799459,1.37427028284176,1.534335231837565,1.8899982374090578,0.7814053893089294,-0.8769816160202026,-0.8717761039733887,1.209223985671997,-1.059091329574585,0.9940806031227112,-0.028943986530246376,-1.2666395733549878,-3.02936013885689,-0.9537001848220825,0.028939945623278618,-0.29936328530311584
1727722678275,9i,9.199264662411114,0.9s : 0.3s,1.864590017256354,1.3825917769899096,1.2510539199618593,2.0544413235867167,0.7891382575035095,-0.5158965587615967,-0.4348521828651428,1.2540172338485718,-1.176275372505188,1.1245204210281372,-0.02034726612155044,-1.2734571582102492,-3.023030248990668,-0.9559214115142822,0.020345862954854965,-0.29291650652885437
1727722678285,9i,9.199264662411114,0.9s : 0.3s,1.692023118793321,1.3909842103125087,0.9633821470176641,2.1702642390511837,0.8201563954353333,-0.13915066421031952,-0.0023588163312524557,1.2817084789276123,-1.232712984085083,1.2440614700317383,-0.015901543647642853,-1.276636695690329,-3.014945306169287,-0.9569251537322998,0.0159008726477623,-0.2898990213871002
1727722678295,9i,9.199264662411114,0.9s : 0.3s,1.5617778071258115,1.3999886972397027,0.69222941748512,2.3034212514388073,0.8125335574150085,0.27018803358078003,0.45450466871261597,1.3493027687072754,-1.326174020767212,1.3139231204986572,-0.015673536756640544,-1.275881093653716,-3.0057631657697983,-0.9567092061042786,0.015672894194722176,-0.2906230390071869
1727722678305,9i,9.199264662411114,0.9s : 0.3s,1.507305190823518,1.4100422534861814,0.5326816888791405,2.4551317900922194,0.8690927028656006,0.7066063284873962,0.9689011573791504,1.405794382095337,-1.405534029006958,1.4407943487167358,-0.020022059053573623,-1.2708351175904082,-2.994787311058635,-0.9551564455032349,0.02002072148025036,-0.2954239249229431
1727722678315,9i,9.199264662411114,0.9s : 0.3s,1.5527618296380326,1.4215773670629417,0.6246495729889241,2.5343452105872464,0.8656044006347656,1.1585596799850464,1.483414649963379,1.4436259269714355,-1.4454509019851685,1.499840497970581,-0.0290883939060353,-1.2612340708126983,-2.9818989415730646,-0.952064037322998,0.02908429130911827,-0.3045128285884857
1727722678325,9i,9.199264662411114,0.9s : 0.3s,1.7072136589302653,1.4347532505002931,0.9252359631017957,2.6088126870189674,0.8859541416168213,1.621242880821228,2.013451099395752,1.4780399799346924,-1.536392331123352,1.5035957098007202,-0.04298207424129396,-1.2468475539740187,-2.9673410453870006,-0.9471102356910706,0.04296883940696716,-0.3180184066295624
1727722678335,9i,9.199264662411114,0.9s : 0.3s,1.961433539442897,1.4501466893453692,1.320718027828861,2.6687899838399254,0.9845117926597595,2.0954184532165527,2.556959390640259,1.5639852285385132,-1.5840559005737305,1.4721267223358154,-0.061542226827397364,-1.2274170228013983,-2.9502412042016872,-0.939839780330658,0.06150338798761368,-0.3360337018966675
1727722678345,9i,9.199264662411114,0.9s : 0.3s,2.2950984355375588,1.4686248027889564,1.7636944229202656,2.7358418389430907,1.1806154251098633,2.6030781269073486,3.082465648651123,1.707339882850647,-1.5893548727035522,1.4296056032180786,-0.08420536412875769,-1.2025240057697484,-2.929434875563703,-0.9296451210975647,0.08410588651895523,-0.3587285876274109
1727722678355,9i,9.199264662411114,0.9s : 0.3s,2.686457307573389,1.4909739909491386,2.2347369920703555,2.857786278082587,1.3759868144989014,3.144084930419922,3.6116514205932617,1.8909692764282227,-1.6168590784072876,1.406038522720337,-0.11039986978031859,-1.1714030667423727,-2.904117396660295,-0.9156883955001831,0.11017574369907379,-0.3864921033382416
1727722678365,9i,9.199264662411114,0.9s : 0.3s,3.127081591074781,1.5180325094769762,2.7339013474172438,3.07054347253749,1.5799860954284668,3.6926686763763428,4.206234455108643,2.1311168670654297,-1.6870731115341187,1.4284125566482544,-0.1401221556649222,-1.1335253278612416,-2.8735865862796537,-0.8970317244529724,0.13966406881809235,-0.4193183481693268
1727722678375,9i,9.199264662411114,0.9s : 0.3s,3.609364489198985,1.5510049807253934,3.2591249693216233,3.378133115831029,1.7699761390686035,4.317608833312988,4.789975166320801,2.46315860748291,-1.7775861024856567,1.4781138896942139,-0.1729631879230435,-1.087946432975263,-2.8372845631719095,-0.872460126876831,0.17210207879543304,-0.45737725496292114
1727722678385,9i,9.199264662411114,0.9s : 0.3s,4.13659111382197,1.5908960615756393,3.8184336794311364,3.7275256488614286,1.961511492729187,4.96929407119751,5.458536624908447,2.8037264347076416,-1.8804177045822144,1.5803780555725098,-0.20854030230800055,-1.0335350850896285,-2.7942011331371868,-0.8405001163482666,0.20703205466270447,-0.5006967186927795
1727722678395,9i,9.199264662411114,0.9s : 0.3s,4.7124130549975485,1.6393826626311891,4.41806080609758,4.175702489884871,2.107546329498291,5.655717372894287,6.226352691650391,3.288208246231079,-1.9846552610397339,1.6386950016021729,-0.24671788094954566,-0.9692009450365942,-2.743264366658192,-0.7994692325592041,0.24422255158424377,-0.5488207936286926
1727722678405,9i,9.199264662411114,0.9s : 0.3s,5.330972456100166,1.698200396555869,5.053254668115997,4.67495376583364,2.1416778564453125,6.42060661315918,7.010542869567871,3.8309621810913086,-2.0379984378814697,1.739391803741455,-0.28707299958235827,-0.8933391826412267,-2.684488120239516,-0.7472830414772034,0.2831462323665619,-0.6011624932289124
1727722678415,9i,9.199264662411114,0.9s : 0.3s,6.018128669556626,1.7693372313420392,5.752157720814537,5.274735529399783,2.113821268081665,7.313635349273682,7.956750869750977,4.48796272277832,-2.0740365982055664,1.8383138179779053,-0.32913852834069507,-0.8038743253941857,-2.6157932695320074,-0.6813985109329224,0.3232279121875763,-0.65667325258255
1727722678425,9i,9.199264662411114,0.9s : 0.3s,6.795208638013185,1.8556345534861984,6.536932066194132,6.066752436196313,2.143493890762329,8.365488052368164,9.011567115783691,5.369226455688477,-2.071892261505127,1.9194152355194092,-0.3714029884136522,-0.6976417237185327,-2.5343788537478034,-0.5986119508743286,0.36292311549186707,-0.7141082286834717
1727722678435,9i,9.199264662411114,0.9s : 0.3s,7.640850544504416,1.9592493831365314,7.3853868482383875,6.909582933112185,2.273092746734619,9.519266128540039,9.961702346801758,6.308170318603516,-2.076575756072998,1.9071331024169922,-0.4100700982485919,-0.5711262296333225,-2.43729320621095,-0.4957619607448578,0.3986736238002777,-0.7715435028076172
1727722678445,9i,9.199264662411114,0.9s : 0.3s,8.530621599743924,2.081457844734098,8.27278901692848,7.78063194246907,2.125216245651245,10.602289199829102,11.003425598144531,7.274314880371094,-2.164731740951538,1.7136256694793701,-0.4406154370938991,-0.42389896822552403,-2.3246441283889747,-0.3720322549343109,0.4264962077140808,-0.8244349360466003
1727722678455,9i,9.199264662411114,0.9s : 0.3s,9.420330155529813,2.2258680197982765,9.153585734433454,9.035072759643395,1.52642822265625,11.603862762451172,11.96405029296875,8.679741859436035,-2.0806965827941895,1.4018996953964233,-0.46149817038249713,-0.25712776544630306,-2.197278404745179,-0.2277001589536667,0.44529005885124207,-0.8659499883651733
1727722678465,9i,9.199264662411114,0.9s : 0.3s,10.244714341454102,2.395531354250485,9.960702860180008,10.376427205879368,0.046978909522295,12.362019538879395,12.750176429748535,10.16953182220459,-1.736994981765747,1.1107261180877686,-0.4733975453273927,-0.07456819405311055,-2.0590256609296533,-0.06630602478981018,0.4559127986431122,-0.8875511288642883
1727722678475,9i,9.199264662411114,0.9s : 0.3s,10.953003476335462,2.5920810306232416,10.6418701872979,11.711777874634329,-2.2417476177215576,12.587005615234375,13.371967315673828,11.631881713867188,-1.1842204332351685,0.6802137494087219,-0.4811685434185425,0.11832420083001996,-1.9115624349249016,0.10464446246623993,0.4628153443336487,-0.8802564740180969
1727722678485,9i,9.199264662411114,0.9s : 0.3s,11.509916087811995,2.8176689753832385,11.159700260026527,13.359525161937958,-5.142679691314697,12.193310737609863,13.590869903564453,13.35651683807373,0.05671036243438721,-0.2777668833732605,-0.48769251053492785,0.3162596383688968,-1.7532954287219662,0.2747547924518585,0.468588650226593,-0.8396037220954895
1727722678495,9i,9.199264662411114,0.9s : 0.3s,11.907536903419937,3.070759724767917,11.504775956925492,14.870134212255767,-8.720233917236328,11.150885581970215,13.147711753845215,14.63089656829834,2.211273431777954,-1.4724221229553223,-0.4966012393302919,0.5143185172202578,-1.5822593880190823,0.43251851201057434,0.47644007205963135,-0.765462338924408
1727722678505,9i,9.199264662411114,0.9s : 0.3s,12.251616229768926,3.3450997260117035,11.786110811653428,15.836354970454783,-12.100656509399414,9.073805809020996,12.972540855407715,14.904729843139648,4.933995246887207,-2.072403907775879,-0.5078942465495457,0.7074097766903845,-1.3936983497154745,0.5678349137306213,0.48633837699890137,-0.6641073226928711
1727722678515,9i,9.199264662411114,0.9s : 0.3s,12.867149843730575,3.6326047086644238,12.343732342027058,16.509086883414266,-15.139201164245605,6.200754165649414,14.622430801391602,14.34945297241211,7.887202262878418,-2.1059889793395996,-0.5094252969149194,0.8920141783001811,-1.1770951732130852,0.6795083284378052,0.48767560720443726,-0.5481247901916504
1727722678525,9i,9.199264662411114,0.9s : 0.3s,13.687541852943564,3.9247203539652955,13.11279421478322,16.76003840843194,-18.880708694458008,3.3480257987976074,14.570526123046875,13.029060363769531,10.468526840209961,-1.2459611892700195,-0.4925731313715094,1.0610762302392345,-0.9290545107713913,0.7691120505332947,0.47289469838142395,-0.42992693185806274
1727722678535,9i,9.199264662411114,0.9s : 0.3s,14.421637566864746,4.20778095863338,13.794136780319633,16.230834205079603,-18.715482711791992,1.4598556756973267,15.003032684326172,10.306438446044922,12.535138130187988,0.29600271582603455,-0.4423757305426474,1.2054946560517095,-0.6655454949784891,0.8441049456596375,0.4280877113342285,-0.3228429853916168
1727722678545,9i,9.199264662411114,0.9s : 0.3s,14.710110529714678,4.473425230226953,14.013415661643366,16.31270270872597,-15.969966888427734,0.4771053194999695,15.349719047546387,7.624244213104248,14.339510917663574,1.5341435670852661,-0.34853312024282185,1.3054906173672631,-0.4378045883066654,0.906990647315979,0.3415195047855377,-0.2464391589164734
1727722678555,9i,9.199264662411114,0.9s : 0.3s,15.232514350643239,4.7089690559393,14.486376492165261,14.338568986656853,-18.307144165039062,-0.6479955315589905,15.049847602844238,4.178149223327637,13.5191011428833,2.317656993865967,-0.24094465792459407,1.364377809114072,-0.22951777652176297,0.9504975080490112,0.2386201024055481,-0.19903521239757538
1727722678565,9i,9.199264662411114,0.9s : 0.3s,16.99624462656374,4.909638746997568,16.27168641475053,7.784092662065454,-27.989011764526367,-3.1730258464813232,14.47415828704834,2.907670736312866,6.657326698303223,2.7959883213043213,-0.13315101391676815,1.3960691192456158,0.023755702540303528,0.9760572910308838,0.13275791704654694,-0.1723007708787918
1727722678575,9i,9.199264662411114,0.9s : 0.3s,14.49730303052666,5.082655161494075,13.577128255572132,6.594722023458127,-5.931197643280029,0.2597629129886627,9.943093299865723,4.680766582489014,-2.5775108337402344,3.864870071411133,-0.06116113457570667,1.3308406211280783,0.2500138772279815,0.9695323705673218,0.06112300977110863,-0.23721525073051453
1727722678585,9i,9.199264662411114,0.9s : 0.3s,15.333116370233856,5.28642704421347,14.392989499382743,12.77924501246666,-25.632884979248047,-4.709807872772217,5.733372211456299,12.20580005645752,2.7890803813934326,-2.559019088745117,-0.001034880956951198,1.3106999187317345,0.5117904499338761,0.9663646221160889,0.001034880755469203,-0.2571735680103302
1727722678595,9i,9.199264662411114,0.9s : 0.3s,15.31129104470935,5.485110120058545,14.295076090270666,14.62379743489283,-21.786067962646484,-9.293004989624023,1.231799840927124,8.50540542602539,-4.450489044189453,11.032074928283691,-0.06422629971688262,1.2292762632995324,0.7413038595112011,0.9403039216995239,0.06418215483427048,-0.3342292010784149
1727722678605,9i,9.199264662411114,0.9s : 0.3s,13.559173752519918,5.688281414796064,12.308316188541419,10.881106477861616,-10.59615707397461,-8.09315013885498,-0.011908644810318947,7.729002952575684,5.401636123657227,5.429854393005371,-0.10113037978168368,1.161980569837805,0.8962849426792004,0.9129039645195007,0.10095808655023575,-0.39549189805984497
1727722678615,9i,9.199264662411114,0.9s : 0.3s,13.134065639763467,5.907054459858331,11.730745408450526,14.642627134867682,-13.686829566955566,-11.087364196777344,-2.9079604148864746,8.079379081726074,9.72340202331543,7.388207912445068,-0.1587800357196317,1.0744518099909683,0.9947088752678118,0.8682680726051331,0.15811370313167572,-0.4702240228652954
1727722678625,9i,9.199264662411114,0.9s : 0.3s,12.768732031178837,6.106019918742182,11.214144569960572,7.99073374662924,-10.310091018676758,-13.463797569274902,-2.8070433139801025,5.792699337005615,1.103994369506836,5.392370223999023,-0.24390639156919483,0.9745211499555306,1.090863106924771,0.8029427528381348,0.24149523675441742,-0.5449432134628296
1727722678635,9i,9.199264662411114,0.9s : 0.3s,12.628978090867438,6.28794564496316,10.952297803913048,8.44552394878868,-8.811076164245605,-14.292447090148926,-3.912691116333008,4.567028045654297,2.7607569694519043,6.545788764953613,-0.3290572652926089,0.8473403065907644,1.144379565757108,0.7093085646629333,0.32315102219581604,-0.6264621019363403
1727722678645,9i,9.199264662411114,0.9s : 0.3s,12.733634984062249,6.445476616688681,10.981861913676267,7.774478496685708,-7.9540228843688965,-15.148957252502441,-4.956061363220215,2.079028844833374,4.406352519989014,6.0584001541137695,-0.42007183280298466,0.7118116176683585,1.175115816708428,0.5964165329933167,0.4078260362148285,-0.6913502812385559
1727722678655,9i,9.199264662411114,0.9s : 0.3s,12.636851248413025,6.5846826730151085,10.785729626233566,6.983958631555389,-5.478213310241699,-14.76167106628418,-4.98276948928833,2.216965675354004,2.904283285140991,5.951964378356934,-0.5039904947313731,0.5600931898624348,1.172630187794697,0.46520891785621643,0.482923686504364,-0.7418661117553711
1727722678665,9i,9.199264662411114,0.9s : 0.3s,12.586311551541035,6.707231342616214,10.650271648605118,5.279395780578301,-4.180638790130615,-14.279562950134277,-6.153887748718262,1.9625071287155151,3.013645648956299,3.8650388717651367,-0.5734909421597493,0.3978562335825541,1.1396498353924052,0.3254567086696625,0.542567789554596,-0.7744017839431763
1727722678675,9i,9.199264662411114,0.9s : 0.3s,12.33539425784357,6.816837302826943,10.280694562296224,5.337496316435826,-2.396682024002075,-13.273297309875488,-6.870669841766357,2.1997127532958984,0.8353461623191833,4.790858745574951,-0.6246015133871603,0.2231233435764454,1.0742928861411047,0.17949874699115753,0.5847740769386292,-0.7910875082015991
1727722678685,9i,9.199264662411114,0.9s : 0.3s,12.088385912298039,6.916564363351545,9.914141988707906,5.415571335348928,-0.8204870820045471,-12.60958194732666,-6.984269618988037,1.7451635599136353,1.6554913520812988,4.85202693939209,-0.6508287197424544,0.03809879090759379,0.981464936478378,0.03030337765812874,0.6058459281921387,-0.7950046062469482
1727722678695,9i,9.199264662411114,0.9s : 0.3s,11.892661157157768,7.009562837663636,9.607362709079638,5.323925928977011,1.0583767890930176,-12.084833145141602,-7.467916488647461,1.7315648794174194,1.717887282371521,4.732307434082031,-0.6445494057016656,-0.14830399116539017,0.8777402968337082,-0.11811576038599014,0.600838303565979,-0.7905959486961365
1727722678705,9i,9.199264662411114,0.9s : 0.3s,11.866987779825855,7.094151220306912,9.513065616821644,4.487122653326697,1.3869099617004395,-12.0275239944458,-7.897942543029785,1.506535530090332,0.9862732291221619,4.109973907470703,-0.6128913515319416,-0.32377799594404216,0.7841414853686062,-0.26024338603019714,0.5752349495887756,-0.7754857540130615
1727722678715,9i,9.199264662411114,0.9s : 0.3s,11.822365864009228,7.1629255249682116,9.405361904055022,3.336622857136473,1.4395465850830078,-11.81676959991455,-7.212910175323486,0.7688078880310059,-0.8358761072158813,3.1374030113220215,-0.5697943163638117,-0.48629585541244547,0.7076746369358828,-0.39351797103881836,0.5394588708877563,-0.7443975806236267
1727722678725,9i,9.199264662411114,0.9s : 0.3s,11.680094667956512,7.220275763003432,9.181079966899938,2.671686331700514,1.4054272174835205,-11.009679794311523,-6.851851463317871,0.8505948781967163,-0.6259714365005493,2.454089641571045,-0.5212510931605897,-0.6324181283343413,0.6466576858585621,-0.5125974416732788,0.4979654848575592,-0.6994814872741699
1727722678735,9i,9.199264662411114,0.9s : 0.3s,11.453272002797032,7.273878939956226,8.846927417861846,2.7523224196768035,2.3423736095428467,-10.025270462036133,-6.586655616760254,1.25613534450531,0.26626482605934143,2.434441566467285,-0.4637922195891099,-0.758691446940145,0.6021790737041778,-0.6152966618537903,0.4473429322242737,-0.6490718126296997
1727722678745,9i,9.199264662411114,0.9s : 0.3s,11.202534339664226,7.326663339788797,8.474478151293509,2.5208939368755243,2.910111427307129,-9.122950553894043,-6.445766925811768,1.6718814373016357,0.549841046333313,1.8048250675201416,-0.39853758712751386,-0.8662346556119719,0.5738316524983378,-0.702185332775116,0.3880709409713745,-0.5969393253326416
1727722678755,9i,9.199264662411114,0.9s : 0.3s,10.961301017131976,7.378254095103438,8.106262177863965,2.2576099641188057,3.650122880935669,-8.371275901794434,-6.211709976196289,1.8318729400634766,0.3437681198120117,1.2739182710647583,-0.32834446966051817,-0.9586563109980553,0.559897560078015,-0.7746981382369995,0.3224763870239258,-0.5439225435256958
1727722678765,9i,9.199264662411114,0.9s : 0.3s,10.755152602919352,7.429048809839439,7.777052223889599,2.211246821401697,4.217804908752441,-7.839776515960693,-5.903872013092041,1.9559077024459839,0.3385433852672577,0.9743849039077759,-0.25612075801754947,-1.0394543201817905,0.560699183388526,-0.8340052366256714,0.2533297538757324,-0.49016252160072327
1727722678775,9i,9.199264662411114,0.9s : 0.3s,10.583733487638964,7.479844315409291,7.4878130021128175,2.2615309413181572,4.316507816314697,-7.310354709625244,-5.871728420257568,2.0501956939697266,0.6150177717208862,0.7300499677658081,-0.18414741111559113,-1.1130316379172158,0.5704684965898646,-0.8818760514259338,0.18310841917991638,-0.4344719648361206
1727722678785,9i,9.199264662411114,0.9s : 0.3s,10.449950652499426,7.530971009090095,7.244718372712477,2.435057375822546,4.8317551612854,-6.74204683303833,-5.830755233764648,2.2290139198303223,0.9005461931228638,0.38732147216796875,-0.11207844072723572,-1.1808826120844635,0.5877877128794241,-0.9191386103630066,0.11184394359588623,-0.37772372364997864
1727722678795,9i,9.199264662411114,0.9s : 0.3s,10.346330163227474,7.585085744722799,7.036549018639296,2.7955508488362244,5.394836902618408,-6.019439220428467,-5.870600700378418,2.5888288021087646,1.0079686641693115,0.3115592300891876,-0.03928266273426966,-1.242567418390907,0.615401867697069,-0.9458845257759094,0.03927256166934967,-0.3221183121204376
1727722678805,9i,9.199264662411114,0.9s : 0.3s,10.26526945777868,7.641319773839035,6.854632678323495,2.7547844026153396,6.022004127502441,-5.350514888763428,-5.660237789154053,2.5358684062957764,0.9133055806159973,0.5692815184593201,0.03266564020010097,-1.2993506055846578,0.6531568453021831,-0.9628702998161316,-0.03265983238816261,-0.26798146963119507
1727722678815,9i,9.199264662411114,0.9s : 0.3s,10.196651364148206,7.698670133871703,6.685968681635992,2.681322390482688,6.343987464904785,-4.819470405578613,-5.3731303215026855,2.4165737628936768,0.846555233001709,0.7956162691116333,0.10116800748963252,-1.353282870122827,0.6999948767660825,-0.9714444875717163,-0.1009955182671547,-0.214698925614357
1727722678825,9i,9.199264662411114,0.9s : 0.3s,10.143309264810375,7.756757133134458,6.536011139766799,2.6766145565513373,6.458311080932617,-4.560460090637207,-5.0482096672058105,2.3656630516052246,0.7736565470695496,0.984560489654541,0.16448821671111832,-1.4070974852068516,0.7531550027082073,-0.9733139872550964,-0.16374747455120087,-0.1607690006494522
1727722678835,9i,9.199264662411114,0.9s : 0.3s,10.120529123684586,7.81445641811176,6.431125922634369,2.540999405256101,6.813055992126465,-4.357626914978027,-4.716169357299805,2.280763864517212,0.6843712329864502,0.8868089914321899,0.22167422019839003,-1.4634157084333943,0.8135782736604921,-0.9699119329452515,-0.2198631763458252,-0.10455190390348434
1727722678845,9i,9.199264662411114,0.9s : 0.3s,10.096494944228219,7.870205363287876,6.324482405580772,2.2942454049062366,6.881224155426025,-4.123870372772217,-4.421557426452637,2.0658559799194336,0.7859383225440979,0.6148999929428101,0.27249823024835335,-1.522406176537329,0.8804110920254439,-0.9619740843772888,-0.2691383361816406,-0.04658643901348114
1727722678855,9i,9.199264662411114,0.9s : 0.3s,10.05065694999659,7.924399643061831,6.182199885441775,2.2686908092292866,6.6879730224609375,-3.822920322418213,-4.22114896774292,1.943439245223999,0.8163448572158813,0.8387985229492188,0.3174538302160409,-1.582336671721031,0.9500761806546951,-0.949970006942749,-0.3121486306190491,0.010963468812406063
1727722678865,9i,9.199264662411114,0.9s : 0.3s,9.98649298746522,7.97838372798435,6.006282983487089,2.409339767928784,6.478324890136719,-3.526921510696411,-3.9857404232025146,1.8278067111968994,0.9233618974685669,1.2694264650344849,0.35504494548546195,-1.6426231852591384,1.0219866694626103,-0.9352132081985474,-0.347632497549057,0.06728918105363846
1727722678875,9i,9.199264662411114,0.9s : 0.3s,9.925380032134298,8.028626941328609,5.835607784906613,1.9327834263576915,6.277689456939697,-3.415356159210205,-3.8661322593688965,1.4491264820098877,0.6814622282981873,1.0822631120681763,0.38791025862333567,-1.703428651120007,1.0942197400617153,-0.9175712466239929,-0.378254771232605,0.12241828441619873
1727722678885,9i,9.199264662411114,0.9s : 0.3s,9.874751229428512,8.074219687520161,5.684864842787534,1.630265863252169,6.256170749664307,-3.293849468231201,-3.671210527420044,1.1874220371246338,0.6125339269638062,0.9341294765472412,0.41467596723960004,-1.7655321894933866,1.1685171862503176,-0.8979474902153015,-0.40289339423179626,0.17710702121257782
1727722678895,9i,9.199264662411114,0.9s : 0.3s,9.814253008228606,8.116904238578526,5.516831308937244,1.6883560544857041,6.086583137512207,-2.9576611518859863,-3.5786349773406982,1.2037198543548584,0.8311520218849182,0.8430842161178589,0.43654548130892723,-1.8276204601048793,1.2436514134604015,-0.8764949440956116,-0.42281144857406616,0.23018842935562134
1727722678905,9i,9.199264662411114,0.9s : 0.3s,9.739595266217973,8.157918548926038,5.320533892272849,1.7633915385792678,5.859947204589844,-2.615974187850952,-3.4065465927124023,1.217934489250183,0.8644291162490845,0.9375220537185669,0.453159681096127,-1.887470253704996,1.3183114032143866,-0.8543631434440613,-0.43780848383903503,0.27997660636901855
1727722678915,9i,9.199264662411114,0.9s : 0.3s,9.642178016933928,8.19734872354049,5.076915482348808,1.7637631633817619,5.44001579284668,-2.3701682090759277,-3.1756999492645264,1.1333835124969482,0.6244570016860962,1.1984806060791016,0.46470240948472774,-1.9434833308789097,1.3898141556092378,-0.8325868844985962,-0.44815677404403687,0.32550618052482605
