timestamp,club,max_speed,tempo,speed,l.speed,t.spped,acc,rotation.x,rotation.y,rotation.z,userAcceleration.x,userAcceleration.y,userAcceleration.z,pitch,roll,yaw,gravity.x,gravity.y,gravity.z
1727729548410,6i,5.818641081638038,0.8s : 0.4s,0.014639807909584376,0.0002822169254144949,0.014637087457432876,0.042054015070363215,0.012931253761053085,-0.033535122871398926,0.06319840252399445,-0.039889395236968994,0.009205088019371033,0.009625107049942017,-0.23348053683746994,1.8326035893150083,2.9621033422936454,0.9397156238555908,0.23136501014232635,0.2518039643764496
1727729548420,6i,5.818641081638038,0.8s : 0.4s,0.018549740342610296,0.000742072793552147,0.018534891279620005,0.047918517849809994,0.0155724436044693,-0.02651818096637726,0.04140046238899231,-0.04156208038330078,0.02173638343811035,-0.009813636541366577,-0.23262974349551216,1.8325322865620546,2.9619017951446414,0.9399234652519226,0.23053722083568573,0.25178784132003784
1727729548430,6i,5.818641081638038,0.8s : 0.4s,0.021447098344547333,0.0013535425126142914,0.021404344186805417,0.053073357227951735,0.04544059559702873,-0.0166610237210989,0.03133291378617287,-0.04560476541519165,0.022248700261116028,-0.015555769205093384,-0.23210322037785172,1.8324553337662193,2.9615834622603177,0.9400596022605896,0.23002485930919647,0.2517467737197876
1727729548440,6i,5.818641081638038,0.8s : 0.4s,0.15625214769963808,0.002153668374740366,0.1562373046787519,0.0626077128535276,0.09712975472211838,-0.29914602637290955,0.6311179995536804,-0.0516204833984375,0.031166762113571167,-0.016842931509017944,-0.23112415254922009,1.8318476062899811,2.9606793854549207,0.9404298067092896,0.22907193005084991,0.2512335181236267
1727729548450,6i,5.818641081638038,0.8s : 0.4s,0.39095476194238604,0.0029067998351116242,0.3909439555743845,0.039158558820011846,0.09162499755620956,-0.6694279313087463,1.2275184392929077,0.00425344705581665,0.03486579656600952,-0.017311185598373413,-0.23161921357981066,1.8320034678152772,2.960202704094908,0.9402810335159302,0.22955380380153656,0.2513507604598999
1727729548460,6i,5.818641081638038,0.8s : 0.4s,0.39004537902631714,0.004037013181847171,0.39002448669840334,0.09354470078096916,0.04206863418221474,-0.39257726073265076,0.43238142132759094,-0.09249818325042725,0.013278573751449585,-0.0042867958545684814,-0.23174049907895458,1.8322778372041904,2.9596134736178263,0.9401849508285522,0.22967183589935303,0.2516014873981476
1727729548470,6i,5.818641081638038,0.8s : 0.4s,0.26725905139949974,0.0051626767861746746,0.26720918270778404,0.050311875742690595,0.05780179053544998,-0.011856282129883766,-0.04806986451148987,-0.04179883003234863,0.027073338627815247,0.007153809070587158,-0.2314574492719742,1.8317768662758194,2.9590294201312917,0.9403734803199768,0.22939634323120117,0.25114718079566956
1727729548480,6i,5.818641081638038,0.8s : 0.4s,0.19696064009208503,0.0062250809976302285,0.19686224145847978,0.031807251288089484,0.05081259086728096,-0.012646174989640713,0.040276773273944855,-0.015989184379577637,0.023361697793006897,0.014500975608825684,-0.23136729537546213,1.8312762205531798,2.958468989003099,0.9405192732810974,0.2293086051940918,0.25068172812461853
1727729548490,6i,5.818641081638038,0.8s : 0.4s,0.13886218301601047,0.007197972566110905,0.13867550274979895,0.02690925636819747,0.006378812715411186,-0.027657082304358482,-0.013159019872546196,-0.0002714395523071289,0.026224106550216675,0.006027489900588989,-0.23140510919349636,1.8309431123855973,2.9581739323804848,0.940594494342804,0.2293454110622406,0.2503662407398224
1727729548500,6i,5.818641081638038,0.8s : 0.4s,0.09931688651672423,0.008091269277655194,0.0989867430964993,0.022379653724280357,-0.01429703738540411,-0.027571018785238266,-0.004020748194307089,-0.007061779499053955,0.01635602116584778,0.01354476809501648,-0.23143193023197942,1.8306746109395111,2.9582182056751427,0.9406554698944092,0.22937151789665222,0.25011202692985535
1727729548510,6i,5.818641081638038,0.8s : 0.4s,0.06579824364150061,0.008937598342531336,0.06518840542745202,0.03210963640485013,-0.043057315051555634,-0.02332833595573902,-0.040232013911008835,-0.008634090423583984,0.02863045036792755,0.011695235967636108,-0.23161350096163108,1.8305110364788546,2.9586102934817124,0.9406561255455017,0.22954823076725006,0.2499474585056305
1727729548520,6i,5.818641081638038,0.8s : 0.4s,0.05096086038540257,0.009706722356188515,0.05002788054995297,0.03772650354438916,-0.04738721624016762,-0.021886810660362244,-0.040600430220365524,0.013109743595123291,0.03501486778259277,0.005038127303123474,-0.23187362392472355,1.830402115139041,2.959155401390929,0.9406255483627319,0.22980140149593353,0.24982964992523193
1727729548530,6i,5.818641081638038,0.8s : 0.4s,0.04561309366663021,0.010394511631935738,0.04441293101985427,0.036694616874209426,-0.0467832088470459,-0.020460689440369606,-0.052464015781879425,0.019195199012756348,0.03002992272377014,-0.008731722831726074,-0.23221378580294608,1.8303329273791993,2.9597484328949024,0.9405674338340759,0.23013244569301605,0.24974454939365387
1727729548540,6i,5.818641081638038,0.8s : 0.4s,0.041194166294122744,0.010994564474486287,0.03969986005874835,0.03789822388358903,-0.03936324268579483,-0.01884046569466591,-0.0529739074409008,0.02594965696334839,0.02616654336452484,-0.008843228220939636,-0.23260873766944218,1.8302653671044518,2.9603242077945966,0.9404961466789246,0.23051679134368896,0.24965761601924896
1727729548550,6i,5.818641081638038,0.8s : 0.4s,0.037433931171303884,0.011502974710683782,0.035622756431013106,0.0468590604676567,-0.02059328369796276,-0.01932436227798462,-0.05523413419723511,0.03577995300292969,0.030258208513259888,-8.560717105865479e-05,-0.23306116466168736,1.8301812372523831,2.96078156804944,0.9404162764549255,0.2309570014476776,0.2495517134666443
1727729548560,6i,5.818641081638038,0.8s : 0.4s,0.03389241531953949,0.011799754078707042,0.03177202574394953,0.05945613344460695,0.023655936121940613,-0.020087534561753273,-0.051208168268203735,0.04635262489318848,0.037202998995780945,-0.0015501081943511963,-0.23357659577131626,1.830018712602606,2.960894148903881,0.9403416514396667,0.23145847022533417,0.2493683248758316
1727729548570,6i,5.818641081638038,0.8s : 0.4s,0.031039899443712587,0.01181050701096726,0.02870517865507341,0.06877304416762242,0.03462789207696915,-0.018651824444532394,-0.04402748495340347,0.05999767780303955,0.032481953501701355,0.00865638256072998,-0.2341318820103471,1.8297796185997632,2.960703202218617,0.9402770400047302,0.23199863731861115,0.24911057949066162
1727729548580,6i,5.818641081638038,0.8s : 0.4s,0.02906434987268931,0.011515181377078621,0.026685895738668333,0.08182787662315005,0.013099431991577148,-0.018451109528541565,-0.029777245596051216,0.07477593421936035,0.015845760703086853,0.029210835695266724,-0.2345440070629272,1.8295613931681278,2.9605621565443436,0.940238893032074,0.23239950835704803,0.24888090789318085
1727729548590,6i,5.818641081638038,0.8s : 0.4s,0.1690614425174935,0.011238348684922614,0.1686874946904241,0.05610746513225132,0.03785937651991844,-0.37602201104164124,0.6864567399024963,0.04896742105484009,0.0008745193481445312,0.027376532554626465,-0.23399737104022614,1.8288650819222214,2.960293306408227,0.9405345916748047,0.23186779022216797,0.24825851619243622
1727729548600,6i,5.818641081638038,0.8s : 0.4s,0.4842450290130503,0.011597631899335928,0.48410612788744717,0.12802767186652697,0.060775209218263626,-1.0001633167266846,1.517065167427063,-0.12663984298706055,-0.016589179635047913,0.008845001459121704,-0.23472688797951322,1.8289675196700286,2.960625304151242,0.9403454661369324,0.2325773686170578,0.24831163883209229
1727729548610,6i,5.818641081638038,0.8s : 0.4s,0.5030444223445373,0.011855993520144598,0.5029046890511158,0.05500895542063445,0.024129580706357956,-0.6474913358688354,0.5334364175796509,0.04070764780044556,0.03684619069099426,0.00335124135017395,-0.23435130500322443,1.8294474853582159,2.960610329981572,0.940310537815094,0.23221206665039062,0.24878525733947754
1727729548620,6i,5.818641081638038,0.8s : 0.4s,0.36072709482354176,0.011896201571481711,0.36053088262727667,0.09154511448224432,-0.009342758916318417,-0.0875142514705658,-0.018766004592180252,0.08093231916427612,0.0420612096786499,0.00783085823059082,-0.23397838495446474,1.8290576636549964,2.9607633089536267,0.9404910206794739,0.2318493276834488,0.24844077229499817
1727729548630,6i,5.818641081638038,0.8s : 0.4s,0.2567532709148307,0.011947198379821583,0.25647515781521146,0.0730349559621437,-0.05345669016242027,-0.015052828937768936,0.014234288595616817,0.05774718523025513,0.04055626690387726,-0.018829673528671265,-0.23362749737434904,1.8287309832302798,2.9610074375307955,0.9406507611274719,0.23150798678398132,0.24815425276756287
1727729548640,6i,5.818641081638038,0.8s : 0.4s,0.1821805006698849,0.012041544378254627,0.18178211142275924,0.0410556304461246,-0.09975787252187729,-0.01827205903828144,-0.011257222853600979,0.03818398714065552,0.011751726269721985,-0.009457528591156006,-0.23354480512810813,1.8287385624679553,2.961862585868063,0.9406671524047852,0.23142753541469574,0.24816620349884033
1727729548650,6i,5.818641081638038,0.8s : 0.4s,0.13338185866581737,0.012217735191797391,0.1328211096472665,0.05127867604902068,-0.09169941395521164,-0.014130044728517532,0.000405558617785573,0.031501054763793945,0.028776079416275024,-0.02844509482383728,-0.2332514928982903,1.8287586396904278,2.962812142460008,0.9407280683517456,0.23114217817783356,0.24820247292518616
1727729548660,6i,5.818641081638038,0.8s : 0.4s,0.10426821326525307,0.01251216673408504,0.10351476214118811,0.0623912883916834,-0.06023696810007095,-0.02048971690237522,0.02962406352162361,0.02032703161239624,0.04377657175064087,-0.0395360141992569,-0.23314051128611965,1.8287168346649139,2.9635820590018827,0.9407630562782288,0.23103420436382294,0.24816963076591492
1727729548670,6i,5.818641081638038,0.8s : 0.4s,0.08977390935375691,0.012904480353886003,0.08884159604291637,0.06177372492943482,-0.029835917055606842,-0.027813144028186798,0.07614842057228088,0.024400651454925537,0.03995874524116516,-0.04029764235019684,-0.23300259309784682,1.8285933186879502,2.963932543321385,0.940824568271637,0.23090001940727234,0.24806156754493713
1727729548680,6i,5.818641081638038,0.8s : 0.4s,0.08825918437073108,0.013349824003877471,0.0872437151023052,0.041272979164450434,-0.017330244183540344,-0.029860051348805428,0.11511186510324478,0.018663108348846436,0.021371886134147644,-0.029973149299621582,-0.23294156626845594,1.8284008710239068,2.964033413635381,0.9408859014511108,0.23084063827991486,0.2478840947151184
1727729548690,6i,5.818641081638038,0.8s : 0.4s,0.09507195900721366,0.013820219316304633,0.09406210144111472,0.027009197826986818,-0.027927229180932045,-0.045907456427812576,0.16393880546092987,0.013395071029663086,0.011892318725585938,-0.020214885473251343,-0.23282011813972503,1.8281255541018122,2.964075530431178,0.9409813284873962,0.23072247207164764,0.2476322054862976
1727729548700,6i,5.818641081638038,0.8s : 0.4s,0.11080220406630312,0.014207294568308451,0.10988758440788474,0.008010300659550497,-0.061153627932071686,-0.055204376578330994,0.2065020352602005,3.3915042877197266e-05,-0.0009202659130096436,-0.00795719027519226,-0.2327210879487293,1.8278060537365364,2.964303008026988,0.9410825371742249,0.23062610626220703,0.24733737111091614
1727729548710,6i,5.818641081638038,0.8s : 0.4s,0.13387706388345516,0.014563468293633296,0.13308258197568557,0.010597589180798584,-0.10028931498527527,-0.06465700268745422,0.25471192598342896,-0.009731590747833252,-0.0038743019104003906,-0.0016108453273773193,-0.23260499898696013,1.8275407626640996,2.9649357223949875,0.9411740303039551,0.23051314055919647,0.24709449708461761
1727729548720,6i,5.818641081638038,0.8s : 0.4s,0.16212864714688657,0.0149220832487541,0.1614404833280578,0.01657343621546013,-0.11354106664657593,-0.07923775911331177,0.3104473054409027,-0.009984374046325684,0.008853599429130554,-0.009828776121139526,-0.23252444723471408,1.8272694751942797,2.965791906476156,0.94125896692276,0.23043476045131683,0.2468438595533371
1727729548730,6i,5.818641081638038,0.8s : 0.4s,0.19490139822804714,0.015300653271281975,0.1942998843044427,0.026098579334126286,-0.12283176928758621,-0.09476052969694138,0.37316396832466125,-0.010776996612548828,0.01812562346458435,-0.015377059578895569,-0.23248283693368468,1.8270012351110259,2.966775337041954,0.9413342475891113,0.23039427399635315,0.24659375846385956
1727729548740,6i,5.818641081638038,0.8s : 0.4s,0.2297080430352849,0.015705533125825594,0.22917050696879365,0.03136481541197578,-0.1137583777308464,-0.10998369008302689,0.4357471764087677,-0.010901391506195068,0.02268943190574646,-0.018710985779762268,-0.2325440790108295,1.8266887342923819,2.9677438218225984,0.9413976073265076,0.23045386373996735,0.2462960034608841
1727729548750,6i,5.818641081638038,0.8s : 0.4s,0.2658296462673157,0.016142426643210344,0.2653390715606632,0.030071336529064265,-0.10412146151065826,-0.12859758734703064,0.4955572485923767,-0.0043863654136657715,0.028912708163261414,-0.007007166743278503,-0.23276596595193533,1.8263618214989605,2.9686192698559193,0.9414284825325012,0.2306697815656662,0.2459752857685089
1727729548760,6i,5.818641081638038,0.8s : 0.4s,0.29391041146988583,0.016602159488958657,0.2934411325474,0.03086493757572321,-0.0962865799665451,-0.14754344522953033,0.506213366985321,0.007611632347106934,0.02913007140159607,0.006793111562728882,-0.23302875296469266,1.8260795952583293,2.9694316222183055,0.9414392113685608,0.23092547059059143,0.24569426476955414
1727729548770,6i,5.818641081638038,0.8s : 0.4s,0.3155466092845334,0.01704947805590031,0.3150856676032526,0.014016786862595313,-0.07172398269176483,-0.1658758521080017,0.5159860849380493,0.0015761256217956543,0.01385660469532013,0.0014073550701141357,-0.23334181321975606,1.8258228473722415,2.9701173451860274,0.9414321780204773,0.23123005032539368,0.24543428421020508
1727729548780,6i,5.818641081638038,0.8s : 0.4s,0.3338863998195265,0.01745150416609005,0.33343001212666157,0.00973371697659024,-0.08102666586637497,-0.175948366522789,0.5268703103065491,-0.009618401527404785,-0.0013611167669296265,0.0006155967712402344,-0.23366036748781427,1.8256786522272772,2.970732688189006,0.9413964152336121,0.23153996467590332,0.24527999758720398
1727729548790,6i,5.818641081638038,0.8s : 0.4s,0.3469154266939532,0.017798040527719276,0.3464585733267706,0.029685906619712415,-0.06053470820188522,-0.18526224792003632,0.5279656648635864,-0.021738946437835693,-0.004606276750564575,0.019683837890625,-0.2339689682118303,1.8256871691088221,2.971352953683956,0.9413251876831055,0.23184016346931458,0.2452699989080429
1727729548800,6i,5.818641081638038,0.8s : 0.4s,0.3578334763890531,0.018063172067143758,0.3573772777325775,0.039181781070350745,-0.03880064934492111,-0.1989109367132187,0.5352824330329895,-0.030772805213928223,-0.009130850434303284,0.022469401359558105,-0.23433795936653182,1.8257821877000597,2.9717791605864172,0.9412190318107605,0.23219908773899078,0.2453378438949585
1727729548810,6i,5.818641081638038,0.8s : 0.4s,0.3700834067261135,0.018161797719243974,0.36963749409064445,0.04385856038064478,-0.034606438130140305,-0.22156751155853271,0.5511577725410461,-0.026304960250854492,-0.018064573407173157,0.030088096857070923,-0.23461221766339202,1.8258917594700619,2.9720764610149497,0.941130518913269,0.23246584832668304,0.24542491137981415
1727729548820,6i,5.818641081638038,0.8s : 0.4s,0.38108885133247467,0.018149904323037265,0.3806563983213333,0.03809906678092941,0.0010142740793526173,-0.24380141496658325,0.5578861832618713,-0.02098822593688965,-0.020985335111618042,0.02388826012611389,-0.23477563179324784,1.8259555609760505,2.9721851711413505,0.9410781264305115,0.23262478411197662,0.24547536671161652
1727729548830,6i,5.818641081638038,0.8s : 0.4s,0.39103646878913256,0.01811219278540842,0.39061677945984147,0.030396909505833528,0.012077044695615768,-0.26250797510147095,0.5610031485557556,-0.023759782314300537,-0.013061732053756714,0.013741761445999146,-0.23491242926884373,1.825914860351886,2.9720150889515438,0.9410573244094849,0.2327578216791153,0.24542902410030365
1727729548840,6i,5.818641081638038,0.8s : 0.4s,0.3970806236706732,0.01804666314845465,0.3966703160609538,0.031558642046578766,-0.00010025891242548823,-0.2764841616153717,0.5529475808143616,-0.016676664352416992,-0.01471780240535736,0.02238801121711731,-0.23499920516613296,1.8259098689901136,2.9718721554140877,0.941038966178894,0.23284220695495605,0.2454192340373993
1727729548850,6i,5.818641081638038,0.8s : 0.4s,0.3983777248859847,0.017867940969370878,0.39797681888628694,0.04413198416326464,-0.02233658917248249,-0.28764599561691284,0.5391944646835327,-0.006331086158752441,-0.02908007800579071,0.03258678317070007,-0.23505009682631522,1.825987846351254,2.9719843580675076,0.9410080909729004,0.23289170861244202,0.24548955261707306
1727729548860,6i,5.818641081638038,0.8s : 0.4s,0.3986975035025573,0.01761865878429007,0.39830802422473793,0.04119302303665077,-0.02789819985628128,-0.2914184033870697,0.5239652395248413,-0.0019383430480957031,-0.03643798828125,0.019114941358566284,-0.23506904701990305,1.8261495095916809,2.9722200828597707,0.9409641623497009,0.2329101413488388,0.2456405609846115
1727729548870,6i,5.818641081638038,0.8s : 0.4s,0.3973216329062018,0.017329796150064164,0.3969435200890019,0.03632533437477974,-0.03739823028445244,-0.2855605185031891,0.49851053953170776,-0.013259351253509521,-0.033260926604270935,0.006118029356002808,-0.23511279178145503,1.8264240968482137,2.9726032783417895,0.9408868551254272,0.23295266926288605,0.2458963692188263
1727729548880,6i,5.818641081638038,0.8s : 0.4s,0.39131723482611125,0.017010736119424805,0.39094732781876024,0.03837671683380043,-0.027761448174715042,-0.27916720509529114,0.4810881018638611,-0.020728111267089844,-0.032220110297203064,-0.002232104539871216,-0.2351879405858361,1.8268218927182927,2.973004665921445,0.9407719373703003,0.23302575945854187,0.246266171336174
1727729548890,6i,5.818641081638038,0.8s : 0.4s,0.3845250878246308,0.01667723623643192,0.38416326341550966,0.03149612434219227,-0.006476931739598513,-0.27877411246299744,0.4693875014781952,-0.013253450393676758,-0.026187121868133545,-0.011427447199821472,-0.2352604555902312,1.8272420636470557,2.973268399476517,0.9406520128250122,0.23309627175331116,0.24665714800357819
1727729548900,6i,5.818641081638038,0.8s : 0.4s,0.3755746785725161,0.016347969872841938,0.37521871364030535,0.024372037774190503,0.0004235848318785429,-0.27782487869262695,0.45053863525390625,-0.010131418704986572,-0.01783682405948639,-0.013160482048988342,-0.2353037128621442,1.8276109608849744,2.9733725258438315,0.9405513405799866,0.2331383377313614,0.24700160324573517
1727729548910,6i,5.818641081638038,0.8s : 0.4s,0.36588669271114777,0.016027509758340712,0.3655354850545267,0.02082384716384225,0.0051672072149813175,-0.276927649974823,0.43085283041000366,-0.013296246528625488,-0.015798792243003845,-0.002690836787223816,-0.2353105110586469,1.8279498736596378,2.973433653950884,0.9404659271240234,0.23314495384693146,0.24731992185115814
1727729548920,6i,5.818641081638038,0.8s : 0.4s,0.3561793331816143,0.015737191146197343,0.35583150254091817,0.010247589266198787,0.016153013333678246,-0.2800733745098114,0.4114398956298828,-0.0037919282913208008,-0.004328146576881409,-0.008479475975036621,-0.23528324455023528,1.8282137202173079,2.9734193482959217,0.9404069185256958,0.2331184297800064,0.2475697100162506
1727729548930,6i,5.818641081638038,0.8s : 0.4s,0.3468548161652564,0.01550192930719936,0.3465082303276336,0.023089753539942266,0.025179531425237656,-0.278719961643219,0.39648038148880005,0.007027029991149902,0.010945186018943787,-0.01907774806022644,-0.2352055608675552,1.8283478677254392,2.9733025792079286,0.9403913617134094,0.2330428957939148,0.2477005124092102
1727729548940,6i,5.818641081638038,0.8s : 0.4s,0.3344074978119574,0.015327002071053877,0.3340560695457698,0.025099533866519225,0.0022581033408641815,-0.26987043023109436,0.3667994439601898,0.008993566036224365,0.017219170928001404,-0.015893474221229553,-0.23504590938492226,1.8284240371028082,2.97322873101694,0.9404082298278809,0.2328876256942749,0.24778155982494354
1727729548950,6i,5.818641081638038,0.8s : 0.4s,0.31977520969042633,0.015196707917333695,0.3194139082773813,0.024151388835345698,-0.009101876057684422,-0.2580830156803131,0.3387821912765503,0.00871121883392334,0.013486042618751526,-0.01804247498512268,-0.23483650143103732,1.828521696321409,2.973356788683274,0.9404311776161194,0.2326839715242386,0.2478858083486557
1727729548960,6i,5.818641081638038,0.8s : 0.4s,0.3019721034743161,0.015111567983290676,0.30159375290245893,0.03137620808479865,-0.013952158391475677,-0.24465984106063843,0.30162256956100464,0.014725446701049805,0.013608485460281372,-0.024133726954460144,-0.23463213767448624,1.8285930911974038,2.973563348930091,0.9404593706130981,0.23248521983623505,0.24796506762504578
1727729548970,6i,5.818641081638038,0.8s : 0.4s,0.28238853319585333,0.015082613094269027,0.28198545789234264,0.02891179512055186,-0.014669880270957947,-0.224258691072464,0.2719464600086212,0.0035611987113952637,0.017313644289970398,-0.022878974676132202,-0.2344467738299226,1.8286588059574183,2.9738042207707145,0.9404850006103516,0.23230493068695068,0.2480379194021225
1727729548980,6i,5.818641081638038,0.8s : 0.4s,0.2598864965083358,0.015165032166533879,0.25944366029403226,0.03732430773174821,0.011266511864960194,-0.20237749814987183,0.233528271317482,-0.006268680095672607,0.021172136068344116,-0.030092328786849976,-0.23430761641997266,1.82871063187588,2.973924038072938,0.9405034780502319,0.23216958343982697,0.24809491634368896
1727729548990,6i,5.818641081638038,0.8s : 0.4s,0.2348227212903362,0.015351483795578887,0.2343203840460172,0.0420063260410635,0.029475344344973564,-0.17487503588199615,0.19519925117492676,-0.009874582290649414,0.022992774844169617,-0.03373953700065613,-0.23428696063874133,1.8287097529773715,2.97380354270023,0.940508246421814,0.23214948177337646,0.24809530377388
1727729549000,6i,5.818641081638038,0.8s : 0.4s,0.2076890668730343,0.015591047261994197,0.20710303653946258,0.038036207220086125,0.04044783487915993,-0.14753971993923187,0.15390026569366455,-0.016275882720947266,0.023555651307106018,-0.025039568543434143,-0.2343671045659288,1.8287283291258414,2.973570415151488,0.9404854774475098,0.23222744464874268,0.24810796976089478
1727729549010,6i,5.818641081638038,0.8s : 0.4s,0.18166440703525452,0.015870759911124757,0.1809698200344855,0.036272981807521,0.0608481802046299,-0.1268608123064041,0.12076069414615631,-0.015574157238006592,0.019966796040534973,-0.025971174240112305,-0.23454280079888296,1.828691706242017,2.9731934690672746,0.9404551386833191,0.23239833116531372,0.2480631321668625
1727729549020,6i,5.818641081638038,0.8s : 0.4s,0.15683246011175045,0.016177044332167094,0.15599590950207282,0.0339068294270168,0.06000901758670807,-0.10521943122148514,0.09167704731225967,-0.002128124237060547,0.017710775136947632,-0.028835266828536987,-0.23474443740031453,1.828521081490322,2.9726513684198297,0.9404522180557251,0.23259444534778595,0.24789075553417206
1727729549030,6i,5.818641081638038,0.8s : 0.4s,0.1317341688009926,0.01648942645505228,0.13069808738031263,0.016040325254109308,0.027418052777647972,-0.08043498545885086,0.06658607721328735,0.003371596336364746,0.012909561395645142,-0.00890323519706726,-0.23483310718541314,1.828343848530384,2.972282684879288,0.9404761791229248,0.23268067836761475,0.24771881103515625
1727729549040,6i,5.818641081638038,0.8s : 0.4s,0.10754962779862128,0.016803553934008397,0.10622882384178431,0.0207808811482602,0.01833946816623211,-0.05946388095617294,0.04113367944955826,0.011083483695983887,0.013214439153671265,-0.011592239141464233,-0.23480203654458814,1.8281508474684676,2.972095371153336,0.9405310750007629,0.23265045881271362,0.24753914773464203
1727729549050,6i,5.818641081638038,0.8s : 0.4s,0.0844504081140353,0.017126183154886065,0.08269561827069447,0.03703129703925732,0.01169781107455492,-0.03592659905552864,0.020167943090200424,0.021285295486450195,0.01671731472015381,-0.025274187326431274,-0.23466762666472474,1.8278773821584269,2.9719241243517613,0.940628707408905,0.23251973092556,0.24728983640670776
1727729549060,6i,5.818641081638038,0.8s : 0.4s,0.06824123348295684,0.01745627374287788,0.06597078485427577,0.03233084665817612,0.010853721760213375,-0.036459363996982574,0.017410142347216606,0.019461095333099365,0.016511738300323486,-0.019847214221954346,-0.2345025695384697,1.8274993726617617,2.971753952920048,0.940759539604187,0.23235920071601868,0.24694405496120453
1727729549070,6i,5.818641081638038,0.8s : 0.4s,0.059087548733596784,0.017807897658301663,0.05634019166045346,0.02674091019558443,0.02149970829486847,-0.04559267312288284,0.018065545707941055,0.005935728549957275,0.020527631044387817,-0.01607668399810791,-0.23437407358709997,1.8270354666937925,2.9715629057855373,0.9409026503562927,0.23223422467708588,0.24651512503623962
1727729549080,6i,5.818641081638038,0.8s : 0.4s,0.05661840598532491,0.018190184515261283,0.0536167985207978,0.031917443923425506,0.028946973383426666,-0.05014898627996445,0.015123551711440086,0.0028892159461975098,0.0238400399684906,-0.021024465560913086,-0.23468657090035377,1.8261510931319564,2.9711829492518467,0.9410500526428223,0.2325381636619568,0.245664581656456
1727729549090,6i,5.818641081638038,0.8s : 0.4s,0.055156353006100896,0.018568397392008027,0.05193686451092408,0.018372705383839855,0.018211502581834793,-0.05304171144962311,0.018318811431527138,-0.004002809524536133,0.00840325653553009,-0.015840426087379456,-0.23496370702972014,1.82523226926788,2.9708170468783237,0.9412128329277039,0.2328076958656311,0.24478355050086975
1727729549100,6i,5.818641081638038,0.8s : 0.4s,0.0526188669570901,0.018913500157883633,0.049102186016772055,0.01938939051285198,-0.0017133355140686035,-0.05096191540360451,0.014210187830030918,-0.01507025957107544,-0.006498873233795166,-0.010324746370315552,-0.2351147205228361,1.8242612394751243,2.9705858915176497,0.9414160251617432,0.23295454680919647,0.24386067688465118
1727729549110,6i,5.818641081638038,0.8s : 0.4s,0.05107973572677608,0.0192453454454606,0.047315495142734934,0.02678380906958256,-0.010830667801201344,-0.05048174783587456,0.014263184741139412,-0.025155961513519287,-0.00036235153675079346,-0.009187966585159302,-0.2351278343397735,1.82368680303313,2.9706307371478293,0.941552996635437,0.2329673022031784,0.2433190792798996
1727729549120,6i,5.818641081638038,0.8s : 0.4s,0.047855054555094145,0.019588414132445,0.04366234393899239,0.042241110007509304,-0.0007876207819208503,-0.04366369917988777,0.002099794801324606,-0.03617018461227417,0.0036453455686569214,-0.02151140570640564,-0.2351961905969231,1.8230691620451671,2.970630181727524,0.9416879415512085,0.23303377628326416,0.24273358285427094
1727729549130,6i,5.818641081638038,0.8s : 0.4s,0.045364279096676396,0.01996786881459846,0.04073330373250048,0.054926150737698624,0.013753770850598812,-0.03798344358801842,-0.002038491191342473,-0.04910755157470703,0.002914741635322571,-0.024430200457572937,-0.23539821146785694,1.822259931658633,2.970484592386137,0.9418381452560425,0.23323023319244385,0.24195966124534607
1727729549140,6i,5.818641081638038,0.8s : 0.4s,0.04460959420248341,0.020394227752380836,0.039674820343566286,0.0563580165693472,0.042358916252851486,-0.04301358014345169,-0.008785510435700417,-0.04731583595275879,0.004590049386024475,-0.030271589756011963,-0.23566833785157573,1.8215285492887663,2.9701637174392945,0.9419541954994202,0.2334928959608078,0.24125522375106812
1727729549150,6i,5.818641081638038,0.8s : 0.4s,0.04505943158902968,0.02083197446694284,0.03995473958036878,0.04272598859678644,0.05887024849653244,-0.052196428179740906,-0.0025816760025918484,-0.03874129056930542,0.0013196170330047607,-0.01796889305114746,-0.23605010609603924,1.820786240947753,2.9696253384566056,0.9420463442802429,0.23386409878730774,0.24053379893302917
1727729549160,6i,5.818641081638038,0.8s : 0.4s,0.04592247544817647,0.02124529331999416,0.04071254429577919,0.03415433494381256,0.0534692257642746,-0.058671943843364716,-0.0007384687196463346,-0.03221118450164795,-0.010177254676818848,-0.005038022994995117,-0.2364183042347506,1.819927178402212,2.9690207178295425,0.9421691298484802,0.23422206938266754,0.2397031933069229
1727729549170,6i,5.818641081638038,0.8s : 0.4s,0.04762975414127975,0.0216059883855489,0.042447317293820605,0.030705284319189004,0.05206254497170448,-0.06624997407197952,0.0016692951321601868,-0.02348428964614868,-0.018833458423614502,0.006050080060958862,-0.23662690352165386,1.8190869631666267,2.9684892988451894,0.9423226714134216,0.23442485928535461,0.23889943957328796
1727729549180,6i,5.818641081638038,0.8s : 0.4s,0.04841088089793719,0.021901090447541686,0.04317355239637872,0.02668603559036965,0.04141616076231003,-0.06424829363822937,9.846268221735954e-05,-0.007771670818328857,-0.016505718231201172,0.019475802779197693,-0.2366967650577921,1.8183000399200357,2.9680051515870907,0.9424945116043091,0.23449277877807617,0.23815381526947021
1727729549190,6i,5.818641081638038,0.8s : 0.4s,0.04772113271551889,0.022128818466900357,0.042280277919038524,0.03795751110705643,0.013220473192632198,-0.05221613124012947,-0.0024555085692554712,0.007197737693786621,-0.0058458298444747925,0.03680749237537384,-0.23681277304672696,1.8176781743833603,2.9677257395045777,0.9426159858703613,0.2346055507659912,0.23756100237369537
1727729549200,6i,5.818641081638038,0.8s : 0.4s,0.04674873954005482,0.022271463311136285,0.04110263459395998,0.043159353697823595,0.014693734236061573,-0.04427511990070343,-6.478885188698769e-05,0.018855690956115723,-0.00595700740814209,0.03836283087730408,-0.2369585723990766,1.81708929790422,2.9676081784809463,0.9427225589752197,0.2347472757101059,0.2369975447654724
1727729549210,6i,5.818641081638038,0.8s : 0.4s,0.042759449785988037,0.022355642992714305,0.03644990771432399,0.03348942862338072,-0.0028162836097180843,-0.030478879809379578,-0.009858031757175922,0.02396482229232788,-0.00450386106967926,0.022955268621444702,-0.2371746749990309,1.8166127884650467,2.9675268144047764,0.9427862167358398,0.23495733737945557,0.2365359663963318
1727729549220,6i,5.818641081638038,0.8s : 0.4s,0.03968346073857443,0.02235864788711827,0.032785178371481226,0.04027365787287018,-0.007244055159389973,-0.025790560990571976,-0.008704150095582008,0.028218865394592285,0.005713462829589844,0.02816060185432434,-0.23738503620575124,1.8162024491152078,2.967569268600671,0.9428353309631348,0.23516179621219635,0.23613709211349487
1727729549230,6i,5.818641081638038,0.8s : 0.4s,0.03685300920627568,0.022218593449199037,0.02940201341229967,0.046947497784139695,-0.005830982234328985,-0.021227236837148666,-0.004708609543740749,0.0334547758102417,0.004307985305786133,0.0326540470123291,-0.23751233293406232,1.815959621493421,2.967653158545006,0.9428635835647583,0.23528552055358887,0.2359008640050888
1727729549240,6i,5.818641081638038,0.8s : 0.4s,0.034818490483910024,0.021965314357612776,0.027015777700251067,0.04806681995809854,-0.016938360407948494,-0.014688863418996334,0.006041206885129213,0.03761261701583862,-0.004760622978210449,0.02954736351966858,-0.2374546094063504,1.8158525803285073,2.967758889185354,0.9429020881652832,0.23522941768169403,0.2358032464981079
1727729549250,6i,5.818641081638038,0.8s : 0.4s,0.032840350559463403,0.021647441145859994,0.024695686196276784,0.04893335321467968,-0.010616016574203968,-0.008729241788387299,0.014060784131288528,0.03317326307296753,-0.0069040656089782715,0.03530356287956238,-0.23724215182389088,1.8158682644616102,2.9679227727444646,0.9429466724395752,0.2350229173898697,0.23583011329174042
1727729549260,6i,5.818641081638038,0.8s : 0.4s,0.031259810487685044,0.02133829515979081,0.022844100144230498,0.03557090779961785,-0.005475583486258984,-0.00805395282804966,0.016778938472270966,0.02691805362701416,0.002246543765068054,0.023144349455833435,-0.23698010388089577,1.8159310964979098,2.9679981551714376,0.9429916143417358,0.23476821184158325,0.23590432107448578
1727729549270,6i,5.818641081638038,0.8s : 0.4s,0.030061804354218943,0.021064975924639018,0.02144711799579877,0.03149830202910128,0.0009988276287913322,-0.00962148979306221,0.01950681582093239,0.02306234836578369,0.011510327458381653,0.01810479164123535,-0.23674293307172306,1.816050692074661,2.9680236276729395,0.9430174231529236,0.23453766107559204,0.23603060841560364
1727729549280,6i,5.818641081638038,0.8s : 0.4s,0.029072955010014938,0.020858234878668724,0.020252672681911398,0.03291340938751498,0.014261902309954166,-0.006934094242751598,0.01967013254761696,0.019185960292816162,0.02376687526702881,0.012260794639587402,-0.23650363912517164,1.8161493537123465,2.967951376513641,0.9430485963821411,0.23430503904819489,0.2361372858285904
1727729549290,6i,5.818641081638038,0.8s : 0.4s,0.028718259486141318,0.02074543454427379,0.019858634733601343,0.04002749567371706,0.04036647453904152,-0.004799836315214634,0.028747517615556717,0.01784801483154297,0.0357278436422348,0.0026776790618896484,-0.23625449113028013,1.8161510732420147,2.9676410511236444,0.9431048035621643,0.2340628057718277,0.23615309596061707
1727729549300,6i,5.818641081638038,0.8s : 0.4s,0.02913736791368536,0.020713664809920772,0.020492200933030863,0.03847282630648473,0.04550344496965408,-0.0025060561019927263,0.03308933600783348,0.019819438457489014,0.03296884894371033,0.000634998083114624,-0.23606321266805375,1.816153630601011,2.967154315226029,0.9431474208831787,0.23387683928012848,0.236166313290596
1727729549310,6i,5.818641081638038,0.8s : 0.4s,0.028981874149098606,0.02072072998422206,0.020263276588823206,0.024188010201073695,0.01142403855919838,-0.004496236331760883,0.0360848605632782,0.017101407051086426,0.016265645623207092,0.005294382572174072,-0.23575979604150546,1.8161781054551143,2.9668045543983608,0.943210780620575,0.23358182609081268,0.23620671033859253
1727729549320,6i,5.818641081638038,0.8s : 0.4s,0.027891667142778163,0.020720599512651105,0.018670882460126347,0.014827546400375233,-0.03644401952624321,-0.0036003042478114367,0.03337140008807182,0.011193931102752686,-0.004709750413894653,0.008507072925567627,-0.2353305143594852,1.8162567821480113,2.9668875778419403,0.9432893991470337,0.23316439986228943,0.23630528151988983
1727729549330,6i,5.818641081638038,0.8s : 0.4s,0.026915926507215356,0.020726784105568653,0.017171706973477186,0.0046948421584144745,-0.04180363193154335,-0.0017840287182480097,0.02557286247611046,-0.003223121166229248,-0.0034051984548568726,0.00024011731147766113,-0.23488337707080784,1.816436710083885,2.9672627152246642,0.9433477520942688,0.23272956907749176,0.23650029301643372
1727729549340,6i,5.818641081638038,0.8s : 0.4s,0.02670235375705072,0.02079347584433358,0.016752523943507635,0.031516064911709135,-0.016844484955072403,-0.0019909560214728117,0.026466885581612587,-0.02266603708267212,0.01629146933555603,-0.014632195234298706,-0.23454073316028823,1.8165563934638405,2.9675231623815184,0.9433967471122742,0.23239631950855255,0.2366325855255127
1727729549350,6i,5.818641081638038,0.8s : 0.4s,0.02702401127867131,0.021004220254431268,0.017003526607533313,0.049120760540390954,0.022725027054548264,-0.006737508811056614,0.027367301285266876,-0.03520876169204712,0.020375356078147888,-0.02753247320652008,-0.23432668245954907,1.8165667901003146,2.9674366925852387,0.9434423446655273,0.2321881204843521,0.23665446043014526
1727729549360,6i,5.818641081638038,0.8s : 0.4s,0.02741385240337568,0.021316098186909372,0.017237843881417,0.053267299298055175,0.03233477845788002,-0.006660010665655136,0.02233339287340641,-0.04602128267288208,0.010785728693008423,-0.02455839514732361,-0.2343183369298049,1.8164706390862744,2.9671031789400595,0.9434671401977539,0.23217999935150146,0.2365642488002777
1727729549370,6i,5.818641081638038,0.8s : 0.4s,0.027901479676597892,0.021669348226224704,0.017576459131298818,0.05074003622516049,0.032063137739896774,-0.010510141961276531,0.018923748284578323,-0.048553466796875,0.008790194988250732,-0.011825591325759888,-0.23439325528160274,1.816273688435141,2.966721057206693,0.9434966444969177,0.23225288093090057,0.2363741546869278
1727729549380,6i,5.818641081638038,0.8s : 0.4s,0.02802141061741579,0.022051113702594,0.017290108081359508,0.04918517501930239,0.024154480546712875,-0.013968566432595253,0.006784562021493912,-0.04780781269073486,0.01015348732471466,-0.005522787570953369,-0.2344976433231629,1.8160363632968821,2.9664074056725087,0.9435290694236755,0.23235440254211426,0.2361443191766739
1727729549390,6i,5.818641081638038,0.8s : 0.4s,0.02822540340673965,0.022441837232190575,0.0171183334211323,0.04171571411078558,0.021031124517321587,-0.01593770831823349,0.007412535138428211,-0.04110044240951538,0.005116656422615051,-0.004977375268936157,-0.2345461846569878,1.8158331470683218,2.9661520710874214,0.9435662031173706,0.23240162432193756,0.23594985902309418
1727729549400,6i,5.818641081638038,0.8s : 0.4s,0.028008281114303875,0.02281579867636308,0.01624509592885004,0.028502411970179813,0.005785726476460695,-0.01278767827898264,0.004005386494100094,-0.027684926986694336,-0.004054844379425049,-0.0054305195808410645,-0.23450010960229892,1.8156961967938636,2.96600414258992,0.943608820438385,0.23235680162906647,0.23582321405410767
1727729549410,6i,5.818641081638038,0.8s : 0.4s,0.02747367495331928,0.023136196970461063,0.014816180519441287,0.02405550260021472,-0.01216610986739397,-0.012525622732937336,0.0013717866968363523,-0.015774190425872803,-0.016087129712104797,0.008428901433944702,-0.23444595430760046,1.8155912249174175,2.966039200924286,0.9436458349227905,0.23230412602424622,0.2357272207736969
1727729549420,6i,5.818641081638038,0.8s : 0.4s,0.026670573771070415,0.02338044072088724,0.012832556135672543,0.03185355383477906,-0.027772633358836174,-0.009487621486186981,-0.0059195151552557945,-0.010098457336425781,-0.02618083357810974,0.015074282884597778,-0.23457938668001335,1.8154615585639093,2.966236463745954,0.9436466097831726,0.23243391513824463,0.2355974167585373
1727729549430,6i,5.818641081638038,0.8s : 0.4s,0.02627220765200116,0.023548226603255548,0.011649460019743227,0.030528816286085895,-0.019186336547136307,-0.006970668211579323,0.001316293142735958,0.002613663673400879,-0.02455262839794159,0.017953991889953613,-0.23478794981921614,1.8152682002358673,2.966466675453196,0.9436448812484741,0.23263676464557648,0.2354031652212143
1727729549440,6i,5.818641081638038,0.8s : 0.4s,0.025969785257408572,0.02365657606688079,0.010714296762167758,0.02722940211810507,-0.018674876540899277,-0.0013324450701475143,0.006448304280638695,0.011673927307128906,-0.015447154641151428,0.01914536952972412,-0.2349019059258076,1.8151443314481968,2.966607118526708,0.9436483979225159,0.23274758458137512,0.2352798879146576
1727729549450,6i,5.818641081638038,0.8s : 0.4s,0.02578345345117132,0.023726089417626207,0.010092529554850163,0.028996178228855737,-0.011428413912653923,0.004956343211233616,0.013805286958813667,0.013664603233337402,-0.005108281970024109,0.025059178471565247,-0.23494000142931987,1.8152022127326026,2.966714643449934,0.9436259269714355,0.23278462886810303,0.23533229529857635
1727729549460,6i,5.818641081638038,0.8s : 0.4s,0.025739534292748046,0.023768008565815492,0.009879544241657812,0.020470038252704267,-0.002164608333259821,0.005884277634322643,0.01915065012872219,0.014976561069488525,-0.002709418535232544,0.013688832521438599,-0.23493675865433133,1.8153340048878381,2.966779604244264,0.9435960054397583,0.23278148472309113,0.2354569286108017
1727729549470,6i,5.818641081638038,0.8s : 0.4s,0.02584137315547575,0.023780845406935577,0.010111773251609927,0.020731231581295282,0.0090467669069767,0.0049329958856105804,0.0240229032933712,0.01854795217514038,-0.006945997476577759,-0.006124585866928101,-0.23485279697467484,1.8154177846917188,2.966692364060644,0.9435951113700867,0.23269982635974884,0.23554068803787231
1727729549480,6i,5.818641081638038,0.8s : 0.4s,0.025899615354647652,0.023781875626818515,0.010257312863963733,0.013335907178864499,0.00842292234301567,0.007972062565386295,0.021899066865444183,0.008538305759429932,-0.004280343651771545,-0.009307116270065308,-0.2346692840144085,1.8154646531721372,2.9665684370056535,0.9436255693435669,0.23252134025096893,0.23559527099132538
1727729549490,6i,5.818641081638038,0.8s : 0.4s,0.026045079079537167,0.023797630944593563,0.010583898416191813,0.01655727296770965,0.01524620782583952,0.005267622414976358,0.021176017820835114,0.005224764347076416,0.006137728691101074,-0.014462828636169434,-0.23437497511572541,1.815606863234488,2.966417910341938,0.9436583518981934,0.23223508894443512,0.23574602603912354
1727729549500,6i,5.818641081638038,0.8s : 0.4s,0.026329961120657046,0.023842167068815857,0.011172194147882697,0.026511653499452646,0.024561278522014618,-0.00017121830023825169,0.020134221762418747,0.011343657970428467,0.015791311860084534,-0.018022865056991577,-0.23403525385851673,1.8157372111683336,2.9662013892358137,0.9437041282653809,0.23190464079380035,0.23588815331459045
1727729549510,6i,5.818641081638038,0.8s : 0.4s,0.02649197787211165,0.023896405789659233,0.01143620050158243,0.025575445055234947,0.015243942849338055,-0.003029855201020837,0.016393812373280525,0.016687214374542236,0.010692387819290161,-0.01616518199443817,-0.23370834558216486,1.8158026879583522,2.965985172598819,0.9437618851661682,0.23158663511276245,0.23596824705600739
1727729549520,6i,5.818641081638038,0.8s : 0.4s,0.026740019144363733,0.02395919339334465,0.011873738913301443,0.023394069605592323,0.015149533748626709,-0.0060670580714941025,0.018482230603694916,0.013909101486206055,0.009817823767662048,-0.01604461669921875,-0.23343099486396926,1.8158686459448465,2.9658368282371734,0.9438088536262512,0.23131681978702545,0.23604612052440643
1727729549530,6i,5.818641081638038,0.8s : 0.4s,0.026876386770097276,0.024050140692817287,0.011997120424149868,0.02996799249821781,0.01755623333156109,-0.006641235202550888,0.012232057750225067,0.013574957847595215,0.01339411735534668,-0.0231170654296875,-0.23322120180941716,1.8160096907482597,2.9656800743371745,0.9438225626945496,0.23111271858215332,0.2361910194158554
1727729549540,6i,5.818641081638038,0.8s : 0.4s,0.027147380795011132,0.024148179769269112,0.012403455077533883,0.028508903464279384,0.014868570491671562,-0.012131874449551105,0.0165112242102623,0.013913393020629883,0.008341416716575623,-0.02344346046447754,-0.23306649609162344,1.8159744577572985,2.965486461959982,0.9438655972480774,0.23096218705177307,0.23616644740104675
1727729549550,6i,5.818641081638038,0.8s : 0.4s,0.027147188919771362,0.024234105992976415,0.012234294951771503,0.02734525567302264,-0.004378094337880611,-0.014211270958185196,0.015902692452073097,0.018886327743530273,0.0016411691904067993,-0.01970726251602173,-0.23281731378942358,1.8156873204456143,2.9653699303098033,0.9439892768859863,0.23071974515914917,0.23590940237045288
1727729549560,6i,5.818641081638038,0.8s : 0.4s,0.027066290833418626,0.024311515556348178,0.011896819357821723,0.02532788114105466,-0.013599689118564129,-0.014719713479280472,0.014496976509690285,0.016990482807159424,0.0015996843576431274,-0.018715396523475647,-0.23260897164736,1.8154162329137342,2.965408782152236,0.9440995454788208,0.23051701486110687,0.23566505312919617
1727729549570,6i,5.818641081638038,0.8s : 0.4s,0.027347598452045777,0.024404082767265828,0.012342280396376333,0.03362441226107298,-0.0033377306535840034,-0.018822045996785164,0.02000945433974266,0.015115439891815186,0.008440002799034119,-0.028825178742408752,-0.2325103870816858,1.8150638143667157,2.965412196454524,0.9442046284675598,0.23042108118534088,0.23533782362937927
1727729549580,6i,5.818641081638038,0.8s : 0.4s,0.02813882410006959,0.02453659781476068,0.013774933372301248,0.034535218318826874,0.014126480557024479,-0.025492731481790543,0.026467353105545044,0.007500112056732178,0.0178583562374115,-0.02859210968017578,-0.23245958151699544,1.8145878529692343,2.965269035219354,0.9443279504776001,0.2303716391324997,0.23489122092723846
1727729549590,6i,5.818641081638038,0.8s : 0.4s,0.031369956999533974,0.024751667296024415,0.019272497716163472,0.04046729770373301,0.040788453072309494,-0.03076126240193844,0.02507105842232704,-0.005763113498687744,0.023601338267326355,-0.03236302733421326,-0.2323753774655611,1.8140033113355905,2.9648781643384203,0.9444839954376221,0.23028969764709473,0.23434387147426605
1727729549600,6i,5.818641081638038,0.8s : 0.4s,0.034922280185960636,0.025000926784715903,0.02438276672758885,0.02691612423029855,0.04700413718819618,-0.02835327759385109,0.0299858208745718,-0.015092253684997559,0.013938501477241516,-0.01739022135734558,-0.23231679496184718,1.8133818048883688,2.964315655729093,0.9446425437927246,0.23023270070552826,0.2337600737810135
1727729549610,6i,5.818641081638038,0.8s : 0.4s,0.035931980822948385,0.02523345058297126,0.02558085646606614,0.015571937075954423,0.029265351593494415,-0.03021829016506672,0.03450600430369377,-0.014722585678100586,-0.004601150751113892,-0.002135440707206726,-0.2322228498996985,1.8127022755172495,2.96379214607774,0.9448219537734985,0.2301412671804428,0.23312322795391083
1727729549620,6i,5.818641081638038,0.8s : 0.4s,0.03662285190316263,0.025417009392404915,0.026366814655308345,0.023212428732869293,0.027462393045425415,-0.030241459608078003,0.02897721529006958,-0.011314094066619873,-0.02006642520427704,-0.0028542429208755493,-0.23205876122496039,1.8120323219462153,2.9633557199530562,0.9450146555900574,0.22998158633708954,0.23249922692775726
1727729549630,6i,5.818641081638038,0.8s : 0.4s,0.037493379046524854,0.025555711073936328,0.027434633291368728,0.021982041949194415,0.04156196489930153,-0.027019033208489418,0.02639288455247879,-0.010370850563049316,-0.019340485334396362,-0.001265406608581543,-0.2318773032023309,1.8114062699551103,2.9629002880423316,0.9452006220817566,0.22980499267578125,0.23191751539707184
1727729549640,6i,5.818641081638038,0.8s : 0.4s,0.03908329476317351,0.025661490114655572,0.029478667789446324,0.01248072399398224,0.05483848974108696,-0.02485206350684166,0.024836499243974686,-0.0042075514793396,-0.010953515768051147,0.004252701997756958,-0.23174171355829606,1.8108070406575134,2.9623072924368334,0.9453697800636292,0.22967302799224854,0.23135851323604584
1727729549650,6i,5.818641081638038,0.8s : 0.4s,0.04160908968369826,0.025732377736795008,0.03269802869160375,0.018036039137589152,0.06457767635583878,-0.019478069618344307,0.02733427844941616,-0.00025522708892822266,-0.007210031151771545,0.016530245542526245,-0.23172076396119454,1.810101813441724,2.96154349253433,0.9455371499061584,0.22965262830257416,0.23069283366203308
1727729549660,6i,5.818641081638038,0.8s : 0.4s,0.042234991897646575,0.025752570652432423,0.033475358779044444,0.02697426851301836,0.05443435534834862,-0.011601461097598076,0.028646184131503105,0.0023998022079467773,-0.01289503276348114,0.023570537567138672,-0.23179248702544025,1.8095025981797894,2.9608109707704764,0.945659339427948,0.22972244024276733,0.23012235760688782
1727729549670,6i,5.818641081638038,0.8s : 0.4s,0.042180857336531666,0.025667263701901134,0.033472620149936065,0.03245365256587245,0.03945034742355347,-0.011129815131425858,0.03011465072631836,0.004710137844085693,-0.018880993127822876,0.025972336530685425,-0.23189115430937562,1.8089692649060758,2.9602361515387554,0.9457597136497498,0.2298184633255005,0.2296125739812851
1727729549680,6i,5.818641081638038,0.8s : 0.4s,0.04215250733031522,0.025539306535521646,0.03353472373401844,0.025164960822092842,0.038902536034584045,-0.010722707025706768,0.032668422907590866,-0.0004380345344543457,-0.017822548747062683,0.017760634422302246,-0.23186975348203806,1.8086318410870101,2.959722856907373,0.9458421468734741,0.22979764640331268,0.22929465770721436
1727729549690,6i,5.818641081638038,0.8s : 0.4s,0.041690438989888945,0.02538960240107407,0.03306751870166594,0.026712938493358297,0.03165820613503456,-0.00721372663974762,0.030377572402358055,-0.010302901268005371,-0.01349976658821106,0.020620077848434448,-0.23162989726914468,1.8084988429887,2.959301612251246,0.9459260106086731,0.22956418991088867,0.22918178141117096
1727729549700,6i,5.818641081638038,0.8s : 0.4s,0.040640141412671964,0.025241704293805484,0.03185086275732663,0.026760725063903087,0.02197854407131672,-0.0023791566491127014,0.024747949093580246,-0.016219735145568848,-0.005959928035736084,0.020433694124221802,-0.23125166849585568,1.808416208477614,2.9589823899813896,0.9460294842720032,0.22919605672359467,0.22912409901618958
1727729549710,6i,5.818641081638038,0.8s : 0.4s,0.03937624430627826,0.025101649273542408,0.030338025964386332,0.022699077774033054,0.010818036273121834,-0.005995196755975485,0.025900298729538918,-0.012982845306396484,-0.0025351345539093018,0.01844632625579834,-0.2308840926415069,1.8083830029182133,2.9587692029758577,0.9461188912391663,0.228838250041008,0.22911249101161957
1727729549720,6i,5.818641081638038,0.8s : 0.4s,0.03791852932538693,0.02496738337231616,0.028538476373836424,0.013085239103681161,-0.0009737757500261068,-0.0047111534513533115,0.028917893767356873,-0.004006803035736084,-0.0019642114639282227,0.012300848960876465,-0.23054842583009943,1.808392121995058,2.9586667928339447,0.9461912512779236,0.22851146757602692,0.22913914918899536
1727729549730,6i,5.818641081638038,0.8s : 0.4s,0.03707007796707809,0.024865218199903283,0.02749384666350722,0.01214644139894582,0.0007535505574196577,-0.006820909213274717,0.03709805756807327,-0.004766404628753662,0.009206891059875488,0.006328552961349487,-0.23015484282372906,1.8085213845281987,2.9586605356033715,0.9462488889694214,0.22812828421592712,0.22928260266780853
1727729549740,6i,5.818641081638038,0.8s : 0.4s,0.03720734850757831,0.02483410760610597,0.027706567495320293,0.026980052821152657,0.02646983228623867,-0.01329212449491024,0.03296956047415733,-0.00664067268371582,0.02469697594642639,-0.008595585823059082,-0.22971360167915497,1.808626432719411,2.9584955528484977,0.9463227391242981,0.2276986539363861,0.2294057309627533
1727729549750,6i,5.818641081638038,0.8s : 0.4s,0.037842141846003124,0.024861298072399486,0.028529696066525608,0.024318064013676515,0.041656240820884705,-0.01485513336956501,0.031297627836465836,-0.008951783180236816,0.02099110186100006,-0.008402824401855469,-0.2293041317078812,1.8086576308457938,2.9581145637191795,0.9464060664176941,0.22729992866516113,0.22945719957351685
1727729549760,6i,5.818641081638038,0.8s : 0.4s,0.03764387102508053,0.02491048322168799,0.028222842723845138,0.013858435997414592,0.027773849666118622,-0.009915990754961967,0.024090081453323364,-0.00741422176361084,0.010674789547920227,0.004809826612472534,-0.22896079311143125,1.80863975403506,2.957747660175978,0.9464858174324036,0.22696556150913239,0.22945861518383026
1727729549770,6i,5.818641081638038,0.8s : 0.4s,0.03717657449645811,0.024974389960371587,0.027538655330244254,0.010604058195290278,0.027387425303459167,-0.010067791678011417,0.015163964591920376,-0.006971895694732666,0.007498219609260559,0.002759605646133423,-0.22874433183747872,1.808713895727681,2.957485667632635,0.946516752243042,0.22675473988056183,0.22954042255878448
1727729549780,6i,5.818641081638038,0.8s : 0.4s,0.03643681352606844,0.025051037854089436,0.026459154982093856,0.009881632505327285,0.022514639422297478,-0.00773299764841795,0.010605499148368835,-0.00786435604095459,0.005974918603897095,0.00031450390815734863,-0.2286790467166605,1.80881083331227,2.957260735562808,0.9465088844299316,0.22669115662574768,0.22963567078113556
1727729549790,6i,5.818641081638038,0.8s : 0.4s,0.035700913506747714,0.02512458153438649,0.025363568911693928,0.01197624062174241,0.020938580855727196,-0.001677502179518342,0.012159453704953194,-0.011384844779968262,-0.0022970885038375854,0.002922162413597107,-0.22863376926817194,1.8089390102012528,2.9570719335744915,0.9464892148971558,0.22664706408977509,0.2297593504190445
1727729549800,6i,5.818641081638038,0.8s : 0.4s,0.03593952500062152,0.025181132630231282,0.025642933075781336,0.012460477982754148,0.03967365249991417,-0.006144422106444836,0.018139181658625603,-0.007108211517333984,-0.009711980819702148,-0.0032271146774291992,-0.22855454045711854,1.8089667021176596,2.956775668528526,0.9465003609657288,0.22656989097595215,0.22978980839252472
1727729549810,6i,5.818641081638038,0.8s : 0.4s,0.03678633506353754,0.025228779436443,0.0267720588590822,0.012347342458162327,0.048725470900535583,-0.007542315870523453,0.02721097320318222,0.0020398497581481934,-0.004690811038017273,-0.0112379789352417,-0.22855349727277166,1.8088700016278194,2.9562938954181153,0.9465228319168091,0.22656887769699097,0.22969834506511688
1727729549820,6i,5.818641081638038,0.8s : 0.4s,0.04122514737120813,0.025267889102471457,0.03257370958431098,0.0059371051829670805,0.06515610963106155,-0.01225673221051693,0.0352151058614254,0.004703104496002197,-0.0010418146848678589,-0.0034705400466918945,-0.2286452928481855,1.8085520196150338,2.9556256400290932,0.9465756416320801,0.22665828466415405,0.22939246892929077
1727729549830,6i,5.818641081638038,0.8s : 0.4s,0.043180527949774866,0.025299937737798837,0.034992444105617866,0.006536152733357928,0.06014510244131088,-0.014552643522620201,0.03907056152820587,0.004760563373565674,0.0018319636583328247,0.00408683717250824,-0.228655687661006,1.8081934090310043,2.954884091816992,0.9466554522514343,0.22666840255260468,0.22905242443084717
1727729549840,6i,5.818641081638038,0.8s : 0.4s,0.04336646505348881,0.025309936788075256,0.035214448611601196,0.012518355157921612,0.037415824830532074,-0.009375990368425846,0.0420536994934082,0.0012816190719604492,-0.005683571100234985,0.011079877614974976,-0.22849177958767003,1.8080182583788558,2.9543074984669007,0.9467316269874573,0.22650876641273499,0.22889533638954163
1727729549850,6i,5.818641081638038,0.8s : 0.4s,0.04215169747659304,0.025297317961708015,0.033716632454954105,0.016505827459238235,0.013982935808598995,-0.00576101616024971,0.03086043708026409,-0.0019764304161071777,-0.007688835263252258,0.014471277594566345,-0.2282789929474435,1.8079215439901313,2.9539718000924915,0.9468006491661072,0.22630150616168976,0.22881509363651276
1727729549860,6i,5.818641081638038,0.8s : 0.4s,0.03908491519564969,0.025267170745560855,0.029819468110041825,0.015405335194198518,-0.013944568112492561,0.001996772363781929,0.023826230317354202,-0.0073569416999816895,-0.011091679334640503,0.007757216691970825,-0.22809121222008238,1.807927298491456,2.953912253074373,0.946840763092041,0.22611857950687408,0.22883056104183197
1727729549870,6i,5.818641081638038,0.8s : 0.4s,0.03709662828584315,0.025227415265299848,0.02719811297149371,0.009644058580634685,-0.007033665664494038,0.002960570389404893,0.02201341651380062,-0.0041522979736328125,-0.008691132068634033,0.0004801154136657715,-0.22783555783696768,1.808040477434591,2.954001118480723,0.9468710422515869,0.2258695513010025,0.2289513200521469
1727729549880,6i,5.818641081638038,0.8s : 0.4s,0.036916042678426575,0.025210323054914184,0.02696727310096953,0.017894278725068546,0.026233743876218796,-0.0004063753876835108,0.02699832059442997,-0.0046280622482299805,0.0018563568592071533,-0.01718546450138092,-0.22756543745235086,1.8080210198828301,2.9538554285929393,0.9469345808029175,0.22560639679431915,0.22894716262817383
1727729549890,6i,5.818641081638038,0.8s : 0.4s,0.042130217462904095,0.025233643712906685,0.033737493215140836,0.02337705931072826,0.06996311247348785,-0.004893269389867783,0.03519180044531822,-0.002751290798187256,0.012540757656097412,-0.01953577995300293,-0.2273428593076329,1.8077674063052485,2.9532957695665703,0.9470414519309998,0.22538955509662628,0.2287188172340393
1727729549900,6i,5.818641081638038,0.8s : 0.4s,0.05098516721647254,0.025302348052770037,0.04426373751851678,0.024352957051866617,0.09622588008642197,-0.010853956453502178,0.039181482046842575,0.0010742545127868652,0.018528327345848083,-0.01576748490333557,-0.22717992813887705,1.8074366471120125,2.9523094362606055,0.9471526145935059,0.22523081302642822,0.2284141331911087
1727729549910,6i,5.818641081638038,0.8s : 0.4s,0.059035816291087284,0.025393575967482408,0.05329534599511205,0.020540404146686172,0.10118947923183441,-0.012622827664017677,0.04440447688102722,0.0028241872787475586,0.018966779112815857,0.007361620664596558,-0.22701181039542778,1.8071085923496426,2.9512571829103944,0.9472642540931702,0.22506700456142426,0.22811225056648254
1727729549920,6i,5.818641081638038,0.8s : 0.4s,0.058769578326099844,0.025465187346529524,0.05296590950822743,0.013657393393250573,0.06308017671108246,-0.01048226747661829,0.03860204666852951,0.005346894264221191,0.0011306405067443848,0.012516260147094727,-0.22677550954506312,1.8068889578368903,2.950321158120961,0.9473661780357361,0.22483676671981812,0.2279166579246521
1727729549930,6i,5.818641081638038,0.8s : 0.4s,0.05489302020836509,0.025488723144099074,0.048616547183849314,0.021090377949196357,0.03180454298853874,-0.005193762481212616,0.03709442913532257,0.0014829039573669434,-0.016517817974090576,0.01302945613861084,-0.22645621468807103,1.8068449500645092,2.9498066722648413,0.9474459886550903,0.22452563047409058,0.22789175808429718
1727729549940,6i,5.818641081638038,0.8s : 0.4s,0.046805939300765466,0.025468355526682224,0.03927033002908756,0.02158239963826949,0.016386039555072784,-0.001469020964577794,0.022757070139050484,0.0002410411834716797,-0.021580025553703308,-0.00021064281463623047,-0.2261549233598274,1.8068396587451916,2.9495258927770953,0.9475129246711731,0.2242320328950882,0.22790256142616272
1727729549950,6i,5.818641081638038,0.8s : 0.4s,0.04355040248987108,0.02543646826237608,0.03535001611551123,0.008003035248633288,0.018240397796034813,0.0005294149741530418,0.023058272898197174,-0.0008993744850158691,-0.007878214120864868,-0.0010832548141479492,-0.2259206458606084,1.80681354571379,2.9493025405290982,0.9475699067115784,0.22400370240211487,0.22789008915424347
1727729549960,6i,5.818641081638038,0.8s : 0.4s,0.04107858534950849,0.025400728403341625,0.03228394602424753,0.006228398796226575,0.018090728670358658,0.0018770633032545447,0.01856132596731186,0.0031437277793884277,-0.0033678412437438965,-0.004191368818283081,-0.2258174972292218,1.8066419674301255,2.949080694898413,0.9476315379142761,0.22390317916870117,0.22773292660713196
1727729549970,6i,5.818641081638038,0.8s : 0.4s,0.04181278654973556,0.02538383699688785,0.03322604307420874,0.0193741416703901,0.059233106672763824,-0.0021001012064516544,0.024136120453476906,0.005677998065948486,0.005426138639450073,-0.017710864543914795,-0.22582810931468078,1.8063690545651825,2.948616541678408,0.9476914405822754,0.2239135205745697,0.22747375071048737
1727729549980,6i,5.818641081638038,0.8s : 0.4s,0.05254883939572801,0.02543222914806049,0.04598458700911164,0.026891821067621183,0.11470794677734375,-0.001007450744509697,0.02524542808532715,0.00039058923721313477,0.015008285641670227,-0.022310733795166016,-0.2259536727761666,1.806012947166315,2.947703133036006,0.9477448463439941,0.22403588891029358,0.22712966799736023
1727729549990,6i,5.818641081638038,0.8s : 0.4s,0.07566816721819665,0.025567128036829756,0.07121792958314166,0.030585151980727053,0.1906898021697998,-0.006747894920408726,0.042441725730895996,-0.0021734237670898438,0.02341437339782715,-0.019557476043701172,-0.2261431229068152,1.8056943818540114,2.946058193124126,0.9477758407592773,0.22422052919864655,0.22681784629821777
1727729550000,6i,5.818641081638038,0.8s : 0.4s,0.09678277546249413,0.025740906938580065,0.09329689885630131,0.028440138266637414,0.2112310230731964,-0.019197728484869003,0.043586283922195435,0.0032618045806884766,0.023407235741615295,-0.015820980072021484,-0.2261817810862369,1.805199497284821,2.943967147773742,0.9478796124458313,0.2242581993341446,0.22634677588939667
1727729550010,6i,5.818641081638038,0.8s : 0.4s,0.09744914967097251,0.02588552099118517,0.09394826541565583,0.009394953053739028,0.14032836258411407,-0.024512598291039467,0.04587047919631004,0.007856607437133789,-0.0037303566932678223,-0.0035529285669326782,-0.22601716682613246,1.8046914678868127,2.9420948708977757,0.9480302333831787,0.22409777343273163,0.22587370872497559
1727729550020,6i,5.818641081638038,0.8s : 0.4s,0.09370116215716189,0.02596631876579224,0.09003142828677112,0.022859859384010885,0.09914510697126389,-0.028946097940206528,0.041437748819589615,0.010698676109313965,-0.017274096608161926,0.010474592447280884,-0.225682207587995,1.8041532025300195,2.9408250702365737,0.9482247829437256,0.22377131879329681,0.2253807783126831
1727729550030,6i,5.818641081638038,0.8s : 0.4s,0.07915036294456547,0.025999639755756955,0.07475826835091424,0.01796488216957619,0.04415082558989525,-0.03099220246076584,0.04012427479028702,0.007999897003173828,-0.01576213538646698,0.0032083839178085327,-0.22539900044015887,1.8036904208825708,2.940040053124844,0.9483904838562012,0.22349528968334198,0.22495651245117188
1727729550040,6i,5.818641081638038,0.8s : 0.4s,0.0740318730471664,0.02601608201318545,0.06931004042384459,0.01240062097888532,0.05750551447272301,-0.031085500493645668,0.04486583173274994,0.0067255496978759766,-0.006704449653625488,-0.007974505424499512,-0.22506080794539,1.8032357358387137,2.939439031804984,0.948566198348999,0.2231656312942505,0.22454267740249634
1727729550050,6i,5.818641081638038,0.8s : 0.4s,0.07359828650283684,0.026047331444493924,0.06883490612163523,0.024419287789420624,0.08068939298391342,-0.030168576166033745,0.04486663267016411,0.00479733943939209,0.0023634731769561768,-0.0238264799118042,-0.2248373584596416,1.8026104969071937,2.938624795299869,0.9487549662590027,0.22294782102108002,0.2239610105752945
1727729550060,6i,5.818641081638038,0.8s : 0.4s,0.07453045740913719,0.026110905841983566,0.06980694576993239,0.0242795020235831,0.1071937084197998,-0.02557693049311638,0.03993659093976021,-0.00028270483016967773,0.010023370385169983,-0.022112131118774414,-0.22477475049376708,1.801926004581792,2.937572164276973,0.9489216208457947,0.22288678586483002,0.22331474721431732
1727729550070,6i,5.818641081638038,0.8s : 0.4s,0.07755049152914409,0.02619248059273205,0.0729933743350121,0.013957193866614476,0.1273101568222046,-0.01674189418554306,0.031080245971679688,-0.00734943151473999,0.004550755023956299,-0.010958090424537659,-0.22492583916383044,1.8012911552954374,2.936264003925433,0.9490302801132202,0.22303406894207,0.22270455956459045
1727729550080,6i,5.818641081638038,0.8s : 0.4s,0.08454003884938663,0.026290233241790424,0.08034825327751723,0.010594260434283213,0.1435312032699585,-0.017017176374793053,0.03126280754804611,-0.005761861801147461,0.008711308240890503,-0.001775503158569336,-0.22511894390720172,1.8006938881905359,2.934817396373912,0.9491212964057922,0.2232223004102707,0.22212789952754974
1727729550090,6i,5.818641081638038,0.8s : 0.4s,0.08790449352699348,0.026394529163335716,0.08384824871446665,0.007753674705556017,0.14409953355789185,-0.020096058025956154,0.02932802028954029,-8.225440979003906e-05,0.007689341902732849,-0.0009933412075042725,-0.22511857727410883,1.8001591564785155,2.9332906360914737,0.9492401480674744,0.22322194278240204,0.22162039577960968
1727729550100,6i,5.818641081638038,0.8s : 0.4s,0.08766222430038363,0.02648585379240587,0.0835653344286856,0.0016032509959655358,0.11399022489786148,-0.025863267481327057,0.03092561848461628,0.0011197328567504883,-0.0008628815412521362,0.0007563382387161255,-0.22496945570285176,1.7997386556358173,2.931944980540792,0.9493653774261475,0.22307658195495605,0.221228688955307
1727729550110,6i,5.818641081638038,0.8s : 0.4s,0.07599234558354863,0.026536431572685797,0.0712085274856716,0.014828962280028148,0.052855234593153,-0.02702759951353073,0.02876339666545391,0.004153192043304443,-0.011806920170783997,0.007952719926834106,-0.22473831341417427,1.79933067398823,2.9310541779064048,0.9495060443878174,0.22285126149654388,0.22085309028625488
1727729550120,6i,5.818641081638038,0.8s : 0.4s,0.06705376361171868,0.02655103656771,0.061573124589193735,0.0176239583949108,0.04652689769864082,-0.02549552731215954,0.029410311952233315,-0.0004183053970336914,-0.011347994208335876,0.013477832078933716,-0.2245023593993624,1.7988988328936244,2.930518251777965,0.9496524333953857,0.22262123227119446,0.22045491635799408
1727729550130,6i,5.818641081638038,0.8s : 0.4s,0.06708302391825739,0.026586994954839842,0.061589477975453034,0.011139836513089977,0.08053945749998093,-0.030910266563296318,0.032792527228593826,-0.007499635219573975,0.006188333034515381,-0.005436539649963379,-0.22435738717108406,1.7982737616502418,2.929788601570833,0.949821412563324,0.2224798947572708,0.2198685258626938
1727729550140,6i,5.818641081638038,0.8s : 0.4s,0.06888324455045872,0.026668406308968943,0.06351139649494449,0.022067670278860967,0.10711287707090378,-0.026580456644296646,0.03077954240143299,-0.008410930633544922,0.017645955085754395,-0.010240048170089722,-0.22435918471948516,1.7975960898592351,2.9287610366009367,0.9499698877334595,0.2224816530942917,0.2192247360944748
1727729550150,6i,5.818641081638038,0.8s : 0.4s,0.07791979358558296,0.026768993632256058,0.07317728617772108,0.012606623983746835,0.1367996633052826,-0.02694983407855034,0.03362379968166351,-0.0031395554542541504,0.012071892619132996,-0.0018274486064910889,-0.22436390039530227,1.796996780146665,2.9274425969916296,0.9501001834869385,0.22248625755310059,0.21865515410900116
1727729550160,6i,5.818641081638038,0.8s : 0.4s,0.09226322572840176,0.02687781637284805,0.08826146276171427,0.008930770753634971,0.18127726018428802,-0.017204662784934044,0.036374546587467194,-0.001038193702697754,0.008851975202560425,-0.0005686432123184204,-0.22447374908816287,1.796448518226816,2.925809963274582,0.9501959085464478,0.22259335219860077,0.21812871098518372
1727729550170,6i,5.818641081638038,0.8s : 0.4s,0.11243108551186007,0.02700209532393617,0.1091404408892151,0.01223612176146552,0.23241128027439117,-0.005888892337679863,0.046129439026117325,-0.004446506500244141,0.008793294429779053,-0.007254600524902344,-0.22461221052980965,1.7958643886001504,2.9236331060750134,0.9502931237220764,0.22272832691669464,0.21756675839424133
1727729550180,6i,5.818641081638038,0.8s : 0.4s,0.1312363967804018,0.027124496291735214,0.12840270067573617,0.013296863097493694,0.2531464993953705,-0.0028935016598552465,0.05506310984492302,-0.010161161422729492,-0.0026048868894577026,-0.008171409368515015,-0.22465907374921495,1.7952901660641765,2.9210667626271136,0.9504079222679138,0.22277401387691498,0.2170187532901764
1727729550190,6i,5.818641081638038,0.8s : 0.4s,0.14038489247102184,0.02721270005589337,0.13772213689080035,0.0183764327939133,0.22906647622585297,-0.006656281650066376,0.06400573998689651,-0.0064882636070251465,-0.01658017933368683,-0.004548996686935425,-0.22451638480832295,1.7947786262358418,2.918517412761426,0.9505497217178345,0.2226349115371704,0.21653960645198822
1727729550200,6i,5.818641081638038,0.8s : 0.4s,0.13789686557588718,0.027253604693211766,0.13517687141993057,0.022725833072375943,0.17070038616657257,-0.003273534355685115,0.05818946287035942,-0.005220472812652588,-0.017173513770103455,0.013938456773757935,-0.2242641630049587,1.7944029369240577,2.916415717088486,0.9506856799125671,0.22238901257514954,0.21619491279125214
1727729550210,6i,5.818641081638038,0.8s : 0.4s,0.13560710642247809,0.027233819499564656,0.13284429377185317,0.029062109569218918,0.1676768958568573,-0.00025244452990591526,0.05784112215042114,-0.0076291561126708984,-0.012199580669403076,0.02525019645690918,-0.22412371992796828,1.7939891496967246,2.9146388891164525,0.9508054256439209,0.22225208580493927,0.21580840647220612
1727729550220,6i,5.818641081638038,0.8s : 0.4s,0.1452470996913625,0.02723494994177478,0.14267087113500648,0.014150147262627255,0.23645249009132385,0.003955882508307695,0.07176752388477325,-0.0064285993576049805,0.009937122464179993,0.007755860686302185,-0.22409630395582703,1.7934984277895876,2.912505375226083,0.95091712474823,0.2222253531217575,0.21534313261508942
1727729550230,6i,5.818641081638038,0.8s : 0.4s,0.17153872155673405,0.027334387527444704,0.16934687553013256,0.0295840735961387,0.334587037563324,0.008803368546068668,0.0853070393204689,-0.009267032146453857,0.02471613883972168,-0.013358592987060547,-0.22405629759147833,1.79289880030215,2.9094557199345505,0.9510548114776611,0.22218634188175201,0.21477487683296204
1727729550240,6i,5.818641081638038,0.8s : 0.4s,0.2091098062678349,0.02750242028797143,0.20729333794330007,0.02888563816508783,0.4273267090320587,0.027955446392297745,0.10712241381406784,-0.019467711448669434,0.020525455474853516,-0.00583900511264801,-0.22405065549140543,1.7922278093563053,2.905444362240054,0.9511998891830444,0.22218084335327148,0.21413694322109222
1727729550250,6i,5.818641081638038,0.8s : 0.4s,0.2621503579838475,0.027746444094320647,0.2606778568102403,0.03402999485859106,0.5580722093582153,0.03111129254102707,0.13188183307647705,-0.007330000400543213,0.020686224102973938,-0.026007533073425293,-0.22402663049641236,1.7913567081204593,2.9002549135969633,0.9513912796974182,0.22215741872787476,0.21330945193767548
1727729550260,6i,5.818641081638038,0.8s : 0.4s,0.32274414664382844,0.028116872342070574,0.32151706903763716,0.04512318651886644,0.6727190017700195,0.037072643637657166,0.1525113731622696,0.0018862485885620117,0.02726462483406067,-0.03590521216392517,-0.22399344558683668,1.7902428949602847,2.893749413928889,0.9516356587409973,0.2221250683069229,0.21225127577781677
1727729550270,6i,5.818641081638038,0.8s : 0.4s,0.38275654182506746,0.028616404739248084,0.38168530452413824,0.04912025026889457,0.7610358595848083,0.04204156994819641,0.15711118280887604,-0.0031568408012390137,0.03689973056316376,-0.03226830065250397,-0.22401772700712172,1.7889559702736642,2.886219135781308,0.9519025683403015,0.22214874625205994,0.211025208234787
1727729550280,6i,5.818641081638038,0.8s : 0.4s,0.4439165611047705,0.02923402315861776,0.44295291523258634,0.05491049391438465,0.8579570651054382,0.05132162198424339,0.15627488493919373,-0.01435166597366333,0.031691938638687134,-0.04248309135437012,-0.2242415100453854,1.7875157404259732,2.877732064259955,0.9521568417549133,0.22236692905426025,0.20964331924915314
1727729550290,6i,5.818641081638038,0.8s : 0.4s,0.5083166955326074,0.029898544160377766,0.507436636452552,0.05156774196652789,0.9593952298164368,0.07835164666175842,0.18722933530807495,-0.011437773704528809,0.03162844479084015,-0.039090290665626526,-0.22451009934458632,1.786065412191111,2.868309704291792,0.9524015188217163,0.22262878715991974,0.20824939012527466
1727729550300,6i,5.818641081638038,0.8s : 0.4s,0.5803131340936575,0.03075113295806007,0.5794978010513924,0.06932042202458177,1.0928410291671753,0.09829556941986084,0.19525188207626343,-0.00812917947769165,0.04578623175621033,-0.051408737897872925,-0.22479428438983012,1.784578626825726,2.8575969241834036,0.952648401260376,0.22290582954883575,0.20681975781917572
1727729550310,6i,5.818641081638038,0.8s : 0.4s,0.6612552806168596,0.031968093930794354,0.6604820868987391,0.10043396169249844,1.2439138889312744,0.1229521781206131,0.2030072659254074,-0.020765483379364014,0.06605035066604614,-0.07275387644767761,-0.2253260609193211,1.7829693507410962,2.8454493436848356,0.9528640508651733,0.22342419624328613,0.2052614390850067
1727729550320,6i,5.818641081638038,0.8s : 0.4s,0.7470143928985657,0.033511975339617174,0.7462623203046296,0.105603652641026,1.3878321647644043,0.1305549144744873,0.2161172330379486,-0.02021026611328125,0.08414173126220703,-0.06052970886230469,-0.22603624006915018,1.78119304800796,2.831810254372283,0.9530715942382812,0.22411637008190155,0.20353533327579498
1727729550330,6i,5.818641081638038,0.8s : 0.4s,0.8243920445581863,0.035103876501425095,0.8236443170358181,0.09022136521561228,1.472233772277832,0.1451202780008316,0.22642260789871216,-0.013699591159820557,0.08342844247817993,-0.0314946174621582,-0.2268621361720928,1.7792189633353606,2.81689643860969,0.9532901048660278,0.22492116689682007,0.201615110039711
1727729550340,6i,5.818641081638038,0.8s : 0.4s,0.8811003642473313,0.03668762879874097,0.8803362254104428,0.07264943090282612,1.4836910963058472,0.14530861377716064,0.23359593749046326,-0.0062697529792785645,0.07186740636825562,-0.008585214614868164,-0.2276399580343655,1.7772179410439968,2.801611390589661,0.9535201787948608,0.22567899525165558,0.19967125356197357
1727729550350,6i,5.818641081638038,0.8s : 0.4s,0.9078545563690463,0.03822593132156544,0.9070494328836973,0.06307907472723087,1.4193941354751587,0.13625971972942352,0.2309759110212326,-0.001414954662322998,0.06264357268810272,0.0072629451751708984,-0.22833690552735025,1.7752255655719316,2.7865169581033364,0.9537618160247803,0.22635790705680847,0.19773909449577332
1727729550360,6i,5.818641081638038,0.8s : 0.4s,0.9315446355601947,0.039723346534532904,0.9306972997602783,0.05464717826703825,1.4415992498397827,0.12752868235111237,0.2530209422111511,-0.0003794431686401367,0.05334414541721344,-0.011856317520141602,-0.22882957706557006,1.7731857271263187,2.771656364984574,0.9540538191795349,0.22683776915073395,0.195770725607872
1727729550370,6i,5.818641081638038,0.8s : 0.4s,0.9594882481946774,0.041304709423068194,0.9585987791579784,0.09426004434029206,1.5022087097167969,0.12594862282276154,0.2340826690196991,-0.02041757106781006,0.06584879755973816,-0.06428074836730957,-0.22937005998846502,1.7709837148662213,2.7564516845882694,0.9543623328208923,0.22736412286758423,0.19364501535892487
1727729550380,6i,5.818641081638038,0.8s : 0.4s,1.0213786756367786,0.043634307273330744,1.0204461995981544,0.18494012052406902,1.7160639762878418,0.14542752504348755,0.22072738409042358,-0.05542564392089844,0.1363258808851242,-0.11200937628746033,-0.23031371990225039,1.768517541110549,2.739293546728406,0.954626202583313,0.22828297317028046,0.1912485808134079
1727729550390,6i,5.818641081638038,0.8s : 0.4s,1.116210769240439,0.04683098851608209,1.1152279318071885,0.2330444236659785,1.9719245433807373,0.16597621142864227,0.2293696105480194,-0.07634556293487549,0.19319181144237518,-0.10563135147094727,-0.23171242858340488,1.7657382105770918,2.7198719550895176,0.954839825630188,0.2296445220708847,0.18853257596492767
1727729550400,6i,5.818641081638038,0.8s : 0.4s,1.2091421947269905,0.05072091492489824,1.2080779096806564,0.24609467487215925,2.1088342666625977,0.15850085020065308,0.20140165090560913,-0.07869362831115723,0.20312799513339996,-0.114494189620018,-0.23349732405257265,1.7625267550035901,2.698399195811871,0.9550365805625916,0.231381356716156,0.1853867918252945
1727729550410,6i,5.818641081638038,0.8s : 0.4s,1.2821876157619432,0.05478267129655115,1.2810167606003093,0.20832719229943297,2.1509101390838623,0.1482820361852646,0.18174539506435394,-0.08128225803375244,0.18006297945976257,-0.06611154973506927,-0.23567158994859672,1.7589392763170348,2.676063351183883,0.9551990628242493,0.2334960699081421,0.1818649172782898
1727729550420,6i,5.818641081638038,0.8s : 0.4s,1.3326917230806694,0.0588057923571914,1.331393671140496,0.1758802039279554,2.149261236190796,0.14074786007404327,0.16327683627605438,-0.0837448239326477,0.15294864773750305,-0.02296435832977295,-0.23794704290003432,1.7552301626586333,2.653623971051169,0.955342173576355,0.23570801317691803,0.17822282016277313
1727729550430,6i,5.818641081638038,0.8s : 0.4s,1.3820539249297936,0.06286792576860384,1.3806232923297364,0.20448185838004887,2.2204947471618652,0.13139057159423828,0.14922413229942322,-0.10344088077545166,0.17371563613414764,-0.030589088797569275,-0.24035029167008495,1.7512927134373244,2.6309604827676325,0.9554765224456787,0.23804286122322083,0.17435765266418457
1727729550440,6i,5.818641081638038,0.8s : 0.4s,1.4509940895214883,0.06760271068754964,1.4494184079602372,0.29298435638998926,2.3901333808898926,0.16969895362854004,0.1335403472185135,-0.13377630710601807,0.25402992963790894,-0.05841684341430664,-0.2430458325209896,1.7471602545339056,2.6071238315617893,0.9555536508560181,0.24066005647182465,0.17029449343681335
1727729550450,6i,5.818641081638038,0.8s : 0.4s,1.544950468930129,0.07322537124642281,1.5432141771164654,0.3583630849664494,2.6176533699035645,0.20507559180259705,0.09262433648109436,-0.1589556336402893,0.315693736076355,-0.05911575257778168,-0.24621963755628412,1.7428253503497615,2.5812042745821984,0.9555256366729736,0.24373936653137207,0.16601911187171936
1727729550460,6i,5.818641081638038,0.8s : 0.4s,1.649829043576907,0.07967688208415392,1.647903961853129,0.39081265863535064,2.814157247543335,0.2087048590183258,0.031782686710357666,-0.16448670625686646,0.3508211672306061,-0.051021233201026917,-0.2502003607113751,1.7381034509182522,2.553203243369536,0.9553344249725342,0.2475980818271637,0.16134248673915863
1727729550470,6i,5.818641081638038,0.8s : 0.4s,1.7544736127829452,0.08685391195032162,1.7523224748688713,0.41754898325683276,2.9686269760131836,0.21775002777576447,-0.012391962110996246,-0.15041989088058472,0.38837695121765137,-0.029738083481788635,-0.2548608914540092,1.7328749191652426,2.523471733948921,0.9550157785415649,0.2521108090877533,0.15615740418434143
1727729550480,6i,5.818641081638038,0.8s : 0.4s,1.8472136151343908,0.09467211570669866,1.8447859849981199,0.43967723481726406,3.0645244121551514,0.21679703891277313,-0.057142190635204315,-0.13938122987747192,0.41662684082984924,-0.017635732889175415,-0.2599828555042059,1.7272082176783143,2.4924982857009335,0.9545971751213074,0.25706398487091064,0.15053999423980713
1727729550490,6i,5.818641081638038,0.8s : 0.4s,1.9514060596157041,0.10308095344754574,1.948681586750702,0.46776620721162104,3.2557926177978516,0.2520839273929596,-0.10394937545061111,-0.14186280965805054,0.44563424587249756,0.009501934051513672,-0.2656076794374919,1.7211824611663693,2.460200071805533,0.954042375087738,0.2624956965446472,0.14456623792648315
1727729550500,6i,5.818641081638038,0.8s : 0.4s,2.0797037491491777,0.11230900474671682,2.076669056849923,0.5291553088584084,3.5267271995544434,0.29000750184059143,-0.12596456706523895,-0.16118162870407104,0.5036433935165405,0.019213423132896423,-0.27170581475739,1.7147043220109426,2.4255560299537477,0.9533568024635315,0.26837506890296936,0.1381506621837616
1727729550510,6i,5.818641081638038,0.8s : 0.4s,2.2301687479504055,0.12264095399869672,2.2267940723688326,0.5925722957751107,3.826791524887085,0.2848220467567444,-0.17913484573364258,-0.18891501426696777,0.5612697601318359,-0.02071954309940338,-0.27833944173515185,1.7073956450827743,2.3878423592800595,0.9525562524795532,0.2747593820095062,0.130933940410614
1727729550520,6i,5.818641081638038,0.8s : 0.4s,2.3846048439885625,0.13401597932601167,2.380835983275414,0.6374397427412938,4.065998554229736,0.2973514497280121,-0.2653830051422119,-0.2230907678604126,0.5970980525016785,0.00581812858581543,-0.28574191038935476,1.69902406490897,2.3472631116426137,0.9515759348869324,0.2818693518638611,0.12269161641597748
1727729550530,6i,5.818641081638038,0.8s : 0.4s,2.5260363958619467,0.1462758604146391,2.5217976219116336,0.6821155026096601,4.225058078765869,0.30340880155563354,-0.35417091846466064,-0.2369043231010437,0.6340899467468262,0.08418931066989899,-0.2939693868722845,1.6898277671089035,2.3047604415302447,0.9503291249275208,0.28975361585617065,0.11365633457899094
1727729550540,6i,5.818641081638038,0.8s : 0.4s,2.658453595444053,0.15949064623677464,2.6536650604197187,0.7269649661008024,4.380445957183838,0.3187789022922516,-0.46666717529296875,-0.23723727464675903,0.6812952160835266,0.08962904661893845,-0.3029630987599646,1.6800132800170258,2.2605837164042706,0.9487698674201965,0.29834964871406555,0.10403574258089066
1727729550550,6i,5.818641081638038,0.8s : 0.4s,2.775285052548859,0.17377189629467837,2.7698394269269966,0.782183951193678,4.488572120666504,0.3111233711242676,-0.5768904089927673,-0.2418028712272644,0.7377461194992065,0.09525632858276367,-0.31275311289152985,1.6692652599890379,2.214960150754381,0.9468809962272644,0.30767935514450073,0.09354088455438614
1727729550560,6i,5.818641081638038,0.8s : 0.4s,2.8787860726531354,0.1890728239041226,2.872570402855705,0.8263860912480431,4.57838249206543,0.3350372910499573,-0.6992955803871155,-0.24799227714538574,0.7782912254333496,0.1252061128616333,-0.3233048263910476,1.6578300221509248,2.1683109831080603,0.9446017146110535,0.31770190596580505,0.08242039382457733
1727729550570,6i,5.818641081638038,0.8s : 0.4s,2.993623512141092,0.20539648388141504,2.9865689372343507,0.8559292613260363,4.76874303817749,0.34150075912475586,-0.834412157535553,-0.24343079328536987,0.8161572813987732,0.08510958403348923,-0.3346947850741204,1.6455721175033915,2.120041836521484,0.9418712854385376,0.32848089933395386,0.07056073099374771
1727729550580,6i,5.818641081638038,0.8s : 0.4s,3.1138178828516496,0.22266510827583733,3.1058464316709604,0.8797946869704732,4.941329002380371,0.3511567711830139,-0.9813340902328491,-0.21677166223526,0.8520928025245667,0.031410086899995804,-0.34707931926833513,1.6320976657900494,2.069565982792129,0.9386038184165955,0.3401527404785156,0.05760985240340233
1727729550590,6i,5.818641081638038,0.8s : 0.4s,3.2268822046774432,0.24063921208131883,3.217897066792665,0.8936526958836167,5.059323310852051,0.3361615836620331,-1.1176258325576782,-0.1621667742729187,0.8782875537872314,0.03046393021941185,-0.36025939845235694,1.617259747867481,2.017245421449658,0.9347954988479614,0.3525169789791107,0.04346507787704468
1727729550600,6i,5.818641081638038,0.8s : 0.4s,3.3246719352213727,0.25906830516485085,3.3145628806989977,0.9008643860992054,5.1264519691467285,0.2638257145881653,-1.2520540952682495,-0.10348629951477051,0.8933259844779968,0.05306518077850342,-0.37408120621371566,1.6009355850145468,1.9636908618978492,0.9304211139678955,0.3654174208641052,0.028050696477293968
1727729550610,6i,5.818641081638038,0.8s : 0.4s,3.4217683338319853,0.2779238855555901,3.4104628489771014,0.9266073626999127,5.243741035461426,0.14486311376094818,-1.3842923641204834,-0.04785209894180298,0.9242935180664062,0.04464161396026611,-0.3883422811530505,1.5823267469685691,1.9088097914786324,0.9254767298698425,0.3786546587944031,0.01067160815000534
1727729550620,6i,5.818641081638038,0.8s : 0.4s,3.5332754894499674,0.297384760861434,3.5207382731971566,0.9719978628474014,5.423376083374023,0.07616225630044937,-1.5464208126068115,-0.02809077501296997,0.9713696241378784,0.020779967308044434,-0.4030404377903609,1.5611117130570424,1.8516647532451196,0.9198296666145325,0.3922169804573059,-0.008908473886549473
1727729550630,6i,5.818641081638038,0.8s : 0.4s,3.633600363744805,0.3176901403567945,3.619685701566706,1.027114148103087,5.4780402183532715,0.0652499571442604,-1.7457669973373413,-0.045547544956207275,1.025976300239563,0.016171757131814957,-0.4183400834165901,1.537863262999734,1.7924690716762355,0.91326904296875,0.4062442481517792,-0.030087625607848167
1727729550640,6i,5.818641081638038,0.8s : 0.4s,3.705240304764765,0.33885067115221373,3.6897135307111557,1.069177975229189,5.432487964630127,0.061975911259651184,-1.895859718322754,-0.030550837516784668,1.0682108402252197,0.033671796321868896,-0.4341284301444131,1.51351817613176,1.7325936764597898,0.9057492017745972,0.4206198453903198,-0.051936451345682144
1727729550650,6i,5.818641081638038,0.8s : 0.4s,3.773584220149739,0.360505607393294,3.7563244766128907,1.0637859250289896,5.460602760314941,-0.08384440839290619,-2.0841562747955322,0.03488677740097046,1.063213586807251,0.0005252435803413391,-0.4501413940138933,1.4870073148349523,1.6719208235426641,0.8972268104553223,0.43509283661842346,-0.07535417377948761
1727729550660,6i,5.818641081638038,0.8s : 0.4s,3.8200919443017276,0.38236875632417217,3.800907338663501,1.0517196930464998,5.369512557983398,-0.22463952004909515,-2.2910449504852295,0.08669447898864746,1.0475581884384155,-0.03493167459964752,-0.4668001947801588,1.457667241236092,1.609323545908233,0.8873046636581421,0.4500311315059662,-0.10081039369106293
1727729550670,6i,5.818641081638038,0.8s : 0.4s,3.8549684365550614,0.4043262696825372,3.833706028698651,1.0616771060645847,5.3060431480407715,-0.3678017258644104,-2.4393975734710693,0.14965003728866577,1.05104398727417,0.008347496390342712,-0.48342023807825085,1.4259408814734122,1.547737075606838,0.8761374354362488,0.46481019258499146,-0.12780846655368805
1727729550680,6i,5.818641081638038,0.8s : 0.4s,3.8858695954730624,0.42644182382171336,3.8623994982287364,1.0863289908488971,5.240625858306885,-0.49959269165992737,-2.6261167526245117,0.19991612434387207,1.0677720308303833,0.0026664137840270996,-0.4999629737508104,1.391486247419962,1.48548549698025,0.8635299205780029,0.47939303517341614,-0.15652070939540863
1727729550690,6i,5.818641081638038,0.8s : 0.4s,3.9224452355277797,0.448964538210844,3.896666199348323,1.1313442285095405,5.230751037597656,-0.6199488639831543,-2.7687618732452393,0.22647547721862793,1.108372688293457,-0.012593865394592285,-0.5161564984757695,1.3543911853037742,1.4221154835542362,0.8494369983673096,0.49354100227355957,-0.18674686551094055
1727729550700,6i,5.818641081638038,0.8s : 0.4s,3.960585428173213,0.4720458151537092,3.932354216274758,1.1784736551662818,5.198760986328125,-0.7412348985671997,-2.9186134338378906,0.2644459009170532,1.1484179496765137,0.002175837755203247,-0.5315863281804992,1.3144484656216324,1.357537607877696,0.833835780620575,0.5069013833999634,-0.21856063604354858
1727729550710,6i,5.818641081638038,0.8s : 0.4s,4.022757101178004,0.4959646805028902,3.9920663484931866,1.2552797788178522,5.273146629333496,-0.871738851070404,-3.098614454269409,0.31380635499954224,1.2152174711227417,0.022347092628479004,-0.5462043703501699,1.2713345566780363,1.2910345287853813,0.816473126411438,0.5194476246833801,-0.25208333134651184
1727729550720,6i,5.818641081638038,0.8s : 0.4s,4.095669226403126,0.5207807124234571,4.062424628429836,1.327560457096163,5.349142551422119,-0.9964447021484375,-3.2041983604431152,0.4042755961418152,1.2642658948898315,0.02469325065612793,-0.5593025242507957,1.2247157903289743,1.2219116230957017,0.7973692417144775,0.5305951237678528,-0.28752586245536804
1727729550730,6i,5.818641081638038,0.8s : 0.4s,4.169620401092254,0.5462266598277706,4.13368730376381,1.362654770348505,5.37703275680542,-1.1957035064697266,-3.3070366382598877,0.5095811486244202,1.2635633945465088,0.023719698190689087,-0.5701774192589213,1.1746535138405738,1.1506953701867528,0.7766126394271851,0.539781391620636,-0.32482126355171204
1727729550740,6i,5.818641081638038,0.8s : 0.4s,4.220682637365101,0.5719768948470106,4.181746567777201,1.3718542088338725,5.25277853012085,-1.4148231744766235,-3.4133591651916504,0.592714786529541,1.235595941543579,0.06305411458015442,-0.5790460732525112,1.1212964067035553,1.0785003637976525,0.7538427710533142,0.5472257733345032,-0.36368271708488464
1727729550750,6i,5.818641081638038,0.8s : 0.4s,4.246147162209466,0.5979229232480564,4.203837996521036,1.398282376211934,5.028853893280029,-1.6132878065109253,-3.5698492527008057,0.6677590608596802,1.22158682346344,0.13044950366020203,-0.5863943701921073,1.0654566337730833,1.0067486411448319,0.7288320660591125,0.5533613562583923,-0.40323081612586975
1727729550760,6i,5.818641081638038,0.8s : 0.4s,4.262853250975307,0.623944653050966,4.216943313500889,1.4038187965950817,4.883491039276123,-1.777643084526062,-3.671710252761841,0.7079179286956787,1.1949801445007324,0.20391634106636047,-0.5924464732566268,1.0075851103280467,0.9356514701518349,0.7014447450637817,0.5583922266960144,-0.4429146647453308
1727729550770,6i,5.818641081638038,0.8s : 0.4s,4.281586475106561,0.6498706430078763,4.2319795475843165,1.3928088708589628,4.852712154388428,-1.9166538715362549,-3.677055835723877,0.7561464309692383,1.152411937713623,0.20026445388793945,-0.5956457219989746,0.9479287739173127,0.8644569623823539,0.6723355650901794,0.561043381690979,-0.48290297389030457
1727729550780,6i,5.818641081638038,0.8s : 0.4s,4.271104058095566,0.6758915960173344,4.217285907489976,1.361594910254242,4.600823879241943,-2.107506513595581,-3.69276762008667,0.790664553642273,1.0802161693572998,0.24884390830993652,-0.5961145037635559,0.8870874475685208,0.7946572271470972,0.6415253281593323,0.5614314079284668,-0.5227238535881042
1727729550790,6i,5.818641081638038,0.8s : 0.4s,4.235576854974604,0.7009146576761032,4.177179663008446,1.2790411759634264,4.2154316902160645,-2.227094888687134,-3.8555121421813965,0.7696114778518677,0.9815084338188171,0.28334730863571167,-0.5957071578783202,0.8260687479525775,0.7271309198208169,0.6086233258247375,0.5610942244529724,-0.5610267519950867
1727729550800,6i,5.818641081638038,0.8s : 0.4s,4.209421786388737,0.7261004067425675,4.146324875724576,1.3283932765970594,3.938918352127075,-2.350520610809326,-4.062534809112549,0.7799393534660339,1.0376124382019043,0.28228306770324707,-0.5955259649668899,0.7646893781203605,0.6586460173279247,0.5731337070465088,0.5609442591667175,-0.5973770618438721
1727729550810,6i,5.818641081638038,0.8s : 0.4s,4.234229801734174,0.7520849491478082,4.1669017558804,1.4661764985102579,3.9154908657073975,-2.4560658931732178,-4.3186259269714355,0.8471874594688416,1.174990177154541,0.22659438848495483,-0.5944354242006976,0.7018408711248597,0.5893718250617933,0.5348772406578064,0.5600411295890808,-0.6326612234115601
1727729550820,6i,5.818641081638038,0.8s : 0.4s,4.292386941791467,0.7794477735895589,4.221024381155382,1.6103665752071625,3.906053304672241,-2.5807628631591797,-4.526883125305176,0.9611984491348267,1.2706325054168701,0.23424577713012695,-0.5913807600628249,0.6369282017523604,0.5182290430469405,0.4937269687652588,0.5575078129768372,-0.6673969626426697
1727729550830,6i,5.818641081638038,0.8s : 0.4s,4.38010538304182,0.8074356181828952,4.305040172755828,1.6625776901671152,4.118729114532471,-2.73392915725708,-4.551319122314453,1.1211485862731934,1.180970311164856,0.3354095220565796,-0.584066830307675,0.570167031676673,0.4458527988919792,0.4502929449081421,0.5514211654663086,-0.7022613883018494
1727729550840,6i,5.818641081638038,0.8s : 0.4s,4.418996967417317,0.8347267809730566,4.3394429825923275,1.6084377563771384,3.861193895339966,-2.8983287811279297,-4.508338451385498,1.229544758796692,0.9663708806037903,0.3760572075843811,-0.5727318689064492,0.5031421736514028,0.37478006511824924,0.40523603558540344,0.5419300198554993,-0.7362714409828186
1727729550850,6i,5.818641081638038,0.8s : 0.4s,4.4006525526278475,0.8618888259672577,4.315424723086104,1.5292115933561086,3.4637866020202637,-3.008992910385132,-4.431056499481201,1.2195192575454712,0.7999905347824097,0.4596477150917053,-0.5603963638743054,0.43766900482285626,0.3079022804807123,0.35900232195854187,0.5315219759941101,-0.7672038674354553
1727729550860,6i,5.818641081638038,0.8s : 0.4s,4.360525866364372,0.8874547942823587,4.269263381350232,1.4563267402545474,3.1637685298919678,-3.0650434494018555,-4.414079666137695,1.166815161705017,0.7388467788696289,0.4620988965034485,-0.5473909872930864,0.3740380426844841,0.2448062535808241,0.31199029088020325,0.5204612016677856,-0.794847309589386
1727729550870,6i,5.818641081638038,0.8s : 0.4s,4.318440206792215,0.912607063426521,4.220909163607245,1.4485879464279727,2.803293466567993,-3.1548683643341064,-4.499774932861328,1.1118202209472656,0.8230260014533997,0.4299895763397217,-0.5342770196362984,0.3117617844084269,0.1842172485178797,0.26398834586143494,0.5092189311981201,-0.8191497325897217
1727729550880,6i,5.818641081638038,0.8s : 0.4s,4.3208919261723,0.9386338502550652,4.2177095126165725,1.529954379861166,2.712430238723755,-3.236489772796631,-4.660619258880615,1.1218609809875488,0.98572838306427,0.33245736360549927,-0.520699516865881,0.24973934106253376,0.12453296260109728,0.21439677476882935,0.49748706817626953,-0.8405597805976868
1727729550890,6i,5.818641081638038,0.8s : 0.4s,4.367275399002351,0.966042863100351,4.259090935561722,1.6445270646029837,2.8244705200195312,-3.3904597759246826,-4.800535678863525,1.2307624816894531,1.0677838325500488,0.22255486249923706,-0.5039179307424259,0.18736015604130515,0.06465286622878917,0.1631125807762146,0.48286014795303345,-0.8603722453117371
1727729550900,6i,5.818641081638038,0.8s : 0.4s,4.430147941695043,0.9942842749517953,4.3171297833037645,1.702645822505835,2.7440688610076904,-3.515322208404541,-4.945731163024902,1.3665167093276978,0.9941227436065674,0.2082182765007019,-0.4839954536663603,0.12449139662319383,0.004914309736147079,0.10990826040506363,0.46531942486763,-0.8782926797866821
1727729550910,6i,5.818641081638038,0.8s : 0.4s,4.457154772169947,1.0220636049738605,4.338388485424648,1.6591609410059625,2.502286195755005,-3.627638101577759,-4.867231845855713,1.4335777759552002,0.7813533544540405,0.2952231764793396,-0.4623453984006333,0.06250796180430672,-0.05280083794522532,0.055908750742673874,0.4460484981536865,-0.8932608962059021
1727729550920,6i,5.818641081638038,0.8s : 0.4s,4.447052768769539,1.0482264313177754,4.321747294429374,1.5547325510595502,1.911696195602417,-3.755112409591675,-4.857390403747559,1.4239404201507568,0.5507862567901611,0.29363495111465454,-0.44154045393384356,0.0016140426937607444,-0.10753420747212471,0.0014592463849112391,0.42733269929885864,-0.9040932655334473
1727729550930,6i,5.818641081638038,0.8s : 0.4s,4.399390870854112,1.0732702688425033,4.266465863519037,1.4911024899919836,1.3632415533065796,-3.7476086616516113,-4.825582504272461,1.3402433395385742,0.541786253452301,0.36551618576049805,-0.42425722413395545,-0.05828578539342954,-0.16051680802057497,-0.05308837443590164,0.41164398193359375,-0.909797191619873
1727729550940,6i,5.818641081638038,0.8s : 0.4s,4.3472854912960575,1.0985975071550507,4.206182908541415,1.5702806675969667,1.1159615516662598,-3.7860639095306396,-4.693876266479492,1.3543438911437988,0.6326414942741394,0.480935275554657,-0.406989672322445,-0.11639701543446936,-0.2105480213945821,-0.10664811730384827,0.3958466947078705,-0.9121028780937195
1727729550950,6i,5.818641081638038,0.8s : 0.4s,4.352439655738659,1.1244805169325671,4.204672938991275,1.5222654389702857,1.186103105545044,-3.724705457687378,-4.92965841293335,1.266739845275879,0.7558982372283936,0.3758724331855774,-0.38956160969942505,-0.1735367633882608,-0.2608710674029182,-0.15973009169101715,0.37978291511535645,-0.9111812114715576
1727729550960,6i,5.818641081638038,0.8s : 0.4s,4.324727298154053,1.150869476231529,4.168784673268388,1.457325522809108,1.6365678310394287,-3.5290982723236084,-4.683506965637207,1.2016854286193848,0.788453996181488,0.2410188913345337,-0.36609224044299593,-0.22728200242342506,-0.30863071672986503,-0.2103983759880066,0.35796937346458435,-0.9097200036048889
1727729550970,6i,5.818641081638038,0.8s : 0.4s,4.311978029058297,1.1770191114785473,4.148226191313068,1.4278411824159354,1.5792758464813232,-3.548898458480835,-4.718178749084473,1.2466896772384644,0.6696890592575073,0.18976789712905884,-0.3384279877029648,-0.277680153417492,-0.3524386416030939,-0.2585763931274414,0.3320046663284302,-0.9071444869041443
1727729550980,6i,5.818641081638038,0.8s : 0.4s,4.330689683985424,1.2028127229929875,4.160302235701629,1.4108417812902825,1.3265255689620972,-3.690206527709961,-4.867990493774414,1.2528232336044312,0.6242506504058838,0.1766906976699829,-0.3103490705780151,-0.3277833077056185,-0.39630058639390076,-0.3065648674964905,0.3053910434246063,-0.9015288949012756
1727729550990,6i,5.818641081638038,0.8s : 0.4s,4.3703638055254315,1.2291372542398558,4.193960109834909,1.5865351236671998,1.1577645540237427,-3.8353219032287598,-4.965472221374512,1.438534140586853,0.6652624607086182,0.07168740034103394,-0.28179644649963387,-0.37816930014577627,-0.44002956544011707,-0.35465678572654724,0.2780816853046417,-0.8926864862442017
1727729551000,6i,5.818641081638038,0.8s : 0.4s,4.420862534537079,1.2563798535952124,4.238577026875138,1.7377056093017862,1.06804621219635,-3.8957087993621826,-5.0700178146362305,1.6072466373443604,0.6602180600166321,0.022161781787872314,-0.2517655178730933,-0.42828064193933396,-0.4834170688265683,-0.4022144377231598,0.24911420047283173,-0.88100266456604
1727729551010,6i,5.818641081638038,0.8s : 0.4s,4.448254717159525,1.2837236997626738,4.258993248574081,1.7321761985780755,0.8694684505462646,-3.9966468811035156,-4.965102195739746,1.6523422002792358,0.5191015005111694,0.02707892656326294,-0.22102062059155828,-0.47763742148727084,-0.5255586693786325,-0.4485001564025879,0.21922552585601807,-0.8664801120758057
1727729551020,6i,5.818641081638038,0.8s : 0.4s,4.432140933756759,1.3099112029060693,4.2341475998344,1.5667495627642871,0.6981969475746155,-3.96768856048584,-4.76406192779541,1.5273337364196777,0.3492172956466675,0.0017693042755126953,-0.19083349290628587,-0.5257573569975801,-0.5652898721257361,-0.49275755882263184,0.18967732787132263,-0.8492423295974731
1727729551030,6i,5.818641081638038,0.8s : 0.4s,4.391059354055792,1.334468590883997,4.183371347464261,1.3460399053239487,0.6111453771591187,-3.8108272552490234,-4.68117094039917,1.3068255186080933,0.2870151996612549,0.14714878797531128,-0.16086701324793315,-0.5712566380879385,-0.6028216223043884,-0.5337086319923401,0.16017408668994904,-0.830361008644104
1727729551040,6i,5.818641081638038,0.8s : 0.4s,4.342122799179643,1.3577066302751182,4.124398514845849,1.2439896255109313,0.9621844291687012,-3.6268911361694336,-4.6065354347229,1.1999635696411133,0.3040156066417694,0.12317520380020142,-0.12849710566685926,-0.6133808974178099,-0.637390303115673,-0.5708895325660706,0.1281437873840332,-0.8109650611877441
1727729551050,6i,5.818641081638038,0.8s : 0.4s,4.281897208895655,1.3805104361877552,4.053249886587934,1.2769848925598262,1.261023759841919,-3.466404914855957,-4.478610992431641,1.2196292877197266,0.3770279288291931,0.032322704792022705,-0.09255600880948754,-0.6522135949503008,-0.6675761418530921,-0.6043492555618286,0.09242391586303711,-0.7913405299186707
1727729551060,6i,5.818641081638038,0.8s : 0.4s,4.217338314211032,1.4036071443772231,3.976912048407102,1.3580081404209672,1.5005635023117065,-3.3414595127105713,-4.340580940246582,1.287692904472351,0.4187931716442108,0.10317641496658325,-0.05440865161200293,-0.6880969803903523,-0.6936093411064731,-0.6341285705566406,0.05438181012868881,-0.7713128924369812
1727729551070,6i,5.818641081638038,0.8s : 0.4s,4.16788266842587,1.4270153920920325,3.9159766353359635,1.434134475726987,1.5551295280456543,-3.2808611392974854,-4.311738014221191,1.3765244483947754,0.3630806803703308,0.17347782850265503,-0.014574803935168766,-0.7220128280858045,-0.7164758922117687,-0.6608263850212097,0.01457428839057684,-0.750397264957428
1727729551080,6i,5.818641081638038,0.8s : 0.4s,4.122207903740123,1.4505430167663904,3.8585648832393367,1.4911198762520796,1.4667327404022217,-3.2549736499786377,-4.254805564880371,1.4300543069839478,0.2762957513332367,0.3194429874420166,0.025367780654329916,-0.754568746198223,-0.7381070110996145,-0.6847541928291321,-0.025365060195326805,-0.7283326387405396
1727729551090,6i,5.818641081638038,0.8s : 0.4s,4.0840431276335085,1.4735116276660503,3.8089594053367692,1.4850047321945248,1.5632824897766113,-3.2096290588378906,-4.195370197296143,1.4457902908325195,0.12945625185966492,0.3133218288421631,0.06566071968476436,-0.7860087091670179,-0.7578634489835051,-0.7060137391090393,-0.06561354547739029,-0.705152153968811
1727729551100,6i,5.818641081638038,0.8s : 0.4s,4.028055747584112,1.495139713858047,3.7402928149664803,1.3745904387439234,1.5185495615005493,-3.1959640979766846,-3.996821641921997,1.3614972829818726,0.005956955254077911,0.18917858600616455,0.10590158268481308,-0.8165014078556708,-0.7754476154564944,-0.7246718406677246,-0.10570374131202698,-0.6809386610984802
1727729551110,6i,5.818641081638038,0.8s : 0.4s,3.9641475411562355,1.5152702176180597,3.6631164185232694,1.312966671079676,1.6744331121444702,-3.095477342605591,-3.8266570568084717,1.2773759365081787,-0.07323819398880005,0.2946665287017822,0.14532092812171216,-0.8462269416902316,-0.7901611704236281,-0.7408923506736755,-0.14480997622013092,-0.6558266878128052
1727729551120,6i,5.818641081638038,0.8s : 0.4s,3.9139210054935982,1.5336462072981298,3.6009314000802735,1.210765308245536,1.9464433193206787,-2.9664716720581055,-3.7605197429656982,1.1640287637710571,-0.14321181178092957,0.30079901218414307,0.18596809774377127,-0.8746944226866062,-0.8013270796615475,-0.7541167736053467,-0.1848980188369751,-0.6301751136779785
1727729551130,6i,5.818641081638038,0.8s : 0.4s,3.846593432639066,1.550921065562791,3.520074556655806,1.1844049130455534,2.129065990447998,-2.8694217205047607,-3.490196943283081,1.1352715492248535,-0.11802135407924652,0.31629806756973267,0.22703319531214758,-0.9024075647341436,-0.8085864871025144,-0.7646814584732056,-0.22508785128593445,-0.6038192510604858
1727729551140,6i,5.818641081638038,0.8s : 0.4s,3.7686601707022698,1.5679579964741013,3.4269968198891845,1.2042587681489336,2.327814817428589,-2.677915334701538,-3.269906997680664,1.1375572681427002,-0.04588735103607178,0.39255189895629883,0.26734462803921966,-0.9295569326996426,-0.8114781693784175,-0.7728874683380127,-0.2641713321208954,-0.5769389271736145
1727729551150,6i,5.818641081638038,0.8s : 0.4s,3.6774501023104897,1.5848785478336918,3.318403116500465,1.2055464372247175,2.3985607624053955,-2.418944835662842,-3.1028218269348145,1.0809513330459595,-0.027109235525131226,0.5330586433410645,0.3070700992237088,-0.9552148321240587,-0.8110159386204112,-0.778247594833374,-0.30226707458496094,-0.5504229664802551
1727729551160,6i,5.818641081638038,0.8s : 0.4s,3.5564902991186385,1.601535365577373,3.175485430690862,1.2587644915100926,2.301706314086914,-2.12461519241333,-2.894763231277466,1.010831594467163,-0.14675503969192505,0.7356429100036621,0.3451169315490168,-0.9787394318615265,-0.8085551375238966,-0.7808665037155151,-0.338306725025177,-0.5251629948616028
1727729551170,6i,5.818641081638038,0.8s : 0.4s,3.4032850420663268,1.6173559174415681,2.9944129497898486,1.2041013552484046,2.217836618423462,-1.8698173761367798,-2.5487847328186035,0.8815618753433228,-0.36382588744163513,0.7350778579711914,0.3803560630911697,-1.0001091981025167,-0.8043810055075402,-0.781387984752655,-0.37125110626220703,-0.5016029477119446
1727729551180,6i,5.818641081638038,0.8s : 0.4s,3.221826607702054,1.632154816676541,2.777811610692218,1.1910863302509127,1.9555431604385376,-1.692435622215271,-2.207566738128662,0.7999179363250732,-0.5871448516845703,0.6588466167449951,0.41137498007650686,-1.020051275333249,-0.7988386165552248,-0.7810428142547607,-0.39986997842788696,-0.4796624481678009
1727729551190,6i,5.818641081638038,0.8s : 0.4s,3.0657652861374514,1.6459199761527912,2.5864771836972857,1.1845158231996369,2.0276448726654053,-1.4932838678359985,-1.9998408555984497,0.7647164463996887,-0.6839792132377625,0.5919957160949707,0.4392812420343008,-1.0386673502069623,-0.7924996352607605,-0.7799142599105835,-0.4252890646457672,-0.4591982662677765
1727729551200,6i,5.818641081638038,0.8s : 0.4s,2.934797655249621,1.6575110356173202,2.4219195783645397,1.0990973730843308,2.0883657932281494,-1.2415821552276611,-1.885846734046936,0.835515022277832,-0.5050561428070068,0.504824697971344,0.4660042464940401,-1.056575862622584,-0.783343348980595,-0.7778369188308716,-0.4493201971054077,-0.4394100606441498
1727729551210,6i,5.818641081638038,0.8s : 0.4s,2.7711683090987598,1.6668771044977009,2.213796403433396,1.2021520766125982,1.5978693962097168,-1.1545450687408447,-1.6620383262634277,0.7288161516189575,-0.6185532808303833,0.7289639711380005,0.4908053498328262,-1.0725557790776385,-0.7748655621671505,-0.7747299671173096,-0.47133633494377136,-0.42146867513656616
1727729551220,6i,5.818641081638038,0.8s : 0.4s,2.589162155924118,1.6752265285274404,1.9741774863946577,1.2606570289347327,0.948987603187561,-1.0856631994247437,-1.5706709623336792,0.8155451416969299,-0.6182215213775635,0.7361687421798706,0.5107703953855698,-1.0855847398911715,-0.7707978866828843,-0.7716761827468872,-0.4888494610786438,-0.4068686068058014
1727729551230,6i,5.818641081638038,0.8s : 0.4s,2.4048129740134745,1.68357289791145,1.7171801703378633,1.1948974584621048,0.6611233353614807,-0.8458985686302185,-1.3064947128295898,0.6793196797370911,-0.46479493379592896,0.866181492805481,0.5272357667091302,-1.0953970715635737,-0.7705825921515244,-0.7683699727058411,-0.5031464099884033,-0.395539253950119
1727729551240,6i,5.818641081638038,0.8s : 0.4s,2.2339034453537017,1.691249628670205,1.4594517109812277,0.9935416344195016,0.5407218933105469,-0.614185631275177,-0.9945389628410339,0.5539941787719727,-0.39619195461273193,0.7233583927154541,0.5402624085384754,-1.1026732311640521,-0.7706325064853313,-0.7653132081031799,-0.5143610239028931,-0.3869476616382599
1727729551250,6i,5.818641081638038,0.8s : 0.4s,2.0785421405647306,1.6984294027489317,1.1981965589924386,1.0145845898852377,0.5504592061042786,-0.2642606496810913,-0.6553444266319275,0.513777494430542,-0.39099717140197754,0.782646656036377,0.5500140284767404,-1.1078602617079658,-0.7691271038414313,-0.7627856731414795,-0.5226991772651672,-0.38071462512016296
1727729551260,6i,5.818641081638038,0.8s : 0.4s,1.9444133074761614,1.7054339170200468,0.9339369705542473,1.0556621601659413,0.4018867313861847,-0.0030953690875321627,-0.3531014323234558,0.4308279752731323,-0.5063830018043518,0.8199915289878845,0.5567951508845053,-1.1103948404127764,-0.7667536237539719,-0.7605552077293396,-0.528468132019043,-0.3771965205669403
1727729551270,6i,5.818641081638038,0.8s : 0.4s,1.8333732128935045,1.711004107773256,0.65857594925604,1.1118145742727745,0.19619642198085785,0.2784619927406311,-0.016326051205396652,0.4077605605125427,-0.5883888602256775,0.8506829738616943,0.5597215407686434,-1.1102837373852608,-0.7644644453961738,-0.759124755859375,-0.5309502482414246,-0.3765921890735626
1727729551280,6i,5.818641081638038,0.8s : 0.4s,1.7591880950958922,1.7164558414254976,0.3853856488809637,1.087726203788469,-0.00960867665708065,0.5632225871086121,0.35008302330970764,0.39741188287734985,-0.5895076990127563,0.82322096824646,0.5586895781659789,-1.1070006670459587,-0.7626883457609187,-0.7583738565444946,-0.5300754904747009,-0.37932729721069336
1727729551290,6i,5.818641081638038,0.8s : 0.4s,1.7365677699516757,1.7217164916552439,0.2266273196181228,1.0635914445581214,-0.12309608608484268,0.8369989991188049,0.7265379428863525,0.3656245470046997,-0.6205204129219055,0.7826237082481384,0.5534895169175152,-1.101136853819026,-0.7605910034629949,-0.7585843205451965,-0.5256589651107788,-0.3850100636482239
1727729551300,6i,5.818641081638038,0.8s : 0.4s,1.7683917064224604,1.7269400811817082,0.38064049095157554,1.0563472203723825,-0.2008080631494522,1.1001498699188232,1.0571211576461792,0.4388517737388611,-0.6155450344085693,0.7378230690956116,0.5448322457693558,-1.0930383741978364,-0.7575625684036257,-0.7594542503356934,-0.5182746052742004,-0.39321839809417725
1727729551310,6i,5.818641081638038,0.8s : 0.4s,1.8499464567531696,1.7322340926066266,0.6493588693972719,1.092216386515632,-0.26025328040122986,1.3798431158065796,1.38917875289917,0.5537867546081543,-0.6203396320343018,0.7081211805343628,0.5329169227367915,-1.0828330482609418,-0.7532408844248422,-0.7608028650283813,-0.5080479383468628,-0.40381500124931335
1727729551320,6i,5.818641081638038,0.8s : 0.4s,1.9722564039479624,1.7375493358311984,0.9331225152499051,1.168103030822491,-0.3923753499984741,1.6382253170013428,1.7130004167556763,0.6332984566688538,-0.6920309066772461,0.6960538625717163,0.517707457449392,-1.0703702218952449,-0.7480542345275686,-0.7624031901359558,-0.4948893189430237,-0.41692468523979187
1727729551330,6i,5.818641081638038,0.8s : 0.4s,2.1315328845821235,1.7435315549087693,1.2261852042380859,1.2650660449014473,-0.5777393579483032,1.9383424520492554,2.0219006538391113,0.7668084502220154,-0.7257104516029358,0.6969513893127441,0.4990129114816403,-1.0552401538518255,-0.7424934747086523,-0.7639245986938477,-0.47855904698371887,-0.4328978657722473
1727729551340,6i,5.818641081638038,0.8s : 0.4s,2.323278952123649,1.7507749328064184,1.5272236980997387,1.3103405374852664,-0.6711646318435669,2.2753849029541016,2.332305431365967,0.8672989010810852,-0.6895387172698975,0.6995150446891785,0.47701313936077183,-1.0370868274984395,-0.7363573489784845,-0.7648209929466248,-0.4591277837753296,-0.45194104313850403
1727729551350,6i,5.818641081638038,0.8s : 0.4s,2.5492383469830653,1.7595661437992973,1.8445983669417636,1.3288892359496804,-0.7253442406654358,2.668067216873169,2.683109760284424,0.9204682111740112,-0.6334013938903809,0.7193660736083984,0.4519752745231098,-1.015850735648658,-0.7285945254031063,-0.764584481716156,-0.4367433190345764,-0.473989337682724
1727729551360,6i,5.818641081638038,0.8s : 0.4s,2.8147686169884705,1.7703101520791553,2.1883611065426707,1.4252041848113695,-0.8125898241996765,3.0788018703460693,3.11757230758667,1.0184400081634521,-0.6070237159729004,0.7908913493156433,0.4234303111504279,-0.9913882326484627,-0.7185198523595574,-0.7628859877586365,-0.41089022159576416,-0.49917367100715637
1727729551370,6i,5.818641081638038,0.8s : 0.4s,3.1121222436336056,1.7833332166517522,2.5504955396364806,1.5887810366957784,-0.9645743370056152,3.4853928089141846,3.5390594005584717,1.1660804748535156,-0.6435030698776245,0.866247832775116,0.3908474626503589,-0.9633864613199076,-0.7062650150343041,-0.7592049241065979,-0.38097211718559265,-0.5277009010314941
1727729551380,6i,5.818641081638038,0.8s : 0.4s,3.428967656926122,1.7988066345789386,2.919265983708955,1.7473070061589795,-1.0778590440750122,3.8714370727539062,3.9464733600616455,1.321685791015625,-0.6982362866401672,0.9048174023628235,0.3544419999659272,-0.9318690755561456,-0.6917779542148392,-0.752838134765625,-0.34706711769104004,-0.5592666864395142
1727729551390,6i,5.818641081638038,0.8s : 0.4s,3.7543090031731863,1.8171934381640202,3.2852159897944113,1.9038613207335326,-1.1965655088424683,4.231017112731934,4.325542449951172,1.5169429779052734,-0.7071095705032349,0.9075064659118652,0.31475508903623184,-0.8969673292358366,-0.6745468486312689,-0.7430478930473328,-0.3095836043357849,-0.5933278203010559
1727729551400,6i,5.818641081638038,0.8s : 0.4s,4.081087735939341,1.8393348315073108,3.6430927089546414,2.068821401740208,-1.2990565299987793,4.549490928649902,4.70600700378418,1.742214560508728,-0.6283367872238159,0.9219020009040833,0.27200830029576023,-0.8588562444146717,-0.6545025413981431,-0.7292599081993103,-0.26866644620895386,-0.6292840242385864
1727729551410,6i,5.818641081638038,0.8s : 0.4s,4.409391366483823,1.8660626671713656,3.995064748538047,2.26058091099703,-1.3723896741867065,4.836352825164795,5.1229400634765625,1.9907042980194092,-0.5161232948303223,0.9385836124420166,0.22653197755751656,-0.8177221576142144,-0.6308918319448733,-0.7109497785568237,-0.2245994657278061,-0.6664124131202698
1727729551420,6i,5.818641081638038,0.8s : 0.4s,4.7392631103031135,1.8980611630193633,4.34257742016392,2.509450331851512,-1.3470137119293213,5.129078388214111,5.556784629821777,2.2775275707244873,-0.4354822635650635,0.959460437297821,0.17884243635125777,-0.7735437721338136,-0.602679006263406,-0.6875312924385071,-0.1778905987739563,-0.7040281295776367
1727729551430,6i,5.818641081638038,0.8s : 0.4s,5.066206094289149,1.9358279778591791,4.681774688080382,2.8087622829017325,-1.3140592575073242,5.407829284667969,5.966240406036377,2.5957672595977783,-0.41204211115837097,0.9906357526779175,0.12988780730069108,-0.7260704467753297,-0.5691382518465904,-0.6583436131477356,-0.1295228898525238,-0.7414901256561279
1727729551440,6i,5.818641081638038,0.8s : 0.4s,5.391411266097902,1.9798447334870228,5.014731325952676,3.1423793790263304,-1.4396178722381592,5.665139675140381,6.351864337921143,2.929218292236328,-0.41157329082489014,1.0605827569961548,0.07979866540402243,-0.6747121479839112,-0.5306069179732348,-0.6226847171783447,-0.07971400022506714,-0.7784018516540527
1727729551450,6i,5.818641081638038,0.8s : 0.4s,5.709598626847639,2.0308709902055093,5.336204596981092,3.5308797156810408,-1.6899683475494385,5.8430657386779785,6.73115348815918,3.292243242263794,-0.40083324909210205,1.2114366292953491,0.027911853111451602,-0.6195232161153468,-0.48778474775702674,-0.5804209113121033,-0.02790822833776474,-0.8138383030891418
1727729551460,6i,5.818641081638038,0.8s : 0.4s,6.045526287073182,2.0895120537357235,5.672946982388076,3.906903429508138,-1.9470372200012207,6.153822898864746,7.143794059753418,3.660106658935547,-0.3564857840538025,1.3192541599273682,-0.025769613014015497,-0.559558477219794,-0.4402953309923586,-0.5306358337402344,0.025766760110855103,-0.8472082018852234
1727729551470,6i,5.818641081638038,0.8s : 0.4s,6.407476631936431,2.1561113049458007,6.033816439824497,4.24237968768209,-2.1968040466308594,6.49324369430542,7.620676040649414,3.9754552841186523,-0.2655312418937683,1.4570634365081787,-0.08069752046600275,-0.4935753293242978,-0.38673825067157197,-0.47223570942878723,0.08060996234416962,-0.8777787089347839
1727729551480,6i,5.818641081638038,0.8s : 0.4s,6.7953993055912205,2.2309615088654455,6.418743059851395,4.560566019023446,-2.596012830734253,6.8859124183654785,8.054770469665527,4.260547637939453,-0.10858435928821564,1.6231776475906372,-0.13673524161913037,-0.42007940719849984,-0.3265831719072554,-0.4040263593196869,0.13630956411361694,-0.9045343399047852
1727729551490,6i,5.818641081638038,0.8s : 0.4s,7.210916341807047,2.3147813950500793,6.829282654984338,4.948889753509357,-2.936192750930786,7.358300685882568,8.48857593536377,4.583924770355225,0.11676493287086487,1.8615878820419312,-0.19311853614084432,-0.3378400274520083,-0.2590804343566557,-0.3252885043621063,0.19192038476467133,-0.9259341359138489
1727729551500,6i,5.818641081638038,0.8s : 0.4s,7.673987389078646,2.4080362554020156,7.286387571383198,5.322297083709883,-3.4389960765838623,7.9503655433654785,8.954822540283203,4.921353340148926,0.4308001399040222,1.9802875518798828,-0.24842892331246283,-0.24447516500350527,-0.18288810774698228,-0.2346162647008896,0.24588142335414886,-0.9404773116111755
1727729551510,6i,5.818641081638038,0.8s : 0.4s,8.242977190157143,2.512152771433054,7.8508446303841835,5.863860880975619,-4.279694080352783,8.527563095092773,9.810571670532227,5.375464916229248,0.8918641209602356,2.16652250289917,-0.30418076333888616,-0.1384369726096192,-0.09451783516656212,-0.13166020810604095,0.2995116412639618,-0.9449647665023804
1727729551520,6i,5.818641081638038,0.8s : 0.4s,8.77103176772352,2.6285768374497382,8.36788994191713,6.501187856490683,-4.861948013305664,9.114175796508789,9.884933471679688,5.921034336090088,1.4452886581420898,2.2622857093811035,-0.35755419539824673,-0.017184390623580795,0.005976719124945845,-0.016096781939268112,0.34998416900634766,-0.9366173148155212
1727729551530,6i,5.818641081638038,0.8s : 0.4s,9.235863871404725,2.7571840897878603,8.814710281463581,7.011340787032946,-5.727166652679443,9.328118324279785,9.877055168151855,6.342418670654297,1.9169163703918457,2.2930452823638916,-0.40540780084606726,0.11571504703908796,0.114959407142645,0.1060982272028923,0.39439353346824646,-0.9127961993217468
1727729551540,6i,5.818641081638038,0.8s : 0.4s,9.655416720801199,2.8976270684380516,9.210365325250812,7.502237381563124,-6.942226886749268,9.28468132019043,9.839363098144531,6.618709564208984,2.5984621047973633,2.3925392627716064,-0.4490900971775525,0.2588052080866018,0.23450782886046792,0.23054878413677216,0.43414604663848877,-0.8708412647247314
1727729551550,6i,5.818641081638038,0.8s : 0.4s,10.058079748142143,3.0490615514404737,9.584789610393884,7.951036473939041,-8.577396392822266,9.120535850524902,9.617779731750488,6.691440105438232,3.337303638458252,2.7029640674591064,-0.490286188315281,0.4105449381003689,0.36617178296867536,0.35209324955940247,0.47087839245796204,-0.8088905811309814
1727729551560,6i,5.818641081638038,0.8s : 0.4s,10.46370329313268,3.210025891756655,9.959157614023766,8.303676326004693,-10.840635299682617,8.402260780334473,9.258867263793945,6.675437927246094,3.945552110671997,2.970216751098633,-0.5302063357584741,0.5718443180513737,0.5136837012820278,0.46688082814216614,0.5057113766670227,-0.7254504561424255
1727729551570,6i,5.818641081638038,0.8s : 0.4s,10.987638987790968,3.380662867980062,10.454631944697285,8.849819243639729,-14.005891799926758,7.165513515472412,8.867592811584473,6.808060646057129,4.620266437530518,3.259255886077881,-0.5727371961800469,0.740851566514154,0.6867456866425377,0.5672138929367065,0.5419344902038574,-0.6201415061950684
1727729551640,6i,5.818641081638038,0.8s : 0.4s,12.085331093990698,3.559606977292412,11.54921754140035,12.772605344388827,-30.973249435424805,-9.715856552124023,-1.9923384189605713,3.2200376987457275,7.768441200256348,9.613642692565918,-0.3267108173171037,1.8685808382099987,2.8424036631889447,0.9054200649261475,0.3209295868873596,0.277882844209671
1727729551650,6i,5.818641081638038,0.8s : 0.4s,15.45782847318252,3.7466775109571513,14.996895303202598,13.60073638547653,-35.89822006225586,-14.293159484863281,-1.3728957176208496,2.5883963108062744,10.219619750976562,8.592997550964355,-0.2526015300503514,1.8271934534079644,-3.0982714742839628,0.9366129636764526,0.24992378056049347,0.24554936587810516
1727729551660,6i,5.818641081638038,0.8s : 0.4s,11.820951941141223,3.916500904767912,11.153292135406593,10.580266418131334,-2.0707387924194336,-7.340009689331055,0.0726383775472641,2.004931926727295,10.37783432006836,-0.47205960750579834,-0.23192016279475092,1.77772022871596,-2.9779571178323776,0.9524656534194946,0.22984670102596283,0.19994987547397614
1727729551670,6i,5.818641081638038,0.8s : 0.4s,13.097121142861434,4.086818442125225,12.443170707335536,12.865281286491761,-20.711380004882812,-12.272042274475098,-2.5894477367401123,-0.006342113018035889,8.84199047088623,9.34529972076416,-0.21781834265650604,1.7107712274356357,-2.7964262327862732,0.9668218493461609,0.2161000370979309,0.13622161746025085
1727729551680,6i,5.818641081638038,0.8s : 0.4s,10.428975746759418,4.197964988899967,9.546759925674587,6.441147654495015,-2.3819704055786133,-5.069862365722656,-5.25579309463501,0.6925686001777649,0.8021378517150879,-6.35336971282959,-0.24378779151825633,1.6402477618752112,-2.7040397053219007,0.9680911302566528,0.24138014018535614,0.06734362989664078
1727729551690,6i,5.818641081638038,0.8s : 0.4s,11.794919282782995,4.289970953679303,10.987095617311885,4.267357984019178,-13.861540794372559,-16.816545486450195,-8.211419105529785,2.693087100982666,-2.45049786567688,2.2254631519317627,-0.3207941020048367,1.5630631469414333,-2.600251496633646,0.9489570260047913,0.3153202533721924,-0.007338601630181074
1727729551700,6i,5.818641081638038,0.8s : 0.4s,11.575190634831385,4.400915159040052,10.705932187139037,8.844254291770156,-11.9976167678833,-7.00391960144043,-6.5484843254089355,6.376142501831055,-1.3427708148956299,5.980184555053711,-0.3944054296073862,1.4771063640247564,-2.4748129233816343,0.9191762804985046,0.38425934314727783,-0.08637045323848724
1727729551710,6i,5.818641081638038,0.8s : 0.4s,11.935661178222675,4.494769185511042,11.056991350738784,2.593212543361978,-9.086801528930664,-12.673095703125,-11.148004531860352,2.507587194442749,0.5148857831954956,0.4143071174621582,-0.5013707627570924,1.4269740375529978,-2.3655985024613058,0.8678707480430603,0.48062804341316223,-0.12568695843219757
1727729551730,6i,5.818641081638038,0.8s : 0.4s,11.573216823451567,4.58771410581323,10.625075384482912,4.37063154466805,-4.3422112464904785,-11.188116073608398,-10.501483917236328,3.359111785888672,0.5545827150344849,2.74066162109375,-0.7290971651514563,1.2723937998611656,-2.2704085141251076,0.7128183841705322,0.6661965847015381,-0.2192535102367401
1727729551720,6i,5.818641081638038,0.8s : 0.4s,11.271201966754031,4.676058765289551,10.255460408919664,3.9502767840674813,-6.039269924163818,-8.717988967895508,-9.717683792114258,2.2051849365234375,0.8715560436248779,3.1594676971435547,-0.619118682777992,1.3553531236136016,-2.300845430060012,0.7955630421638489,0.5803176760673523,-0.17410069704055786
1727729551740,6i,5.818641081638038,0.8s : 0.4s,10.788974298416392,4.756995067408323,9.683644166352993,3.4163689552107934,-1.400705099105835,-9.25085163116455,-9.9433012008667,2.4856183528900146,-0.30028581619262695,2.324458360671997,-0.835020885190209,1.1646170716526782,-2.281670949357301,0.6165545582771301,0.7413105368614197,-0.26517778635025024
