timestamp,club,max_speed,tempo,speed,l.speed,t.spped,acc,rotation.x,rotation.y,rotation.z,userAcceleration.x,userAcceleration.y,userAcceleration.z,pitch,roll,yaw,gravity.x,gravity.y,gravity.z
1727724504677,7i,9.540635562156844,1.0s : 0.3s,0.06937776170319475,0.000655758279186016,0.06937466252187866,0.11993935872413271,-0.03369368985295296,-0.05066271126270294,0.05247251316905022,-0.052663207054138184,-0.004900187253952026,0.10764768719673157,-0.1633868169722467,1.8383022011744248,3.016844657527321,0.9515892267227173,0.16266083717346191,0.2608066499233246
1727724504687,7i,9.540635562156844,1.0s : 0.3s,0.03680963682515093,0.001868207528538436,0.03676219748368995,0.11951053338716759,-0.10684460401535034,-0.07280530035495758,0.05299076437950134,-0.031263649463653564,-0.03021840751171112,0.11132025718688965,-0.16272579313481134,1.8383736879862418,3.0175037987523314,0.9516739249229431,0.16200858354568481,0.260903000831604
1727724504697,7i,9.540635562156844,1.0s : 0.3s,0.04315135938154774,0.0034271530669904514,0.0430150489751076,0.10539940136750482,-0.18177516758441925,-0.10412873327732086,0.054098207503557205,-0.012829244136810303,-0.036333128809928894,0.09810376167297363,-0.16185580506738756,1.8382569482155364,3.0188548667886055,0.9518399238586426,0.1611500382423401,0.26082906126976013
1727724504707,7i,9.540635562156844,1.0s : 0.3s,0.0820851176847953,0.005081749392558786,0.0819276654643468,0.09643345603173213,-0.23020422458648682,-0.13572287559509277,0.0475151389837265,0.009872674942016602,-0.03348894417285919,0.0898912250995636,-0.16087572896110341,1.8378320844666967,3.020837084047555,0.9521026611328125,0.16018268465995789,0.26046621799468994
1727724504717,7i,9.540635562156844,1.0s : 0.3s,0.11954960523570525,0.006745470069706331,0.1193591502380595,0.08344918362048558,-0.19804175198078156,-0.17368632555007935,0.21288718283176422,0.02607595920562744,-0.019301578402519226,0.07688471674919128,-0.15973524051845925,1.8370349559581471,3.0228890314833334,0.9524854421615601,0.15905682742595673,0.25975501537323
1727724504727,7i,9.540635562156844,1.0s : 0.3s,0.15359168083879346,0.008355854906061383,0.1533642204416488,0.08903309469656441,-0.09619102627038956,-0.1062990352511406,0.3924819827079773,0.0689275860786438,0.004666537046432495,0.05616140365600586,-0.159506915421696,1.836129881067698,3.0251950267216428,0.9527552723884583,0.1588314026594162,0.258902370929718
1727724504737,7i,9.540635562156844,1.0s : 0.3s,0.1491515257325676,0.009854318894917655,0.1488256363247611,0.05075734665279331,-0.1287911832332611,-0.14707428216934204,0.059782225638628006,0.013778448104858398,0.030962198972702026,0.03778630495071411,-0.159718508268956,1.834925878389235,3.027229868390223,0.9530340433120728,0.15904030203819275,0.2577463686466217
1727724504747,7i,9.540635562156844,1.0s : 0.3s,0.12368644677136262,0.01127786027025558,0.1231712100397236,0.051859590899229556,-0.10857938230037689,-0.1909453421831131,-0.20281396806240082,0.009380817413330078,0.03032471239566803,0.041010111570358276,-0.15923591927824046,1.8335398885355345,3.028326509364214,0.9534640312194824,0.15856383740901947,0.2564450204372406
1727724504757,7i,9.540635562156844,1.0s : 0.3s,0.12196715553260935,0.012578340898560946,0.1213168264048945,0.06508911042702584,-0.06333227455615997,-0.18781745433807373,-0.09204558283090591,0.021799087524414062,0.057784438133239746,0.020551174879074097,-0.1593502703327083,1.8321495523646942,3.0289773461382774,0.9538021087646484,0.15867674350738525,0.25511446595191956
1727724504767,7i,9.540635562156844,1.0s : 0.3s,0.121874325046822,0.01379130060540987,0.12109149901305892,0.040517191020906784,-0.07371114194393158,-0.1668919324874878,-0.048196107149124146,0.005643904209136963,0.03257572650909424,0.023422449827194214,-0.15967603266390512,1.830769158588479,3.0298195198612063,0.954103410243988,0.15899837017059326,0.25378429889678955
1727724504777,7i,9.540635562156844,1.0s : 0.3s,0.12147434721766648,0.014947715845465916,0.12055116267776682,0.03989745875832749,-0.08142179250717163,-0.1529703587293625,-0.07517872750759125,-0.004082620143890381,0.024239137768745422,0.03142616152763367,-0.16008323616452727,1.8295307761183617,3.030795465636918,0.9543542861938477,0.15940037369728088,0.2525859773159027
1727724504787,7i,9.540635562156844,1.0s : 0.3s,0.12500213944435346,0.015922039145988102,0.12398396483053449,0.021243396626215473,-0.14434857666492462,-0.13455726206302643,-0.08634322881698608,-0.012205660343170166,0.006090700626373291,0.016285181045532227,-0.16052186980931,1.8285148006411214,3.0321091881606073,0.9545428156852722,0.1598333865404129,0.25159841775894165
1727724504797,7i,9.540635562156844,1.0s : 0.3s,0.1406847939732548,0.01682185962992378,0.1396754677596903,0.03047546511609546,-0.2404901385307312,-0.12275683134794235,-0.07905778288841248,-0.01469498872756958,-0.026163548231124878,0.005317896604537964,-0.1607817606313749,1.8277388127493446,3.0342402836356683,0.9546974301338196,0.16008993983268738,0.2508470416069031
1727724504807,7i,9.540635562156844,1.0s : 0.3s,0.1622100845007827,0.01758571890497082,0.1612540046149131,0.044371076248145735,-0.30533307790756226,-0.10914834588766098,-0.06658940017223358,-0.015857458114624023,-0.03248809278011322,-0.02572658658027649,-0.1607738054221379,1.827123587040066,3.0371349828990737,0.954852819442749,0.16008208692073822,0.25025996565818787
1727724504817,7i,9.540635562156844,1.0s : 0.3s,0.18121435061696728,0.017930091042007143,0.1803251305413488,0.06526314022482324,-0.32618096470832825,-0.09737064689397812,-0.05218319222331047,-0.023112773895263672,-0.018105074763298035,-0.05828621983528137,-0.16057895930683574,1.8266651699242782,3.040416913693525,0.9549975395202637,0.15988974273204803,0.24983008205890656
1727724504827,7i,9.540635562156844,1.0s : 0.3s,0.19125409363701015,0.01763026921751818,0.19043975934723315,0.0840392537064753,-0.3062703609466553,-0.09150796383619308,-0.044138580560684204,-0.02047508955001831,-0.0008011311292648315,-0.08150291442871094,-0.16025388613859495,1.826308397386514,3.0436764913890406,0.9551370143890381,0.15956884622573853,0.2495025247335434
1727724504837,7i,9.540635562156844,1.0s : 0.3s,0.18433215765457048,0.016713075554993483,0.18357292134485007,0.10599592462759813,-0.2251747101545334,-0.09404249489307404,-0.03447883203625679,-0.007889509201049805,0.018910586833953857,-0.10399654507637024,-0.1599628736887936,1.8258031968175805,3.0463953672281363,0.9553077220916748,0.15928155183792114,0.24903163313865662
1727724504847,7i,9.540635562156844,1.0s : 0.3s,0.1604561011879343,0.015259514380017472,0.1597288565955402,0.12169122946317903,-0.12276977300643921,-0.09783723950386047,-0.028119467198848724,0.0096510648727417,0.026317909359931946,-0.11841866374015808,-0.15981689840358274,1.8251289858238584,3.0481857833100268,0.9554980993270874,0.15913744270801544,0.24839340150356293
1727724504857,7i,9.540635562156844,1.0s : 0.3s,0.12883912803060604,0.013445653483662605,0.12813561298126358,0.12237103474533251,-0.029693622142076492,-0.10768897831439972,-0.013473146595060825,0.029034554958343506,0.024478226900100708,-0.11632919311523438,-0.15982561847310273,1.824220238536463,3.0489636011153496,0.9557220339775085,0.15914605557918549,0.24752461910247803
1727724504867,7i,9.540635562156844,1.0s : 0.3s,0.10975102582572624,0.011558207070955296,0.10914071430545133,0.10697429198183123,0.03414527699351311,-0.1465013474225998,0.25047141313552856,0.02599179744720459,0.007191598415374756,-0.10351911187171936,-0.1594839820790756,1.8230484115324508,3.048892364322004,0.9560638666152954,0.15880875289440155,0.2464180290699005
1727724504877,7i,9.540635562156844,1.0s : 0.3s,0.22009614345496598,0.00982737072820626,0.2198766362038481,0.17586610725360557,0.11416740715503693,-0.16412349045276642,0.8697903752326965,-0.1517181396484375,-0.050551965832710266,-0.07317781448364258,-0.15978200458040395,1.821968480674159,3.04925246462038,0.956283688545227,0.15910299122333527,0.2453736662864685
1727724504887,7i,9.540635562156844,1.0s : 0.3s,0.2800391129056243,0.00836219937486468,0.2799142339692356,0.08446260447599524,-0.028494667261838913,-0.22192393243312836,0.5857272744178772,-0.03334289789199829,-0.07059663534164429,-0.032222628593444824,-0.16104405708775738,1.8212860878552626,3.050802437571766,0.9562555551528931,0.16034884750843048,0.2446710765361786
1727724504897,7i,9.540635562156844,1.0s : 0.3s,0.20866181424673383,0.007175042671300267,0.208538417293801,0.10674819346321356,-0.22056663036346436,-0.12553900480270386,-0.03742661327123642,0.06773287057876587,-0.0729253739118576,-0.03859177231788635,-0.16055889671499604,1.8205386811944217,3.0527509172159646,0.9565133452415466,0.1598699390888214,0.2439754605293274
1727724504907,7i,9.540635562156844,1.0s : 0.3s,0.19169096507842162,0.006268448698090614,0.1915884460076235,0.07433235126133719,-0.28331416845321655,-0.07311014086008072,-0.0897020697593689,0.027917921543121338,-0.04124164581298828,-0.055181652307510376,-0.16011953610110943,1.8201095136123457,3.055234702130415,0.9566859602928162,0.1594362109899521,0.24358224868774414
1727724504917,7i,9.540635562156844,1.0s : 0.3s,0.16159869163071766,0.00571797456029907,0.16149749813445272,0.0770179165112294,-0.2465236783027649,-0.017461704090237617,-0.05088723450899124,-0.0037328600883483887,-0.024812623858451843,-0.0728159248828888,-0.15993881246899233,1.8201448031654368,3.057971897728896,0.9567052721977234,0.15925779938697815,0.24362310767173767
1727724504927,7i,9.540635562156844,1.0s : 0.3s,0.12952358845510817,0.005525386919685684,0.12940568019092516,0.104650049086362,-0.1797262728214264,0.024191467091441154,-0.05876672640442848,-0.024419426918029785,0.009614184498786926,-0.10130593180656433,-0.1599512882297239,1.820530036226418,3.0602036976952878,0.9566096067428589,0.15927012264728546,0.2439911961555481
1727724504937,7i,9.540635562156844,1.0s : 0.3s,0.11731220379268717,0.005884316304891309,0.11716453379893149,0.10681457710578089,-0.16587010025978088,0.08349438011646271,-0.11219386756420135,-0.031730473041534424,0.0013264268636703491,-0.1019841730594635,-0.16004625531581534,1.8212111760226517,3.0619779044608757,0.9564282894134521,0.15936386585235596,0.24463893473148346
1727724504947,7i,9.540635562156844,1.0s : 0.3s,0.1105745805915206,0.006791992393494129,0.11036578596792306,0.09412635141611801,-0.18731413781642914,0.13574135303497314,-0.17530998587608337,-0.035672664642333984,-0.011645302176475525,-0.08632275462150574,-0.16012534786691043,1.8221975626185867,3.0637324978786897,0.9561746120452881,0.15944194793701172,0.24557915329933167
1727724504957,7i,9.540635562156844,1.0s : 0.3s,0.12611354916025044,0.008044964528263435,0.1258566876551814,0.0927793681284007,-0.15218092501163483,0.1715080440044403,-0.24762459099292755,-0.034360527992248535,0.010067731142044067,-0.08559209108352661,-0.16023370556455957,1.8233689931222679,3.0653661219234105,0.955869197845459,0.15954892337322235,0.2466946691274643
1727724504967,7i,9.540635562156844,1.0s : 0.3s,0.15132008743646125,0.009493587578750446,0.15102198732854394,0.10904177788717423,-0.08046066015958786,0.20639199018478394,-0.3074173331260681,-0.020733177661895752,0.027605712413787842,-0.10343195497989655,-0.16052172026282469,1.8246129577354357,3.0663265578921153,0.9555171728134155,0.15983323752880096,0.24787203967571259
1727724504977,7i,9.540635562156844,1.0s : 0.3s,0.1824940240601781,0.011069568448026593,0.18215799041505512,0.10372561080529272,-0.03453831002116203,0.22263163328170776,-0.3511348366737366,0.011596858501434326,0.011743590235710144,-0.10240411758422852,-0.16090107375578017,1.8258370918621485,3.0665858373699013,0.9551543593406677,0.16020770370960236,0.24902622401714325
1727724504987,7i,9.540635562156844,1.0s : 0.3s,0.21230722800025176,0.012701626836450524,0.21192693962037587,0.10387767414973126,-0.016567034646868706,0.22305241227149963,-0.3748748004436493,0.04354888200759888,-0.0034680217504501343,-0.0942445695400238,-0.16119339711156327,1.82694001668701,3.066431130752402,0.9548338651657104,0.16049624979496002,0.25006768107414246
1727724504997,7i,9.540635562156844,1.0s : 0.3s,0.2379596030486264,0.014366642479823645,0.2375255191909214,0.10780089504917696,-0.007921349257230759,0.22440344095230103,-0.391068696975708,0.054870545864105225,-0.014598295092582703,-0.09163594245910645,-0.1612619141208429,1.8278706046586808,3.0660126720275396,0.9545900225639343,0.1605638712644577,0.2509533166885376
1727724505007,7i,9.540635562156844,1.0s : 0.3s,0.260271115454903,0.016046200773342116,0.2597760053986531,0.091938873121444,-0.005221169907599688,0.22222523391246796,-0.4122418761253357,0.04209166765213013,-0.009434297680854797,-0.08119139075279236,-0.1611471108161625,1.828641134438126,3.0654661243739483,0.9544143080711365,0.16045056283473969,0.2516935169696808
1727724505017,7i,9.540635562156844,1.0s : 0.3s,0.2807488746843838,0.017731905242168684,0.2801883476753282,0.08082424941126808,0.0053660934790968895,0.2227448672056198,-0.43784958124160767,0.02696371078491211,-0.00043995678424835205,-0.07619267702102661,-0.16095454184147331,1.8292788252318999,3.0647783727410323,0.9542831778526306,0.16026048362255096,0.2523098886013031
1727724505027,7i,9.540635562156844,1.0s : 0.3s,0.297541708116751,0.019419724849765365,0.2969072958951889,0.0667941961443599,0.01393800973892212,0.22188173234462738,-0.4505866765975952,0.0037055611610412598,-0.0036433041095733643,-0.06659173965454102,-0.1607526133335088,1.829810548417623,3.0639292622368717,0.9541803002357483,0.16006116569042206,0.25282561779022217
1727724505037,7i,9.540635562156844,1.0s : 0.3s,0.3013617342835152,0.02101791417379584,0.30062791316534626,0.05246620974431628,-0.0015798299573361874,0.20311030745506287,-0.4257599413394928,-0.009731888771057129,-0.014489993453025818,-0.049477607011795044,-0.16059567369989922,1.8302900860237532,3.0631291942251075,0.9540831446647644,0.15990623831748962,0.2532895505428314
1727724505047,7i,9.540635562156844,1.0s : 0.3s,0.2974389408982915,0.022465501757731533,0.2965893200934091,0.04329319757403663,-0.04218291491270065,0.17937356233596802,-0.3756168782711029,-0.016777098178863525,-0.024367645382881165,-0.03160771727561951,-0.1604000422337806,1.8307275586927756,3.0626527672651496,0.9540026783943176,0.15971311926841736,0.25371500849723816
1727724505057,7i,9.540635562156844,1.0s : 0.3s,0.28413109142435733,0.02384317432900936,0.2831289108372951,0.055465884401231916,-0.09529805928468704,0.1656656414270401,-0.32993414998054504,-0.035999298095703125,-0.04077908396720886,-0.010843485593795776,-0.16009925626990668,1.8311655982782788,3.062763937548608,0.9539377689361572,0.15941619873046875,0.25414523482322693
1727724505067,7i,9.540635562156844,1.0s : 0.3s,0.267199215272494,0.02513094717197245,0.26601476676394514,0.06634664273392323,-0.13281454145908356,0.16100111603736877,-0.278722882270813,-0.04793792963027954,-0.045545026659965515,0.005429774522781372,-0.15967176235721905,1.831699335167669,3.0634019260628618,0.9538677334785461,0.1589941531419754,0.2546719014644623
1727724505077,7i,9.540635562156844,1.0s : 0.3s,0.24807111642103954,0.026299152152418615,0.24667313067791732,0.06486096508760396,-0.12420134991407394,0.1584814190864563,-0.23342996835708618,-0.05341392755508423,-0.030322685837745667,0.020843029022216797,-0.15918318975025503,1.832300346396902,3.0642552150487616,0.9537893533706665,0.15851177275180817,0.25526517629623413
1727724505087,7i,9.540635562156844,1.0s : 0.3s,0.22749159160034116,0.027323520284798494,0.22584474642573074,0.06841476198560091,-0.10443457216024399,0.16012884676456451,-0.19073417782783508,-0.0573962926864624,-0.0126875638961792,0.035003870725631714,-0.1587391080826239,1.8329844736486705,3.0649889071048175,0.9536823630332947,0.158073291182518,0.25593581795692444
1727724505097,7i,9.540635562156844,1.0s : 0.3s,0.2047893030848495,0.028000497393340307,0.20286604152421345,0.07408837313443008,-0.10587800294160843,0.1537199467420578,-0.1380745768547058,-0.03629392385482788,-0.010475143790245056,0.06373468041419983,-0.15827567159025493,1.8337341936636213,3.0657042114195567,0.953561007976532,0.15761566162109375,0.256669819355011
1727724505107,7i,9.540635562156844,1.0s : 0.3s,0.179188764102824,0.028031830210825965,0.1769825688471295,0.07845505778708119,-0.0728774443268776,0.14060840010643005,-0.09206099808216095,-0.014370143413543701,0.004146650433540344,0.07701623439788818,-0.15776184493453627,1.8344414552045283,3.0663332353348225,0.9534571766853333,0.15710824728012085,0.2573651969432831
1727724505117,7i,9.540635562156844,1.0s : 0.3s,0.15184987469851755,0.027537865245685824,0.1493320140615063,0.0853918136166703,-0.033802349120378494,0.12747134268283844,-0.048920486122369766,-0.00711137056350708,0.021876558661460876,0.08223506808280945,-0.15728369491367467,1.8350608258428007,3.0666124735195135,0.9533698558807373,0.15663601458072662,0.2579752504825592
1727724505127,7i,9.540635562156844,1.0s : 0.3s,0.1256756816171076,0.02655953552063039,0.1228371605942313,0.10082535021888372,0.002016103360801935,0.11211395263671875,-0.01812821999192238,0.0035368800163269043,0.02755218744277954,0.09692326188087463,-0.15691358915095927,1.8355633870024524,3.066594278062608,0.9532961845397949,0.15627045929431915,0.2584695518016815
1727724505137,7i,9.540635562156844,1.0s : 0.3s,0.102510804211143,0.025207404521440387,0.0993632313147462,0.1066953137615311,0.026845021173357964,0.09639810770750046,0.009114652872085571,0.0058386921882629395,0.03953161835670471,0.0989295244216919,-0.15664965878461312,1.8359445281699873,3.066331117444719,0.9532373547554016,0.1560097634792328,0.25884366035461426
1727724505147,7i,9.540635562156844,1.0s : 0.3s,0.08396714180787646,0.02369837795367012,0.08055350883573624,0.10216921478300418,0.024189049378037453,0.0773242861032486,0.02510347217321396,-0.004942953586578369,0.0381789356470108,0.09463870525360107,-0.1565052044230001,1.8362297117477278,3.066028990413045,0.9531852006912231,0.1558670848608017,0.2591214179992676
1727724505157,7i,9.540635562156844,1.0s : 0.3s,0.06913801972915565,0.02220647586371185,0.06547471421689062,0.08907245167193101,0.03324552997946739,0.05894487351179123,0.03486359119415283,-0.01684284210205078,0.04101644456386566,0.07725200057029724,-0.15650582560539658,1.8364131549184584,3.065799832153641,0.9531373977661133,0.15586769580841064,0.259296178817749
1727724505167,7i,9.540635562156844,1.0s : 0.3s,0.061877266644884216,0.02079583788893185,0.05827803406035045,0.07761719345169506,0.02769736386835575,0.04685918241739273,0.04166210815310478,-0.03230506181716919,0.04076433181762695,0.05761146545410156,-0.1566683953564982,1.836534761955141,3.065635799953486,0.9530815482139587,0.15602827072143555,0.2594054937362671
1727724505177,7i,9.540635562156844,1.0s : 0.3s,0.0571760403015471,0.019492801853144694,0.053750630326333634,0.08096441189872602,0.008338447660207748,0.03233790025115013,0.055801331996917725,-0.045068323612213135,0.028223872184753418,0.06105321645736694,-0.15689779902775144,1.8367278742654864,3.0656839483798697,0.9529967308044434,0.1562548726797104,0.2595800757408142
1727724505187,7i,9.540635562156844,1.0s : 0.3s,0.053540115850140575,0.018334674267988193,0.05030291964422389,0.08404397030358086,-0.007952908053994179,0.026040853932499886,0.08165742456912994,-0.05564701557159424,0.011055707931518555,0.06200459599494934,-0.1570852804458394,1.836954485516511,3.0659502542337154,0.9529097676277161,0.15644004940986633,0.2597883641719818
1727724505197,7i,9.540635562156844,1.0s : 0.3s,0.049154993844804144,0.017363153332513735,0.04598624061862799,0.08575471105707458,-0.003533125389367342,0.01578581891953945,0.10090889036655426,-0.06394177675247192,0.00662657618522644,0.056757450103759766,-0.15722844770321778,1.837246922985571,3.06632573220028,0.952812135219574,0.15658144652843475,0.260061115026474
1727724505207,7i,9.540635562156844,1.0s : 0.3s,0.049560474792244735,0.016619225155827474,0.0466909200686026,0.08082363578668057,-0.007406160235404968,0.009213404729962349,0.11409339308738708,-0.06594657897949219,0.001477062702178955,0.04670467972755432,-0.15737488978957517,1.837666853397413,3.066696323952948,0.9526808261871338,0.15672607719898224,0.2604551911354065
1727724505217,7i,9.540635562156844,1.0s : 0.3s,0.05598556081131598,0.016103347705267106,0.05361963457578603,0.07783522612436079,-0.03172215446829796,-0.005413653329014778,0.12438099086284637,-0.05734658241271973,-0.013768225908279419,0.05079495906829834,-0.1575929569728722,1.8382198893144133,3.067236773725276,0.952503502368927,0.15694144368171692,0.2609729468822479
1727724505227,7i,9.540635562156844,1.0s : 0.3s,0.06560520495268102,0.015806014738365348,0.06367270070425675,0.0861237564077149,-0.061434242874383926,-0.00876177940517664,0.12845934927463531,-0.052455902099609375,-0.027611762285232544,0.062476158142089844,-0.15775132527770414,1.8388590982533506,3.0680879570992396,0.9523125290870667,0.15709784626960754,0.2615751624107361
1727724505237,7i,9.540635562156844,1.0s : 0.3s,0.07417166362467897,0.01573635187286575,0.07248312158417212,0.08967320869426289,-0.07549533247947693,-0.011622324585914612,0.1239367425441742,-0.0539250373840332,-0.03195224702358246,0.06412822008132935,-0.15792833554379762,1.8394393016220338,3.0691462778905394,0.9521335959434509,0.15727266669273376,0.26212021708488464
1727724505247,7i,9.540635562156844,1.0s : 0.3s,0.07963374483896488,0.015872333393690655,0.07803590423463354,0.07918278811618519,-0.07732412964105606,-0.012408223003149033,0.12042909860610962,-0.044763386249542236,-0.020557045936584473,0.0619964599609375,-0.15817872766750643,1.8399585912712035,3.0702853700208776,0.9519595503807068,0.15751993656158447,0.2626041769981384
1727724505257,7i,9.540635562156844,1.0s : 0.3s,0.08174336279794955,0.01619042573967352,0.08012395070068198,0.07346357195434783,-0.07740362733602524,-0.014278782531619072,0.11640915274620056,-0.037611961364746094,-0.01796729862689972,0.06049308180809021,-0.15835299383788395,1.8405357057114256,3.071418024989097,0.9517813324928284,0.15769201517105103,0.26314619183540344
1727724505267,7i,9.540635562156844,1.0s : 0.3s,0.0828433673525487,0.016659015476209665,0.08115109806818845,0.06860278135937974,-0.08258587121963501,-0.016652991995215416,0.10911182314157486,-0.029805243015289307,-0.015419811010360718,0.05983492732048035,-0.15838463877068928,1.8411323929294574,3.072588625144834,0.9516192674636841,0.15772327780723572,0.26371270418167114
1727724505277,7i,9.540635562156844,1.0s : 0.3s,0.08294409526376298,0.01723552558625402,0.08113359105136275,0.05699933023379455,-0.0720052570104599,-0.02159985713660717,0.0980546772480011,-0.01856684684753418,-0.00728955864906311,0.05339530110359192,-0.15841828565145252,1.8416635963837993,3.073712696072319,0.9514741897583008,0.1577564924955368,0.264216810464859
1727724505287,7i,9.540635562156844,1.0s : 0.3s,0.08208614515694515,0.01788371230886773,0.08011434366441957,0.05367688331073049,-0.06051984429359436,-0.028786662966012955,0.08639828860759735,-0.009689033031463623,-0.007880717515945435,0.05220368504524231,-0.15842976538270215,1.842050486314675,3.0746767917244187,0.9513701796531677,0.15776783227920532,0.2645844519138336
1727724505297,7i,9.540635562156844,1.0s : 0.3s,0.07943243162269971,0.018583282497288328,0.07722805711087677,0.04948900233929564,-0.055194053798913956,-0.03700517863035202,0.06831595301628113,-0.007195115089416504,-0.00525239109992981,0.048680633306503296,-0.15836405018590208,1.8422863233685394,3.0755238356493213,0.9513174295425415,0.15770293772220612,0.2648114860057831
1727724505307,7i,9.540635562156844,1.0s : 0.3s,0.07248326602798733,0.01928484225951714,0.06987072858579281,0.04241740551992981,-0.05637836083769798,-0.039913617074489594,0.041904326528310776,-0.002065122127532959,-0.005576476454734802,0.04199850559234619,-0.158259600331649,1.8424729021834934,3.076334811558806,0.9512839913368225,0.1575997918844223,0.26499342918395996
1727724505317,7i,9.540635562156844,1.0s : 0.3s,0.059885960866168014,0.019854162249255694,0.05649903140979,0.02637674057466119,-0.04511159285902977,-0.036101482808589935,0.0036580022424459457,0.003502368927001953,0.0063116103410720825,0.025369852781295776,-0.15827353177664252,1.8426302857260237,3.077061141785892,0.951240062713623,0.15761356055736542,0.265142560005188
1727724505327,7i,9.540635562156844,1.0s : 0.3s,0.05643554014149502,0.02034975225651078,0.052638937813760354,0.024972544394116444,-0.09988083690404892,-0.03454859182238579,-0.04469195380806923,0.010529756546020508,-0.005974724888801575,0.021841585636138916,-0.15844652835536038,1.8428502592289915,3.0779774139442315,0.9511553645133972,0.1577843874692917,0.26534444093704224
1727724505337,7i,9.540635562156844,1.0s : 0.3s,0.06970616793222338,0.020787592045467238,0.06653439610266673,0.044741320160469854,-0.16575931012630463,-0.03789640590548515,-0.04922635108232498,0.02907031774520874,-0.029891401529312134,0.016223639249801636,-0.15848368843264074,1.843063270760201,3.07948023939004,0.951093316078186,0.15782107412815094,0.26554548740386963
1727724505347,7i,9.540635562156844,1.0s : 0.3s,0.08897752551018054,0.021149278293529996,0.08642747290981989,0.04032980761527851,-0.19586049020290375,-0.04146876931190491,-0.03579123690724373,0.03075122833251953,-0.025154784321784973,-0.006934851408004761,-0.1583536253421133,1.8432614857889855,3.0814233777361566,0.9510605335235596,0.15769264101982117,0.2657395601272583
1727724505357,7i,9.540635562156844,1.0s : 0.3s,0.1040515805320015,0.021418840150726762,0.10182320314056718,0.03824546420817033,-0.20120759308338165,-0.038509998470544815,-0.022291939705610275,0.03089916706085205,-0.006354346871376038,-0.021623581647872925,-0.15807386698619486,1.8434036992811997,3.0834836250669393,0.951065182685852,0.15741638839244843,0.26588666439056396
1727724505367,7i,9.540635562156844,1.0s : 0.3s,0.10974002484839368,0.021594068106128246,0.1075944667552842,0.04632016167061618,-0.18216945230960846,-0.038210924714803696,-0.011600945144891739,0.023523449897766113,0.014847368001937866,-0.037037283182144165,-0.15768021228964024,1.8435489713012312,3.085447275834984,0.9510859847068787,0.15702761709690094,0.26604145765304565
1727724505377,7i,9.540635562156844,1.0s : 0.3s,0.10890109258065073,0.021478245274524296,0.10676203887705982,0.06025349614609779,-0.1429143249988556,-0.037523604929447174,-0.008510646410286427,0.02355104684829712,0.028425395488739014,-0.047621726989746094,-0.15731175189003205,1.843575355755574,3.087101512535608,0.9511346817016602,0.156663715839386,0.26608216762542725
1727724505387,7i,9.540635562156844,1.0s : 0.3s,0.09449785234580779,0.02108160414660373,0.09211628555568223,0.07836391784552875,-0.08173564821481705,-0.026697058230638504,-0.012630556710064411,0.019091248512268066,0.04246988892555237,-0.06302964687347412,-0.1570889694808912,1.8435137570197857,3.0882405323518993,0.9511847496032715,0.15644368529319763,0.26603296399116516
1727724505397,7i,9.540635562156844,1.0s : 0.3s,0.07584732534743631,0.02056692963800986,0.07300560367276615,0.07896091139807822,-0.03999127075076103,-0.006839863955974579,-0.02096262201666832,0.008284449577331543,0.04420766234397888,-0.06489896774291992,-0.15710617310372862,1.8434905605947742,3.088863512558771,0.951188325881958,0.15646067261695862,0.26601019501686096
1727724505407,7i,9.540635562156844,1.0s : 0.3s,0.06307876359434805,0.02000552179521781,0.059822316189635405,0.06995555648993475,-0.04208477959036827,0.005850098095834255,-0.02445455826818943,0.016076743602752686,0.025583133101463318,-0.06309375166893005,-0.15720779819195005,1.8435864099764552,3.0893011199752394,0.9511476159095764,0.15656104683876038,0.2660970985889435
1727724505417,7i,9.540635562156844,1.0s : 0.3s,0.05711186976208957,0.019430617758370683,0.053704904443169534,0.07162885196182432,-0.047836676239967346,0.021777844056487083,-0.02204040251672268,0.017608225345611572,0.006712332367897034,-0.06910562515258789,-0.15724975386428883,1.8438127780906217,3.089818436467063,0.9510807991027832,0.15660248696804047,0.26631057262420654
1727724505427,7i,9.540635562156844,1.0s : 0.3s,0.050504741873326736,0.01885620046714136,0.04685266967456968,0.08398043630980859,-0.025603806599974632,0.04271508380770683,-0.011295081116259098,0.011436760425567627,0.006541743874549866,-0.08294045925140381,-0.15726798818867874,1.844177414486206,3.0902432032874154,0.9509809613227844,0.15662050247192383,0.2666566073894501
1727724505437,7i,9.540635562156844,1.0s : 0.3s,0.04539329897005041,0.018333406986084714,0.041526350425566655,0.09515465385616999,0.013221487402915955,0.05710090324282646,0.004443168640136719,0.008297502994537354,0.011042475700378418,-0.09414681792259216,-0.15726861258729305,1.844649549112023,3.090317949449303,0.9508549571037292,0.15662111341953278,0.2671055793762207
1727724505447,7i,9.540635562156844,1.0s : 0.3s,0.026584902836213068,0.017917145626954956,0.01964008532042003,0.12159120597502833,0.08054114133119583,0.0587850846350193,0.0201632771641016,0.008035600185394287,0.017847299575805664,-0.1200055181980133,-0.1573000791095751,1.845079087519526,3.089823871687504,0.9507352113723755,0.15665219724178314,0.26751258969306946
1727724505457,7i,9.540635562156844,1.0s : 0.3s,0.03386539069101004,0.01771845489491391,0.02886037149434586,0.13893655387396248,0.13432328402996063,0.051528990268707275,0.04073283448815346,0.008947491645812988,0.02008141577243805,-0.1371861696243286,-0.15734003402518187,1.8453850901372548,3.088670107597308,0.9506472945213318,0.15669165551662445,0.26780182123184204
1727724505467,7i,9.540635562156844,1.0s : 0.3s,0.057743143361851094,0.01783815197639985,0.054918766732093956,0.1349883055729857,0.17130526900291443,0.03978205472230911,0.054490189999341965,0.010030031204223633,0.016624286770820618,-0.13358470797538757,-0.15736424917692135,1.8454820253046578,3.0870175059217035,0.950617790222168,0.15671557188034058,0.2678929567337036
1727724505477,7i,9.540635562156844,1.0s : 0.3s,0.07977807645315088,0.018292277979199047,0.07765264997987188,0.12779269989190342,0.18514998257160187,0.0289129838347435,0.06592873483896255,0.011795997619628906,0.004218265414237976,-0.1271771788597107,-0.1573494647082735,1.845418355663259,3.0850717782660233,0.95063716173172,0.1567009687423706,0.26783308386802673
1727724505487,7i,9.540635562156844,1.0s : 0.3s,0.0921047616752831,0.01903268157892635,0.09011683613607335,0.11914299897082727,0.1652684211730957,0.015726076439023018,0.06946541368961334,0.024277091026306152,-0.01271037757396698,-0.11594879627227783,-0.15721710941801864,1.845205993544279,3.0831461374545035,0.9507138729095459,0.15657024085521698,0.26763680577278137
1727724505497,7i,9.540635562156844,1.0s : 0.3s,0.09329261993920752,0.020005668813277575,0.09112236910031958,0.11789373740600495,0.13587656617164612,0.007556784898042679,0.06670860946178436,0.03464770317077637,-0.024100005626678467,-0.11008024215698242,-0.15697656980099056,1.8448646616465871,3.08147982685738,0.9508413076400757,0.15633267164230347,0.2673224210739136
1727724505507,7i,9.540635562156844,1.0s : 0.3s,0.09440715684403929,0.021170772462425932,0.09200276983177855,0.1188561161144661,0.1357724368572235,0.004395612981170416,0.06614135205745697,0.04199284315109253,-0.020604461431503296,-0.10926496982574463,-0.1567281057041513,1.8443973825459998,3.0799516245514758,0.9510034918785095,0.1560872495174408,0.2668885588645935
1727724505517,7i,9.540635562156844,1.0s : 0.3s,0.09621106030518921,0.022501608689895692,0.09354274814979281,0.10508377795579703,0.14519590139389038,0.01780724711716175,0.060062721371650696,0.03257787227630615,-0.020402133464813232,-0.09780099987983704,-0.15656960090731312,1.8438561182234159,3.078358573590367,0.9511715769767761,0.15593069791793823,0.2663804590702057
1727724505527,7i,9.540635562156844,1.0s : 0.3s,0.10546039657394136,0.023967637461638113,0.10270076728068035,0.09202351121492881,0.1718490868806839,0.03451219201087952,0.0593002587556839,0.01962357759475708,-0.024040594696998596,-0.08663308620452881,-0.15654567376289816,1.8431830119534984,3.0765601087016887,0.9513543248176575,0.1559070646762848,0.26574116945266724
1727724505537,7i,9.540635562156844,1.0s : 0.3s,0.12035424996621685,0.02555132908091955,0.11761069282649925,0.09164332245131139,0.21284112334251404,0.050092171877622604,0.06326980143785477,0.010150432586669922,-0.023880556225776672,-0.0878930389881134,-0.15664624848964284,1.8423305635598586,3.0743799486113708,0.9515652656555176,0.15600639581680298,0.26492583751678467
1727724505547,7i,9.540635562156844,1.0s : 0.3s,0.14044612062119288,0.027236004348235882,0.13777994362274046,0.09089107656209564,0.258127361536026,0.061166658997535706,0.07517998665571213,0.0015562176704406738,-0.02028292417526245,-0.08858537673950195,-0.1567887764020443,1.8414288849701073,3.0717107694700214,0.9517825245857239,0.15614718198776245,0.264061838388443
1727724505557,7i,9.540635562156844,1.0s : 0.3s,0.16055784804281473,0.028961170819646807,0.15792426397768908,0.07747360471536577,0.28487974405288696,0.06551262736320496,0.08842059224843979,-0.00733792781829834,-0.017224445939064026,-0.07517734169960022,-0.1567974119252371,1.8405042089628774,3.0686667922235498,0.9520248174667358,0.15615570545196533,0.26318123936653137
1727724505567,7i,9.540635562156844,1.0s : 0.3s,0.18027020847195968,0.03065843482442487,0.1776440498205338,0.06820203640329933,0.3096168041229248,0.06700053811073303,0.1036304384469986,-0.009951412677764893,-0.017113208770751953,-0.06526580452919006,-0.15654575493917955,1.839586764130749,3.0653325125916293,0.9523037075996399,0.15590713918209076,0.26231810450553894
1727724505577,7i,9.540635562156844,1.0s : 0.3s,0.19427314466911597,0.032278456242573236,0.19157284776873662,0.06051909094995687,0.30627119541168213,0.06522780656814575,0.11666997522115707,-0.0105782151222229,-0.02177540957927704,-0.055466145277023315,-0.1560907571866778,1.8387943327801268,3.061863438194247,0.9525797963142395,0.15545769035816193,0.26158222556114197
1727724505587,7i,9.540635562156844,1.0s : 0.3s,0.19939752315239034,0.03376644046933452,0.19651768301437642,0.05226919174208107,0.28502795100212097,0.06132014840841293,0.1281394064426422,-0.008260488510131836,-0.02836744487285614,-0.043117523193359375,-0.15555037627479576,1.8382220249040604,3.058531103015682,0.9528101682662964,0.15492385625839233,0.26105913519859314
1727724505597,7i,9.540635562156844,1.0s : 0.3s,0.20169938796279183,0.03517561991007928,0.198608456185799,0.04915679409187605,0.2813040614128113,0.05805040895938873,0.13308483362197876,-0.008835554122924805,-0.023658856749534607,-0.04217323660850525,-0.15493905279328163,1.8378293917074855,3.05535003364903,0.9530038833618164,0.1543198823928833,0.2607100009918213
1727724505607,7i,9.540635562156844,1.0s : 0.3s,0.20721322752803498,0.03645890780413417,0.20398056207471052,0.038570053784420105,0.2983054220676422,0.05831592530012131,0.12792815268039703,-0.010719776153564453,-0.013457909226417542,-0.034519851207733154,-0.15434400056028869,1.8375546697539509,3.0521284254012073,0.9531635642051697,0.15373192727565765,0.26047223806381226
1727724505617,7i,9.540635562156844,1.0s : 0.3s,0.21955898200726315,0.03760480886748436,0.21631464335570458,0.03003341609921544,0.33713045716285706,0.06294135004281998,0.12584786117076874,-0.012418925762176514,-0.00350990891456604,-0.027119308710098267,-0.15386605835808342,1.8372782893774238,3.0486550621219037,0.9533064365386963,0.15325964987277985,0.26022815704345703
1727724505627,7i,9.540635562156844,1.0s : 0.3s,0.2351280134953214,0.03866897445712324,0.23192648219789472,0.0289615099732898,0.3747883439064026,0.07218251377344131,0.12074657529592514,-0.01854419708251953,-0.00260964035987854,-0.022092342376708984,-0.15355726456212737,1.8370180145575912,3.044773736462723,0.9534198045730591,0.15295450389385223,0.25999248027801514
1727724505637,7i,9.540635562156844,1.0s : 0.3s,0.25077370838262564,0.03964501180034018,0.24762012409197492,0.026405862131136333,0.39954882860183716,0.06962357461452484,0.12346699088811874,-0.02336806058883667,-0.0072662681341171265,-0.009919911623001099,-0.15340557553157402,1.8370959824779636,3.040660381690871,0.9534217715263367,0.15280459821224213,0.26007288694381714
1727724505647,7i,9.540635562156844,1.0s : 0.3s,0.25995075047012617,0.040542129849821355,0.2567697964660603,0.028034445328845515,0.39072415232658386,0.07112026959657669,0.11910899728536606,-0.025434792041778564,-0.011582836508750916,0.0021998584270477295,-0.15326492139575526,1.8371494848121366,3.036452342175966,0.9534285664558411,0.15266558527946472,0.26012954115867615
1727724505657,7i,9.540635562156844,1.0s : 0.3s,0.2588285272576386,0.04131916628140205,0.25550916425867787,0.038884027693337236,0.33984339237213135,0.06362462788820267,0.11329092085361481,-0.02609342336654663,-0.012555122375488281,0.025951296091079712,-0.15310623645701912,1.837229713389505,3.0325434025703686,0.953431248664856,0.15250876545906067,0.2602124810218811
1727724505667,7i,9.540635562156844,1.0s : 0.3s,0.23850556329704117,0.0418496529044159,0.23480526032314275,0.0602212955815601,0.25019022822380066,0.05743730440735817,0.10886555165052414,-0.014720499515533447,-0.0221320241689682,0.05403780937194824,-0.1528226391792964,1.8373508874584934,3.02935188574563,0.953441321849823,0.1522284746170044,0.2603393495082855
1727724505677,7i,9.540635562156844,1.0s : 0.3s,0.20570745194853507,0.041803968140638595,0.20141495484411115,0.07916772374549713,0.15148615837097168,0.04752594977617264,0.10275089740753174,-0.005487024784088135,-0.034308016300201416,0.07113635540008545,-0.15231264339183911,1.8375284168914239,3.0271186677522413,0.9534698724746704,0.1517244130373001,0.2605290710926056
1727724505687,7i,9.540635562156844,1.0s : 0.3s,0.17042281883003965,0.041285963350261835,0.16534632263288276,0.08721426210403177,0.07967960834503174,0.05115530639886856,0.09679366648197174,-0.006047666072845459,-0.025173574686050415,0.08328291773796082,-0.151639053868716,1.8378035943118878,3.025755809530924,0.9534964561462402,0.15105858445167542,0.2608183026313782
1727724505697,7i,9.540635562156844,1.0s : 0.3s,0.14533235396371627,0.04042914795595466,0.1395957632028653,0.0845597297838878,0.07949425280094147,0.05729921907186508,0.07929517328739166,-0.00494539737701416,-0.006363332271575928,0.08417481184005737,-0.15097922460313531,1.8381849572547018,3.02479479360756,0.9534927010536194,0.15040628612041473,0.2612081468105316
1727724505707,7i,9.540635562156844,1.0s : 0.3s,0.1392337663202795,0.03949434708492305,0.13351493636318684,0.0759170028414717,0.14236855506896973,0.07490724325180054,0.06495857983827591,-0.009029746055603027,0.024656593799591064,0.07123136520385742,-0.15056373537337797,1.838667957215353,3.023533040824716,0.9534268379211426,0.14999552071094513,0.26168525218963623
1727724505717,7i,9.540635562156844,1.0s : 0.3s,0.14573586401712305,0.03849958737364778,0.14055861351363794,0.07791798180893753,0.21684278547763824,0.08612562716007233,0.05194344371557236,-0.0095900297164917,0.03354589641094208,0.06967005133628845,-0.15047776787385875,1.8391977693128732,3.0216316456128083,0.9533003568649292,0.14991052448749542,0.2621937394142151
1727724505727,7i,9.540635562156844,1.0s : 0.3s,0.16383149277226738,0.03743100615273809,0.15949820626697714,0.07981780626512769,0.2896445393562317,0.09520433843135834,0.048209693282842636,0.005876004695892334,0.037154361605644226,0.07039821147918701,-0.1506709502860955,1.839706504495609,3.019008758285336,0.9531390070915222,0.15010151267051697,0.26267099380493164
1727724505737,7i,9.540635562156844,1.0s : 0.3s,0.17978043066962884,0.036239872465787935,0.17608996250615946,0.08589402459760533,0.3027344048023224,0.10384777188301086,0.04268413037061691,0.009275376796722412,0.026169702410697937,0.08128282427787781,-0.15103965986326323,1.8402449893802544,3.015944201686044,0.9529439210891724,0.15046603977680206,0.26316943764686584
1727724505747,7i,9.540635562156844,1.0s : 0.3s,0.18005856075411295,0.03491437419129511,0.1766410817892395,0.09263847797576642,0.250236839056015,0.1047428622841835,0.030170202255249023,0.005392193794250488,0.006319478154182434,0.09226524829864502,-0.15142406998631153,1.8408738567635572,3.0131320880531227,0.9527224898338318,0.15084606409072876,0.2637532353401184
1727724505757,7i,9.540635562156844,1.0s : 0.3s,0.16546419266954276,0.0335278454844812,0.1620317334134037,0.09356833173216506,0.16642329096794128,0.10084838420152664,0.014748270623385906,-0.00109785795211792,0.007125288248062134,0.09329017996788025,-0.1517665836213975,1.8415903825186097,3.0110136330276047,0.9524833559989929,0.15118464827537537,0.2644219398498535
1727724505767,7i,9.540635562156844,1.0s : 0.3s,0.1334950182484714,0.03214240231250633,0.12956768837461255,0.0900629998040048,0.044997524470090866,0.09363840520381927,0.0011235384736210108,-0.011474251747131348,-0.004012078046798706,0.08923894166946411,-0.15198111784888074,1.8423926732751494,3.0099479817372514,0.9522395133972168,0.151396706700325,0.26517730951309204
1727724505777,7i,9.540635562156844,1.0s : 0.3s,0.09507726011636457,0.03079655188748843,0.08995141901646733,0.0765175906133445,-0.06359673291444778,0.08269409835338593,-0.000920870341360569,-0.011561274528503418,-0.015864595770835876,0.073956698179245,-0.1519620876030372,1.8432818160702815,3.0100569483727186,0.9520062208175659,0.15137790143489838,0.266024649143219
1727724505787,7i,9.540635562156844,1.0s : 0.3s,0.07921969594879526,0.02952546461283928,0.07351195253573084,0.06547725904327273,-0.1362091451883316,0.08220940083265305,0.0071663507260382175,-0.018546104431152344,-0.012914121150970459,0.061453551054000854,-0.1517249489175008,1.844512613194224,3.0111007629553,0.9517126083374023,0.15114349126815796,0.2672058939933777
1727724505797,7i,9.540635562156844,1.0s : 0.3s,0.06575438574891983,0.028369252749490512,0.05931968259906045,0.055190719830985675,-0.1485251933336258,0.08418174088001251,0.0078278798609972,-0.029631853103637695,0.00247405469417572,0.046495676040649414,-0.15143972289711471,1.8459480101312387,3.012564433793584,0.9513696432113647,0.15086153149604797,0.26858341693878174
1727724505807,7i,9.540635562156844,1.0s : 0.3s,0.06792399603391826,0.02740221006274681,0.06215133241446108,0.04480770170526217,-0.10506560653448105,0.08374445140361786,0.002796902321279049,-0.02479630708694458,0.027576550841331482,0.025147706270217896,-0.15129900500203972,1.847434754377946,3.013863903284991,0.9509897828102112,0.1507224291563034,0.27000337839126587
1727724505817,7i,9.540635562156844,1.0s : 0.3s,0.06775126873742864,0.026546433037475736,0.062333949887024585,0.05292949650763602,-0.07679574936628342,0.07429684698581696,-0.014394035562872887,-0.021777570247650146,0.038753122091293335,0.02873089909553528,-0.15124547857872545,1.8488635685959487,3.014838575025362,0.9506108164787292,0.15066951513290405,0.27136412262916565
1727724505827,7i,9.540635562156844,1.0s : 0.3s,0.06627728732618325,0.025788324844747443,0.06105441111843789,0.057244403121708795,-0.03469011187553406,0.06860140711069107,-0.03361060470342636,-0.01836550235748291,0.04499979317188263,0.0302431583404541,-0.15133218155558184,1.8501981602813133,3.0155208269528044,0.95023512840271,0.15075522661209106,0.27262893319129944
1727724505837,7i,9.540635562156844,1.0s : 0.3s,0.0642590762747916,0.025095497092602042,0.0591561062728497,0.04556680215413486,-0.02249683067202568,0.060061272233724594,-0.05194646865129471,-0.0016686320304870605,0.03184698522090912,0.032547175884246826,-0.15170239836988,1.8514672960090655,3.0159681294826384,0.9498348832130432,0.15112119913101196,0.2738192677497864
1727724505847,7i,9.540635562156844,1.0s : 0.3s,0.0629231194002633,0.024443523854246575,0.05798131678951997,0.04471532121950651,-0.0448005385696888,0.05352960154414177,-0.07324350625276566,0.001999378204345703,0.006693527102470398,0.04416626691818237,-0.15217248449348852,1.8526855444718633,3.0165520529088377,0.949431836605072,0.15158586204051971,0.27495628595352173
1727724505857,7i,9.540635562156844,1.0s : 0.3s,0.06501931823739296,0.023815384722335624,0.060500737140819404,0.05450219845329505,-0.07893600314855576,0.049139603972435,-0.08453980088233948,0.003956317901611328,-0.006733939051628113,0.05393970012664795,-0.15265082550594133,1.8537756797253433,3.0174275165833606,0.9490619897842407,0.1520586609840393,0.2759709060192108
1727724505867,7i,9.540635562156844,1.0s : 0.3s,0.07420687026308163,0.0232109177247574,0.0704834228213725,0.06846485905169229,-0.12964046001434326,0.04209234565496445,-0.07648347318172455,0.002073526382446289,-0.03432752192020416,0.05920100212097168,-0.15302710902027825,1.8548248863279468,3.018749194605106,0.9487169981002808,0.15243056416511536,0.276950478553772
1727724505877,7i,9.540635562156844,1.0s : 0.3s,0.08494428517545287,0.022660058916842724,0.08186606936853558,0.06741570483132728,-0.1494087129831314,0.04466748982667923,-0.06418482959270477,-0.0049803853034973145,-0.04606851935386658,0.04896697402000427,-0.15332752011543968,1.8557505222093118,3.0203521240676845,0.9484160542488098,0.15272745490074158,0.2778156101703644
1727724505887,7i,9.540635562156844,1.0s : 0.3s,0.09454327949103139,0.022204307953764886,0.09189885965132347,0.04478460319604894,-0.15893270075321198,0.0470677986741066,-0.05640546977519989,-0.013065755367279053,-0.03353142738342285,0.026656895875930786,-0.15362660563724465,1.8565865252896565,3.022051955735661,0.9481398463249207,0.15302301943302155,0.27859556674957275
1727724505897,7i,9.540635562156844,1.0s : 0.3s,0.09453604026670323,0.02192507683426907,0.09195843580182915,0.025361567658998677,-0.117305226624012,0.05219770967960358,-0.05021265521645546,-0.021804630756378174,-0.012705281376838684,0.0025185346603393555,-0.15395299325365241,1.8574694698715803,3.023602862560321,0.9478453993797302,0.15334555506706238,0.2794184386730194
1727724505907,7i,9.540635562156844,1.0s : 0.3s,0.08297970581222207,0.021800972823031613,0.0800646561264854,0.042334707847877164,-0.04437723010778427,0.062589630484581,-0.037906453013420105,-0.03222602605819702,-0.0001998990774154663,-0.027453064918518066,-0.15439226012962742,1.8583304694625549,3.024538489570474,0.9475398063659668,0.15377961099147797,0.2802152931690216
1727724505917,7i,9.540635562156844,1.0s : 0.3s,0.07114631817860204,0.021809451086684226,0.06772109297455563,0.05142306203559956,-0.020496396347880363,0.06619324535131454,-0.01874760538339615,-0.0271337628364563,-0.01950514316558838,-0.0390850305557251,-0.1546885902558742,1.8591383643637653,3.024904442533155,0.9472693800926208,0.15407241880893707,0.28096774220466614
1727724505927,7i,9.540635562156844,1.0s : 0.3s,0.06856851279722538,0.0219154321278163,0.0649719538098889,0.05163550318547627,-0.0296800397336483,0.07152755558490753,-0.01138236653059721,-0.021131575107574463,-0.027653321623802185,-0.03814414143562317,-0.1547657809294553,1.8599851255303679,3.0252106751259777,0.9470196962356567,0.15414868295192719,0.2817663550376892
1727724505937,7i,9.540635562156844,1.0s : 0.3s,0.06304225580614285,0.022093363434806706,0.059044130184673714,0.04465729471777479,-0.024605119600892067,0.057790882885456085,-0.011410129256546497,-0.016878783702850342,-0.008957892656326294,-0.04036256670951843,-0.15474691233319915,1.8608445374644247,3.0255581799653757,0.9467801451683044,0.15413004159927368,0.28258100152015686
1727724505947,7i,9.540635562156844,1.0s : 0.3s,0.05412830684329359,0.02235730512410889,0.04929527877301474,0.053853829038507356,-0.006290029734373093,0.04489932209253311,-0.009993061423301697,-0.0056885480880737305,-0.005652099847793579,-0.05325344204902649,-0.15470598257136134,1.861532746032848,3.025747698271785,0.946591317653656,0.15408959984779358,0.28323426842689514
1727724505957,7i,9.540635562156844,1.0s : 0.3s,0.046313398968681765,0.02259722218209672,0.04042643285877754,0.06223227136624073,-0.026556286960840225,0.01799122802913189,-0.0007613138295710087,0.012888729572296143,-0.03544929623603821,-0.04949831962585449,-0.15459462777440156,1.8619934656908745,3.025936519921057,0.9464772343635559,0.1539795696735382,0.28367531299591064
1727724505967,7i,9.540635562156844,1.0s : 0.3s,0.039959183005670314,0.022717095886361352,0.032873543480594174,0.07961877110126984,-0.01869623363018036,0.002784844022244215,0.020820677280426025,0.034310221672058105,-0.05088111758232117,-0.05072543025016785,-0.15435281033958972,1.8621662685076346,3.026156404379165,0.946463942527771,0.15374062955379486,0.2838495969772339
1727724505977,7i,9.540635562156844,1.0s : 0.3s,0.035893465384589034,0.02280183646144507,0.027720337503360334,0.07771500589538913,0.024629803374409676,-0.008046453818678856,0.04064321517944336,0.034129798412323,-0.04036639630794525,-0.05696782469749451,-0.1540425446351901,1.8621212921035484,3.0260587768400233,0.9465222954750061,0.15343405306339264,0.2838206887245178
1727724505987,7i,9.540635562156844,1.0s : 0.3s,0.028242245151387273,0.02292159400985646,0.016499240565503927,0.07137696129863748,0.08479247987270355,-0.012416967190802097,0.06105794385075569,0.03188997507095337,-0.03496740758419037,-0.05343201756477356,-0.15372089863139876,1.8618689900624132,3.025382777727278,0.9466409087181091,0.15311621129512787,0.2835959494113922
1727724505997,7i,9.540635562156844,1.0s : 0.3s,0.04424762064695671,0.023100276233674884,0.03773896091368846,0.07156813083577782,0.13951724767684937,-0.01609789952635765,0.06671269983053207,0.02752852439880371,-0.035956814885139465,-0.05541917681694031,-0.15339424294281798,1.861454589872074,3.0240837230972484,0.9468063712120056,0.15279339253902435,0.28321802616119385
1727724506007,7i,9.540635562156844,1.0s : 0.3s,0.06648261045140713,0.023358519008870208,0.06224401242003763,0.06808832750847406,0.16826526820659637,-0.010759327560663223,0.06626209616661072,0.019058048725128174,-0.032217204570770264,-0.05687585473060608,-0.1531459522582617,1.8609832753453972,3.02238029955462,0.9469758868217468,0.15254801511764526,0.28278252482414246
1727724506017,7i,9.540635562156844,1.0s : 0.3s,0.08929090998939282,0.02370069315711901,0.08608800003836738,0.06587343114694974,0.20304402709007263,0.005169837735593319,0.0629376694560051,0.015759766101837158,-0.029929354786872864,-0.056525856256484985,-0.1530388602797461,1.8605443756702875,3.020376798845446,0.9471156001091003,0.15244217216968536,0.28237155079841614
1727724506027,7i,9.540635562156844,1.0s : 0.3s,0.11812192967732174,0.02414781794920299,0.11562730282673851,0.07021739680244807,0.2669082283973694,0.030515141785144806,0.06708714365959167,0.007015407085418701,-0.023065149784088135,-0.0659489631652832,-0.15308747012104826,1.8601365848676317,3.0179063812575784,0.9472236037254333,0.15249021351337433,0.2819831967353821
1727724506037,7i,9.540635562156844,1.0s : 0.3s,0.14383858980708114,0.024788759833722123,0.1416864753729014,0.0860188570846979,0.28882896900177,0.03717996925115585,0.0807528868317604,0.0035521388053894043,-0.043621331453323364,-0.07405272126197815,-0.15296655792340058,1.8597136419615625,3.0149062985426167,0.9473603963851929,0.15237072110176086,0.28158777952194214
1727724506047,7i,9.540635562156844,1.0s : 0.3s,0.15165686853615443,0.02563237079737884,0.14947503919216115,0.09547397484397536,0.2244478464126587,0.040433283895254135,0.10722950100898743,0.005712389945983887,-0.06812585890293121,-0.06664469838142395,-0.15247143901328308,1.859296636273611,3.0120238820131395,0.9475499987602234,0.1518813669681549,0.2812141478061676
1727724506057,7i,9.540635562156844,1.0s : 0.3s,0.1438101397602142,0.026620442572914578,0.14132483269077128,0.09362522236788363,0.1384519785642624,0.02675262838602066,0.12196716666221619,-0.005378067493438721,-0.07289044559001923,-0.058512747287750244,-0.1516108338179834,1.8589365298758485,3.009909953676114,0.9477760791778564,0.15103068947792053,0.280909925699234
1727724506067,7i,9.540635562156844,1.0s : 0.3s,0.1391805211892963,0.02772998600257874,0.13639012191071956,0.08938118622733723,0.11472134292125702,0.019751444458961487,0.14184926450252533,-0.012603342533111572,-0.051229000091552734,-0.0721508264541626,-0.15049024987419554,1.8585606199495042,3.0082645371614953,0.9480434656143188,0.14992286264896393,0.28060153126716614
1727724506077,7i,9.540635562156844,1.0s : 0.3s,0.1368633064821614,0.028910398312051028,0.13377501086028215,0.07258242155212785,0.09780041873455048,0.0065423427149653435,0.15961182117462158,-0.00665360689163208,-0.030809298157691956,-0.06538137793540955,-0.149097946017506,1.8580697546322504,3.006749346649645,0.9483804702758789,0.14854614436626434,0.28019505739212036
1727724506087,7i,9.540635562156844,1.0s : 0.3s,0.13668535598396572,0.030097994236393148,0.13333040644732722,0.05643877918224903,0.124408058822155,-0.0018546045757830143,0.1657935529947281,-0.0033674240112304688,0.0064099133014678955,-0.055972397327423096,-0.1476292164483891,1.857415783338414,3.005161163520392,0.9487718343734741,0.14709354937076569,0.2796361744403839
1727724506097,7i,9.540635562156844,1.0s : 0.3s,0.13815551295043174,0.03124685999984493,0.13457555312443267,0.053451348388655555,0.15498341619968414,0.002237564418464899,0.15600904822349548,-0.0030174851417541504,0.02864326536655426,-0.04502782225608826,-0.14633217494264855,1.856808254563125,3.0032748290786264,0.9491236209869385,0.14581049978733063,0.2791132628917694
1727724506107,7i,9.540635562156844,1.0s : 0.3s,0.14047975110783084,0.03226005628562181,0.136725452055448,0.043563913923345514,0.16733941435813904,0.008500520139932632,0.1497437059879303,0.012647032737731934,0.037841230630874634,-0.017490237951278687,-0.14525572830296835,1.856284347946229,3.001213093881103,0.9494198560714722,0.14474546909332275,0.27866002917289734
1727724506117,7i,9.540635562156844,1.0s : 0.3s,0.14080054506030942,0.03311182225463457,0.13685174721667864,0.04694055444247841,0.1504409909248352,0.011093240231275558,0.1420135796070099,0.02873408794403076,0.0366491973400116,0.005882531404495239,-0.14419361824125695,1.8558411307767586,2.999222104893788,0.9496902227401733,0.1436944603919983,0.2782822549343109
1727724506127,7i,9.540635562156844,1.0s : 0.3s,0.1382666968744196,0.033790474488162206,0.13407417088472892,0.05305723982700064,0.12446904182434082,0.007409556768834591,0.12802933156490326,0.032452523708343506,0.037958741188049316,0.017917543649673462,-0.1430862986474606,1.8554933948530612,2.997473845667263,0.9499390721321106,0.14259855449199677,0.2779965400695801
1727724506137,7i,9.540635562156844,1.0s : 0.3s,0.12842599143766076,0.03433478713855902,0.12375119259585321,0.04395351987202054,0.10356136411428452,0.007174577098339796,0.1078314408659935,0.02044975757598877,0.0367109477519989,0.012885093688964844,-0.14211164784377778,1.8552244775560534,2.996009820895354,0.9501466155052185,0.1416337937116623,0.2777799069881439
1727724506147,7i,9.540635562156844,1.0s : 0.3s,0.11674049647461589,0.0347874697119268,0.11143686763446638,0.028834921377977538,0.07662482559680939,-0.0017962809652090073,0.0998438224196434,0.013993978500366211,0.0245867520570755,0.005577892065048218,-0.1412727222843692,1.854914720250374,2.9948106118565976,0.9503462314605713,0.1408032774925232,0.27751874923706055
1727724506157,7i,9.540635562156844,1.0s : 0.3s,0.10588293731802556,0.03517854975989789,0.09986824346048809,0.02251266589629739,0.06700894981622696,-0.009789492934942245,0.08750872313976288,0.006363511085510254,0.02157832682132721,-0.0008376538753509521,-0.1405046452375155,1.8545689984805507,2.9938794863656097,0.9505458474159241,0.14004281163215637,0.2772204279899597
1727724506167,7i,9.540635562156844,1.0s : 0.3s,0.10527034760998209,0.03554804581280802,0.09908674242711264,0.0539579392862036,0.12040719389915466,-0.0038871290162205696,0.07316893339157104,-0.006862938404083252,0.04477758705615997,-0.029314279556274414,-0.14003636516365736,1.8542005997715967,2.992748853637165,0.950710654258728,0.13957911729812622,0.27688851952552795
1727724506177,7i,9.540635562156844,1.0s : 0.3s,0.11043988205511744,0.03599880167580373,0.10440811187955848,0.06837403324234119,0.17793066799640656,0.011635815724730492,0.0568426288664341,-0.0198824405670166,0.04651540517807007,-0.046000152826309204,-0.13991477680304795,1.8539151742384248,2.9910783935552794,0.9508059024810791,0.13945873081684113,0.27662187814712524
1727724506187,7i,9.540635562156844,1.0s : 0.3s,0.11116421293901807,0.03646706168055807,0.10501254996779064,0.044601333164469036,0.16830360889434814,0.005189900286495686,0.04402989149093628,-0.01993483304977417,0.027089446783065796,-0.029292374849319458,-0.14002417212004092,1.8537276615373617,2.9892129422307545,0.9508429765701294,0.1395670473575592,0.27643927931785583
1727724506197,7i,9.540635562156844,1.0s : 0.3s,0.10736800059195599,0.03692846052500627,0.10081753991427937,0.03436692092103257,0.12758788466453552,-0.015597313642501831,0.018735121935606003,-0.0008358955383300781,0.023621082305908203,-0.024948567152023315,-0.14021378893307254,1.8534517594414879,2.9876857961705685,0.9508941173553467,0.13975480198860168,0.27616962790489197
1727724506207,7i,9.540635562156844,1.0s : 0.3s,0.09055775254986753,0.03737460705199816,0.08248542474032469,0.03974605427499962,0.07017092406749725,-0.03688209503889084,-0.011960472911596298,0.0001652240753173828,0.03208757936954498,-0.023454397916793823,-0.14058578790795417,1.8530831335079516,2.9866998624740955,0.9509458541870117,0.1401231437921524,0.2758045792579651
1727724506217,7i,9.540635562156844,1.0s : 0.3s,0.0643058701896367,0.03778746525241654,0.05203222473279244,0.026020822265324636,-0.03474963456392288,-0.06215381249785423,-0.044745516031980515,0.012903749942779541,0.018218576908111572,-0.013366371393203735,-0.14106226600849703,1.8526193382224885,2.9865991556737246,0.9510092735290527,0.14059491455554962,0.2753448784351349
1727724506227,7i,9.540635562156844,1.0s : 0.3s,0.052208099407316536,0.038178833645354626,0.03560986247101472,0.03542882862990768,-0.11102496087551117,-0.10963104665279388,-0.06577650457620621,0.02309095859527588,0.01582445204257965,-0.021716266870498657,-0.14153851693328726,1.8519205087816581,2.9875170262693147,0.9511369466781616,0.14106641709804535,0.2746615707874298
1727724506237,7i,9.540635562156844,1.0s : 0.3s,0.07242033452473028,0.03858859461728436,0.06128315607193164,0.04031070166920298,-0.17520596086978912,-0.14436857402324677,-0.059010837227106094,0.021693110466003418,-0.002794221043586731,-0.03386080265045166,-0.14189601566625706,1.8508749544456555,2.9890693517397695,0.9513752460479736,0.14142033457756042,0.2736530601978302
1727724506247,7i,9.540635562156844,1.0s : 0.3s,0.10946087732170297,0.0392988314679444,0.10216303396674851,0.08724361450533934,-0.2695755958557129,-0.16206607222557068,-0.014324327930808067,-7.12275505065918e-05,-0.07326102256774902,-0.047373682260513306,-0.1418823248094864,1.8495206492960925,2.9912336207616224,0.9517466425895691,0.14140677452087402,0.2723648250102997
1727724506257,7i,9.540635562156844,1.0s : 0.3s,0.18366491323265866,0.04002844068450321,0.1792498934145492,0.12450063085206417,-0.5393773913383484,-0.15713730454444885,0.06373894959688187,-0.0042228102684021,-0.12432117760181427,0.005178779363632202,-0.14068445315592762,1.848316685408633,2.9949242132838942,0.9522361159324646,0.14022083580493927,0.2712650001049042
1727724506267,7i,9.540635562156844,1.0s : 0.3s,0.3108717153582287,0.04008323458290618,0.30827675506781127,0.1880560159786404,-0.9163954854011536,-0.12724731862545013,0.07877649366855621,-0.039119601249694824,-0.11523741483688354,0.1433703601360321,-0.13784454793437212,1.8479706641384555,3.0019936335056947,0.9527091383934021,0.13740843534469604,0.2710433602333069
1727724506277,7i,9.540635562156844,1.0s : 0.3s,0.34203687876455635,0.0396980455127496,0.33972531789295224,0.155159165105884,-0.6186323761940002,-0.0546722337603569,0.034631431102752686,-0.08399897813796997,0.1048792153596878,0.0775814950466156,-0.1351559205802833,1.848018406192963,3.009619529181251,0.9530481100082397,0.1347448080778122,0.27118897438049316
1727724506287,7i,9.540635562156844,1.0s : 0.3s,0.28968092059642453,0.03919055092703418,0.28701765882193997,0.1826391989999702,-0.24503803253173828,-0.014022808521986008,0.02581849880516529,-0.05139535665512085,0.1752583086490631,-0.0003457963466644287,-0.13381072283501716,1.848191495049627,3.0135320423184133,0.9531747102737427,0.13341176509857178,0.27140337228775024
1727724506297,7i,9.540635562156844,1.0s : 0.3s,0.23368156326424075,0.03828229419008748,0.23052448668452324,0.11234709412917296,-0.1476985514163971,0.016644245013594627,0.05130671709775925,-0.019997835159301758,0.020731717348098755,0.10859167575836182,-0.13288781940452446,1.8484390967035895,3.0153412183942208,0.9532254934310913,0.13249704241752625,0.2716729938983917
1727724506307,7i,9.540635562156844,1.0s : 0.3s,0.14702883500359878,0.03713310024071705,0.14226247287682137,0.10758701097588029,0.10080207139253616,0.04808046296238899,0.0627114325761795,-0.0077517032623291016,0.02835249900817871,0.10349401831626892,-0.1322191625302349,1.848783103476591,3.0155353874480424,0.9532167911529541,0.1318342536687851,0.27202510833740234
1727724506317,7i,9.540635562156844,1.0s : 0.3s,0.053898462205708826,0.03606900773147264,0.0400508540409214,0.05600950763717457,0.40620991587638855,0.09336725622415543,0.07559613883495331,-0.015646159648895264,0.030537039041519165,0.04426908493041992,-0.13227820237867371,1.8491274168324807,3.012800152382513,0.9531157612800598,0.13189278542995453,0.2723512053489685
1727724506327,7i,9.540635562156844,1.0s : 0.3s,0.12532165647406004,0.03505814744444881,0.12031809456256197,0.06802866171624851,0.5942541360855103,0.12326949089765549,0.07458333671092987,-0.00528407096862793,-0.016949161887168884,0.0656711757183075,-0.13295637908227792,1.8495438006629912,3.0076691755264275,0.9529159665107727,0.13256500661373138,0.27272331714630127
1727724506337,7i,9.540635562156844,1.0s : 0.3s,0.2187156619101466,0.03409307656925187,0.2160421322215569,0.08296190817282262,0.6460990905761719,0.12470950931310654,0.07508724182844162,-0.0021581649780273438,-0.03793373703956604,0.07374992966651917,-0.1339609119080134,1.8499595746667559,3.001359827663465,0.952674150466919,0.13356059789657593,0.2730827033519745
1727724506347,7i,9.540635562156844,1.0s : 0.3s,0.26791710634763843,0.03319647073672801,0.2658525346960554,0.08607265847504339,0.5467751622200012,0.13453975319862366,0.0869217962026596,0.0002187490463256836,-0.05700741708278656,0.0644872784614563,-0.1348387232815794,1.8504267364467764,2.9952621812160762,0.952433168888092,0.13443049788475037,0.2734951972961426
1727724506357,7i,9.540635562156844,1.0s : 0.3s,0.24723100316259586,0.03243069545704591,0.245094714175879,0.11359321156326535,0.25708580017089844,0.12896409630775452,0.0860009416937828,-0.0036770105361938477,-0.08585281670093536,0.07429125905036926,-0.13513768956461347,1.8512152608230559,2.9909800959065977,0.9521788358688354,0.13472674787044525,0.2742350697517395
1727724506367,7i,9.540635562156844,1.0s : 0.3s,0.1728696138242674,0.031662037584837634,0.1699453405060806,0.1324481682190819,-0.0537215918302536,0.08020799607038498,0.060380805283784866,-0.002475440502166748,-0.0833682268857956,0.10288891196250916,-0.1346937186019723,1.8520765537150712,2.989880636630533,0.9519993662834167,0.1342868059873581,0.27507156133651733
1727724506377,7i,9.540635562156844,1.0s : 0.3s,0.11095860040616001,0.03107593540515488,0.10651806064132284,0.08231853288829755,-0.13407142460346222,0.05085503309965134,0.06898624449968338,-0.004329383373260498,-0.07411140203475952,0.03556820750236511,-0.13375978994712825,1.852872482950087,2.9907869232107918,0.9519002437591553,0.13336127996444702,0.27586403489112854
1727724506387,7i,9.540635562156844,1.0s : 0.3s,0.09610548550501612,0.030929849539108538,0.09099235545716448,0.047901427330352735,0.024626074358820915,0.036516573280096054,0.09036742895841599,-0.0034956932067871094,-0.02508479356765747,-0.04065808653831482,-0.13282058013201894,1.8533419580825934,2.9911637855062043,0.9518907070159912,0.13243040442466736,0.27634575963020325
1727724506397,7i,9.540635562156844,1.0s : 0.3s,0.12020558882995507,0.030886789484332048,0.11616965964186506,0.05892682455212526,0.25645822286605835,0.04544135928153992,0.09742893278598785,-0.017553865909576416,0.038254037499427795,-0.04124149680137634,-0.1323129962796512,1.8535024040909995,2.9895358221203225,0.9519107937812805,0.1319272667169571,0.27651718258857727
1727724506407,7i,9.540635562156844,1.0s : 0.3s,0.1763983077397467,0.03090751198773527,0.17366948113060737,0.04734663974263867,0.4662910997867584,0.0559224970638752,0.08790547400712967,-0.03405022621154785,0.0323663204908371,-0.005891323089599609,-0.13240313341694904,1.8535104988452724,2.985805624906952,0.9518970251083374,0.1320166140794754,0.2765215337276459
1727724506417,7i,9.540635562156844,1.0s : 0.3s,0.2585793931564423,0.030869615373147086,0.25673014901228086,0.07129213151446759,0.6713637113571167,0.08498162031173706,0.07747004181146622,-0.024272382259368896,0.06676174700260162,0.006024003028869629,-0.13320152180522143,1.8534632502948392,2.979994614955413,0.9518084526062012,0.13280798494815826,0.276447057723999
1727724506427,7i,9.540635562156844,1.0s : 0.3s,0.33088080462847413,0.030569931496775185,0.32946560694535165,0.09107075880315653,0.7400681972503662,0.09759994596242905,0.05506113916635513,-0.018939495086669922,0.0775546282529831,0.043823033571243286,-0.1345514633003081,1.853416641561493,2.9729265885121032,0.951648473739624,0.1341458410024643,0.27635249495506287
1727724506437,7i,9.540635562156844,1.0s : 0.3s,0.3912492417626842,0.03008018889881151,0.3900912090981892,0.1072514267322654,0.788797914981842,0.10412673652172089,0.021016951650381088,-0.02865469455718994,0.07454587519168854,0.07158693671226501,-0.13627901601008277,1.8533962803793567,2.965468980951528,0.9514299631118774,0.13585758209228516,0.27626803517341614
1727724506447,7i,9.540635562156844,1.0s : 0.3s,0.45769864655377585,0.029613115792281215,0.4567396571683163,0.11406237908165165,0.9036405682563782,0.12698358297348022,0.037718966603279114,-0.043288230895996094,0.09445397555828094,0.04706168174743652,-0.13839400666709015,1.8534376230029435,2.9571786625849157,0.9511405229568481,0.13795265555381775,0.27622660994529724
1727724506457,7i,9.540635562156844,1.0s : 0.3s,0.5207991379919588,0.02935804717900818,0.5199710061138049,0.030328382483819895,0.984498918056488,0.11111442744731903,0.09260045737028122,-0.01914834976196289,0.016070574522018433,0.017172306776046753,-0.1404268861070714,1.8533411842746068,2.9478136377059254,0.9508957862854004,0.13996581733226776,0.27605611085891724
1727724506467,7i,9.540635562156844,1.0s : 0.3s,0.5773994140404929,0.02930875939964001,0.5766550788441549,0.10625069507054957,1.0418832302093506,0.07560650259256363,0.1807849109172821,0.040442049503326416,-0.08732388913631439,-0.04503542184829712,-0.14193817436627665,1.852839375309796,2.937600589384849,0.9508298635482788,0.1414620578289032,0.2755196988582611
1727724506477,7i,9.540635562156844,1.0s : 0.3s,0.6276532667558111,0.02946064251422779,0.6269614771354698,0.17817252875045672,1.0847183465957642,0.07293051481246948,0.24105186760425568,0.07242041826248169,-0.13162289559841156,-0.09579220414161682,-0.1428196147754949,1.8519997356213835,2.9266742425015004,0.9509407877922058,0.14233458042144775,0.2746865749359131
1727724506487,7i,9.540635562156844,1.0s : 0.3s,0.6688709466331906,0.029728181910203426,0.668209980807152,0.1106162727813931,1.11020028591156,0.0982758179306984,0.24235175549983978,0.04767763614654541,-0.07748956978321075,-0.06291398406028748,-0.14351829868165233,1.8512311756564088,2.915363683348757,0.9510560631752014,0.14302611351013184,0.27392810583114624
1727724506497,7i,9.540635562156844,1.0s : 0.3s,0.700444421119843,0.029964043532380653,0.6998032174640965,0.05762983330012123,1.1215921640396118,0.13359013199806213,0.2326691746711731,0.04595541954040527,0.017646238207817078,-0.029965102672576904,-0.14430740955682356,1.8507292866973744,2.9038031953548424,0.9510846734046936,0.1438070684671402,0.27341946959495544
1727724506507,7i,9.540635562156844,1.0s : 0.3s,0.663293725098705,0.030144563508970507,0.6626083843766014,0.043340915558250113,0.8250764012336731,0.15470580756664276,0.19003383815288544,0.04248511791229248,0.00444793701171875,0.007325679063796997,-0.1450315659301863,1.8507292487731988,2.8934610923935167,0.9509843587875366,0.14452366530895233,0.27339059114456177
1727724506517,7i,9.540635562156844,1.0s : 0.3s,0.5422205430913287,0.03030743313928826,0.5413728630498236,0.11716813047711376,0.3484763205051422,0.09420783072710037,0.16767147183418274,0.036969125270843506,-0.10232256352901459,0.043494224548339844,-0.14492841552580493,1.851088545616148,2.8873959597516587,0.9509002566337585,0.14442159235477448,0.2737363576889038
1727724506527,7i,9.540635562156844,1.0s : 0.3s,0.4193062846221786,0.03056197259333599,0.4181910163488207,0.056411429392804004,0.15639156103134155,0.04630395770072937,0.15211088955402374,0.023358523845672607,-0.041690394282341,-0.02997565269470215,-0.1440404090361586,1.851370984273016,2.884591871050027,0.9509457945823669,0.1435428410768509,0.2740403115749359
1727724506537,7i,9.540635562156844,1.0s : 0.3s,0.2999633433782647,0.03100680851543773,0.2983564733609005,0.07960627421741075,-0.011786128394305706,0.0016255701193585992,0.12174748629331589,-0.029112935066223145,-0.033538877964019775,-0.06606617569923401,-0.14292699900097208,1.8514406459034032,2.883509847814841,0.9510794878005981,0.14244087040424347,0.2741506099700928
1727724506547,7i,9.540635562156844,1.0s : 0.3s,0.2075903246503584,0.031538017128813024,0.2051806432488793,0.0623022082357527,-0.05987828969955444,-0.011915273033082485,0.0926806852221489,-0.019384026527404785,0.006909549236297607,-0.05880546569824219,-0.14177356002770375,1.851379542106292,2.8836608479359134,0.9512535929679871,0.14129909873008728,0.27413785457611084
1727724506557,7i,9.540635562156844,1.0s : 0.3s,0.14454696193167565,0.0321068218226634,0.14093607130938848,0.08116116747607265,-0.05788398161530495,-0.004478261806070805,0.07148249447345734,-0.02349025011062622,0.038966819643974304,-0.06720811128616333,-0.14083489376289474,1.8513358826686455,2.883952551477717,0.9513928294181824,0.14036978781223297,0.27413296699523926
1727724506567,7i,9.540635562156844,1.0s : 0.3s,0.09932108228610342,0.032688615271025345,0.0937876954517266,0.03739978743389966,-0.0933959037065506,0.006234835833311081,0.06753329187631607,-0.007923126220703125,0.0018644481897354126,-0.03650331497192383,-0.1399648090355035,1.8514403832186623,2.88452931012686,0.9514809846878052,0.13950826227664948,0.2742660641670227
1727724506577,7i,9.540635562156844,1.0s : 0.3s,0.08956329622964278,0.03323328463489512,0.08316930217270545,0.017329504700536437,-0.11628377437591553,0.009551492519676685,0.06685987114906311,0.0035416483879089355,-0.008844688534736633,-0.014475494623184204,-0.13900690687805028,1.8516483930702847,2.8853383568090654,0.9515517950057983,0.13855966925621033,0.27450087666511536
1727724506587,7i,9.540635562156844,1.0s : 0.3s,0.07364311373049462,0.033727293710846165,0.06546585261695505,0.015018868003080185,-0.14102160930633545,0.00030606286600232124,0.06235646829009056,0.009559452533721924,-0.009356170892715454,-0.006829738616943359,-0.1380289377126995,1.8518643796752619,2.8864259182935124,0.9516223073005676,0.13759106397628784,0.2747438848018646
1727724506597,7i,9.540635562156844,1.0s : 0.3s,0.06911120757743752,0.034183341028157094,0.060065449377860895,0.021766148268529704,-0.14611530303955078,0.0021182107739150524,0.06970150023698807,0.010871708393096924,0.005290403962135315,-0.01809924840927124,-0.13699876527446156,1.852024684811287,2.8876552671785234,0.951714038848877,0.13657061755657196,0.27493566274642944
1727724506607,7i,9.540635562156844,1.0s : 0.3s,0.08124775816568872,0.03462333777778738,0.07350117473942494,0.015353006655998681,-0.1846962571144104,-0.0031061123590916395,0.07382407784461975,-0.0016023516654968262,-5.251169204711914e-05,-0.015269070863723755,-0.1358459428174747,1.8522117245667022,2.888990883033264,0.9518129825592041,0.1354285031557083,0.2751571238040924
1727724506617,7i,9.540635562156844,1.0s : 0.3s,0.11212354650764132,0.03508579473350515,0.10649261330894999,0.0352862594253163,-0.27515119314193726,-0.02766236662864685,0.0962783545255661,-0.002347230911254883,-0.03472734987735748,-0.005798429250717163,-0.1343899911150316,1.8523521891473873,2.8909893582742647,0.951962947845459,0.13398583233356476,0.2753453850746155
1727724506627,7i,9.540635562156844,1.0s : 0.3s,0.1401104318251955,0.03557311808597029,0.13551932104273678,0.039215688225586985,-0.2870320677757263,-0.04475107043981552,0.10385264456272125,0.004841148853302002,-0.018468230962753296,-0.03425431251525879,-0.1326108659561683,1.8522972190396692,2.8934722418262324,0.95220547914505,0.13222253322601318,0.27535879611968994
1727724506637,7i,9.540635562156844,1.0s : 0.3s,0.16800523629552555,0.03610888290062768,0.16407896878754488,0.049667921518494425,-0.3304655849933624,-0.06705273687839508,0.09081946313381195,-0.02030336856842041,-0.007435962557792664,-0.04471445083618164,-0.13082520919467897,1.8521249387244314,2.8961579016542864,0.9524781703948975,0.13045234978199005,0.2752598524093628
1727724506647,7i,9.540635562156844,1.0s : 0.3s,0.1950613988807858,0.03672669070445182,0.19157270036001622,0.054994627213217996,-0.36439505219459534,-0.09342175722122192,0.08407288044691086,-0.014959156513214111,-0.02034008502960205,-0.04885604977607727,-0.12901989080303847,1.8516792723308855,2.899271806123787,0.9528253674507141,0.12866224348545074,0.2749001383781433
1727724506657,7i,9.540635562156844,1.0s : 0.3s,0.22003957119577772,0.03734987542881994,0.21684648878290227,0.05378082048948057,-0.39753395318984985,-0.10283128917217255,0.061576664447784424,-0.01819080114364624,0.014668762683868408,-0.04843860864639282,-0.12726082517831178,1.8511438149622201,2.9028266626486157,0.9531886577606201,0.12691760063171387,0.27445217967033386
1727724506667,7i,9.540635562156844,1.0s : 0.3s,0.2365397812566088,0.03787244323601184,0.23348821417848778,0.05984154578663467,-0.3998868465423584,-0.07036469131708145,0.04570821672677994,-0.025769472122192383,0.046405285596847534,-0.027631402015686035,-0.12564750529261884,1.8507067832515216,2.9064928251614055,0.9535039067268372,0.12531715631484985,0.2740917503833771
1727724506677,7i,9.540635562156844,1.0s : 0.3s,0.25179667186190585,0.0383321050236024,0.2488618365382523,0.01572304320895227,-0.42030635476112366,-0.06320531666278839,0.036260321736335754,-0.00952678918838501,0.008498884737491608,0.009177327156066895,-0.12422087792699836,1.8504105369022548,2.9103654691675303,0.9537560343742371,0.12390165030956268,0.27385833859443665
1727724506687,7i,9.540635562156844,1.0s : 0.3s,0.2553922592012689,0.03872013270045399,0.25244000749403284,0.031000832194950916,-0.3937421441078186,-0.053109802305698395,0.0443081259727478,0.016257047653198242,-0.013850986957550049,0.022470206022262573,-0.12277125049186711,1.8502442847050409,2.9142023073863923,0.9539730548858643,0.12246306240558624,0.2737489938735962
1727724506697,7i,9.540635562156844,1.0s : 0.3s,0.2615533195718192,0.03886697341204319,0.2586493714603338,0.053669565019082655,-0.40385764837265015,-0.07508620619773865,0.035210371017456055,0.02430325746536255,-0.013223432004451752,0.04598820209503174,-0.1212012503879725,1.850040774647662,2.917950686465693,0.954212486743927,0.12090472877025604,0.2736075222492218
1727724506707,7i,9.540635562156844,1.0s : 0.3s,0.269805256095625,0.0386711857781526,0.26701950417027104,0.0510193563841283,-0.41603735089302063,-0.09256799519062042,0.03513340279459953,0.041367948055267334,0.015124291181564331,0.025747299194335938,-0.11972884447842837,1.8496780186426156,2.92178644990627,0.9544817209243774,0.11944299936294556,0.2733100652694702
1727724506717,7i,9.540635562156844,1.0s : 0.3s,0.2867187280034624,0.038396476142504056,0.28413612865625093,0.03878935562579664,-0.46886593103408813,-0.11648673564195633,0.028076225891709328,0.029892265796661377,0.015387259423732758,0.019346803426742554,-0.11820386729664689,1.8491378027352674,2.9259946620605657,0.9548032283782959,0.11792879551649094,0.2728441059589386
1727724506727,7i,9.540635562156844,1.0s : 0.3s,0.30500367868724954,0.03811947216930901,0.30261221035227287,0.025532706819211926,-0.4960884749889374,-0.14458680152893066,0.01467706449329853,0.02532017230987549,0.0023963451385498047,0.00225067138671875,-0.11665777338651329,1.8483413318354223,2.9306355250046083,0.9551944136619568,0.11639335006475449,0.2721331715583801
1727724506737,7i,9.540635562156844,1.0s : 0.3s,0.32704895964504405,0.03788675490635783,0.32484706525928664,0.026698887510332583,-0.540459930896759,-0.15728768706321716,-0.0015854621306061745,0.014087975025177002,0.0024077296257019043,-0.02255132794380188,-0.11518692139261862,1.8474210358658236,2.9356124597149185,0.9556081295013428,0.11493237316608429,0.27130046486854553
1727724506747,7i,9.540635562156844,1.0s : 0.3s,0.35721535375109376,0.03778647071201661,0.35521119293548303,0.04244749930008859,-0.6132451891899109,-0.16690169274806976,-0.006198590155690908,0.012195467948913574,-0.016468077898025513,-0.03717342019081116,-0.113667042156797,1.8464021185711765,2.941224426240729,0.9560510516166687,0.11342243105173111,0.2703738510608673
1727724506757,7i,9.540635562156844,1.0s : 0.3s,0.3776603405080339,0.03817982938363803,0.3757254761403336,0.08358064043337894,-0.6137706637382507,-0.14821875095367432,0.0011059280950576067,0.010968923568725586,-0.04437641054391861,-0.06997242569923401,-0.11200855669939641,1.8454636430530866,2.9472136309755843,0.9564841389656067,0.1117744967341423,0.2695271670818329
1727724506767,7i,9.540635562156844,1.0s : 0.3s,0.38122175582477047,0.03905770123195403,0.3792156683057761,0.10348469874251454,-0.5713851451873779,-0.1397634744644165,0.004426890052855015,0.004888951778411865,-0.050202399492263794,-0.09035983681678772,-0.11034747608207489,1.8446795653417072,2.952967317881969,0.9568725228309631,0.11012367159128189,0.268826961517334
1727724506777,7i,9.540635562156844,1.0s : 0.3s,0.3692799060799769,0.04006265559178036,0.36710030327060605,0.09736137733332134,-0.483852356672287,-0.14605963230133057,-0.010711449198424816,0.016485869884490967,0.00016193091869354248,-0.09595534205436707,-0.10892482401320489,1.843817853729429,2.958121516324465,0.9572539329528809,0.10870955884456635,0.2680443525314331
1727724506787,7i,9.540635562156844,1.0s : 0.3s,0.34235138161577483,0.04109093601949805,0.33987645324628096,0.11711326445059946,-0.3790723979473114,-0.1691281944513321,-0.05596388131380081,0.015216350555419922,0.036877915263175964,-0.11010903120040894,-0.10806187870256842,1.8427170554777081,2.9623977127080474,0.9576382040977478,0.10785169154405594,0.2670154571533203
1727724506797,7i,9.540635562156844,1.0s : 0.3s,0.32451771140288266,0.04204463964419887,0.3217825248383667,0.10189588653135538,-0.36257943511009216,-0.2101627141237259,-0.10278365015983582,0.015823781490325928,0.05922214686870575,-0.08139482140541077,-0.10787232012414671,1.8412327909017103,2.9660553528199927,0.9580532312393188,0.10766323655843735,0.2655992805957794
1727724506807,7i,9.540635562156844,1.0s : 0.3s,0.32686897203531956,0.04267524468534223,0.32407120879595686,0.03506439452557713,-0.441646009683609,-0.2230454832315445,-0.10570274293422699,0.025303959846496582,0.01973181962966919,-0.01413777470588684,-0.10785756000390041,1.8394687483890306,2.9701781399771616,0.9585217237472534,0.10764855891466141,0.2639092206954956
1727724506817,7i,9.540635562156844,1.0s : 0.3s,0.3594503870268521,0.04311974013878278,0.35685468855560465,0.08331604010126728,-0.6034030914306641,-0.20962214469909668,-0.10024063289165497,0.015774548053741455,-0.02444983273744583,0.07807004451751709,-0.10749672153004251,1.8378993961303722,2.9754923382194223,0.9589722156524658,0.10728981345891953,0.2624149024486542
1727724506827,7i,9.540635562156844,1.0s : 0.3s,0.4198262439016687,0.04292476365605642,0.41762607645315336,0.15085749734624443,-0.8158144354820251,-0.18258200585842133,-0.07057062536478043,-0.007220804691314697,-0.047575436532497406,0.14297699928283691,-0.10644639701693785,1.8366795733623993,2.9826924209128847,0.9593998789787292,0.1062454879283905,0.26127439737319946
1727724506837,7i,9.540635562156844,1.0s : 0.3s,0.4573429797278749,0.04255624246458117,0.4553587237922067,0.10698668823087887,-0.8070371747016907,-0.11025329679250717,-0.066968634724617,-0.04738086462020874,-0.02870073914527893,0.09152853488922119,-0.10492772892443893,1.8361067247300265,2.99091461387055,0.9597039818763733,0.10473529249429703,0.26076677441596985
1727724506847,7i,9.540635562156844,1.0s : 0.3s,0.4744185679659712,0.0421944828974171,0.47253846747529715,0.055773292056386085,-0.7716842293739319,-0.0317574217915535,-0.05893520265817642,-0.04053521156311035,0.01156654953956604,0.03652083873748779,-0.10350157885682745,1.8362249157714319,2.998532926644447,0.9598163366317749,0.10331688076257706,0.26091912388801575
1727724506857,7i,9.540635562156844,1.0s : 0.3s,0.4695185885041904,0.04165803198009762,0.4676668828584214,0.09387954750032242,-0.6698089838027954,-0.03180607035756111,-0.06270051002502441,-0.014656126499176025,-0.022792570292949677,0.08988362550735474,-0.1021172892745491,1.8366918354415505,3.005948600267741,0.9598312377929688,0.10193990170955658,0.26140451431274414
1727724506867,7i,9.540635562156844,1.0s : 0.3s,0.36579066675691174,0.041058556512629685,0.3634790321649452,0.10309777506836144,-0.17846378684043884,0.026256969198584557,-0.06669285893440247,-0.017231285572052002,0.09745634347200394,-0.028887629508972168,-0.10164744125541353,1.8370569298606356,3.0102392422571884,0.959782063961029,0.10147248953580856,0.26176756620407104
1727724506877,7i,9.540635562156844,1.0s : 0.3s,0.24861038434561755,0.04053799350415198,0.24528309009618457,0.036467936677863286,0.04301773011684418,0.054319143295288086,-0.018800899386405945,-0.017919600009918213,0.02411659061908722,-0.02066853642463684,-0.10194491087592754,1.8375797124010846,3.01080263682479,0.9596158266067505,0.10176841914653778,0.262261301279068
1727724506887,7i,9.540635562156844,1.0s : 0.3s,0.17581892648536784,0.04039160979613758,0.17111637200614016,0.11319016649914698,0.006746010389178991,0.04064381122589111,-0.037350885570049286,0.011536777019500732,-0.10377538204193115,0.04369881749153137,-0.10224446969771085,1.8380751159815187,3.01057367392945,0.9594564437866211,0.10206642001867294,0.26272863149642944
1727724506897,7i,9.540635562156844,1.0s : 0.3s,0.12538960087630335,0.04032731005283112,0.11872767188748158,0.048632714688696656,0.01592712663114071,0.019074557349085808,-0.04705953598022461,0.0032896995544433594,-0.0478023961186409,0.008321642875671387,-0.10271620769012535,1.838334527494045,3.010582046847048,0.9593415856361389,0.102535679936409,0.26296472549438477
1727724506907,7i,9.540635562156844,1.0s : 0.3s,0.12631198679538005,0.04093095962361368,0.11949633698355099,0.11539344526037541,-0.18994854390621185,-0.005896040238440037,-0.018624966964125633,-0.018379628658294678,-0.11185120791196823,-0.021613508462905884,-0.10284663275646402,1.838510839033009,3.0113566269392793,0.9592825174331665,0.10266541689634323,0.2631303668022156
1727724506917,7i,9.540635562156844,1.0s : 0.3s,0.1749649508680098,0.041653814631162946,0.16993438074420902,0.10310283732262011,-0.43223652243614197,-0.02627747878432274,-0.019113456830382347,-0.007736325263977051,-0.09464472532272339,0.04015868902206421,-0.10214650615645228,1.8386290292985294,3.0145264565003136,0.9593204855918884,0.10196896642446518,0.26326271891593933
1727724506927,7i,9.540635562156844,1.0s : 0.3s,0.20927493577878084,0.04227077500795147,0.2049614117960744,0.03790924271977578,-0.4263527989387512,-0.00711922999471426,-0.03411424532532692,-0.03465825319290161,0.008680611848831177,0.012671351432800293,-0.10121808782776201,1.8388958363000307,3.0188963841256005,0.9593409895896912,0.10104534775018692,0.26354357600212097
1727724506937,7i,9.540635562156844,1.0s : 0.3s,0.2028062830996457,0.04284418910319845,0.19822906932330336,0.04650760264181742,-0.2669055163860321,0.027097906917333603,-0.021079834550619125,-0.03799647092819214,0.026354603469371796,-0.0049659013748168945,-0.1005696097545951,1.8393212239971892,3.0223125908210013,0.9592917561531067,0.1004001647233963,0.26396897435188293
1727724506947,7i,9.540635562156844,1.0s : 0.3s,0.18516884435814943,0.04319704031745308,0.1800597584935204,0.07156886503111509,-0.202267125248909,0.034023456275463104,-0.030185183510184288,-0.010741114616394043,0.022698774933815002,0.06701862812042236,-0.1001952313749507,1.8398742102103396,3.024613064444713,0.9591817855834961,0.1000276729464531,0.264509379863739
1727724506957,7i,9.540635562156844,1.0s : 0.3s,0.16422469470062684,0.043112380365372203,0.15846473742995812,0.09498934339616942,-0.15697941184043884,0.03132536634802818,-0.03004433587193489,-0.004714250564575195,0.001200251281261444,0.09486469626426697,-0.10002540632955999,1.8403957798260329,3.0264423413706387,0.9590599536895752,0.09985869377851486,0.265014111995697
1727724506967,7i,9.540635562156844,1.0s : 0.3s,0.13517535100914074,0.042786524381405955,0.12822514906134352,0.08581934990996903,-0.08209104835987091,0.014925885014235973,-0.026215508580207825,0.011161088943481445,0.005494631826877594,0.08491289615631104,-0.09995738533266603,1.8407313121529323,3.027699425390492,0.9589775800704956,0.0997910127043724,0.265337735414505
1727724506977,7i,9.540635562156844,1.0s : 0.3s,0.08195971334289502,0.04201559088638229,0.07037105039515663,0.10202147744150142,0.11673709005117416,0.03898417204618454,-0.04264415055513382,-0.009567797183990479,0.06273213028907776,0.07988440990447998,-0.10032365153810437,1.8409729415610168,3.027698062756629,0.958878219127655,0.10015544295310974,0.26555967330932617
1727724506987,7i,9.540635562156844,1.0s : 0.3s,0.058615617944711436,0.04109644475985885,0.041795608562865155,0.09282408152186228,0.35606738924980164,0.05679752305150032,-0.03891386091709137,-0.019076287746429443,0.07026809453964233,0.057574301958084106,-0.10133777177818247,1.8412260424311233,3.0254919305498635,0.9587127566337585,0.10116441547870636,0.2657751441001892
1727724506997,7i,9.540635562156844,1.0s : 0.3s,0.14637048766037558,0.04014933032488113,0.14075635308006434,0.07748268617562092,0.5768185257911682,0.08738450706005096,-0.040422774851322174,-0.008146286010742188,0.06532539427280426,0.04086315631866455,-0.102977855750448,1.8414983275509582,3.0210365913006005,0.9584789872169495,0.10279595106840134,0.2659913897514343
1727724507007,7i,9.540635562156844,1.0s : 0.3s,0.247938467309008,0.03923848539191328,0.24481385752381057,0.054789773309362994,0.7234963774681091,0.09947019815444946,-0.029656678438186646,-0.012130379676818848,0.0318901389837265,0.04286947846412659,-0.10508295863644615,1.8417904710683823,3.014854881634606,0.9581907391548157,0.10488966852426529,0.26621291041374207
1727724507017,7i,9.540635562156844,1.0s : 0.3s,0.3494487694305679,0.03847845594295518,0.3473238415150683,0.030292442849013067,0.8653949499130249,0.13308274745941162,-0.01017438992857933,-0.003183901309967041,0.006926447153091431,0.02931755781173706,-0.10741571954101427,1.8421167471862911,3.007181587467239,0.9578652381896973,0.10720927268266678,0.2664591670036316
1727724507027,7i,9.540635562156844,1.0s : 0.3s,0.44705467881272976,0.03776000140706225,0.44545714512407547,0.06218508745879444,0.9920697808265686,0.163556769490242,-0.009628442116081715,-0.031491994857788086,0.029224365949630737,0.044957488775253296,-0.10998958624693764,1.842641435590352,2.9982417084363706,0.9574564099311829,0.10976795107126236,0.26688674092292786
1727724507037,7i,9.540635562156844,1.0s : 0.3s,0.555017201733439,0.036992774850441855,0.553783016016997,0.08701030088514865,1.185888409614563,0.19786587357521057,0.0030687444377690554,-0.04051065444946289,0.07007936388254166,0.03191491961479187,-0.11293029106745527,1.8432873606296905,2.9877173345368835,0.9569687843322754,0.11269040405750275,0.2674171030521393
1727724507047,7i,9.540635562156844,1.0s : 0.3s,0.6735660748322517,0.03604521634478483,0.6726009214560921,0.10952057970265425,1.399001955986023,0.21588028967380524,-0.001097771106287837,-0.03149378299713135,0.10484930127859116,-0.0030859410762786865,-0.11643721254788789,1.8438918408640603,2.9751379823215576,0.9564207792282104,0.11617428809404373,0.2678873538970947
1727724507057,7i,9.540635562156844,1.0s : 0.3s,0.7658567194890511,0.03513300861964941,0.7650504470241573,0.08436056765102835,1.449016809463501,0.19375692307949066,0.033013492822647095,-0.004185140132904053,0.07447544485330582,-0.03940302133560181,-0.12018011421143172,1.8443373017887796,2.9612575051314796,0.9558759331703186,0.11989102512598038,0.2681940197944641
1727724507067,7i,9.540635562156844,1.0s : 0.3s,0.8283226638905348,0.03485001845127162,0.8275892167788667,0.15329564585892935,1.4392578601837158,0.17275656759738922,0.10512550175189972,0.06612026691436768,-0.056811876595020294,-0.1260955035686493,-0.12343985253585564,1.8444246341187178,2.9469820206356774,0.9554711580276489,0.12312661111354828,0.26817044615745544
1727724507077,7i,9.540635562156844,1.0s : 0.3s,0.8279387878646483,0.03571795157393914,0.8271679783370152,0.24932310229818708,1.210411787033081,0.17436659336090088,0.14667704701423645,0.07106518745422363,-0.182884082198143,-0.15383484959602356,-0.12578140656304884,1.844521770131594,2.9336582027420195,0.9551646709442139,0.125450000166893,0.2681845426559448
1727724507087,7i,9.540635562156844,1.0s : 0.3s,0.7859420062170671,0.03726918276863918,0.7850578610218906,0.19573686879702204,1.0040197372436523,0.16545352339744568,0.14491376280784607,0.05637836456298828,-0.16471737623214722,-0.0894571840763092,-0.12729539014863034,1.8448306989709629,2.92263876023448,0.9548978805541992,0.1269518882036209,0.26842790842056274
1727724507097,7i,9.540635562156844,1.0s : 0.3s,0.7493515389570238,0.03886290060284372,0.7483431057302482,0.11969996621092889,0.964684784412384,0.17784197628498077,0.1313365399837494,0.06297767162322998,-0.05559763312339783,-0.08526897430419922,-0.12862968003646522,1.8452708412612244,2.912735347049917,0.9546158313751221,0.12827526032924652,0.26880204677581787
1727724507107,7i,9.540635562156844,1.0s : 0.3s,0.6934207512515687,0.040424046236014095,0.6922414569730697,0.07883236537498546,0.8157743811607361,0.15974952280521393,0.10110246390104294,0.03385055065155029,-0.05874831974506378,-0.040215879678726196,-0.12991424650367564,1.8458198573983098,2.9036704684007875,0.9543086290359497,0.12954911589622498,0.2692810893058777
1727724507117,7i,9.540635562156844,1.0s : 0.3s,0.6267534034784258,0.04187805125190101,0.6253527465320141,0.06475272559671065,0.6877100467681885,0.0980091467499733,0.08329400420188904,0.023530542850494385,-0.05670537054538727,-0.020584702491760254,-0.13094710636520443,1.8460572415473744,2.896531494066387,0.9541154503822327,0.13057319819927216,0.269471138715744
1727724507127,7i,9.540635562156844,1.0s : 0.3s,0.5540149055295016,0.04358837357177099,0.5522975368750348,0.13035803091078318,0.5622514486312866,0.06429459154605865,0.06372696906328201,0.024188458919525146,-0.07008284330368042,-0.10722187161445618,-0.13188145154614167,1.8462497081745326,2.8903193323307197,0.9539456963539124,0.1314994841814041,0.26962146162986755
1727724507137,7i,9.540635562156844,1.0s : 0.3s,0.4827676629939545,0.04547497646671188,0.480621101230477,0.1268123825763022,0.4612364172935486,0.0348309725522995,0.07573622465133667,0.012663483619689941,-0.10554058849811554,-0.06915345788002014,-0.1325550299100433,1.8460854826206803,2.8852038685303483,0.9539045095443726,0.13216719031333923,0.2694406509399414
1727724507147,7i,9.540635562156844,1.0s : 0.3s,0.4244965510262813,0.047346927641111564,0.4218478283411633,0.07905129353695209,0.4183898866176605,0.030965926125645638,0.07011748850345612,0.012501120567321777,-0.06314492225646973,-0.04588624835014343,-0.133025478353798,1.845769861524837,2.880804625894677,0.9539297223091125,0.1326334923505783,0.2691226899623871
1727724507157,7i,9.540635562156844,1.0s : 0.3s,0.3860210716508555,0.0489419192790573,0.3829059366159751,0.04832526242192103,0.42900750041007996,0.02355501428246498,0.07646709680557251,0.00822746753692627,-0.04708638787269592,-0.007107168436050415,-0.13351175911370564,1.845477495945178,2.8764460622057197,0.953946053981781,0.13311545550823212,0.2688262164592743
1727724507167,7i,9.540635562156844,1.0s : 0.3s,0.3556352314274306,0.050449010034146806,0.35203879788883596,0.0735284110059613,0.41239842772483826,-0.004453449975699186,0.07878191769123077,0.03284430503845215,-0.059370264410972595,0.028334617614746094,-0.13389723082329766,1.8449688413043661,2.8721626481759017,0.9540332555770874,0.13349749147891998,0.2683270573616028
1727724507177,7i,9.540635562156844,1.0s : 0.3s,0.3253391652364348,0.05167481027766563,0.32120910077316844,0.045386537519708774,0.3614388406276703,-0.01295940950512886,0.1007336899638176,0.039253413677215576,-0.02241508662700653,-0.004083037376403809,-0.13409902176097444,1.844361200549219,2.8681236433875847,0.9541701078414917,0.1336974799633026,0.26774001121520996
1727724507187,7i,9.540635562156844,1.0s : 0.3s,0.286940223563992,0.05290618033904934,0.2820206162337884,0.08042061025619754,0.264965295791626,-0.03354697674512863,0.12633571028709412,0.037773191928863525,-0.07095719873905182,-0.0023950934410095215,-0.13384123738723858,1.843685977622501,2.864741151513842,0.9543840885162354,0.1334419995546341,0.26710501313209534
1727724507197,7i,9.540635562156844,1.0s : 0.3s,0.2438014200248042,0.054195357767218705,0.2377014842246345,0.08730265812369034,0.16833369433879852,-0.06487608700990677,0.1372317373752594,0.02704334259033203,-0.0756845474243164,-0.034091949462890625,-0.13314549451886257,1.8428651670115337,2.8622702386777537,0.954692006111145,0.1327524483203888,0.26634639501571655
1727724507207,7i,9.540635562156844,1.0s : 0.3s,0.21193702380301568,0.05551756274617955,0.20453631043216766,0.07170259938133693,0.1330374926328659,-0.08771828562021255,0.16206490993499756,0.011108040809631348,-0.0648231953382492,-0.028562694787979126,-0.13208623856143317,1.8418611185052385,2.860468171048664,0.9550937414169312,0.1317024976015091,0.2654251456260681
1727724507217,7i,9.540635562156844,1.0s : 0.3s,0.19294311387106802,0.05678208592230786,0.18439858976840245,0.04631099712332613,0.12864089012145996,-0.09092366695404053,0.16935551166534424,-0.0012838244438171387,-0.017911642789840698,-0.04268762469291687,-0.13083345984843162,1.840724118789978,2.8587595884864374,0.9555534720420837,0.13046053051948547,0.26438289880752563
1727724507227,7i,9.540635562156844,1.0s : 0.3s,0.1814139843310929,0.057977914801256906,0.17189995667882005,0.04788629576632947,0.12050866335630417,-0.09151222556829453,0.17378515005111694,-0.0028968453407287598,0.003615856170654297,-0.04766163229942322,-0.12951267864851768,1.839574478225147,2.85707532196052,0.9560220241546631,0.12915091216564178,0.26332971453666687
1727724507237,7i,9.540635562156844,1.0s : 0.3s,0.16890021529528745,0.058890500156385195,0.15830095299184163,0.014372691323312583,0.08310575783252716,-0.07336770743131638,0.1726592779159546,-0.008417189121246338,-0.00434759259223938,-0.010808497667312622,-0.12808008236626647,1.8385786907115054,2.8556045940296766,0.9564610719680786,0.12773019075393677,0.2624262273311615
1727724507247,7i,9.540635562156844,1.0s : 0.3s,0.16622743913284344,0.059636989507126516,0.15516117750001143,0.036107474742555865,0.11622749269008636,-0.07387690991163254,0.15824465453624725,-0.0044068098068237305,0.03240329027175903,0.01530870795249939,-0.12674931290049832,1.837676864940057,2.8542242520671888,0.9568604826927185,0.12641020119190216,0.26160818338394165
1727724507257,7i,9.540635562156844,1.0s : 0.3s,0.16568282437806456,0.06008997549393909,0.15440205030708104,0.06265909044315042,0.1452607363462448,-0.08721153438091278,0.14196154475212097,0.007955789566040039,0.06174001097679138,-0.0071440935134887695,-0.1256632542274544,1.8366740814606715,2.852551475695254,0.9572542309761047,0.1253327876329422,0.26068443059921265
1727724507267,7i,9.540635562156844,1.0s : 0.3s,0.16477629354425768,0.060293149906407856,0.15334915385663792,0.05676486764429653,0.13653676211833954,-0.09746789932250977,0.13733376562595367,0.0035007596015930176,0.05232624709606171,-0.021724611520767212,-0.12470881579683163,1.8355346226368268,2.8507786057862425,0.9576656818389893,0.12438581883907318,0.2596246898174286
1727724507277,7i,9.540635562156844,1.0s : 0.3s,0.15427877342903798,0.060442009005770556,0.1419461287887584,0.025031963205112577,0.06298717856407166,-0.11355676501989365,0.13258002698421478,0.0009395480155944824,0.024072006344795227,-0.006801098585128784,-0.123658116264474,1.8343199888647455,2.8494229488581357,0.9581061005592346,0.12334320694208145,0.2584952116012573
1727724507287,7i,9.540635562156844,1.0s : 0.3s,0.14108851352039822,0.06052500934926569,0.12744681985309358,0.03563410222601674,0.014122700318694115,-0.1188276931643486,0.10978630185127258,-0.017150521278381348,0.03121984750032425,0.000984877347946167,-0.12257505287638765,1.8330696268011064,2.8487372751048823,0.9585568308830261,0.12226834148168564,0.2573314905166626
1727724507297,7i,9.540635562156844,1.0s : 0.3s,0.1296225463159164,0.06033692118990967,0.11472340848643109,0.05370817557343906,0.003499883459880948,-0.10573666542768478,0.09432285279035568,-0.018402397632598877,0.049004025757312775,0.012021869421005249,-0.12161416163039276,1.8319029726168015,2.8484370809496604,0.9589694142341614,0.12131460756063461,0.25624319911003113
1727724507307,7i,9.540635562156844,1.0s : 0.3s,0.12559722886708935,0.05981128325165774,0.11044127079530545,0.06546007910584732,0.07003949582576752,-0.08691956847906113,0.085856132209301,-0.019246041774749756,0.05486114323139191,0.03008100390434265,-0.12084786034031673,1.8308039033740313,2.8478733354019585,0.9593400359153748,0.12055392563343048,0.2552129030227661
1727724507317,7i,9.540635562156844,1.0s : 0.3s,0.12553530785189382,0.058919533072662185,0.11084945710272659,0.09195391985458065,0.1598130613565445,-0.07687385380268097,0.07469536364078522,-0.028490841388702393,0.08358734101057053,0.025631070137023926,-0.12037753057599496,1.829828752851289,2.8465275625301047,0.9596432447433472,0.12008701264858246,0.2542918026447296
1727724507327,7i,9.540635562156844,1.0s : 0.3s,0.1348321557097707,0.05774280630628924,0.12184202285426082,0.09817487821392254,0.22341813147068024,-0.07579634338617325,0.07327216863632202,-0.016411185264587402,0.09577273577451706,0.014020085334777832,-0.12023025129106706,1.8288532072459993,2.844452265055106,0.9599080085754395,0.11994080245494843,0.2533600330352783
1727724507337,7i,9.540635562156844,1.0s : 0.3s,0.1364043261170907,0.056635826168342306,0.1240907868364406,0.04140957338082431,0.170850932598114,-0.08651498705148697,0.07892961800098419,-0.022693216800689697,0.03337087482213974,0.00928199291229248,-0.1201160333171593,1.8277770699468503,2.842259437752535,0.9601932764053345,0.11982740461826324,0.25233036279678345
1727724507347,7i,9.540635562156844,1.0s : 0.3s,0.1275078536543038,0.055710034635151146,0.11469369984649382,0.037954835956302016,0.06327307224273682,-0.09521447122097015,0.0890408456325531,-0.030498206615447998,-0.01973896473646164,0.010991007089614868,-0.11969503207468157,1.826667323893636,2.8409202228448014,0.9605216383934021,0.11940942704677582,0.2512774169445038
1727724507357,7i,9.540635562156844,1.0s : 0.3s,0.11596071549851794,0.054950894510495694,0.10211408684126101,0.03835913868138192,0.007507941219955683,-0.09096606075763702,0.09105502814054489,-0.02781122922897339,-0.025215499103069305,-0.007882744073867798,-0.1189559626857814,1.8256738725950739,2.84036130656947,0.9608557224273682,0.1186756119132042,0.2503452003002167
1727724507367,7i,9.540635562156844,1.0s : 0.3s,0.10470247663248645,0.05430808322372003,0.08951670631531228,0.035397284912457895,-0.03761319816112518,-0.07238572090864182,0.08216006308794022,-0.03235405683517456,-0.00010873377323150635,-0.014358654618263245,-0.11819689702231187,1.8248788114832497,2.84028499438477,0.9611413478851318,0.1179218739271164,0.249603733420372
1727724507377,7i,9.540635562156844,1.0s : 0.3s,0.10055551274248666,0.053720984361185505,0.08500274690955381,0.03467309267725637,-0.05215272679924965,-0.06619609147310257,0.07332289963960648,-0.01527094841003418,-0.009369872510433197,0.02968546748161316,-0.11747375962408568,1.8243252583535003,2.840572833367762,0.9613616466522217,0.11720375716686249,0.2490929812192917
1727724507387,7i,9.540635562156844,1.0s : 0.3s,0.09400705019091893,0.05310659356106956,0.07756942184867252,0.045249608134657816,-0.019519416615366936,-0.07091707736253738,0.05540861561894417,0.009054601192474365,0.02052348107099533,0.03929793834686279,-0.11693463455246612,1.823785594155495,2.8407639581396107,0.9615570902824402,0.11666832864284515,0.24858993291854858
1727724507397,7i,9.540635562156844,1.0s : 0.3s,0.08648289587706805,0.05244269888351327,0.06876812207045463,0.05244102468766825,-0.0006698278011754155,-0.06670741736888885,0.03563517704606056,0.007504165172576904,0.03625723719596863,0.03713706135749817,-0.11674833295315148,1.8232184765094395,2.8407715486139695,0.9617190361022949,0.11648329347372055,0.2480500340461731
1727724507407,7i,9.540635562156844,1.0s : 0.3s,0.08341970923293432,0.05177588956564851,0.0654072255044737,0.04614994110474544,-0.006692832801491022,-0.07021719962358475,0.029622025787830353,-0.004262149333953857,0.009081296622753143,0.04504643380641937,-0.11671762012179104,1.8226092548206474,2.8407235325224613,0.9618732929229736,0.11645279079675674,0.24746492505073547
1727724507417,7i,9.540635562156844,1.0s : 0.3s,0.08097271622611936,0.0511451926683705,0.06277539358658706,0.028966265237050898,-0.005055255256593227,-0.0629531592130661,0.03620010241866112,-0.019712448120117188,0.013332739472389221,0.01651369035243988,-0.11649297083848341,1.8219984128635838,2.840732053677189,0.9620495438575745,0.11622966825962067,0.246883824467659
1727724507427,7i,9.540635562156844,1.0s : 0.3s,0.079597524601935,0.050592712616775705,0.0614503324061961,0.028496568719791133,0.010384421795606613,-0.062897227704525,0.03814633935689926,-0.02753317356109619,0.005865924060344696,-0.004423767328262329,-0.11609883750365435,1.8214023509267154,2.840612561376759,0.9622408151626587,0.1158381998538971,0.2463216781616211
1727724507437,7i,9.540635562156844,1.0s : 0.3s,0.07823062477490518,0.05010535063874734,0.060078985427853136,0.035900063028675405,0.04325222223997116,-0.054407648742198944,0.0376320481300354,-0.018176019191741943,0.020818226039409637,-0.02291393280029297,-0.11571612809114017,1.8207848183537965,2.8402619772037143,0.962435781955719,0.11545805633068085,0.24573840200901031
1727724507447,7i,9.540635562156844,1.0s : 0.3s,0.07721856124700369,0.04964821025975176,0.0591418753427784,0.04232094080631668,0.08166858553886414,-0.04897080361843109,0.036642950028181076,-0.013271689414978027,0.03452746570110321,-0.020561575889587402,-0.11554025681108449,1.820206283255811,2.8395564541459257,0.9625973105430603,0.11528336256742477,0.24518653750419617
1727724507457,7i,9.540635562156844,1.0s : 0.3s,0.07606071044123332,0.04923761551747291,0.0579731738908493,0.009802197711621394,0.042710401117801666,-0.05490117892622948,0.030379295349121094,0.003251194953918457,0.00777917355298996,-0.004999727010726929,-0.11534021534737307,1.8197270522212985,2.838816038500143,0.9627372026443481,0.11508464813232422,0.2447309046983719
1727724507467,7i,9.540635562156844,1.0s : 0.3s,0.07168887571009565,0.0488787004308833,0.05244203986083599,0.019526761506704734,-0.018126849085092545,-0.05310061573982239,0.009796787984669209,-0.015512466430664062,-0.006202563643455505,0.010108709335327148,-0.11523739137569738,1.8192938858634733,2.8386639323406335,0.9628544449806213,0.11498250812292099,0.24431674182415009
1727724507477,7i,9.540635562156844,1.0s : 0.3s,0.06929443395850972,0.048600052860454705,0.049393860343075774,0.02856384158965445,-0.06227540224790573,-0.04666402190923691,0.004361676052212715,-0.024542510509490967,-0.014611035585403442,-0.0002754330635070801,-0.11522294906903968,1.8190008020037094,2.839056116492434,0.9629278779029846,0.11496815830469131,0.244035005569458
1727724507487,7i,9.540635562156844,1.0s : 0.3s,0.06544300790214116,0.04838054412141862,0.044069379775476494,0.03380236812634858,-0.10239965468645096,-0.03429816663265228,-0.0007638437673449516,-0.029560327529907227,-0.012905187904834747,0.01011154055595398,-0.11507245556378681,1.8190166413578897,2.839894986178071,0.9629404544830322,0.11481866240501404,0.2440544217824936
1727724507497,7i,9.540635562156844,1.0s : 0.3s,0.0662212636962288,0.048170117361161495,0.04544112189347217,0.022252398533281387,-0.1046990230679512,-0.024784909561276436,-0.0016418879386037588,-0.009645998477935791,-0.002152740955352783,0.019937142729759216,-0.11495461322113161,1.8190143679246942,2.840952589798619,0.9629541635513306,0.11470159888267517,0.24405556917190552
1727724507507,7i,9.540635562156844,1.0s : 0.3s,0.06675142720083024,0.04792230879233727,0.04646725033138516,0.028893885043117736,-0.09109506756067276,-0.01958082616329193,-0.00106238410808146,0.010522782802581787,0.014517970383167267,0.0226573646068573,-0.11480819229980652,1.8189423242696674,2.8418893514840025,0.9629879593849182,0.11455614864826202,0.24399030208587646
1727724507517,7i,9.540635562156844,1.0s : 0.3s,0.07296733055508117,0.04764117761130841,0.055267979193582326,0.04462869740937818,-0.11742188036441803,-0.029885530471801758,-2.817879430949688e-05,0.014268040657043457,-0.009435631334781647,0.0412202924489975,-0.11472868431684081,1.8186937208917695,2.842897506679176,0.9630574584007263,0.11447715759277344,0.24375313520431519
1727724507527,7i,9.540635562156844,1.0s : 0.3s,0.0765312827419437,0.047318660620292385,0.06014965997600418,0.03514169412263545,-0.11030138283967972,-0.03523635119199753,-0.003739027539268136,0.014561474323272705,0.013511084020137787,0.02898883819580078,-0.11474657444940092,1.8183869488691604,2.8440143071689246,0.9631302952766418,0.1144949346780777,0.24345721304416656
1727724507537,7i,9.540635562156844,1.0s : 0.3s,0.07809371446434324,0.04701318057420947,0.0623569490204191,0.018886770266741175,-0.10823783278465271,-0.03521766513586044,0.0006132102571427822,-0.002688169479370117,0.017244882881641388,-0.007217884063720703,-0.11456689505863009,1.8181258044383724,2.845057052741133,0.9632138013839722,0.1143164336681366,0.24321073293685913
1727724507547,7i,9.540635562156844,1.0s : 0.3s,0.07858311868628177,0.04675887323301718,0.06315785237356379,0.021758821409919027,-0.10285025835037231,-0.025499524548649788,0.00774701964110136,-0.02166217565536499,-5.535036325454712e-05,-0.0020477771759033203,-0.11424109311411527,1.8180556192982829,2.8461032058535056,0.9632668495178223,0.11399275809526443,0.2431522160768509
1727724507557,7i,9.540635562156844,1.0s : 0.3s,0.07790671793155395,0.04657483211693675,0.06245191519998299,0.03608420619637755,-0.08394594490528107,-0.013516764156520367,0.012519637122750282,-0.03326976299285889,-0.013508275151252747,0.0035664141178131104,-0.11382107128351446,1.8180129595524923,2.847015161079678,0.963323712348938,0.11357546597719193,0.24312284588813782
1727724507567,7i,9.540635562156844,1.0s : 0.3s,0.0770593145552633,0.046457575503293366,0.061480335377117216,0.03450050484535937,-0.08456779271364212,0.004510173108428717,0.013412862084805965,-0.03198671340942383,-0.012927822768688202,7.998943328857422e-05,-0.11342112859276732,1.81819923461367,2.8477952699843176,0.9633222222328186,0.11317810416221619,0.24331335723400116
1727724507577,7i,9.540635562156844,1.0s : 0.3s,0.07704316079011446,0.04641536960125245,0.06149196768123916,0.037417079499592165,-0.09761248528957367,0.0061987945809960365,0.01387099176645279,-0.027033329010009766,-0.025276824831962585,0.005506277084350586,-0.11305722482875209,1.8185274829925961,2.848696115727401,0.9632822275161743,0.11281652748584747,0.24363963305950165
1727724507587,7i,9.540635562156844,1.0s : 0.3s,0.07742119473617805,0.04641848528163367,0.06196261468446891,0.017762837729575695,-0.10407304763793945,0.007648087106645107,0.0099625363945961,-0.004475414752960205,-0.015602640807628632,-0.007214337587356567,-0.11281139574185364,1.818847584446371,2.849663064322547,0.9632309079170227,0.11257226765155792,0.24395474791526794
1727724507597,7i,9.540635562156844,1.0s : 0.3s,0.07955368119863639,0.046448990790978424,0.06458544299417536,0.023447509929996255,-0.1190880835056305,0.01983369141817093,0.009984740987420082,0.0020793676376342773,-0.022237606346607208,0.007137984037399292,-0.11236344588026302,1.8193957167885286,2.850747455434966,0.9631458520889282,0.1121271550655365,0.24449507892131805
1727724507607,7i,9.540635562156844,1.0s : 0.3s,0.0810142330915905,0.0464554610264436,0.06637165135989265,0.03512121524265471,-0.11887715756893158,0.01647597923874855,0.0030940778087824583,0.017511069774627686,-0.016502991318702698,0.025583460927009583,-0.11212045335669636,1.8198982322660533,2.85195183776277,0.9630491733551025,0.1118856891989708,0.24498572945594788
1727724507617,7i,9.540635562156844,1.0s : 0.3s,0.08098150084101562,0.04642588465147387,0.06635239794303936,0.029187002153437117,-0.10009655356407166,0.0086070466786623,0.001984205562621355,0.026242315769195557,0.012078829109668732,-0.004162192344665527,-0.11199551748731208,1.820091306633906,2.852987302916781,0.963015615940094,0.11176154017448425,0.24517516791820526
1727724507627,7i,9.540635562156844,1.0s : 0.3s,0.08072959114339878,0.04639698436621197,0.06606501894271895,0.01633198202400041,-0.0954032614827156,0.004893801175057888,0.0022238900419324636,0.00914299488067627,0.006251603364944458,-0.012002363801002502,-0.11177890456235415,1.820272298542238,2.8539248226092915,0.9629945158958435,0.11154627799987793,0.24535539746284485
1727724507637,7i,9.540635562156844,1.0s : 0.3s,0.07978523789874299,0.04637831716419553,0.06492099724724121,0.017483460485944676,-0.08165495842695236,0.0005643893964588642,0.002734151668846607,-0.011057496070861816,0.009130716323852539,-0.010001659393310547,-0.11146129365796698,1.820483129291793,2.8548316761210133,0.9629771709442139,0.11123064160346985,0.2455672025680542
1727724507647,7i,9.540635562156844,1.0s : 0.3s,0.07197184640855527,0.04638670264194111,0.0550292694251414,0.03322229373360142,-0.04702534154057503,-0.009029648266732693,0.0017905936110764742,-0.01439511775970459,0.017470210790634155,-0.024316519498825073,-0.11122275220605714,1.820541879406937,2.855435565388277,0.9629884362220764,0.11099357903003693,0.24563033878803253
1727724507657,7i,9.540635562156844,1.0s : 0.3s,0.06805849219717766,0.04644904937194283,0.04974378526606223,0.02920061235384751,-0.04838168993592262,-0.003495244774967432,0.0008317225147038698,-0.020379304885864258,0.00031429529190063477,-0.020910784602165222,-0.11093606953571905,1.8205940393067916,2.8558697521106446,0.9630061388015747,0.11070866137742996,0.24568834900856018
1727724507667,7i,9.540635562156844,1.0s : 0.3s,0.07012311212264372,0.04672798601541529,0.052285238611944895,0.045415055799744704,-0.09892155975103378,0.005248712375760078,0.009748518466949463,-0.023729801177978516,-0.038656771183013916,-0.002253413200378418,-0.11061380344678659,1.8206366578518445,2.8565625118825952,0.9630304574966431,0.1103883758187294,0.24573826789855957
1727724507677,7i,9.540635562156844,1.0s : 0.3s,0.07094896438396824,0.0470694955737204,0.05308689229549144,0.03708296330858731,-0.09001635015010834,0.01789575256407261,0.0134801734238863,-0.02153933048248291,-0.02789689600467682,-0.01153111457824707,-0.11010473517651007,1.8208920247673583,2.8575055061344012,0.9630219340324402,0.1098823994398117,0.24599803984165192
1727724507687,7i,9.540635562156844,1.0s : 0.3s,0.07326052374536793,0.04742139546986619,0.055841880261468385,0.021238844751795324,-0.10278647392988205,0.02061191201210022,0.014920676127076149,-0.01129293441772461,-0.008830457925796509,-0.015671029686927795,-0.10963592725786593,1.8213116283939403,2.8583605608959433,0.9629683494567871,0.1094164177775383,0.24641484022140503
1727724507697,7i,9.540635562156844,1.0s : 0.3s,0.08309016686850264,0.047749581738411324,0.06799965642591431,0.028989122581296472,-0.14161749184131622,0.030297473073005676,0.009775449521839619,0.0017150044441223145,-0.02184295654296875,0.018981918692588806,-0.10927959230336617,1.821618218091204,2.8595253073436337,0.96293044090271,0.10906221717596054,0.24671970307826996
1727724507707,7i,9.540635562156844,1.0s : 0.3s,0.09385277315975961,0.048021719070948675,0.08063657685720656,0.03285121391375791,-0.16205193102359772,0.027142958715558052,0.005628641694784164,-0.0006337165832519531,-0.008696295320987701,0.03167293965816498,-0.1088869500460043,1.8219760788173884,2.8609757776297777,0.9628835320472717,0.10867191106081009,0.2470749169588089
1727724507717,7i,9.540635562156844,1.0s : 0.3s,0.10002602122474877,0.048248770572585295,0.08761998094206551,0.018404669822568217,-0.15620455145835876,0.021293990314006805,0.007122641429305077,0.01112896203994751,-0.004959404468536377,0.013794288039207458,-0.10852008341583781,1.8223096590582304,2.8625243858548735,0.9628396034240723,0.10830721259117126,0.2474060207605362
1727724507727,7i,9.540635562156844,1.0s : 0.3s,0.0994066452277774,0.048440976369795156,0.08680525861825507,0.027643416052519812,-0.11762068420648575,0.012139641679823399,0.0072257062420248985,0.005939066410064697,0.018740907311439514,-0.019433587789535522,-0.10830178736237968,1.8224560259735392,2.8638310576628343,0.9628264307975769,0.10809019207954407,0.24755285680294037
1727724507737,7i,9.540635562156844,1.0s : 0.3s,0.09109729950944973,0.04863904934631303,0.07702571555397143,0.037667355895274,-0.07912348955869675,0.009700673632323742,0.017286362126469612,-0.002044379711151123,0.013245545327663422,-0.035202354192733765,-0.10798168141489481,1.8225171489521088,2.8647367563963484,0.9628447890281677,0.10777195543050766,0.2476203292608261
1727724507747,7i,9.540635562156844,1.0s : 0.3s,0.0783990229584961,0.04888258826418234,0.0612935507654861,0.040823666470569335,-0.03276930749416351,0.009155524894595146,0.025248149409890175,-0.012091398239135742,0.00960724800825119,-0.03778982162475586,-0.10737450227279184,1.8226836121751027,2.8652511905609144,0.9628666639328003,0.1071682944893837,0.24779684841632843
1727724507757,7i,9.540635562156844,1.0s : 0.3s,0.06592255071145992,0.04918875068795588,0.043889058979011186,0.05335144691103618,0.004554362036287785,0.014400975778698921,0.029557012021541595,-0.010685145854949951,0.015338823199272156,-0.04996924102306366,-0.1069351880616897,1.8227537536124452,2.8652881508779533,0.9628945589065552,0.10673150420188904,0.24787603318691254
1727724507767,7i,9.540635562156844,1.0s : 0.3s,0.0631708687460887,0.04953458681612527,0.03920310404918613,0.041112130308588714,0.01677747257053852,0.017371464520692825,0.037501219660043716,-0.004269301891326904,-0.007753349840641022,-0.0401480495929718,-0.10660323742378583,1.8227978715698274,2.8650885915808546,0.9629179835319519,0.10640144348144531,0.24792735278606415
1727724507777,7i,9.540635562156844,1.0s : 0.3s,0.061471928475109204,0.049922124165115725,0.03586892121728378,0.040291139041782095,0.010233553126454353,0.009521087631583214,0.039044786244630814,0.0007240176200866699,-0.016735561192035675,-0.0366438627243042,-0.10612229001283531,1.8230119542991103,2.8648649651512494,0.9629143476486206,0.10592321306467056,0.24814625084400177
1727724507787,7i,9.540635562156844,1.0s : 0.3s,0.06108410222501881,0.050323717584416665,0.03462356124260503,0.03212937130389507,-0.02186659164726734,0.009546121582388878,0.030772743746638298,0.009681463241577148,-0.015065588057041168,-0.026675716042518616,-0.10573186424293558,1.8232980257810938,2.8648489833336988,0.9628832936286926,0.10553497076034546,0.2484320104122162
1727724507797,7i,9.540635562156844,1.0s : 0.3s,0.061887592901179955,0.05072388676454063,0.03545647284488745,0.02745854579882807,-0.06294958293437958,0.0011641774326562881,0.021215789020061493,0.012321233749389648,-0.023294106125831604,-0.007716447114944458,-0.10535230476314551,1.8234538801265554,2.8652186669931567,0.9628831744194031,0.1051575243473053,0.2485920637845993
1727724507807,7i,9.540635562156844,1.0s : 0.3s,0.06203812242773178,0.051092214198237555,0.03518969000544975,0.023547750830895286,-0.051743797957897186,-0.010614451952278614,0.012896074913442135,0.020054221153259277,-0.006608486175537109,-0.010423660278320312,-0.1051757312159112,1.8233288985742189,2.865755425175343,0.962932288646698,0.104981929063797,0.24847637116909027
1727724507817,7i,9.540635562156844,1.0s : 0.3s,0.06157084914379524,0.051435472402656245,0.03384319197421512,0.043226411693085096,-0.029890697449445724,-0.006494185887277126,0.016194533556699753,0.012499392032623291,0.01812887191772461,-0.03719720244407654,-0.10505012419746208,1.8230661498052896,2.8660918313895367,0.9630104899406433,0.10485702008008957,0.24822667241096497
1727724507827,7i,9.540635562156844,1.0s : 0.3s,0.06124807252100797,0.05177784000557168,0.03271668797259393,0.023061103530928634,-0.027325540781021118,-0.008745621889829636,0.0241728313267231,0.004177510738372803,-0.0026315301656723022,-0.02252638339996338,-0.10488982314253428,1.8228008139765246,2.8662818081425665,0.9630925059318542,0.10469760000705719,0.24797531962394714
1727724507837,7i,9.540635562156844,1.0s : 0.3s,0.06150526895531439,0.05213559953367077,0.03263092659625632,0.024118211804830657,-0.03687696531414986,-0.004775559529662132,0.033694565296173096,-0.0007522106170654297,-0.02268538624048233,-0.008154481649398804,-0.1046481813912332,1.8224636373052125,2.8664960426711192,0.963200569152832,0.10445728152990341,0.24765688180923462
1727724507847,7i,9.540635562156844,1.0s : 0.3s,0.06182053229609669,0.052504915487762246,0.03263452256423677,0.038859502687094996,-0.027064550668001175,-0.006316198036074638,0.0514136403799057,-0.00501406192779541,-0.036729663610458374,0.011655554175376892,-0.10413274798316534,1.8222236494670894,2.8667030235557966,0.9633118510246277,0.10394465178251266,0.24743902683258057
1727724507857,7i,9.540635562156844,1.0s : 0.3s,0.061842939265117546,0.05285798535212105,0.03210268713774557,0.026718143680688967,-0.010540167801082134,-0.01020574476569891,0.057160407304763794,0.01163095235824585,-0.023580431938171387,0.004747986793518066,-0.10346160155483018,1.8219316138066934,2.8667203873563563,0.9634515643119812,0.10327711701393127,0.24717502295970917
1727724507867,7i,9.540635562156844,1.0s : 0.3s,0.06114577569308373,0.053183681874207654,0.03017120924676345,0.009057935512357812,0.023529117926955223,-0.007784132845699787,0.05605120211839676,0.005863189697265625,-0.006785109639167786,-0.0012772977352142334,-0.10283729041153775,1.8216279062380847,2.8665096141842055,0.9635889530181885,0.10265612602233887,0.2468983680009842
1727724507877,7i,9.540635562156844,1.0s : 0.3s,0.060339715404870806,0.053499191622802526,0.027905514703145316,0.015301816558352421,0.037714313715696335,-0.011951934546232224,0.05614704266190529,0.007186591625213623,-0.010189905762672424,-0.008869290351867676,-0.10221046093666844,1.82143008875241,2.866059456335415,0.9636997580528259,0.10203258693218231,0.24672362208366394
1727724507887,7i,9.540635562156844,1.0s : 0.3s,0.05971916072030044,0.05382925476457627,0.02586096457264148,0.02498259975451617,0.04766042158007622,-0.005862084217369556,0.0437508262693882,-0.0037163496017456055,-0.005855053663253784,-0.024000778794288635,-0.10179494816143722,1.821192078720288,2.86551265792585,0.9637994170188904,0.10161923617124557,0.2465047389268875
1727724507897,7i,9.540635562156844,1.0s : 0.3s,0.05960050782146876,0.054144664015335124,0.024911360686310034,0.013672364123778327,0.023366132751107216,0.003136958461254835,0.03264927491545677,0.004066407680511475,-0.002062693238258362,-0.012889653444290161,-0.10167935081201633,1.8208696485418727,2.8650026630793874,0.9638901352882385,0.10150423645973206,0.24619683623313904
1727724507907,7i,9.540635562156844,1.0s : 0.3s,0.059072219093227844,0.05438824166819693,0.02305311772494381,0.02239366333505893,0.007127774879336357,0.006327691487967968,0.013350943103432655,0.010521650314331055,0.003244943916797638,0.019499778747558594,-0.10149774494199787,1.8207593386288683,2.864818494124271,0.9639352560043335,0.10132356733083725,0.24609510600566864
1727724507917,7i,9.540635562156844,1.0s : 0.3s,0.05807235319416042,0.05444654356009802,0.020198319233680366,0.041385468732984994,0.012762757949531078,0.0051609608344733715,-0.0058250147849321365,0.01396024227142334,0.038110606372356415,0.00809013843536377,-0.10137571850829061,1.8207678689400952,2.864679581471766,0.9639450907707214,0.10120216757059097,0.2461063712835312
