timestamp,club,max_speed,tempo,speed,l.speed,t.spped,acc,rotation.x,rotation.y,rotation.z,userAcceleration.x,userAcceleration.y,userAcceleration.z,pitch,roll,yaw,gravity.x,gravity.y,gravity.z
1727722634563,9i,8.36670796032525,0.9s : 0.3s,0.022784279565435446,0.00044164379042237434,0.022779998816468378,0.017475157703551132,-0.017164522781968117,0.006091974675655365,-0.003583770478144288,-0.0034725069999694824,-0.005000412464141846,0.016380436718463898,-0.2710798043983139,1.4962847829313637,0.2518111019633546,0.9608088135719299,0.26777195930480957,-0.07172413170337677
1727722634573,9i,8.36670796032525,0.9s : 0.3s,0.018595782314930042,0.0008461816815837005,0.01857652003110424,0.017022467961186265,-0.03542821481823921,0.005222541280090809,-0.002601796528324485,-0.0070285797119140625,-0.004575818777084351,0.01481301337480545,-0.27108258534908614,1.4965184908231224,0.25212500470067156,0.9608247876167297,0.26777464151382446,-0.0714995265007019
1727722634583,9i,8.36670796032525,0.9s : 0.3s,0.015131985218659364,0.0012127282311889327,0.015083310873114127,0.018635315524671136,-0.034505695104599,0.007634832989424467,-0.0037996864411979914,-0.0055786967277526855,-0.011236459016799927,0.013780243694782257,-0.27115403453701376,1.4967819701956062,0.25251417116328934,0.9608244895935059,0.26784348487854004,-0.07124494761228561
1727722634593,9i,8.36670796032525,0.9s : 0.3s,0.012144437329921948,0.001549550493890098,0.012045175437796108,0.010557086910612828,-0.03739628940820694,0.006970551796257496,-0.005658639594912529,-0.003454148769378662,-0.00448232889175415,0.008912332355976105,-0.2712389022719031,1.4970506180878707,0.25290053669356605,0.9608209729194641,0.2679252624511719,-0.07098515331745148
1727722634603,9i,8.36670796032525,0.9s : 0.3s,0.02521865928208522,0.0018602996975515375,0.025149951511308978,0.0066239094744442555,-0.044645681977272034,0.023738346993923187,-0.10114840418100357,-0.003254234790802002,0.0005315542221069336,0.005744874477386475,-0.27156224481981134,1.4973867371063536,0.25335041413828363,0.9607584476470947,0.26823675632476807,-0.07065585255622864
1727722634613,9i,8.36670796032525,0.9s : 0.3s,0.18495667698854618,0.0021418627860072216,0.18494427481393233,0.010850357722155257,-0.006619602907449007,0.07316559553146362,-0.8329096436500549,-0.007413148880004883,-0.0032723844051361084,0.007215745747089386,-0.2721054579139812,1.4976234504132662,0.2538483454955583,0.9606295228004456,0.2687600255012512,-0.07041775435209274
1727722634623,9i,8.36670796032525,0.9s : 0.3s,0.4248321093252878,0.0024435570725987433,0.4248250818191015,0.02939553075953813,0.04024191200733185,0.057349879294633865,-1.467333436012268,0.02794337272644043,0.0013755857944488525,0.009020693600177765,-0.2714780270580217,1.4980287003329145,0.2543600178012623,0.96082603931427,0.26815563440322876,-0.07004069536924362
1727722634633,9i,8.36670796032525,0.9s : 0.3s,0.41346739569470675,0.002702129123600016,0.41345856600240194,0.020266650372309458,0.020493241026997566,0.06252120435237885,-0.5733502507209778,-0.019454777240753174,0.005451679229736328,0.001589953899383545,-0.2714917789577567,1.4983616521820646,0.254762980476566,0.9608457088470459,0.2681688666343689,-0.06972052156925201
1727722634643,9i,8.36670796032525,0.9s : 0.3s,0.2938610848120709,0.0029157601236527012,0.29384661902058434,0.025681223322532226,-0.015989668667316437,0.043740950524806976,-0.018325399607419968,-0.024112224578857422,0.00871846079826355,-0.0014540627598762512,-0.2720606163566468,1.4986279847115354,0.2550326551184968,0.9607120156288147,0.26871684193611145,-0.06945361196994781
1727722634653,9i,8.36670796032525,0.9s : 0.3s,0.20267379767581223,0.0031301850972674035,0.20264962424241728,0.02929189244982243,-0.03541383147239685,0.034004032611846924,0.019752178341150284,0.028291165828704834,0.004044473171234131,-0.0064239501953125,-0.2722556957513933,1.4988735122346397,0.2553266374821487,0.9606766700744629,0.2689047157764435,-0.06921395659446716
1727722634663,9i,8.36670796032525,0.9s : 0.3s,0.14211031465942683,0.003290087182036602,0.14207222409371897,0.02808628165694929,-0.037915073335170746,0.023705322295427322,0.004738341551274061,-0.026199281215667725,-0.010029077529907227,0.0013617947697639465,-0.27238754143419946,1.4991846408999363,0.2557092634596179,0.9606626629829407,0.26903170347213745,-0.06891251355409622
1727722634673,9i,8.36670796032525,0.9s : 0.3s,0.10273538079723807,0.003437341803160992,0.10267786104551338,0.006105342395805121,-0.03460729494690895,0.02256464585661888,-0.007946660742163658,0.0056906938552856445,-0.0021671056747436523,-0.00044143199920654297,-0.2725105077362707,1.499454961570336,0.25606195338252336,0.9606482982635498,0.26915013790130615,-0.06865046918392181
1727722634683,9i,8.36670796032525,0.9s : 0.3s,0.0755195853058107,0.0035534560698213774,0.07543593781959276,0.01043334918026835,-0.035956718027591705,0.022335082292556763,-0.005784174427390099,-0.007850825786590576,-0.0066509246826171875,-0.001727573573589325,-0.2726189980017571,1.4997592084248401,0.2564047081767233,0.960640013217926,0.2692546248435974,-0.06835611909627914
1727722634693,9i,8.36670796032525,0.9s : 0.3s,0.05808609461018576,0.003655075932227898,0.057970982456683445,0.006470312040421741,-0.05108640342950821,0.024112120270729065,-0.00267646461725235,0.0010880827903747559,-0.0063287317752838135,0.0007925704121589661,-0.27269637632444954,1.5001045366550363,0.2568561758449564,0.9606426954269409,0.26932916045188904,-0.06802289932966232
1727722634703,9i,8.36670796032525,0.9s : 0.3s,0.0550216211383591,0.0037459104483644427,0.054893960939305146,0.01617909064088296,-0.0695522278547287,0.022803977131843567,-0.0041366764344275,0.005002140998840332,-0.014824926853179932,0.004118628799915314,-0.2727725525118411,1.5005164226479255,0.25748220979318703,0.9606502056121826,0.26940250396728516,-0.06762578338384628
1727722634713,9i,8.36670796032525,0.9s : 0.3s,0.052616850133114505,0.003844249045742944,0.05247622954447982,0.01575217804995748,-0.07328358292579651,0.02529270201921463,-0.0014202515594661236,0.009739339351654053,-0.009472101926803589,0.007972180843353271,-0.2728549327201522,1.5009667377872504,0.258230367685204,0.9606585502624512,0.2694818377494812,-0.06719163805246353
1727722634723,9i,8.36670796032525,0.9s : 0.3s,0.0505177014207905,0.00395710680306094,0.05036248070329049,0.01150661289091477,-0.0722031369805336,0.022555768489837646,0.0018969817319884896,0.008761584758758545,0.0014518201351165771,0.0073163509368896484,-0.2729038669063643,1.5014101965545104,0.25897395400212536,0.9606750011444092,0.26952898502349854,-0.066764697432518
1727722634733,9i,8.36670796032525,0.9s : 0.3s,0.04887690855731635,0.004077223663840167,0.048706554356834623,0.01002199116009383,-0.06996062397956848,0.019966155290603638,-0.00017818668857216835,0.005647063255310059,0.007576286792755127,0.0033392906188964844,-0.272945545250686,1.5018325577250167,0.2597371160852048,0.9606919884681702,0.2695690989494324,-0.06635817140340805
1727722634753,9i,8.36670796032525,0.9s : 0.3s,0.05718389073203492,0.0041824040815405085,0.05703073605830476,0.0226991488506268,-0.0288279689848423,0.03642808645963669,-0.11308233439922333,0.0005664229393005371,0.02022242546081543,-0.010294854640960693,-0.27328179212846593,1.5025015692819335,0.26067574624095713,0.9606456756591797,0.2698929011821747,-0.06570925563573837
1727722634743,9i,8.36670796032525,0.9s : 0.3s,0.04668047464181222,0.004283005648718331,0.046483573178037,0.00962938664107433,-0.042842987924814224,0.018679317086935043,0.0012439412530511618,0.0019420981407165527,0.009278714656829834,-0.001690797507762909,-0.2729840156562927,1.502175724650573,0.2603143633492396,0.9607042074203491,0.2696061432361603,-0.06602777540683746
1727722634763,9i,8.36670796032525,0.9s : 0.3s,0.2305062970820449,0.004358210102199061,0.23046509279971453,0.01754767331748004,0.03719126060605049,0.10751824080944061,-1.0170841217041016,-0.008000373840332031,0.012370169162750244,-0.009533822536468506,-0.273750964543269,1.5026692495150737,0.26092621168548263,0.9605302214622498,0.270344614982605,-0.06553953886032104
1727722634773,9i,8.36670796032525,0.9s : 0.3s,0.4676275288958627,0.0038701081381784684,0.467611514020185,0.1946259736461855,0.12612032890319824,0.06809200346469879,-1.522223949432373,-0.19307547807693481,-0.009433984756469727,-0.022630274295806885,-0.27202317247197505,1.5028179952933474,0.2612174749553939,0.9610044956207275,0.26868075132369995,-0.06542829424142838
1727722634783,9i,8.36670796032525,0.9s : 0.3s,0.4415303256834013,0.0037899992049584548,0.44151405912396136,0.09558990814776949,0.057795874774456024,0.022444894537329674,-0.5650355815887451,-0.09293770790100098,0.013683468103408813,-0.01768546551465988,-0.27200690024365376,1.5030713446989963,0.2614303376797869,0.9610253572463989,0.2686651051044464,-0.06518511474132538
1727722634803,9i,8.36670796032525,0.9s : 0.3s,0.31080496889902803,0.003999963042196294,0.3107792286945619,0.024963399552812997,-0.00354618183337152,0.02145557478070259,-0.007115255109965801,0.018193840980529785,0.01231953501701355,-0.011848397552967072,-0.2725675654426231,1.503480934147276,0.2616246233270985,0.96090167760849,0.26920509338378906,-0.06478135287761688
1727722634793,9i,8.36670796032525,0.9s : 0.3s,0.23540554127057256,0.0043365250883524485,0.23536559521529338,0.014732321677098674,0.0016560370568186045,0.010290270671248436,-0.08798560500144958,-0.006844758987426758,0.009654581546783447,-0.0087738037109375,-0.2724828297769426,1.5033476457797157,0.26151463863144286,0.960915744304657,0.26912349462509155,-0.06491096317768097
1727722634813,9i,8.36670796032525,0.9s : 0.3s,0.16393579503016556,0.004758718740712294,0.16386671256884128,0.023607427609990732,0.013938402757048607,0.016175368800759315,0.00680132582783699,-0.015296399593353271,0.009540826082229614,-0.015241503715515137,-0.2725533998476385,1.5036141609238376,0.261524363122837,0.9609140157699585,0.2691914439201355,-0.06465358287096024
1727722634823,9i,8.36670796032525,0.9s : 0.3s,0.11701535370853705,0.0052121150697654745,0.11689921667844298,0.01655184135434199,-0.009275839664041996,0.010538255795836449,-0.010299630463123322,0.003339529037475586,0.013965964317321777,-0.008231818675994873,-0.2726008153022817,1.5037341741344388,0.26149127756858986,0.9609090685844421,0.26923713088035583,-0.0645374059677124
1727722634833,9i,8.36670796032525,0.9s : 0.3s,0.10082169632109542,0.0056846693336396375,0.10066130827497903,0.01720303999870678,-0.013868727721273899,0.005318104289472103,-0.09399798512458801,-0.01515740156173706,-0.005062520503997803,-0.006369352340698242,-0.272569948947145,1.5038925770913334,0.2615805389478543,0.9609276056289673,0.2692073881626129,-0.06438575685024261
1727722634843,9i,8.36670796032525,0.9s : 0.3s,0.10575300416299213,0.0061534917209824565,0.10557382454537503,0.01486137139029142,-0.02257726341485977,0.00680441502481699,-0.18164315819740295,-0.009094536304473877,0.0013676285743713379,-0.011673875153064728,-0.2725160204606746,1.5040625066090256,0.2617730546096807,0.9609531164169312,0.26915544271469116,-0.06422343850135803
1727722634853,9i,8.36670796032525,0.9s : 0.3s,0.12578071450617384,0.006622051944881743,0.1256062759965556,0.019507947736326248,-0.027065223082900047,0.011670809239149094,-0.2557731866836548,-0.016232430934906006,-0.004347354173660278,-0.009908013045787811,-0.2724611050010546,1.5042583927310744,0.26207417952408313,0.960980236530304,0.2691025733947754,-0.06403616815805435
1727722634863,9i,8.36670796032525,0.9s : 0.3s,0.1523954201406935,0.007079236881199946,0.15223090515739024,0.016925553364680577,-0.020929833874106407,0.021665386855602264,-0.31800031661987305,-0.01289355754852295,-0.005826085805892944,-0.009289093315601349,-0.27238049817245724,1.5044415125212693,0.2623743560317506,0.9610137343406677,0.26902493834495544,-0.06386164575815201
1727722634873,9i,8.36670796032525,0.9s : 0.3s,0.18421727933865384,0.007536815881125165,0.18406303923740266,0.020178711191661272,-0.008302454836666584,0.029205061495304108,-0.383937269449234,-0.017908573150634766,-0.0024950802326202393,-0.00895756483078003,-0.2722648299497315,1.504590908722449,0.2625764674306041,0.9610542058944702,0.26891353726387024,-0.06372012197971344
1727722634883,9i,8.36670796032525,0.9s : 0.3s,0.22081624415097204,0.007989881610695013,0.22067164628195615,0.022984176195010572,-0.00039046909660100937,0.03946249186992645,-0.4546865224838257,-0.01738208532333374,-0.003174692392349243,-0.014698870480060577,-0.27214664551287343,1.5046925163418685,0.262664381950558,0.961092472076416,0.26879969239234924,-0.06362457573413849
1727722634893,9i,8.36670796032525,0.9s : 0.3s,0.262163148738956,0.008445107160596642,0.26202709157980214,0.027229458226073453,0.006460113450884819,0.05100201442837715,-0.5320467948913574,-0.021042168140411377,-0.004884630441665649,-0.016577422618865967,-0.27205257907461383,1.504743629532165,0.2627027068821719,0.9611208438873291,0.26870909333229065,-0.06357711553573608
1727722634903,9i,8.36670796032525,0.9s : 0.3s,0.30718248367873674,0.008918024697430218,0.30705300375429223,0.032425433344975496,0.01826404221355915,0.06671545654535294,-0.6105951070785522,-0.02789551019668579,-0.004846125841140747,-0.015803933143615723,-0.2719967173732339,1.504781362839871,0.26266028840033506,0.9611382484436035,0.26865527033805847,-0.06354183703660965
1727722634913,9i,8.36670796032525,0.9s : 0.3s,0.35488174714572285,0.0094183723274794,0.3547567458412902,0.035749185135185324,0.011598283424973488,0.07994866371154785,-0.6898984909057617,-0.031111836433410645,0.0002821981906890869,-0.01760619878768921,-0.2719636566797308,1.5048313781514928,0.2625952321615061,0.9611502289772034,0.2686234414577484,-0.06349434703588486
1727722634923,9i,8.36670796032525,0.9s : 0.3s,0.3997722345435597,0.009940068045850627,0.3996486388806983,0.03855955132321487,0.012541042640805244,0.09442906826734543,-0.7456907033920288,-0.03275102376937866,-0.01138409972190857,-0.016870439052581787,-0.27189333299900803,1.5048767995673713,0.262635885896727,0.9611719846725464,0.2685557007789612,-0.06345193833112717
1727722634933,9i,8.36670796032525,0.9s : 0.3s,0.43166742300910743,0.010473362187827372,0.4315403489499056,0.03454216089364181,0.008004080504179,0.0992528572678566,-0.7474365830421448,-0.0281640887260437,-0.010763347148895264,-0.01685512810945511,-0.2718825772854104,1.5049246018853375,0.26273493164613,0.9611780643463135,0.26854532957077026,-0.06340619176626205
1727722634943,9i,8.36670796032525,0.9s : 0.3s,0.45535688349105313,0.011031132754819754,0.4552232479265861,0.039695380869071185,0.006883955094963312,0.09535185992717743,-0.754669725894928,-0.03488481044769287,-0.013329267501831055,-0.013457484543323517,-0.27186925757837765,1.5049777126976638,0.2628996595476041,0.9611849188804626,0.26853251457214355,-0.06335537135601044
1727722634953,9i,8.36670796032525,0.9s : 0.3s,0.4732708959306518,0.011603120767104905,0.47312863845202374,0.03773500322332261,0.010028216987848282,0.0918167307972908,-0.7617022395133972,-0.03142094612121582,-0.016119033098220825,-0.013297796249389648,-0.27181898909056207,1.505003014303741,0.2630962320233353,0.961199939250946,0.26848408579826355,-0.06333193928003311
1727722634963,9i,8.36670796032525,0.9s : 0.3s,0.48687792602051133,0.012196820559960757,0.4867251302473118,0.03796662478656405,0.016972409561276436,0.08196942508220673,-0.7680938243865967,-0.033988356590270996,-0.011684268712997437,-0.012236587703227997,-0.2717455495220136,1.504995673188419,0.26329023134506985,0.961219072341919,0.26841333508491516,-0.06334028393030167
1727722634973,9i,8.36670796032525,0.9s : 0.3s,0.49710634881845217,0.01281584546724671,0.496941119389986,0.03742427578908384,0.02854304574429989,0.07698523253202438,-0.7718748450279236,-0.035042405128479004,-0.005170255899429321,-0.012077860534191132,-0.27166793247073545,1.5049272350481815,0.2634093501759631,0.961235523223877,0.26833856105804443,-0.06340744346380234
1727722634983,9i,8.36670796032525,0.9s : 0.3s,0.502924967127204,0.013470657164666597,0.5027445315022843,0.04189763970528395,0.023648153990507126,0.07306452840566635,-0.7715656757354736,-0.04009294509887695,0.00021389126777648926,-0.012162327766418457,-0.2715910441111676,1.5048419023584751,0.2635136231886543,0.9612507224082947,0.268264502286911,-0.06349082291126251
1727722634993,9i,8.36670796032525,0.9s : 0.3s,0.5042686398155583,0.014151435892266626,0.5040700327966545,0.04239673819437141,0.02710573747754097,0.06969376653432846,-0.7653924226760864,-0.04074358940124512,-0.011110961437225342,-0.0037403032183647156,-0.27148307991909654,1.5047812139214636,0.26367737570310795,0.9612756967544556,0.26816049218177795,-0.06355106830596924
1727722635003,9i,8.36670796032525,0.9s : 0.3s,0.5048748435708421,0.014858969032905518,0.5046561390788399,0.04283613425964573,0.03433861583471298,0.06689850986003876,-0.7563683390617371,-0.041479647159576416,-0.008334577083587646,-0.006701350212097168,-0.27134128544103137,1.5047212367040015,0.2638016716241872,0.9613098502159119,0.26802387833595276,-0.06361123919487
1727722635013,9i,8.36670796032525,0.9s : 0.3s,0.5048130119243854,0.015604810363804655,0.5045717658586134,0.048467458678362,0.04125724360346794,0.05968320742249489,-0.7476834654808044,-0.04569929838180542,-0.0023474395275115967,-0.01597367227077484,-0.2711769456118469,1.5046396779224849,0.26387527270911815,0.9613484740257263,0.2678655683994293,-0.06369253993034363
1727722635023,9i,8.36670796032525,0.9s : 0.3s,0.5035500022604561,0.016381888147862043,0.5032834574245575,0.047219058337988264,0.04442347586154938,0.054859425872564316,-0.7298070192337036,-0.04399901628494263,-0.001722186803817749,-0.017051689326763153,-0.2710031303913191,1.504526200208346,0.26388987137316383,0.9613878130912781,0.2676980793476105,-0.06380472332239151
1727722635033,9i,8.36670796032525,0.9s : 0.3s,0.49796559796176604,0.017189320816493835,0.4976688296480772,0.048101211180606035,0.05098870024085045,0.05050169304013252,-0.7122504115104675,-0.04612964391708374,-0.004401803016662598,-0.012899868190288544,-0.2708227664538678,1.504401099354304,0.2638989838258436,0.9614279866218567,0.2675243020057678,-0.06392819434404373
1727722635043,9i,8.36670796032525,0.9s : 0.3s,0.4885325518848489,0.018016417850806512,0.48820022832742277,0.04377150023799731,0.057078950107097626,0.043019767850637436,-0.6914993524551392,-0.042475104331970215,0.0020290017127990723,-0.010377518832683563,-0.2706414735542511,1.5042408448366404,0.2638250095911154,0.9614660739898682,0.26734960079193115,-0.06408549100160599
1727722635053,9i,8.36670796032525,0.9s : 0.3s,0.4776364944671563,0.018851063299955114,0.4772643484059279,0.0395680428383916,0.062303803861141205,0.03772646561264992,-0.6697610020637512,-0.03771233558654785,0.005444705486297607,-0.01066606491804123,-0.270485471304254,1.5040360190926767,0.26370272459976973,0.961494505405426,0.2671992778778076,-0.06428520381450653
1727722635063,9i,8.36670796032525,0.9s : 0.3s,0.46440661752699075,0.01968383093953728,0.4639892813443047,0.03599186785070253,0.06069871783256531,0.03390323370695114,-0.6418182849884033,-0.034702956676483154,0.007026761770248413,-0.006460957229137421,-0.2703322054862195,1.503823251889972,0.26353871891562625,0.9615216851234436,0.2670515775680542,-0.06449251621961594
1727722635073,9i,8.36670796032525,0.9s : 0.3s,0.44984392346774354,0.02051636786257302,0.44937582726553144,0.0367926387468486,0.05064288526773453,0.02938784286379814,-0.6161651611328125,-0.03619074821472168,0.0046058595180511475,-0.004765927791595459,-0.27020007226443693,1.5036339470534952,0.2634272344409621,0.9615446925163269,0.26692426204681396,-0.06467690318822861
1727722635083,9i,8.36670796032525,0.9s : 0.3s,0.4333415849969278,0.0213585170995589,0.43281490620698065,0.041580623933871366,0.044788192957639694,0.02752656117081642,-0.5850685238838196,-0.04122835397720337,-0.001169651746749878,-0.005272857844829559,-0.2700972076188496,1.5034806839797836,0.26339957069340036,0.9615620374679565,0.2668251097202301,-0.0648261159658432
1727722635093,9i,8.36670796032525,0.9s : 0.3s,0.41417531235704613,0.022215227573793933,0.4135791012973229,0.04396060616297427,0.047391436994075775,0.025533095002174377,-0.5468141436576843,-0.04321491718292236,0.0035535991191864014,-0.007237248122692108,-0.26999364932254977,1.5033356923291532,0.26336987295091674,0.9615802764892578,0.2667253017425537,-0.06496740132570267
1727722635103,9i,8.36670796032525,0.9s : 0.3s,0.3938695600462078,0.023083662121369593,0.39319254173249496,0.04362843296582127,0.053342800587415695,0.022672060877084732,-0.5118987560272217,-0.04222589731216431,0.007678896188735962,-0.007838897407054901,-0.2698929721507219,1.5032015352440289,0.2632812202514258,0.9615983366966248,0.26662829518318176,-0.06509821861982346
1727722635113,9i,8.36670796032525,0.9s : 0.3s,0.3721994768924473,0.02395736634335645,0.3714276446320354,0.04164672172863432,0.06276439130306244,0.02638242207467556,-0.4733123779296875,-0.03972578048706055,0.00968027114868164,-0.007912278175354004,-0.2697954294041231,1.503073418885278,0.2630911651501311,0.9616159200668335,0.2665342688560486,-0.06522317230701447
1727722635123,9i,8.36670796032525,0.9s : 0.3s,0.3494870376326953,0.024831828943480468,0.3486037431591903,0.04006439802308349,0.07444821298122406,0.024231120944023132,-0.43396446108818054,-0.03769195079803467,0.010192781686782837,-0.008976638317108154,-0.26972280943150156,1.5029438965897075,0.2627588457105098,0.9616268277168274,0.2664642930030823,-0.0653490349650383
1727722635133,9i,8.36670796032525,0.9s : 0.3s,0.32648400398524546,0.025698038156997408,0.32547106736716136,0.03676843222928371,0.08206113427877426,0.02052834816277027,-0.3968251347541809,-0.03340339660644531,0.012238889932632446,-0.00929194688796997,-0.26968970552423843,1.502796392983595,0.2623023355764916,0.9616259932518005,0.26643237471580505,-0.06549148261547089
1727722635143,9i,8.36670796032525,0.9s : 0.3s,0.300420915718247,0.026543072667174223,0.2992460390621322,0.02941728203482783,0.08300948143005371,0.02233530394732952,-0.3455049395561218,-0.02839428186416626,0.005235135555267334,-0.005633346736431122,-0.269610452120041,1.5026428693921463,0.26173791945109587,0.9616369605064392,0.2663559913635254,-0.06564054638147354
1727722635153,9i,8.36670796032525,0.9s : 0.3s,0.27260199695678744,0.02737154673101994,0.2712243484172834,0.031596252580973,0.08330310136079788,0.019595932215452194,-0.2961300313472748,-0.031104564666748047,-0.0052068233489990234,-0.0019282698631286621,-0.26953646515989127,1.5024884897979045,0.2611830137093371,0.9616464972496033,0.26628467440605164,-0.06579034775495529
1727722635163,9i,8.36670796032525,0.9s : 0.3s,0.2444978870151558,0.028177360936897534,0.24286879808964282,0.02726986075293641,0.07944471389055252,0.02330917865037918,-0.2515905201435089,-0.02651238441467285,-0.0025517046451568604,-0.005850434303283691,-0.2694414339987999,1.502348189272581,0.2605665940769146,0.9616624712944031,0.26619306206703186,-0.06592699885368347
1727722635173,9i,8.36670796032525,0.9s : 0.3s,0.21675196108451766,0.028966540785089454,0.2148077097055178,0.030154801890465016,0.0672927051782608,0.027426069602370262,-0.21148407459259033,-0.02770411968231201,-0.006909400224685669,-0.009698145091533661,-0.269355685569946,1.502257195473409,0.25998782230874784,0.961679220199585,0.2661104202270508,-0.0660160630941391
1727722635183,9i,8.36670796032525,0.9s : 0.3s,0.18617128012712886,0.029734788837716505,0.1837813588940682,0.028756152575513717,0.008489841595292091,0.023058751598000526,-0.16667771339416504,-0.026849687099456787,-0.010111838579177856,-0.0019394159317016602,-0.2693537366209469,1.5022496712068694,0.2597489696959623,0.9616792798042297,0.26610854268074036,-0.0660233423113823
1727722635193,9i,8.36670796032525,0.9s : 0.3s,0.15679128837014988,0.030456361532092597,0.15380480535730337,0.017076986967531044,-0.02296355552971363,0.023111172020435333,-0.1289030760526657,-0.012458086013793945,-0.007981419563293457,-0.008527398109436035,-0.26945471826270184,1.502386636631646,0.25995728051358047,0.9616615176200867,0.26620587706565857,-0.06588978320360184
1727722635203,9i,8.36670796032525,0.9s : 0.3s,0.12857122845108243,0.031148699567344475,0.12474100889716958,0.02109667871539133,-0.07552583515644073,0.022474143654108047,-0.08771542459726334,-0.018254458904266357,-0.0066919028759002686,-0.008189201354980469,-0.2695891164541535,1.502667075025858,0.26051590224107113,0.9616442918777466,0.2663354277610779,-0.06561765819787979
1727722635213,9i,8.36670796032525,0.9s : 0.3s,0.10464906151326936,0.03180149776728162,0.09970000408909528,0.01641777912223613,-0.09683605283498764,0.01780877448618412,-0.049505554139614105,-0.014425218105316162,-0.007595628499984741,0.0019398406147956848,-0.2697985009042183,1.5030627150600608,0.2614949877209409,0.9616144299507141,0.26653721928596497,-0.06523340940475464
1727722635223,9i,8.36670796032525,0.9s : 0.3s,0.09899225135886901,0.032409669068969665,0.09353651254957805,0.01164433687844755,-0.127062126994133,0.01809985749423504,-0.024228695780038834,-0.00820702314376831,0.007580101490020752,-0.003282897174358368,-0.2700588547442814,1.5035382959276125,0.2626193369167188,0.961575984954834,0.26678815484046936,-0.06477140635251999
1727722635233,9i,8.36670796032525,0.9s : 0.3s,0.09242278942437863,0.03297607434931436,0.08633973897048522,0.01045379427266829,-0.1706828474998474,0.021536044776439667,-0.02015206217765808,-0.00867164134979248,0.005665451288223267,0.0014096498489379883,-0.2703513927788479,1.5041433649902236,0.2641677659865725,0.9615371823310852,0.26707008481025696,-0.06418437510728836
1727722635243,9i,8.36670796032525,0.9s : 0.3s,0.09704840410694739,0.033497058161004914,0.09108424580718454,0.011221219321833781,-0.19467632472515106,0.02239811047911644,-0.01894351840019226,-0.0064179301261901855,-0.00841224193572998,0.0037363246083259583,-0.27067754274017736,1.5048597025717063,0.2660563540523087,0.9614958763122559,0.2673843801021576,-0.06348983198404312
1727722635253,9i,8.36670796032525,0.9s : 0.3s,0.1105566970404029,0.033983174849250196,0.10520421611156427,0.01123246186826729,-0.22274285554885864,0.0326220765709877,-0.017063859850168228,-0.00855320692062378,-0.007146328687667847,0.001393139362335205,-0.2709948877870041,1.5057039686883,0.2681766570858912,0.961464524269104,0.26769015192985535,-0.06267253309488297
1727722635263,9i,8.36670796032525,0.9s : 0.3s,0.13221261849324142,0.034447486545903405,0.12764617957271268,0.021870117120548944,-0.2750398516654968,0.03136239945888519,-0.017232971265912056,-0.013076305389404297,-0.01752835512161255,-0.00026272982358932495,-0.2713178617204987,1.5067062313894977,0.2707274270608458,0.96144038438797,0.2680013179779053,-0.061703313142061234
1727722635273,9i,8.36670796032525,0.9s : 0.3s,0.15951199927468684,0.034890304362597976,0.1556494284412666,0.029185784054259832,-0.3314875662326813,0.029337642714381218,-0.018735557794570923,-0.011857390403747559,-0.026472270488739014,-0.003229733556509018,-0.2716686614890248,1.5077704319404395,0.2738455812196204,0.961411714553833,0.26833927631378174,-0.060674190521240234
1727722635283,9i,8.36670796032525,0.9s : 0.3s,0.18741882254972012,0.035315324666976115,0.1840615193069685,0.031078571654082572,-0.37403103709220886,0.022685598582029343,-0.017427945509552956,-0.011763513088226318,-0.02815142273902893,-0.00591563805937767,-0.2720495233385586,1.508922817693761,0.27748087621582057,0.9613788723945618,0.26870614290237427,-0.059559911489486694
1727722635293,9i,8.36670796032525,0.9s : 0.3s,0.21235942898137072,0.03571438802108069,0.20933468314059553,0.026972923062795223,-0.40019193291664124,0.01814841479063034,-0.01567169278860092,-0.006868720054626465,-0.025522559881210327,-0.005381282418966293,-0.272425284626326,1.5101699579947423,0.2814627025659379,0.9613516330718994,0.26906806230545044,-0.05835477262735367
1727722635303,9i,8.36670796032525,0.9s : 0.3s,0.23415933805838718,0.036087520662629234,0.23136180854316982,0.018976287981488295,-0.4216492772102356,0.01597287878394127,-0.010470272041857243,-0.004541635513305664,-0.016637563705444336,-0.007916092872619629,-0.2728326602727699,1.5114030832139385,0.28568594984960166,0.9613133668899536,0.26946040987968445,-0.057162750512361526
1727722635313,9i,8.36670796032525,0.9s : 0.3s,0.2536656197883282,0.036432332715560754,0.2510357181667568,0.016344000983913757,-0.442766010761261,0.007104730699211359,-0.01209939457476139,-0.00279998779296875,-0.015458554029464722,-0.004507720470428467,-0.27322457216848367,1.512692320048286,0.2901476638117878,0.9612807631492615,0.26983779668807983,-0.05591720715165138
1727722635323,9i,8.36670796032525,0.9s : 0.3s,0.26840780571285283,0.03675608505763511,0.26587918380126047,0.022335772879316033,-0.4479850232601166,0.007710599340498447,-0.0072953179478645325,-0.003660917282104492,-0.01995447278022766,-0.009343631565570831,-0.27352005768817506,1.513972165743366,0.29474710061744774,0.9612720608711243,0.27012231945991516,-0.05468234792351723
1727722635333,9i,8.36670796032525,0.9s : 0.3s,0.2813778632817745,0.037066902770855045,0.27892570097427916,0.019774584550455585,-0.4611296057701111,0.0068687740713357925,-0.004561516456305981,-0.0047879815101623535,-0.011632353067398071,-0.015257712453603745,-0.27378312277575206,1.5152471580520082,0.29942450988109215,0.9612697958946228,0.2703755795955658,-0.05345273017883301
1727722635343,9i,8.36670796032525,0.9s : 0.3s,0.29325727758494036,0.037351677125078635,0.29086884170098837,0.011730705702095931,-0.47512850165367126,0.00498778373003006,1.8055085092782974e-05,5.125999450683594e-05,-0.009488701820373535,-0.006897199898958206,-0.2740607079715222,1.5166252348455802,0.3042787492543126,0.9612674713134766,0.27064281702041626,-0.05212390422821045
1727722635353,9i,8.36670796032525,0.9s : 0.3s,0.29490002826258654,0.03760774869911725,0.29249219460877646,0.017969944200671648,-0.45481976866722107,-0.011152303777635098,0.00013017398305237293,0.0015329718589782715,-0.0177614688873291,-0.002258121967315674,-0.27431699411842864,1.5179385141523989,0.3091255886782623,0.961266040802002,0.2708895206451416,-0.0508577935397625
1727722635363,9i,8.36670796032525,0.9s : 0.3s,0.2951068811735585,0.03781859967998687,0.29267358069055305,0.013147359903742195,-0.4386269450187683,0.005848251283168793,0.0031150449067354202,0.011081874370574951,0.004024326801300049,-0.005818068981170654,-0.2745269332351756,1.5191307818697457,0.313703335740077,0.9612691402435303,0.27109161019325256,-0.04970873147249222
1727722635373,9i,8.36670796032525,0.9s : 0.3s,0.2943598320811337,0.037976398175279535,0.2918998183015294,0.01588369475382493,-0.42480114102363586,-0.0067245326936244965,0.001083319541066885,0.014694511890411377,0.005642354488372803,0.0021276548504829407,-0.2747324146767977,1.520338468980653,0.31820262804498906,0.961272656917572,0.2712894082069397,-0.04854496568441391
1727722635383,9i,8.36670796032525,0.9s : 0.3s,0.29401443678817346,0.038086620736195315,0.2915371303295072,0.015707681053637724,-0.42974182963371277,-0.0026203349698334932,0.006731617730110884,0.014683783054351807,0.005484402179718018,0.0010193586349487305,-0.2748965203008554,1.5214890769969407,0.32260817820833726,0.9612835645675659,0.2714473307132721,-0.04743669927120209
1727722635393,9i,8.36670796032525,0.9s : 0.3s,0.29471073158752065,0.03815188944120001,0.29223081398941847,0.016626172578994156,-0.4449908435344696,-0.017055733129382133,0.0034055958967655897,0.016063034534454346,0.004149347543716431,-0.00109153613448143,-0.27506282875328564,1.5226509652641929,0.3271800441958353,0.9612928032875061,0.2716073989868164,-0.046317584812641144
1727722635403,9i,8.36670796032525,0.9s : 0.3s,0.2902030400356284,0.038180974991520844,0.28768040877789613,0.014335130674850278,-0.40357908606529236,-0.021618392318487167,-0.004457553382962942,0.013979911804199219,0.00307619571685791,-0.000771399587392807,-0.27525834400753846,1.5236486540649221,0.3315893941343513,0.9612854719161987,0.2717955708503723,-0.045355986803770065
1727722635413,9i,8.36670796032525,0.9s : 0.3s,0.2799444501982765,0.03814038913323933,0.2773341052117111,0.03971506739148265,-0.3771306872367859,-0.017030388116836548,-0.00032585905864834785,0.015399575233459473,0.03279837965965271,-0.01626056432723999,-0.27546650425450386,1.524552227022003,0.3356282997557491,0.9612696766853333,0.27199587225914,-0.04448476433753967
1727722635423,9i,8.36670796032525,0.9s : 0.3s,0.27098600992917976,0.03811890040297546,0.2682915708877294,0.037918449721494094,-0.3679529130458832,-0.02239665761590004,0.004852657672017813,9.918212890625e-05,0.035183340311050415,-0.01413971558213234,-0.2756203304285047,1.5254075506935598,0.33949755476564475,0.9612656235694885,0.2721439003944397,-0.04366065561771393
1727722635433,9i,8.36670796032525,0.9s : 0.3s,0.25777439613344566,0.038113082711089465,0.2549412328914651,0.02465855833381008,-0.3329734802246094,-0.020672395825386047,0.0005963605362921953,-0.0029432177543640137,0.02174428105354309,-0.011250253766775131,-0.2757747729381627,1.52616169727354,0.3431301090415416,0.9612560272216797,0.27229252457618713,-0.04293382167816162
1727722635443,9i,8.36670796032525,0.9s : 0.3s,0.2444971718635965,0.03824287616881394,0.2414877832761604,0.05023673444915896,-0.31209245324134827,-0.028346560895442963,-0.006702032871544361,-0.016162395477294922,0.03774559497833252,-0.02894436940550804,-0.2759228403515415,1.52686785161796,0.34650909825008025,0.9612458944320679,0.2724349796772003,-0.042253248393535614
1727722635453,9i,8.36670796032525,0.9s : 0.3s,0.2276143514953744,0.03840916201599648,0.22435023797600212,0.034486907963143944,-0.27342984080314636,-0.029509959742426872,0.015430932864546776,-0.015065550804138184,0.02410668134689331,-0.019525468349456787,-0.27604724979627066,1.5273540360516618,0.34951698170968915,0.9612324833869934,0.2725546956062317,-0.04178442806005478
1727722635463,9i,8.36670796032525,0.9s : 0.3s,0.2267906512258769,0.03858835381578018,0.22348364242880395,0.04665235071218075,-0.3187733590602875,-0.04967541992664337,-0.0060525210574269295,-0.0008912086486816406,0.03338012099266052,-0.032579366117715836,-0.27611476211431063,1.5278215089370315,0.3526209880968961,0.9612336754798889,0.2726196348667145,-0.04133429005742073
1727722635473,9i,8.36670796032525,0.9s : 0.3s,0.22692986925696357,0.03879319261576485,0.22358947597697604,0.019529933453338418,-0.33380305767059326,-0.0232790969312191,-0.0013127264101058245,-0.012663841247558594,0.0004666149616241455,-0.014860272407531738,-0.276289501441348,1.52843468363366,0.3560157888446052,0.9612111449241638,0.27278774976730347,-0.04074285551905632
1727722635483,9i,8.36670796032525,0.9s : 0.3s,0.22822587172914233,0.0390173888771118,0.22486594204489743,0.020678129161081322,-0.3508986830711365,-0.03093115985393524,-0.005381237715482712,-0.011184394359588623,0.010033220052719116,-0.014206647872924805,-0.2764487957042281,1.5291497454440328,0.359562513683372,0.9611965417861938,0.2729410231113434,-0.04005371034145355
1727722635493,9i,8.36670796032525,0.9s : 0.3s,0.22846345814235042,0.039246819911434076,0.22506718737568338,0.017797244026007828,-0.33652013540267944,-0.03350692242383957,-0.00696199107915163,-0.005946040153503418,0.010781675577163696,-0.01285075768828392,-0.27667000974638883,1.5297843925935737,0.36313453715918215,0.9611613750457764,0.27315381169319153,-0.03944120183587074
1727722635503,9i,8.36670796032525,0.9s : 0.3s,0.22872385635407164,0.039472023984066615,0.22529216983303982,0.019484557248559773,-0.3371715545654297,-0.03315724804997444,-0.0011179496068507433,-0.0012521743774414062,0.013432025909423828,-0.014059185981750488,-0.276849373482252,1.5304045607234193,0.3665995760495823,0.9611367583274841,0.2733263671398163,-0.03884313628077507
1727722635513,9i,8.36670796032525,0.9s : 0.3s,0.2283896533996688,0.03969745696886301,0.22491319590060985,0.008744098421285207,-0.3277464807033539,-0.04180058464407921,0.001172535354271531,-0.007391571998596191,-0.0026868581771850586,-0.0038216114044189453,-0.2769662659745419,1.530975910372182,0.37007439587076923,0.9611268639564514,0.27343878149986267,-0.03829271346330643
1727722635523,9i,8.36670796032525,0.9s : 0.3s,0.215180643595958,0.039927220783751285,0.21144390844584832,0.011002923494584921,-0.26510655879974365,-0.04542781040072441,0.003722512163221836,-0.00869441032409668,-0.00013634562492370605,-0.006741881370544434,-0.27705905623591726,1.5313937053294375,0.3732042549920854,0.9611173868179321,0.2735280394554138,-0.037890154868364334
1727722635533,9i,8.36670796032525,0.9s : 0.3s,0.1848580310961236,0.04017702949259057,0.18043918078368373,0.04220549113358923,-0.15612240135669708,-0.04774995148181915,0.018015597015619278,-0.006537735462188721,0.03400123119354248,-0.024134576320648193,-0.27703935339944624,1.5315184952482999,0.37541837285270846,0.961127519607544,0.27350908517837524,-0.037770431488752365
1727722635543,9i,8.36670796032525,0.9s : 0.3s,0.13628851667986935,0.04040568983385134,0.13016120776886494,0.05299890983117676,-0.01026347279548645,-0.043791163712739944,0.03145284205675125,0.007089197635650635,0.04544880986213684,-0.0263255275785923,-0.2768454377533108,1.5313077001315538,0.3763359301210909,0.9611725807189941,0.27332258224487305,-0.03797512501478195
1727722635553,9i,8.36670796032525,0.9s : 0.3s,0.08021808383118252,0.040610727738210874,0.06917882454999896,0.058553775811460616,0.13061654567718506,-0.036017972975969315,0.03653032332658768,0.009453237056732178,0.05364355444908142,-0.021483715623617172,-0.27647973972662704,1.5307195452838651,0.375677783393275,0.9612497091293335,0.2729707658290863,-0.0385444350540638
1727722635563,9i,8.36670796032525,0.9s : 0.3s,0.05051145668377087,0.04082353278662132,0.02974636830162826,0.05467429834296532,0.19977591931819916,-0.022700035944581032,0.04592116177082062,0.0021518468856811523,0.053673774003982544,-0.010186973959207535,-0.2760043145014775,1.5299417165634266,0.3739282896022487,0.9613491892814636,0.27251338958740234,-0.03929741308093071
1727722635573,9i,8.36670796032525,0.9s : 0.3s,0.062454369101743776,0.0410299024011385,0.047086041762393845,0.035598630263872236,0.18617860972881317,-0.023324280977249146,0.05323094129562378,0.0036536455154418945,0.0353982150554657,0.0009379349648952484,-0.2754129304374712,1.5291855373632897,0.3719116549529782,0.9614800810813904,0.2719443142414093,-0.04003104940056801
1727722635583,9i,8.36670796032525,0.9s : 0.3s,0.08400332949821608,0.041202095756265,0.0732048268359227,0.015887622790904114,0.2007831186056137,-0.03033372201025486,0.05089428275823593,0.009138882160186768,0.006573230028152466,0.011211156845092773,-0.2748115662207733,1.5283632380966516,0.3699718279326332,0.961609959602356,0.27136558294296265,-0.040828585624694824
1727722635593,9i,8.36670796032525,0.9s : 0.3s,0.1066232092277466,0.04136495375738912,0.09827232238363397,0.014730852591821103,0.23200708627700806,-0.012442427687346935,0.05399413779377937,0.002804279327392578,0.01433098316192627,0.0019382871687412262,-0.27417091826003614,1.5275412944360878,0.3677277688553632,0.9617494344711304,0.27074891328811646,-0.0416264645755291
1727722635603,9i,8.36670796032525,0.9s : 0.3s,0.12312546486607887,0.0415573643292401,0.1159002397257867,0.031003940379246826,0.22583919763565063,-0.014463500119745731,0.0631956234574318,-0.00953298807144165,0.028509855270385742,-0.00758647546172142,-0.2735650691965184,1.526743024090293,0.3652770735244997,0.9618796110153198,0.27016565203666687,-0.04240140691399574
1727722635613,9i,8.36670796032525,0.9s : 0.3s,0.12339542805098704,0.04175134343763987,0.11611742756812417,0.01621710921418081,0.1623891294002533,-0.03624220937490463,0.059400685131549835,-0.001446366310119629,0.01582828164100647,-0.0032199621200561523,-0.2731704699918301,1.525698394535468,0.3632416157107901,0.9619413018226624,0.26978570222854614,-0.043410997837781906
1727722635623,9i,8.36670796032525,0.9s : 0.3s,0.12217858403168158,0.041880836676073514,0.11477631251830116,0.029219314156823148,0.1357804238796234,-0.04629724100232124,0.061277419328689575,0.014212369918823242,-0.008010059595108032,0.02424078807234764,-0.27288953527691745,1.5245969019814365,0.36167661642426596,0.961968719959259,0.26951515674591064,-0.044474046677351
1727722635633,9i,8.36670796032525,0.9s : 0.3s,0.11969356636577001,0.041990904925399176,0.11208618885885575,0.013689081343241873,0.1240052580833435,-0.048312366008758545,0.06162296235561371,0.0019198060035705566,0.004840821027755737,0.012659847736358643,-0.2726804489297058,1.5235522274478013,0.3602948490885782,0.9619778394699097,0.2693138122558594,-0.04548162221908569
1727722635643,9i,8.36670796032525,0.9s : 0.3s,0.11315004632928977,0.04208770113376033,0.10503122582163693,0.010035767898491083,0.10494021326303482,-0.04907109960913658,0.060887131839990616,0.0006880760192871094,0.004149436950683594,0.009111825376749039,-0.2724952226716103,1.5227064535767165,0.3591334364827537,0.9619887471199036,0.26913541555404663,-0.04629761353135109
1727722635653,9i,8.36670796032525,0.9s : 0.3s,0.11187963311837883,0.042144019664138534,0.10363847699214686,0.02102205160999044,0.11270106583833694,-0.050713784992694855,0.06201900914311409,0.007624506950378418,-0.011115312576293945,0.016132060438394547,-0.27212116626789606,1.521996557474991,0.3580673890761993,0.9620561599731445,0.26877516508102417,-0.04698542132973671
1727722635663,9i,8.36670796032525,0.9s : 0.3s,0.11089192057128713,0.0421844166780302,0.10255482942076878,0.014634859135127843,0.11122807115316391,-0.052750568836927414,0.06984151154756546,-0.0004992485046386719,-0.0045271217823028564,0.013908091932535172,-0.27147547715363307,1.521367039398087,0.35697064369843645,0.9621995687484741,0.2681531608104706,-0.047599613666534424
1727722635673,9i,8.36670796032525,0.9s : 0.3s,0.10911990995259571,0.042212052328835604,0.100624536700798,0.02441444476215981,0.08875378966331482,-0.0649590790271759,0.07447411119937897,-0.005861878395080566,-0.0186445415019989,0.01463162899017334,-0.2707976748903988,1.5205928503350936,0.3559852516363087,0.9623437523841858,0.2675001323223114,-0.04835363104939461
1727722635683,9i,8.36670796032525,0.9s : 0.3s,0.10227785517483455,0.04214977304036074,0.09318882063751267,0.03924562548022033,0.05282161757349968,-0.07163162529468536,0.07723288238048553,0.00614619255065918,-0.03301563858985901,0.020307905972003937,-0.27017730113354865,1.519713660357349,0.355291185849691,0.962466299533844,0.26690229773521423,-0.049208153039216995
1727722635693,9i,8.36670796032525,0.9s : 0.3s,0.10015301559757986,0.04196909873758956,0.09093525875282664,0.04154425632055877,0.040236055850982666,-0.07999733090400696,0.09387477487325668,0.007535457611083984,-0.033694952726364136,0.023103944957256317,-0.26939399936382913,1.5188808547987829,0.3548810903754955,0.9626336693763733,0.26614734530448914,-0.050020527094602585
1727722635703,9i,8.36670796032525,0.9s : 0.3s,0.09898917220832848,0.0416904623343581,0.08978174405099057,0.04539696129826814,0.04933314770460129,-0.0736645981669426,0.10265814512968063,0.008328139781951904,-0.02945840358734131,0.03352206200361252,-0.2683391639078008,1.5181866046901908,0.35452169781481974,0.9628785848617554,0.2651304006576538,-0.050703562796115875
1727722635713,9i,8.36670796032525,0.9s : 0.3s,0.09923748248851695,0.04141270888009052,0.09018350998864248,0.03931967044981047,0.0672953724861145,-0.07635438442230225,0.11019988358020782,-0.003092348575592041,-0.03082004189491272,0.024219803512096405,-0.2672986014251808,1.5174195297416446,0.35402978851102695,0.9631143808364868,0.2641269266605377,-0.051456838846206665
1727722635723,9i,8.36670796032525,0.9s : 0.3s,0.10228562372621619,0.04113355015194396,0.09365030631534842,0.03630736327183809,0.09475735574960709,-0.07484544068574905,0.11051387339830399,0.00030744075775146484,-0.02957180142402649,0.021062731742858887,-0.26619437138314556,1.5165788132750369,0.3532972096040718,0.9633612632751465,0.2630617618560791,-0.052282292395830154
1727722635733,9i,8.36670796032525,0.9s : 0.3s,0.11432057222394239,0.04086420498233831,0.10676755117905001,0.024151458618660384,0.14682067930698395,-0.08068100363016129,0.11777541041374207,0.0005897879600524902,-0.019428163766860962,0.01433497667312622,-0.26494871785385204,1.5157406897221124,0.35218714602452045,0.9636435508728027,0.2618597745895386,-0.05310767889022827
1727722635743,9i,8.36670796032525,0.9s : 0.3s,0.12663565395874576,0.04058410134094884,0.11995632360116243,0.030809678742262248,0.17336414754390717,-0.0837303176522255,0.11694690585136414,0.00832897424697876,-0.024207353591918945,0.01714259386062622,-0.2637032221345079,1.514746200387652,0.35065887462975187,0.963915228843689,0.26065754890441895,-0.05408421903848648
1727722635753,9i,8.36670796032525,0.9s : 0.3s,0.14547857421054908,0.040268453621877566,0.13979437469811481,0.047006213242884426,0.23191533982753754,-0.09336493164300919,0.12489304691553116,0.011713624000549316,-0.04133722186088562,0.019068539142608643,-0.2623224579714382,1.513545081024549,0.34868044516156704,0.9642079472541809,0.25932425260543823,-0.055262498557567596
1727722635763,9i,8.36670796032525,0.9s : 0.3s,0.15863298306555892,0.03994192775001819,0.1535221994497546,0.03707648997691341,0.23122932016849518,-0.09398571401834488,0.12117767333984375,0.014374196529388428,-0.033931076526641846,0.004090309143066406,-0.2607212698206568,1.5123296613914257,0.3464157431635939,0.9645533561706543,0.25777751207351685,-0.05645856261253357
1727722635773,9i,8.36670796032525,0.9s : 0.3s,0.1588475103673943,0.03963018215978865,0.15382451108942752,0.04035275382551248,0.17927876114845276,-0.09272843599319458,0.11743851751089096,0.002699613571166992,-0.040240973234176636,0.0013118311762809753,-0.25916645246665254,1.5112483386089874,0.3444560851052097,0.9648907780647278,0.256274938583374,-0.05752531439065933
1727722635783,9i,8.36670796032525,0.9s : 0.3s,0.14638861258376487,0.03930501660980933,0.14101326733148983,0.05063176390630992,0.0995306670665741,-0.08313945680856705,0.11177903413772583,0.009218096733093262,-0.04847881197929382,0.011331681162118912,-0.2577597127626572,1.510532897563554,0.3432117404297496,0.9652080535888672,0.25491490960121155,-0.058237262070178986
1727722635793,9i,8.36670796032525,0.9s : 0.3s,0.1344046099637992,0.03896179526607813,0.12863350142620392,0.04714476004398543,0.0809326171875,-0.07996652275323868,0.10306307673454285,0.01353543996810913,-0.03829875588417053,0.023929595947265625,-0.25646345554546224,1.509879916275091,0.3424884741025155,0.9654989242553711,0.25366127490997314,-0.05888758599758148
1727722635803,9i,8.36670796032525,0.9s : 0.3s,0.12771762025542374,0.03862567249090418,0.12173679783998767,0.019541051313027722,0.1011129841208458,-0.07164094597101212,0.09199098497629166,0.01318216323852539,-0.013211697340011597,0.005790881812572479,-0.25527891344624737,1.5092469396581472,0.34169894056282957,0.9657607674598694,0.2525152862071991,-0.05951715633273125
1727722635813,9i,8.36670796032525,0.9s : 0.3s,0.12673954151607955,0.03833550783594816,0.12080273267880165,0.007985425337941785,0.12567584216594696,-0.07157649844884872,0.08565053343772888,0.0037178397178649902,0.0011332035064697266,-0.006975710391998291,-0.2542365137796314,1.508500277211704,0.34066255820228586,0.9659781455993652,0.2515065371990204,-0.06025458499789238
1727722635823,9i,8.36670796032525,0.9s : 0.3s,0.1286816826183894,0.03808848088380471,0.1229155932559573,0.011335699916995677,0.1720515936613083,-0.07507802546024323,0.08294449746608734,-0.0007278323173522949,0.009320586919784546,-0.006410539150238037,-0.25317142231356154,1.5077114936740346,0.3392915623912913,0.96619713306427,0.25047552585601807,-0.06103337183594704
1727722635833,9i,8.36670796032525,0.9s : 0.3s,0.1410568488471398,0.03788893653694371,0.13587296675492255,0.028703587437928682,0.23176567256450653,-0.07570408284664154,0.07846822589635849,-0.0016974806785583496,0.025540903210639954,-0.012987561523914337,-0.251926274414588,1.5067691883682603,0.33731578024071573,0.9664497375488281,0.24926988780498505,-0.06196370720863342
1727722635843,9i,8.36670796032525,0.9s : 0.3s,0.15906395422565994,0.037788270651328816,0.15451015544320948,0.0482720329252563,0.28651413321495056,-0.08288956433534622,0.06065274029970169,-0.0015382170677185059,0.04406268894672394,-0.01965457946062088,-0.25087322580922977,1.5054121022993416,0.33471618272051723,0.9666261672973633,0.24824994802474976,-0.06329231709241867
1727722635853,9i,8.36670796032525,0.9s : 0.3s,0.18030551191825855,0.0378851072390972,0.1762804478028899,0.07042261688820098,0.333434522151947,-0.08567611873149872,0.04078369587659836,-0.009276151657104492,0.0628591775894165,-0.030364811420440674,-0.25002509949957974,1.5038307801074404,0.3315601890055813,0.9667345881462097,0.2474282830953598,-0.06483485549688339
1727722635863,9i,8.36670796032525,0.9s : 0.3s,0.19910358343448487,0.03817044786859358,0.1954104752718335,0.07560367536286652,0.354955792427063,-0.07893165946006775,0.021010521799325943,-0.014450550079345703,0.06713913381099701,-0.031613826751708984,-0.2493402449026525,1.502214625589814,0.3280466209964219,0.9667972922325134,0.2467646598815918,-0.06640875339508057
1727722635873,9i,8.36670796032525,0.9s : 0.3s,0.21523293422422993,0.038548338910162246,0.2117527840242932,0.06808973913602652,0.3693452477455139,-0.07043817639350891,0.015019441023468971,-0.01529550552368164,0.06453518569469452,-0.015410058200359344,-0.24883090844897054,1.5006622641668246,0.3243531129695188,0.9668182134628296,0.2462710440158844,-0.06791828572750092
1727722635883,9i,8.36670796032525,0.9s : 0.3s,0.22889010246612757,0.03894799736190414,0.22555206163644678,0.05092108570525066,0.38170498609542847,-0.06049792468547821,0.011782901361584663,-0.008150815963745117,0.04962161183357239,-0.008013539016246796,-0.24841175800761192,1.4991114688162817,0.32052592536993857,0.9668145775794983,0.24586477875709534,-0.06942492723464966
1727722635893,9i,8.36670796032525,0.9s : 0.3s,0.24755188512984497,0.039375525407202884,0.244400294251555,0.03339106685453054,0.42896783351898193,-0.04946587234735489,0.011707267723977566,-0.015751004219055176,0.02847321331501007,-0.007493019104003906,-0.24801797805653805,1.4975386838138407,0.3163657889814026,0.9668007493019104,0.24548307061195374,-0.07095251977443695
1727722635903,9i,8.36670796032525,0.9s : 0.3s,0.26836474172867203,0.039820662470995444,0.2653939514070882,0.03191487032931278,0.46746090054512024,-0.04412836208939552,0.016899634152650833,-0.012913525104522705,0.028532058000564575,-0.006141781806945801,-0.24754804962958404,1.4959447068048715,0.31177832019407187,0.9668014049530029,0.24502749741077423,-0.07250210642814636
1727722635913,9i,8.36670796032525,0.9s : 0.3s,0.2879674687807462,0.040222550914186146,0.2851445413714696,0.015088839635302304,0.49325451254844666,-0.03307824209332466,0.01983080804347992,-0.0066724419593811035,0.007591798901557922,0.011203400790691376,-0.24700262278546456,1.494333724378001,0.30682956973890196,0.9668165445327759,0.24449865520000458,-0.07406971603631973
1727722635923,9i,8.36670796032525,0.9s : 0.3s,0.3017723339805201,0.04058568990010035,0.2990306728939081,0.02627001263609172,0.4934803545475006,-0.024083415046334267,0.025765130296349525,-0.007040441036224365,-0.01889456808567047,0.0168386772274971,-0.24640164490990255,1.4928096311048813,0.301774119018891,0.966848611831665,0.2439158707857132,-0.07555456459522247
1727722635933,9i,8.36670796032525,0.9s : 0.3s,0.3045773557011809,0.040915846428129385,0.30181659847827025,0.04445911438152173,0.47086548805236816,-0.012672259472310543,0.02936895191669464,-0.01640230417251587,-0.03430734574794769,0.023034393787384033,-0.24574233449136676,1.491417418516338,0.2968159413974079,0.9669027328491211,0.2432764172554016,-0.07691329717636108
1727722635943,9i,8.36670796032525,0.9s : 0.3s,0.3033686573003008,0.04116174514544092,0.30056322624161647,0.05698477730279161,0.4311542809009552,-0.006029003299772739,0.02738356590270996,-0.019452393054962158,-0.04938808083534241,0.020728886127471924,-0.24510259568908663,1.4901851007934428,0.2921940520047416,0.9669620990753174,0.24265585839748383,-0.07811728119850159
1727722635953,9i,8.36670796032525,0.9s : 0.3s,0.29085149258177123,0.04129926397456103,0.2879044312479467,0.06755665685919392,0.38414865732192993,-0.005184515379369259,0.03479161486029625,-0.01758718490600586,-0.0633193850517273,0.015660405158996582,-0.24445784394233433,1.4891278228400975,0.28804654057337165,0.9670347571372986,0.2420303225517273,-0.07915233820676804
1727722635963,9i,8.36670796032525,0.9s : 0.3s,0.27831203997931103,0.04133737100252703,0.27522502312843045,0.0666313703038176,0.36434754729270935,0.0057584140449762344,0.04627356678247452,-0.010815203189849854,-0.06483407318592072,0.01092308759689331,-0.24375438834879895,1.4881871460954756,0.28423353347547564,0.9671292304992676,0.24134771525859833,-0.08007599413394928
1727722635973,9i,8.36670796032525,0.9s : 0.3s,0.26594244865441363,0.04138066657389757,0.2627033049472453,0.04409549075138602,0.34528759121894836,0.01239003986120224,0.050429895520210266,-0.00779801607131958,-0.043232858180999756,-0.0038109347224235535,-0.2429736225804028,1.4874240595200279,0.28062210114384245,0.9672552347183228,0.2405899614095688,-0.08082962781190872
1727722635983,9i,8.36670796032525,0.9s : 0.3s,0.2562523490372098,0.04144478731007157,0.25287861908811293,0.03868132037719906,0.3393857479095459,0.015236958861351013,0.05067357420921326,-0.012475132942199707,-0.03624434769153595,-0.005192577838897705,-0.24218774026969475,1.4867076354844198,0.27715496096635067,0.9673853516578674,0.23982709646224976,-0.08153843879699707
1727722635993,9i,8.36670796032525,0.9s : 0.3s,0.24720885741403237,0.041520865574736714,0.2436970186643161,0.028661603001998666,0.3267548978328705,0.025576414540410042,0.0549904927611351,-0.0055969953536987305,-0.02684524655342102,-0.008336298167705536,-0.24138654273671079,1.486093880384038,0.27375453908792036,0.9675261378288269,0.23904919624328613,-0.08214838057756424
1727722636003,9i,8.36670796032525,0.9s : 0.3s,0.23661723838094842,0.04159267520214603,0.23293296647008846,0.026090610330929406,0.3047904670238495,0.024706359952688217,0.05277074873447418,-8.404254913330078e-06,-0.025983601808547974,-0.0023605749011039734,-0.24057779760293116,1.4855647679772532,0.27054445187441245,0.9676748514175415,0.2382638305425644,-0.0826767310500145
1727722636013,9i,8.36670796032525,0.9s : 0.3s,0.22418437473299144,0.041649945912068775,0.22028144697169594,0.02208984046103018,0.27946847677230835,0.026968760415911674,0.047251444309949875,0.005270063877105713,-0.021450504660606384,-0.0002516508102416992,-0.2398382186461207,1.4851196825736446,0.26759778097541587,0.9678133130073547,0.23754547536373138,-0.08312248438596725
1727722636023,9i,8.36670796032525,0.9s : 0.3s,0.213794217946315,0.04168549027148244,0.20969093334739725,0.02374356181086084,0.27065446972846985,0.02327202633023262,0.04788447916507721,0.0078084468841552734,-0.0220201313495636,0.004230685532093048,-0.23913654526463857,1.484712651353053,0.26481484009190953,0.9679451584815979,0.23686383664608002,-0.08353070914745331
1727722636033,9i,8.36670796032525,0.9s : 0.3s,0.20967636902548578,0.04168626947290942,0.20549071673714042,0.03054261856744429,0.27848830819129944,0.019681241363286972,0.03952398523688316,0.014135122299194336,-0.026589155197143555,0.005105555057525635,-0.23849954731244968,1.4842636368807747,0.26203945887096564,0.9680578112602234,0.23624491691589355,-0.08397836238145828
1727722636043,9i,8.36670796032525,0.9s : 0.3s,0.202173137760835,0.041673667653316704,0.19783145113045722,0.024615477343564177,0.2641701102256775,0.01190427877008915,0.037427011877298355,0.008566856384277344,-0.022970929741859436,-0.002206146717071533,-0.23786950449328295,1.4837596631841563,0.259264409530702,0.9681634306907654,0.23563265800476074,-0.08447914570569992
1727722636053,9i,8.36670796032525,0.9s : 0.3s,0.18839730901075386,0.041642147385272076,0.18373752366796706,0.04503364413283942,0.2229621857404709,-0.00071741733700037,0.030995944514870644,0.012677550315856934,-0.04187057912349701,-0.010684728622436523,-0.2373138327107573,1.4832301747652923,0.25682387742824536,0.9682489037513733,0.23509259521961212,-0.08500320464372635
1727722636063,9i,8.36670796032525,0.9s : 0.3s,0.17574846752620876,0.041593689818669115,0.17075564062448773,0.05498295692119625,0.2064356803894043,0.0010040497872978449,0.03549855202436447,0.010203957557678223,-0.051509082317352295,-0.01630396395921707,-0.23679062801812018,1.4827095866543694,0.25463172010137686,0.9683269262313843,0.2345840185880661,-0.08551806211471558
1727722636073,9i,8.36670796032525,0.9s : 0.3s,0.15623605568492552,0.04154899612126943,0.15061004620309326,0.05270113580186863,0.1484924852848053,0.004290657117962837,0.04723350331187248,0.008896708488464355,-0.04818639159202576,-0.01939922571182251,-0.23621369778108758,1.4823256691185536,0.25283630592498413,0.9684286713600159,0.23402315378189087,-0.08590175956487656
1727722636083,9i,8.36670796032525,0.9s : 0.3s,0.13357471806996107,0.04149253156213595,0.12696682689598388,0.06353403066397093,0.0986333116889,0.0025894297286868095,0.05028575286269188,0.006480097770690918,-0.06309397518634796,-0.003705628216266632,-0.23563279088597505,1.482062437814863,0.2516263779953232,0.9685413241386414,0.23345834016799927,-0.08616871386766434
1727722636093,9i,8.36670796032525,0.9s : 0.3s,0.11046031539817275,0.04145789849064761,0.10238517436915832,0.050512686920234945,0.05485627427697182,0.001159933628514409,0.05284072458744049,0.003383159637451172,-0.048889294266700745,-0.012244291603565216,-0.2350534938020088,1.4819107695432405,0.2509093989897261,0.9686627984046936,0.23289500176906586,-0.08632759749889374
1727722636103,9i,8.36670796032525,0.9s : 0.3s,0.09241226022292753,0.04145869934802055,0.08259056900082791,0.04120657876724141,0.03659231588244438,0.0028337305411696434,0.05616701394319534,-0.0017344355583190918,-0.038393065333366394,-0.01486426591873169,-0.23447486296875353,1.4818396608699844,0.250506526127137,0.9687906503677368,0.232332244515419,-0.08640843629837036
1727722636113,9i,8.36670796032525,0.9s : 0.3s,0.08134099680817473,0.04150713484262952,0.069953666943937,0.039364061341838695,0.03579123690724373,0.0019704224541783333,0.06195871904492378,-0.006288707256317139,-0.03220285475254059,-0.021747589111328125,-0.23366412758018418,1.4818743205582878,0.2501984621568013,0.9689809083938599,0.231543630361557,-0.08639154583215714
1727722636123,9i,8.36670796032525,0.9s : 0.3s,0.07125327635324813,0.04158949949165943,0.057856226312347825,0.03685928862011679,0.011986039578914642,0.005137186963111162,0.059100616723299026,0.0006055831909179688,-0.020513758063316345,-0.03061741590499878,-0.23284772896088618,1.481848982901466,0.24998174329678216,0.9691666960716248,0.23074933886528015,-0.08643285930156708
1727722636133,9i,8.36670796032525,0.9s : 0.3s,0.07065305941287779,0.041694778490531256,0.05703858563310604,0.03248278453411002,0.04249920696020126,-0.004432793240994215,0.0646299347281456,0.0003319382667541504,-0.027548179030418396,-0.017208106815814972,-0.23190706619756982,1.4816360417473489,0.24984701258413972,0.9693641662597656,0.2298339605331421,-0.0866585373878479
1727722636143,9i,8.36670796032525,0.9s : 0.3s,0.07165482670450274,0.04179587371623344,0.05820239797765196,0.022245530963068923,0.08286607265472412,0.0005302736535668373,0.060698579996824265,0.010325312614440918,0.0016802102327346802,-0.019632332026958466,-0.2307703128962103,1.4812959813560913,0.24916043872449833,0.9695940017700195,0.22872748970985413,-0.08701144903898239
1727722636153,9i,8.36670796032525,0.9s : 0.3s,0.07246291056285875,0.04191581896843371,0.059109538379574236,0.04164804432373415,0.07475687563419342,-0.006933634635061026,0.06715124845504761,0.004039347171783447,0.012735992670059204,-0.039446644484996796,-0.22966457713743008,1.4808558973104722,0.24840162027807353,0.969806969165802,0.22765092551708221,-0.08746081590652466
1727722636163,9i,8.36670796032525,0.9s : 0.3s,0.08268002868009876,0.042024515428860564,0.0712034215857034,0.019108814580313892,0.12738627195358276,0.0007650312036275864,0.07787260413169861,0.010308027267456055,-0.007508963346481323,-0.014230489730834961,-0.2283293173487209,1.4805762534235147,0.2474364452464598,0.9700843691825867,0.22635051608085632,-0.08775932341814041
1727722636173,9i,8.36670796032525,0.9s : 0.3s,0.09186385360463255,0.04214555370589214,0.08162548561519939,0.020012108724648314,0.13777273893356323,-0.015100794844329357,0.0783512145280838,0.0008118152618408203,-0.008174479007720947,-0.018248379230499268,-0.22702325136276405,1.4800739316813232,0.24609609818248393,0.9703336954116821,0.22507815062999725,-0.0882733091711998
1727722636183,9i,8.36670796032525,0.9s : 0.3s,0.09295788875448834,0.042251156183227744,0.08280101981782788,0.02902864202577515,0.10544221848249435,-0.008004003204405308,0.09196928888559341,0.0138472318649292,0.005042046308517456,-0.0250098779797554,-0.22579945034919896,1.4795197948025365,0.2448379779263188,0.9705583453178406,0.22388559579849243,-0.08883604407310486
1727722636193,9i,8.36670796032525,0.9s : 0.3s,0.0924649990555156,0.04236428459904651,0.08218907129751188,0.02628319197620882,0.06394098699092865,-0.03717498481273651,0.10370799154043198,0.005127608776092529,-0.014283761382102966,-0.021458983421325684,-0.22455547502514894,1.4788902438119667,0.24405559290056758,0.9707787036895752,0.22267301380634308,-0.08947252482175827
1727722636203,9i,8.36670796032525,0.9s : 0.3s,0.0927361982065786,0.04247005649213457,0.08243965525986101,0.033832926582584716,0.07324500381946564,-0.045622531324625015,0.10615730285644531,0.010669231414794922,-0.03057025372982025,-0.00981295108795166,-0.2233090079071331,1.4780012961387312,0.24338026190848808,0.9709743857383728,0.22145767509937286,-0.0903611108660698
1727722636213,9i,8.36670796032525,0.9s : 0.3s,0.09301219115519081,0.04260062568065401,0.08268285429946501,0.036403838636024054,0.06552743166685104,-0.04502624645829201,0.11226919293403625,0.0005878210067749023,0.0006367117166519165,-0.03639352321624756,-0.22197640683483663,1.4772435805696793,0.24270676471208558,0.9711986184120178,0.22015796601772308,-0.09112429618835449
1727722636223,9i,8.36670796032525,0.9s : 0.3s,0.09276547299640786,0.042795853333990115,0.0823039969725826,0.038496194421452974,0.042838096618652344,-0.055842675268650055,0.11743705719709396,-0.02014315128326416,-0.008925333619117737,-0.03156816214323044,-0.22084489772930674,1.476478453355984,0.2422415201015796,0.9713759422302246,0.21905407309532166,-0.09189075976610184
1727722636233,9i,8.36670796032525,0.9s : 0.3s,0.09267182771722188,0.04303760081461365,0.08207211809483424,0.03580500708007583,0.0364125557243824,-0.059629470109939575,0.11943753063678741,-0.014355838298797607,-0.008982598781585693,-0.03154712915420532,-0.21979338046714555,1.4754425069016288,0.2418777216922179,0.9715090394020081,0.2180279791355133,-0.09291888773441315
1727722636243,9i,8.36670796032525,0.9s : 0.3s,0.10147070017088801,0.04331613658443994,0.09176064136964386,0.03791969788306485,0.08671647310256958,-0.059028659015893936,0.13839256763458252,-0.013530194759368896,0.005934923887252808,-0.034922972321510315,-0.21845474189711286,1.474611142031497,0.24135988717305346,0.9717211723327637,0.21672135591506958,-0.09375448524951935
1727722636253,9i,8.36670796032525,0.9s : 0.3s,0.11067183268548039,0.04361398996790305,0.10171565478844746,0.049060334737273614,0.11317430436611176,-0.0649169534444809,0.13378633558750153,-0.0077252984046936035,0.02702656388282776,-0.040209464728832245,-0.21699719073007004,1.473644716159339,0.2404262284191933,0.9719433188438416,0.21529820561408997,-0.09472405910491943
1727722636263,9i,8.36670796032525,0.9s : 0.3s,0.11745151031364696,0.043919993539812664,0.10893067264283066,0.041839424864604825,0.12760038673877716,-0.06654254347085953,0.12430521845817566,-0.005844235420227051,0.022633090615272522,-0.03470051288604736,-0.215668199940194,1.4725425121590694,0.2392716557873805,0.9721222519874573,0.21400019526481628,-0.095823273062706
1727722636273,9i,8.36670796032525,0.9s : 0.3s,0.12076834653798267,0.04422875767550201,0.1123779805833865,0.04342583919927729,0.14351411163806915,-0.06858581304550171,0.10709220916032791,-0.0004849433898925781,0.019350305199623108,-0.03887330740690231,-0.21431156828079342,1.471417830036226,0.2379757426788009,0.9723017811775208,0.2126747965812683,-0.09694524854421616
1727722636283,9i,8.36670796032525,0.9s : 0.3s,0.1279592452913028,0.04453980320735799,0.11995738570746538,0.04518667518328178,0.17329570651054382,-0.06978902965784073,0.09663610905408859,-0.0036006569862365723,0.028189271688461304,-0.03513169288635254,-0.21294897061139575,1.4703770942316927,0.2364985147994352,0.9724878668785095,0.2113431692123413,-0.09798607230186462
1727722636293,9i,8.36670796032525,0.9s : 0.3s,0.13778805485747705,0.044850800655159756,0.13028412697638275,0.0516974736976343,0.21335017681121826,-0.06334870308637619,0.08343295753002167,-0.0063016414642333984,0.039084360003471375,-0.033246517181396484,-0.21193400128561823,1.4689943575494944,0.23453086918944774,0.9725643992424011,0.21035102009773254,-0.09935242682695389
1727722636303,9i,8.36670796032525,0.9s : 0.3s,0.14723737434070902,0.04517065983705121,0.14013727517199515,0.04719636339686882,0.2149701863527298,-0.0786011591553688,0.08905089646577835,-0.00983428955078125,0.03523419797420502,-0.029821716248989105,-0.21084668069522544,1.4675679644117905,0.2323874881502423,0.9726487398147583,0.20928791165351868,-0.10076310485601425
1727722636313,9i,8.36670796032525,0.9s : 0.3s,0.15486175601626287,0.045469867604466474,0.14803599094974443,0.01931534219685063,0.21692587435245514,-0.08133538067340851,0.0914178118109703,0.0020865797996520996,0.013086065649986267,-0.01405288279056549,-0.20974669320275002,1.4660327442492864,0.2302196458036511,0.9727212190628052,0.20821215212345123,-0.10228022187948227
1727722636323,9i,8.36670796032525,0.9s : 0.3s,0.1539956841215625,0.045765951934097264,0.1470379147418582,0.024905420446678154,0.17241859436035156,-0.08506860584020615,0.0764966532588005,0.00049591064453125,0.007711365818977356,-0.02367633581161499,-0.2088144276279278,1.4644958076916974,0.22824385772705966,0.9727553725242615,0.20730023086071014,-0.10379565507173538
1727722636333,9i,8.36670796032525,0.9s : 0.3s,0.13973079804790384,0.04606959363802267,0.1319177337022265,0.02051986170718509,0.09832505136728287,-0.08611784130334854,0.07317732274532318,-0.005645573139190674,-0.013907462358474731,-0.013991951942443848,-0.2081875866034448,1.4630405754585742,0.2268905383272916,0.9727323055267334,0.20668695867061615,-0.1052250862121582
1727722636343,9i,8.36670796032525,0.9s : 0.3s,0.12311308938633005,0.04636940508975887,0.11404696861323556,0.024186991797324378,0.056014083325862885,-0.08173481374979019,0.06392204016447067,-0.0024893879890441895,-0.02289716899394989,-0.007384657859802246,-0.20767529269889093,1.4617814694281495,0.22614212685481835,0.9727041721343994,0.2061856985092163,-0.10646127909421921
1727722636353,9i,8.36670796032525,0.9s : 0.3s,0.11333153060163263,0.04664983173973266,0.10328518299912831,0.009259873786349763,0.06948474794626236,-0.0810224637389183,0.05502065271139145,0.0019292235374450684,-0.0037695467472076416,-0.008234918117523193,-0.20721456644577366,1.460532824422636,0.2255441153667916,0.9726648330688477,0.20573484897613525,-0.10768619924783707
1727722636363,9i,8.36670796032525,0.9s : 0.3s,0.1127082188193462,0.04692964582371814,0.10247317176846826,0.0257043363080801,0.11320266872644424,-0.07349424064159393,0.048322536051273346,-0.010961294174194336,0.02085605263710022,-0.010275602340698242,-0.20687369807052255,1.4592973602967718,0.22463275257662774,0.9726006388664246,0.20540127158164978,-0.10889560729265213
1727722636373,9i,8.36670796032525,0.9s : 0.3s,0.11596083021591708,0.04722204691082604,0.1059103037004261,0.03427945107629944,0.1559731811285019,-0.07290394604206085,0.05977622792124748,-0.018986284732818604,0.0265578031539917,-0.010453939437866211,-0.20647349083710914,1.4579840011988092,0.22323919554048977,0.9725384712219238,0.2050095796585083,-0.11018213629722595
1727722636383,9i,8.36670796032525,0.9s : 0.3s,0.12305164079087443,0.04753779352722813,0.11349830169605629,0.03473770290735813,0.17644409835338593,-0.08010753244161606,0.047516364604234695,-0.0214155912399292,0.022530704736709595,-0.015506379306316376,-0.20616044553395743,1.4566125121618232,0.22159458042115276,0.9724500179290771,0.2047031670808792,-0.11152315139770508
1727722636393,9i,8.36670796032525,0.9s : 0.3s,0.12337855242312899,0.047858570371242526,0.11371817990122607,0.0339534894283711,0.15705546736717224,-0.07761827856302261,0.02510133758187294,-0.011316537857055664,0.02593483030796051,-0.018765926361083984,-0.20578484852322274,1.4554073485282022,0.21989498407480051,0.9723913073539734,0.2043355107307434,-0.11270388960838318
1727722636403,9i,8.36670796032525,0.9s : 0.3s,0.12294328400790262,0.04818288566327307,0.11310818101184263,0.02004146264858104,0.1400730311870575,-0.08316457271575928,0.02052762545645237,-0.01974046230316162,0.0018406957387924194,0.0029302239418029785,-0.20544243887959854,1.4541307731094326,0.2183967481265291,0.9723160862922668,0.2040003091096878,-0.11395326256752014
1727722636413,9i,8.36670796032525,0.9s : 0.3s,0.12328135330301593,0.04846788642458135,0.1133541179567682,0.005516143571326152,0.15344609320163727,-0.08301553130149841,0.020939016714692116,0.0017240047454833984,0.0035728365182876587,0.0038328170776367188,-0.20496685443890728,1.4529316373290087,0.21692593353870654,0.9722749590873718,0.20353470742702484,-0.11513051390647888
1727722636423,9i,8.36670796032525,0.9s : 0.3s,0.12292921780589348,0.04871996331843552,0.11286256139490676,0.016234040159346035,0.1416863650083542,-0.08650533854961395,0.009862929582595825,0.0007370114326477051,0.016213446855545044,-0.0003535747528076172,-0.20447725906319145,1.4517723302189762,0.2154311774501762,0.97223961353302,0.20305533707141876,-0.11626940965652466
1727722636433,9i,8.36670796032525,0.9s : 0.3s,0.11841537578641177,0.048955524032841535,0.10782188038291204,0.008617609872206574,0.10618098080158234,-0.08693086355924606,0.004554283805191517,-0.006870448589324951,0.0034862756729125977,0.0038608312606811523,-0.20424487523065993,1.4506606856204989,0.2141683921737571,0.9721566438674927,0.20282778143882751,-0.11735578626394272
1727722636443,9i,8.36670796032525,0.9s : 0.3s,0.10844203023323119,0.049148381135215816,0.09666493962597086,0.010091519220673193,0.07494982331991196,-0.08433934301137924,-0.007701849564909935,0.005376756191253662,0.0035643279552459717,0.007760465145111084,-0.20435217481404985,1.4495973890250564,0.21326153622910016,0.9720096588134766,0.20293284952640533,-0.11838677525520325
1727722636453,9i,8.36670796032525,0.9s : 0.3s,0.10019216893557767,0.04932027307229175,0.08721227769121678,0.006029215844154509,0.06050923466682434,-0.08384235203266144,-0.01577991619706154,-0.0017089247703552246,-0.002162650227546692,0.005362272262573242,-0.20463767020515738,1.4485880296304021,0.21255774173061365,0.9718320965766907,0.2032124102115631,-0.11936075240373611
1727722636463,9i,8.36670796032525,0.9s : 0.3s,0.09180033840107443,0.04946734353631027,0.07733229631927688,0.0068472942192542565,0.036096565425395966,-0.08080155402421951,-0.01868382841348648,8.404254913330078e-05,0.0032864511013031006,0.00600646436214447,-0.20497882326739522,1.4475708766849642,0.21201303418506465,0.9716414213180542,0.2035464197397232,-0.12034067511558533
1727722636473,9i,8.36670796032525,0.9s : 0.3s,0.08610868774801735,0.049592484537846426,0.07039383199577229,0.013302833220019726,0.005630271974951029,-0.08191511034965515,-0.020571008324623108,-0.002098381519317627,-0.006913051009178162,0.01117013394832611,-0.20537525438153484,1.446596208224109,0.21174064604109738,0.9714435338973999,0.20393453538417816,-0.12127763777971268
1727722636483,9i,8.36670796032525,0.9s : 0.3s,0.08406344378677975,0.04969379750697922,0.06780257421830256,0.017744089581367358,-0.006049553398042917,-0.08675859868526459,-0.019485505297780037,-0.0015126466751098633,-0.010537013411521912,0.014196336269378662,-0.20563237771462867,1.4458460969520337,0.21175236857807195,0.9713001847267151,0.20418626070022583,-0.12199975550174713
1727722636493,9i,8.36670796032525,0.9s : 0.3s,0.0829027379331815,0.04978598523078932,0.06628891032003315,0.007051435180821398,0.006901532411575317,-0.08879454433917999,-0.021906552836298943,-0.004165291786193848,-0.00013819336891174316,0.0056880563497543335,-0.20585852307729471,1.4450796789147062,0.21176184894949407,0.9711605906486511,0.20440763235092163,-0.12273834645748138
1727722636503,9i,8.36670796032525,0.9s : 0.3s,0.081706023021062,0.04988322714555047,0.06471118796208063,0.008815766023048404,0.011946357786655426,-0.07964631915092468,-0.02074381522834301,-0.0056414008140563965,0.005354955792427063,-0.004149310290813446,-0.20620142038545217,1.4442488482578837,0.2116262873181682,0.9709885716438293,0.20474328100681305,-0.12353631108999252
1727722636513,9i,8.36670796032525,0.9s : 0.3s,0.08116960900480333,0.04998156084627736,0.06395583633541604,0.011737865409332617,0.026458589360117912,-0.0811755508184433,-0.023958882316946983,-0.009594440460205078,0.004666522145271301,0.004893645644187927,-0.20642154137557261,1.4435099836366427,0.21147711694427168,0.9708523750305176,0.2049587368965149,-0.12424799054861069
1727722636523,9i,8.36670796032525,0.9s : 0.3s,0.08166921767336537,0.050072680236680094,0.06451812000744227,0.021961754228655875,0.07834762334823608,-0.0720965713262558,-0.023666733875870705,-0.007972955703735352,0.01952435076236725,0.006127834320068359,-0.20659730393616074,1.4427840675489645,0.21093916598350446,0.9707261919975281,0.20513075590133667,-0.12494811415672302
1727722636533,9i,8.36670796032525,0.9s : 0.3s,0.08287333237076712,0.050141791127162536,0.06598325545769655,0.03691641190659569,0.0961613655090332,-0.06836099922657013,-0.022287782281637192,-0.004683017730712891,0.03657618165016174,0.0017532110214233398,-0.20669853239707328,1.4420220108724127,0.21003054652244935,0.9706100821495056,0.20522983372211456,-0.12568515539169312
1727722636543,9i,8.36670796032525,0.9s : 0.3s,0.08902362292828823,0.050199973411052756,0.07351984840033093,0.02098537788109999,0.12507158517837524,-0.06983665376901627,-0.018440047279000282,-0.008423268795013428,0.011987417936325073,0.015024527907371521,-0.20678349268380497,1.4412060587129036,0.20891282909042955,0.9704899787902832,0.20531298220157623,-0.12647484242916107
1727722636553,9i,8.36670796032525,0.9s : 0.3s,0.09254211143386516,0.050251531204672004,0.07770988354272443,0.016441878956115236,0.12523908913135529,-0.06593334674835205,-0.011708242818713188,-0.0012009143829345703,0.016383767127990723,0.0006821751594543457,-0.2067036833880199,1.4404368790742623,0.20763979195217755,0.9704086184501648,0.20523487031459808,-0.127223402261734
1727722636563,9i,8.36670796032525,0.9s : 0.3s,0.10289594483660353,0.05029345270079483,0.08976716593081385,0.01739984569777818,0.16911680996418,-0.06649287790060043,-0.00636168010532856,-0.007055938243865967,0.00579698383808136,0.014810919761657715,-0.20654487232474175,1.4396716803294103,0.20624045165385024,0.9703431725502014,0.20507943630218506,-0.12797017395496368
1727722636573,9i,8.36670796032525,0.9s : 0.3s,0.12095385718312716,0.05033779205297122,0.10998155417481675,0.02286099119598952,0.23519954085350037,-0.058092691004276276,0.0073032984510064125,-0.007645964622497559,0.021139904856681824,0.004155546426773071,-0.20627184532018286,1.4387249000617885,0.20418776855581425,0.970276951789856,0.2048122137784958,-0.12889617681503296
1727722636583,9i,8.36670796032525,0.9s : 0.3s,0.13733296510371104,0.05039252441414526,0.127753421822458,0.03152474705458881,0.25106215476989746,-0.05137726292014122,0.010912414640188217,-0.008302927017211914,0.030303627252578735,-0.0025614947080612183,-0.20590469233823755,1.4376846587207257,0.20172146933843005,0.9702168703079224,0.20445282757282257,-0.12991540133953094
1727722636593,9i,8.36670796032525,0.9s : 0.3s,0.1507172547571892,0.05046309468142769,0.14201819234420895,0.011904178132561342,0.2565464973449707,-0.055036138743162155,0.015564057976007462,-0.01169353723526001,0.0006638169288635254,0.0021283775568008423,-0.20549118534474162,1.436715578451599,0.19916719217642737,0.970174252986908,0.2040480375289917,-0.1308668553829193
1727722636603,9i,8.36670796032525,0.9s : 0.3s,0.15170118461618223,0.05054043780255414,0.14303465859951273,0.015469754197303592,0.2215571105480194,-0.048714857548475266,0.0223548524081707,-0.004365026950836182,-0.014775469899177551,-0.0013947486877441406,-0.20516127573234402,1.4358266413350933,0.1967954984445993,0.9701241850852966,0.20372505486011505,-0.13173829019069672
1727722636613,9i,8.36670796032525,0.9s : 0.3s,0.15181993152323192,0.05062315446485228,0.14313136567414753,0.033941723395320304,0.2085994929075241,-0.04813748225569725,0.027449414134025574,-0.009396851062774658,-0.03126738965511322,0.009278476238250732,-0.20492457201902417,1.434976433252304,0.19468761316224606,0.9700596332550049,0.20349331200122833,-0.1325695812702179
1727722636623,9i,8.36670796032525,0.9s : 0.3s,0.15127478900370517,0.05070353319400985,0.1425244312732363,0.01957802471006127,0.19898654520511627,-0.04310810565948486,0.02778284065425396,-0.0029374361038208008,-0.01919861137866974,0.002466544508934021,-0.20450479786886627,1.4343029912629917,0.1926832848969594,0.9700548052787781,0.20308230817317963,-0.13323445618152618
1727722636633,9i,8.36670796032525,0.9s : 0.3s,0.15034000145480456,0.05078015232864611,0.14150438921429306,0.012690775753452942,0.19154594838619232,-0.04195034131407738,0.03096884675323963,-0.0039917826652526855,-0.011203303933143616,0.0044280290603637695,-0.20408433796001726,1.4335670370640878,0.19076832222459558,0.9700409173965454,0.20267058908939362,-0.13395999372005463
1727722636643,9i,8.36670796032525,0.9s : 0.3s,0.1455126440966971,0.05085936555012866,0.13633508179427048,0.007522101026932867,0.17014585435390472,-0.042124513536691666,0.03149961307644844,-0.002924501895904541,-0.006243526935577393,-0.003007933497428894,-0.20361617241316388,1.4329877809336653,0.18899614090797118,0.9700568914413452,0.2022121101617813,-0.13453486561775208
1727722636653,9i,8.36670796032525,0.9s : 0.3s,0.13735462618550728,0.050937197153360085,0.12756055534811758,0.016465464108182278,0.15028119087219238,-0.048891473561525345,0.02578863315284252,-0.001139521598815918,-0.016352549195289612,-0.0015514940023422241,-0.20331245707252646,1.432313041209865,0.18745195578213694,0.9700267314910889,0.20191466808319092,-0.13519784808158875
1727722636663,9i,8.36670796032525,0.9s : 0.3s,0.1317297723936873,0.05101704013617532,0.12144955558023479,0.013480162701598302,0.1443825662136078,-0.046781182289123535,0.030250225216150284,-0.006444096565246582,-0.011261075735092163,0.003657400608062744,-0.20306827740781655,1.4315749005910714,0.18602377565876652,0.9699755311012268,0.20167550444602966,-0.1359206736087799
1727722636673,9i,8.36670796032525,0.9s : 0.3s,0.13053047758693162,0.051106529781977085,0.12010965070599593,0.01161182462221159,0.1512196958065033,-0.047781020402908325,0.02962358482182026,-0.011122643947601318,-0.0005238503217697144,0.003293454647064209,-0.20262155235318863,1.4308775949667798,0.18459491863248456,0.969969630241394,0.20123794674873352,-0.13660956919193268
1727722636683,9i,8.36670796032525,0.9s : 0.3s,0.12967755387328336,0.051222090836060545,0.11913255385888724,0.016936167033961055,0.1556946039199829,-0.043093856424093246,0.032653193920850754,-0.016255617141723633,0.003030449151992798,-0.0036612898111343384,-0.20201514514116148,1.4301523899150272,0.1830880673953266,0.9699910283088684,0.2006438970565796,-0.1373300403356552
1727722636693,9i,8.36670796032525,0.9s : 0.3s,0.12916778937159443,0.051359622218770225,0.11851796073460674,0.01801965718990069,0.16047696769237518,-0.04222162812948227,0.02953859604895115,-0.017749786376953125,0.003105267882347107,0.00010217726230621338,-0.20128460136267276,1.4295342724826987,0.18156089696201572,0.9700506925582886,0.1999281644821167,-0.13795016705989838
1727722636703,9i,8.36670796032525,0.9s : 0.3s,0.12968664529943785,0.051522682562584035,0.11901276885518378,0.02134228056711637,0.17802347242832184,-0.03842582553625107,0.028796106576919556,-0.021107852458953857,0.003062501549720764,0.0007566958665847778,-0.20064305602866192,1.428846741370986,0.1798936068774544,0.9700822830200195,0.19929952919483185,-0.13863518834114075
1727722636713,9i,8.36670796032525,0.9s : 0.3s,0.12982066209164325,0.051717664509030176,0.11907429396659894,0.023765235106083214,0.17182670533657074,-0.03874243050813675,0.029027435928583145,-0.023373007774353027,0.002937406301498413,-0.0031401515007019043,-0.2000700639393206,1.428193112466369,0.17817076445600036,0.9701045155525208,0.1987379938364029,-0.13928546011447906
1727722636723,9i,8.36670796032525,0.9s : 0.3s,0.12741190892095638,0.05191838555592857,0.11635409651640131,0.02012349438887062,0.14283525943756104,-0.03812404349446297,0.03484591096639633,-0.017346084117889404,-0.006119683384895325,0.008161976933479309,-0.19950280155413866,1.4275066198362902,0.1766113227479789,0.9701199531555176,0.19818201661109924,-0.13996745645999908
1727722636733,9i,8.36670796032525,0.9s : 0.3s,0.12032536843408109,0.052084201062613744,0.10846856820510993,0.022902348880857855,0.1213841661810875,-0.04285421967506409,0.03801743686199188,-0.0036033987998962402,-0.00891353189945221,0.020786583423614502,-0.19886612723651412,1.4268745851200622,0.1753561221103756,0.9701560735702515,0.19755792617797852,-0.14059865474700928
1727722636743,9i,8.36670796032525,0.9s : 0.3s,0.1152921809129148,0.052193417721466615,0.1028014305649915,0.026921435905397813,0.11343622952699661,-0.04221532866358757,0.040500566363334656,0.008404791355133057,-0.010810092091560364,0.023178979754447937,-0.19827925231102136,1.426281638825415,0.17423758406967854,0.9701871871948242,0.19698259234428406,-0.1411905586719513
1727722636753,9i,8.36670796032525,0.9s : 0.3s,0.10941194988344233,0.05225171213357857,0.09612873325081599,0.024109247926212097,0.0968501940369606,-0.04576793685555458,0.0481228344142437,0.01015859842300415,-0.008601576089859009,0.020101532340049744,-0.19769196344898599,1.4256961939321795,0.17325808420427566,0.9702186584472656,0.1964067667722702,-0.1417752355337143
1727722636763,9i,8.36670796032525,0.9s : 0.3s,0.10394067824693398,0.05226739350092875,0.08984310864530304,0.023475754681221265,0.08835524320602417,-0.04455486685037613,0.043168555945158005,0.013605594635009766,-0.014685705304145813,0.012260869145393372,-0.19722084648106616,1.4250628024395275,0.17238724113084072,0.9702199697494507,0.19594481587409973,-0.14240314066410065
1727722636773,9i,8.36670796032525,0.9s : 0.3s,0.10027490960197098,0.05225392399806159,0.0855837889000496,0.018714646288262544,0.08475345373153687,-0.051632530987262726,0.030352259054780006,0.01399928331375122,-0.012072011828422546,0.0029196888208389282,-0.1967650984321525,1.424465721188635,0.1716162039264636,0.9702230095863342,0.19549788534641266,-0.1429954171180725
1727722636783,9i,8.36670796032525,0.9s : 0.3s,0.10019867103644822,0.05221360866912879,0.08551907826454543,0.021175096074397447,0.11054989695549011,-0.04953688755631447,0.036894313991069794,0.012234508991241455,-0.01574811339378357,0.007120281457901001,-0.19637486169774526,1.4237963168296224,0.17068111405877023,0.9702023863792419,0.19511514902114868,-0.14365601539611816
1727722636793,9i,8.36670796032525,0.9s : 0.3s,0.10001662328221414,0.052141895125938156,0.0853495618351495,0.016862240208223557,0.10812894999980927,-0.05322052910923958,0.0338149331510067,0.014323711395263672,-0.0035316646099090576,0.00816662609577179,-0.1959762940009462,1.423059856725317,0.16961045997486476,0.970173180103302,0.19472423195838928,-0.14438192546367645
1727722636803,9i,8.36670796032525,0.9s : 0.3s,0.09997083037193515,0.05205109095583924,0.08535133774910139,0.01872976174979381,0.10883655399084091,-0.05866003409028053,0.03232569247484207,0.007043600082397461,-0.0104026198387146,0.013891622424125671,-0.19546758751815566,1.4223955555913108,0.1685875045649608,0.9701750874519348,0.1942252367734909,-0.14504103362560272
1727722636813,9i,8.36670796032525,0.9s : 0.3s,0.10049926549408038,0.05195327689576721,0.0860288287996611,0.01573913281873563,0.11829064041376114,-0.05564085394144058,0.04226404428482056,0.00224149227142334,-0.008553490042686462,0.013020515441894531,-0.19490473205160228,1.4218317496954107,0.16752236959309863,0.9702010750770569,0.19367307424545288,-0.1456041932106018
1727722636823,9i,8.36670796032525,0.9s : 0.3s,0.1069905177850743,0.051844365352341285,0.09359023815084166,0.01960407119795784,0.14981527626514435,-0.06331049650907516,0.03879128396511078,0.00018417835235595703,0.0018508732318878174,0.019515633583068848,-0.19425370866238503,1.4212743992278098,0.16632274905302463,0.9702442288398743,0.1930343359708786,-0.146163672208786
1727722636833,9i,8.36670796032525,0.9s : 0.3s,0.12382409921377745,0.0517240326236541,0.11250347548076267,0.018906394046630044,0.21992431581020355,-0.0674220621585846,0.045772161334753036,0.0020652413368225098,0.009718969464302063,0.016085028648376465,-0.1934350974341619,1.4204939346367524,0.1645787975813448,0.9702857732772827,0.19223105907440186,-0.14694447815418243
1727722636843,9i,8.36670796032525,0.9s : 0.3s,0.14805334173695914,0.051607180869241584,0.13876775879940625,0.026362766852879284,0.28744080662727356,-0.063853420317173,0.05703680217266083,-0.0024756789207458496,0.024792462587356567,0.008613958954811096,-0.1924734203732928,1.4195258194710512,0.16212781963414294,0.9703252911567688,0.19128721952438354,-0.14791153371334076
1727722636853,9i,8.36670796032525,0.9s : 0.3s,0.1797697432584312,0.051508433727822656,0.17223252261436797,0.02872624964911923,0.36578434705734253,-0.06387189030647278,0.053869303315877914,-0.009545087814331055,0.026097655296325684,0.00728018581867218,-0.19137696361682724,1.4183697916851907,0.15895308951346435,0.9703603386878967,0.19021089375019073,-0.14906491339206696
1727722636863,9i,8.36670796032525,0.9s : 0.3s,0.2231892584601102,0.05141180593632668,0.21718718033608558,0.02654069704859169,0.4759390652179718,-0.057999081909656525,0.05484401807188988,-0.002402782440185547,0.02527153491973877,0.007744982838630676,-0.19012033956444824,1.4170948051288952,0.1548158034008151,0.9704049825668335,0.18897706270217896,-0.15033845603466034
1727722636873,9i,8.36670796032525,0.9s : 0.3s,0.2692872725354421,0.05133746793672224,0.2643484434140354,0.03549992844825042,0.5539042949676514,-0.05512752756476402,0.05729389190673828,-0.008894920349121094,0.03379257023334503,0.006259992718696594,-0.18879293862583138,1.415708597581368,0.14974288740463773,0.9704425930976868,0.187673419713974,-0.15172210335731506
1727722636883,9i,8.36670796032525,0.9s : 0.3s,0.3216293477118673,0.05127518907515918,0.31751581424374425,0.030664194096174543,0.6539384722709656,-0.05221908912062645,0.06441891938447952,-0.011327981948852539,0.02477926015853882,0.014069750905036926,-0.18721949205977853,1.4142490568642867,0.14382642226526782,0.9705105423927307,0.1861276924610138,-0.1531841903924942
1727722636893,9i,8.36670796032525,0.9s : 0.3s,0.3916939933385781,0.05121364259739164,0.3883314914212195,0.02476127355130486,0.8222002387046814,-0.05669914931058884,0.056650541722774506,-0.0009624958038330078,0.024282798171043396,0.004747629165649414,-0.185473210450312,1.4125394186252063,0.13662721682133827,0.9705669283866882,0.1844116449356079,-0.15489420294761658
1727722636903,9i,8.36670796032525,0.9s : 0.3s,0.4838709562247485,0.051151292172173256,0.481159690318058,0.045330041108308045,1.0391303300857544,-0.04159742593765259,0.0538017600774765,0.0029923319816589355,0.04487890005111694,-0.005634084343910217,-0.18342762353570902,1.410342824306297,0.12734749031134335,0.9705947637557983,0.18240076303482056,-0.15708571672439575
1727722636913,9i,8.36670796032525,0.9s : 0.3s,0.5875467561943465,0.051146294074756286,0.5853163651538521,0.07937844280516282,1.2334951162338257,-0.04491923376917839,0.04963088035583496,-0.003916263580322266,0.07799968123435974,-0.014200344681739807,-0.18109089239494214,1.4078725290168908,0.1160197457498963,0.970621645450592,0.18010273575782776,-0.15955159068107605
1727722636923,9i,8.36670796032525,0.9s : 0.3s,0.7031122270377931,0.05116816577430522,0.7012479038266982,0.08410352827008166,1.4478180408477783,-0.03954790160059929,0.040029652416706085,0.001260995864868164,0.08278602361679077,-0.014774560928344727,-0.17844385250279762,1.4050382060049784,0.10267054576512058,0.9706322550773621,0.17749835550785065,-0.16238008439540863
1727722636933,9i,8.36670796032525,0.9s : 0.3s,0.8215728671220397,0.05125424627731059,0.8199725472414753,0.12093157749429338,1.6353003978729248,-0.03234618529677391,0.015149536542594433,0.006291389465332031,0.11638593673706055,-0.03223629295825958,-0.17559165956583034,1.4019546546987343,0.0872557181729829,0.9706220626831055,0.17469072341918945,-0.16545671224594116
1727722636943,9i,8.36670796032525,0.9s : 0.3s,0.945809368017453,0.05148918922575702,0.9444068106607703,0.13876304237699436,1.841048002243042,-0.023649364709854126,-0.024162981659173965,-0.0031321048736572266,0.13504019379615784,-0.0317729115486145,-0.17267077636958644,1.3986573183168587,0.0698561521833587,0.9705697894096375,0.17181402444839478,-0.16874293982982635
1727722636953,9i,8.36670796032525,0.9s : 0.3s,1.0551351279701442,0.05193033761731582,1.0538564315463108,0.15420395991684932,1.9517532587051392,0.004000239074230194,-0.03893723338842392,-0.008297860622406006,0.15044628083705902,-0.032801270484924316,-0.16970300736306201,1.395247592004128,0.050665781518078025,0.9704865217208862,0.1688896268606186,-0.17213962972164154
1727722636963,9i,8.36670796032525,0.9s : 0.3s,1.1279955122135201,0.052543525137449316,1.1267710741494794,0.14472077587674087,1.9318525791168213,-0.00905617419630289,-0.0983172059059143,-0.009943127632141113,0.14258673787117004,-0.022677287459373474,-0.16690284455328297,1.3919603143287527,0.031175012165361518,0.9703769683837891,0.16612903773784637,-0.1754123717546463
1727722636973,9i,8.36670796032525,0.9s : 0.3s,1.1864289075209253,0.05330778112337548,1.1852307087959704,0.13094364235015513,1.9667389392852783,-0.009233451448380947,-0.1299048215150833,-0.024085164070129395,0.1285199671983719,-0.006982862949371338,-0.16456491221138037,1.3885946802794031,0.011473206608822738,0.9701605439186096,0.16382314264774323,-0.17874722182750702
1727722636983,9i,8.36670796032525,0.9s : 0.3s,1.2248596301565717,0.05444318362502122,1.2236490727917324,0.21026485763763025,1.9510465860366821,-0.024828124791383743,-0.17610827088356018,-0.021934866905212402,0.20724208652973175,-0.027944400906562805,-0.1624751004664899,1.3852254435318219,-0.008815994216405077,0.9698871374130249,0.16176120936870575,-0.18207767605781555
1727722636993,9i,8.36670796032525,0.9s : 0.3s,1.2451923326422614,0.05602977691566334,1.2439311111833553,0.2154074555951911,1.915096640586853,-0.0005424476694315672,-0.2078019231557846,-0.04079025983810425,0.2106967568397522,-0.01853114366531372,-0.16073729040571483,1.3819604528679528,-0.02903829587521526,0.9695621728897095,0.1600460410118103,-0.18529586493968964
1727722637003,9i,8.36670796032525,0.9s : 0.3s,1.2483220042639376,0.05807422889664444,1.2469704127474694,0.23450218293876599,1.8638055324554443,-0.006093274336308241,-0.261101633310318,-0.05449783802032471,0.2280523031949997,0.0036614835262298584,-0.15946346888560892,1.3787981422379008,-0.04880249084534672,0.9691707491874695,0.1587885022163391,-0.18839974701404572
1727722637013,9i,8.36670796032525,0.9s : 0.3s,1.2294481721565924,0.06056343058812227,1.227955568778685,0.25971885740611445,1.7414863109588623,0.010331949219107628,-0.3141731917858124,-0.05763334035873413,0.2522127628326416,0.022825539112091064,-0.1587157680646663,1.375893611712009,-0.06786551302170507,0.9687355160713196,0.15805025398731232,-0.19123685359954834
1727722637023,9i,8.36670796032525,0.9s : 0.3s,1.218315989776421,0.06344104404600308,1.2166630942357268,0.2883745231306201,1.736275553703308,-0.002385710133239627,-0.40331849455833435,-0.07278317213058472,0.2673821449279785,0.07980766892433167,-0.15892995560550036,1.3731234762822964,-0.08618514116593753,0.9681687355041504,0.1582617312669754,-0.19391296803951263
1727722637033,9i,8.36670796032525,0.9s : 0.3s,1.2479743461626167,0.06743423889435991,1.2461511112640993,0.40328858597634254,1.9068043231964111,-0.0111604705452919,-0.4805118143558502,-0.10883069038391113,0.38638341426849365,0.03879976272583008,-0.15965833146676556,1.3700647524980178,-0.10570853143061926,0.9674579501152039,0.15898089110851288,-0.19685038924217224
1727722637043,9i,8.36670796032525,0.9s : 0.3s,1.2876226566893627,0.0731095485918875,1.2855454484087532,0.5166358579646828,1.9789546728134155,0.0025390959344804287,-0.5730957984924316,-0.12516510486602783,0.4996200501918793,-0.04032507538795471,-0.1609246583834939,1.3667174778954714,-0.12673350532653976,0.9665955901145935,0.16023097932338715,-0.20004665851593018
1727722637053,9i,8.36670796032525,0.9s : 0.3s,1.323618330420085,0.08027560500682801,1.321181786078222,0.5108550030885745,1.9952174425125122,0.03967168554663658,-0.6577326655387878,-0.1774919629096985,0.47780537605285645,-0.03422659635543823,-0.16283633258591285,1.3634671454134795,-0.1482914362106774,0.9656388759613037,0.16211766004562378,-0.20312394201755524
1727722637063,9i,8.36670796032525,0.9s : 0.3s,1.3354491672854736,0.08876698859326329,1.3324957411337375,0.5314808218967629,1.8887556791305542,0.08029580861330032,-0.7654827833175659,-0.2331882119178772,0.4771542549133301,-0.02046799659729004,-0.16573907676447913,1.3607457557738527,-0.1696384617765987,0.9646182060241699,0.16498132050037384,-0.20565208792686462
1727722637073,9i,8.36670796032525,0.9s : 0.3s,1.3551852480990665,0.09846594586924771,1.3516033124291322,0.59092304282501,1.8937643766403198,0.06904616951942444,-0.9008042216300964,-0.267195463180542,0.5252491235733032,0.04370337724685669,-0.1699804808806667,1.3580979432738356,-0.19050800172421203,0.9633776545524597,0.16916310787200928,-0.20805589854717255
1727722637083,9i,8.36670796032525,0.9s : 0.3s,1.4163456550686129,0.10974335060616139,1.4120876076325686,0.7173630044562991,2.0879714488983154,0.06871114671230316,-1.0213927030563354,-0.2428227663040161,0.6745744347572327,0.02441549301147461,-0.17513533863911765,1.3550659803950116,-0.21288628926047218,0.9618778824806213,0.17424140870571136,-0.21078640222549438
1727722637093,9i,8.36670796032525,0.9s : 0.3s,1.5107825322161565,0.12289611202061378,1.5057756822646853,0.8310565004986931,2.2941970825195312,0.08197227120399475,-1.1718469858169556,-0.23333334922790527,0.7971876859664917,-0.026499971747398376,-0.18114196929265988,1.3514892403428684,-0.2377536573417183,0.9600788354873657,0.1801529824733734,-0.2139938622713089
1727722637103,9i,8.36670796032525,0.9s : 0.3s,1.6126750141342876,0.13757189628125147,1.6067964010933697,0.8392826650164156,2.409266948699951,0.08314059674739838,-1.3312866687774658,-0.27166229486465454,0.7937800884246826,-0.02254241704940796,-0.1881787485949572,1.347496447270942,-0.26450639557969213,0.9579567909240723,0.1870701014995575,-0.21753941476345062
1727722637113,9i,8.36670796032525,0.9s : 0.3s,1.7113081557822194,0.15322287444274688,1.7044349077609984,0.8161574027566852,2.4855284690856934,0.07010123133659363,-1.4674845933914185,-0.2890765070915222,0.7632466554641724,-0.0014906525611877441,-0.19634063841769156,1.3430385535591207,-0.29245589621533447,0.9554582834243774,0.19508159160614014,-0.22145558893680573
1727722637123,9i,8.36670796032525,0.9s : 0.3s,1.8065241347868635,0.16954681929087345,1.7985503400338212,0.8120635881325483,2.5492031574249268,0.03086753934621811,-1.6110260486602783,-0.2863731384277344,0.7598786354064941,-0.004707038402557373,-0.2055862280882061,1.337826972346142,-0.3210516242836437,0.9524954557418823,0.20414108037948608,-0.2260059267282486
1727722637133,9i,8.36670796032525,0.9s : 0.3s,1.906608522442516,0.18629273811726024,1.8974854607019283,0.8069360859179543,2.6549367904663086,0.020886855199933052,-1.7469189167022705,-0.26402896642684937,0.7624914050102234,-0.006434977054595947,-0.2158656806990628,1.3317973171772903,-0.351336771611688,0.9490264058113098,0.21419309079647064,-0.23123601078987122
1727722637143,9i,8.36670796032525,0.9s : 0.3s,1.9810900011734949,0.20338570266124129,1.9706221983684726,0.8161354805697275,2.5675125122070312,0.001992526464164257,-1.9173380136489868,-0.245097815990448,0.7782699465751648,-0.017322629690170288,-0.2273141410767419,1.3252392530939887,-0.38221770707320696,0.9450488090515137,0.22536157071590424,-0.236843079328537
1727722637153,9i,8.36670796032525,0.9s : 0.3s,2.037783166509216,0.22044644004020725,2.025824178151185,0.760487182696483,2.4678444862365723,-0.023547232151031494,-2.085479497909546,-0.24576985836029053,0.7177579998970032,0.052548885345458984,-0.24054874265470558,1.318106522543078,-0.4127049332677854,0.9403651356697083,0.23823560774326324,-0.24281081557273865
1727722637163,9i,8.36670796032525,0.9s : 0.3s,2.097838016661122,0.2375465498469405,2.0843454562054933,0.7910165600467216,2.4402389526367188,-0.07606956362724304,-2.267777919769287,-0.2107728123664856,0.7596502304077148,0.0649118423461914,-0.25538487322188785,1.3101845876369638,-0.4430600315042801,0.9348938465118408,0.25261780619621277,-0.24931438267230988
1727722637173,9i,8.36670796032525,0.9s : 0.3s,2.1680334233453227,0.2549005869111303,2.1529966594341947,0.8444902943305934,2.4702255725860596,-0.11871130019426346,-2.427783250808716,-0.1647966504096985,0.8255150318145752,0.0673116147518158,-0.2716394606562666,1.3011776170741762,-0.47419393567849016,0.9285294413566589,0.26831114292144775,-0.25659695267677307
1727722637183,9i,8.36670796032525,0.9s : 0.3s,2.2456969879617326,0.2726105282930851,2.229089155149287,0.8757217361575719,2.510955572128296,-0.15417075157165527,-2.575742721557617,-0.13325107097625732,0.8634238243103027,0.0602661669254303,-0.28897287541988054,1.2909402488931256,-0.5064907782870685,0.9212453365325928,0.284967839717865,-0.2647645175457001
1727722637193,9i,8.36670796032525,0.9s : 0.3s,2.316336249975595,0.2904193930685704,2.2980579190004518,0.8546951515022002,2.4733636379241943,-0.18352527916431427,-2.7169413566589355,-0.1014711856842041,0.8467959761619568,0.05607116222381592,-0.30734222731061567,1.2795821048447396,-0.5395443131404865,0.9130098223686218,0.30252647399902344,-0.2736615538597107
1727722637203,9i,8.36670796032525,0.9s : 0.3s,2.385838944282026,0.3082160368209167,2.3658466439520507,0.8163677748560666,2.4353761672973633,-0.23212210834026337,-2.8775296211242676,-0.07215726375579834,0.8101938366889954,0.06953862309455872,-0.326883091392476,1.2671241308153023,-0.5730091582910317,0.9037153124809265,0.32109272480010986,-0.2831922471523285
1727722637213,9i,8.36670796032525,0.9s : 0.3s,2.4584219082781695,0.3259719511806377,2.436715117970413,0.812854443248623,2.4342658519744873,-0.284506231546402,-3.0223560333251953,-0.03455615043640137,0.8098099231719971,0.06120544672012329,-0.3475506616548545,1.2532857737659322,-0.6072181881587786,0.8932139277458191,0.34059593081474304,-0.29353585839271545
1727722637223,9i,8.36670796032525,0.9s : 0.3s,2.5373479187553296,0.34368781153752986,2.5139636331921245,0.8468844798356413,2.461163282394409,-0.3441847264766693,-3.1671409606933594,0.03318953514099121,0.8457046747207642,0.029922902584075928,-0.3690684249210945,1.2377245721862515,-0.642693483796029,0.8814069628715515,0.36074674129486084,-0.3049321174621582
1727722637233,9i,8.36670796032525,0.9s : 0.3s,2.6136124304701047,0.36132619621297407,2.588515658951692,0.8449500838303099,2.4375734329223633,-0.3890855014324188,-3.307720422744751,0.10271722078323364,0.8384854793548584,0.01821860671043396,-0.3913528251911094,1.2204648814517114,-0.6793877561975942,0.8682451844215393,0.38143929839134216,-0.31726038455963135
1727722637243,9i,8.36670796032525,0.9s : 0.3s,2.6814116150009353,0.3788305569309322,2.6545160873871767,0.834795909692596,2.3380653858184814,-0.43761467933654785,-3.461239814758301,0.16003602743148804,0.8184452056884766,0.03768455982208252,-0.4146485257122223,1.2017053155874569,-0.7166624674780135,0.8536205291748047,0.40286827087402344,-0.3301956057548523
1727722637253,9i,8.36670796032525,0.9s : 0.3s,2.7357651900551656,0.3961430886591639,2.706932180241159,0.8401770444626917,2.1825082302093506,-0.5104839205741882,-3.595431327819824,0.23664438724517822,0.8050117492675781,0.04304629564285278,-0.43906212108483644,1.1815376101180686,-0.7539424126036911,0.8374370336532593,0.4250907301902771,-0.34350714087486267
1727722637263,9i,8.36670796032525,0.9s : 0.3s,2.7999431165145325,0.4126020720151019,2.7693755588373996,0.8634997379999826,2.173705816268921,-0.5776041150093079,-3.734933614730835,0.3234677314758301,0.7986414432525635,0.05632290244102478,-0.46444353262896937,1.1594536275754395,-0.7919131925771516,0.8194918632507324,0.4479253590106964,-0.35748568177223206
1727722637273,9i,8.36670796032525,0.9s : 0.3s,2.8678568492820258,0.42876872637853203,2.8356234389025565,0.9404176064374393,2.187558174133301,-0.6251779794692993,-3.8432514667510986,0.39784127473831177,0.8514907360076904,0.032727986574172974,-0.49004765204509737,1.1350598134153842,-0.8317970232727064,0.7998666763305664,0.47066792845726013,-0.37240394949913025
1727722637283,9i,8.36670796032525,0.9s : 0.3s,2.9298314042705655,0.44458380492510474,2.8959035373866215,0.9581469717578364,2.1250085830688477,-0.680711030960083,-3.9484212398529053,0.47598809003829956,0.8300824165344238,0.0494382381439209,-0.5159812420579032,1.1084405877528687,-0.8731472599115095,0.7784826755523682,0.4933885931968689,-0.3879850208759308
1727722637293,9i,8.36670796032525,0.9s : 0.3s,2.99355725687425,0.45982574469523463,2.958030651413192,0.9466946277777546,2.118821620941162,-0.764641523361206,-4.047811508178711,0.5407475829124451,0.7726861238479614,0.08233422040939331,-0.541937041303205,1.0794965416089872,-0.9159373998665634,0.7553797364234924,0.515796422958374,-0.4041726291179657
1727722637303,9i,8.36670796032525,0.9s : 0.3s,3.0540467928446278,0.47471973966908165,3.0169260815692978,0.9756696157715916,2.086400032043457,-0.8623659610748291,-4.132390975952148,0.6010023355484009,0.7675175070762634,0.04054957628250122,-0.5673858469049743,1.0475961432403937,-0.9608255450987061,0.7304947972297668,0.5374293327331543,-0.4213632345199585
1727722637313,9i,8.36670796032525,0.9s : 0.3s,3.085462214931152,0.489113179114949,3.04644799361222,0.9328964600264293,1.8452274799346924,-0.9339489340782166,-4.174819469451904,0.6670909523963928,0.6518786549568176,0.01843056082725525,-0.5929005018755713,1.0134952339972645,-1.0063883769699455,0.7038348317146301,0.5587688088417053,-0.43862712383270264
1727722637323,9i,8.36670796032525,0.9s : 0.3s,3.101436398441964,0.5032765413975643,3.060330122137082,0.8906470210991758,1.623192548751831,-0.9961385726928711,-4.222296714782715,0.7136889696121216,0.527239203453064,0.07693499326705933,-0.6188029974123356,0.9779688110455805,-1.0514484586165114,0.6755779385566711,0.5800605416297913,-0.4551088511943817
1727722637333,9i,8.36670796032525,0.9s : 0.3s,3.1210210351976473,0.5162839881279838,3.0780226031900506,0.9690683575802748,1.4927610158920288,-1.0823533535003662,-4.292052268981934,0.7920156121253967,0.5556312203407288,0.05548602342605591,-0.6447136765399254,0.9404112020259209,-1.097094404365346,0.645652174949646,0.6009696125984192,-0.4711354374885559
1727722637343,9i,8.36670796032525,0.9s : 0.3s,3.1498147817161053,0.5288895330467488,3.1050940438174925,1.0332345890838266,1.4847278594970703,-1.1416488885879517,-4.348970413208008,0.8478635549545288,0.5896730422973633,0.03141355514526367,-0.6701215767504807,0.8999352787443237,-1.1446583125276388,0.6138979196548462,0.6210812926292419,-0.48722416162490845
1727722637353,9i,8.36670796032525,0.9s : 0.3s,3.1779470226307636,0.5414611412049884,3.131480019290036,1.0779499824907703,1.3557167053222656,-1.1942124366760254,-4.417967319488525,0.8986964821815491,0.594462513923645,-0.030579686164855957,-0.6947417960152541,0.856526843299496,-1.1944828398798635,0.5804446935653687,0.6401870846748352,-0.5032338500022888
1727722637363,9i,8.36670796032525,0.9s : 0.3s,3.203510512354055,0.5536797094813473,3.1553000462826972,1.0451865343890019,1.2422548532485962,-1.2638155221939087,-4.460443019866943,0.911121666431427,0.5087518095970154,-0.05868387222290039,-0.7189653761560161,0.8106027086193501,-1.2457513051340765,0.5453296899795532,0.6586064696311951,-0.5185104012489319
1727722637373,9i,8.36670796032525,0.9s : 0.3s,3.2327587939452322,0.5656872794436243,3.1828803498884315,1.0617923572175616,1.287696361541748,-1.32356858253479,-4.480066776275635,0.9441350102424622,0.4800316095352173,-0.07471108436584473,-0.7417270084833518,0.761358681651784,-1.299680991104466,0.5086694955825806,0.6755622625350952,-0.5337331295013428
1727722637383,9i,8.36670796032525,0.9s : 0.3s,3.264035969498464,0.5781215329021042,3.2124299686335105,1.1338470262893303,1.3613386154174805,-1.3767991065979004,-4.493183612823486,0.9950597882270813,0.5290740728378296,-0.1246824860572815,-0.7619688173472081,0.7083825257840919,-1.3569672640658095,0.4706994295120239,0.6903471946716309,-0.5494202971458435
1727722637393,9i,8.36670796032525,0.9s : 0.3s,3.2851908891257713,0.5910690638165897,3.2315811207200036,1.156477950398514,1.3510104417800903,-1.4332153797149658,-4.470127105712891,1.0211875438690186,0.5223627090454102,-0.1474938988685608,-0.7795559994954325,0.6521356386368784,-1.4170221528695652,0.43163228034973145,0.7029637098312378,-0.5652746558189392
1727722637403,9i,8.36670796032525,0.9s : 0.3s,3.2907396130876485,0.6042228061990591,3.2347924201736937,1.1626974503976437,1.2110708951950073,-1.5044013261795044,-4.444095611572266,1.0605337619781494,0.4602052569389343,-0.12387341260910034,-0.7951354300656662,0.5935929382307961,-1.4784962813398028,0.391645222902298,0.7139584422111511,-0.5804112553596497
1727722637413,9i,8.36670796032525,0.9s : 0.3s,3.2924269609503876,0.617321914074851,3.234036015197723,1.1504365967007784,1.1088870763778687,-1.5660823583602905,-4.421151161193848,1.078935146331787,0.39217716455459595,-0.07483571767807007,-0.8090795478510092,0.5330857251067406,-1.5408399495559246,0.3507370948791504,0.7236522436141968,-0.5943995714187622
1727722637423,9i,8.36670796032525,0.9s : 0.3s,3.2934025460383385,0.6307570467946491,3.2324365234557515,1.145359627097248,1.1385855674743652,-1.6176824569702148,-4.379127502441406,1.0694916248321533,0.3954175114631653,-0.10808020830154419,-0.8204370773884394,0.4705199217265079,-1.6043151843154433,0.3091398775577545,0.7314439415931702,-0.607801079750061
1727722637433,9i,8.36670796032525,0.9s : 0.3s,3.294415835365533,0.6447532559329359,3.2307071881046507,1.1385878065865473,1.1843831539154053,-1.668921947479248,-4.342554569244385,1.0569366216659546,0.39144790172576904,-0.1613558530807495,-0.8283960609550961,0.4060596620225072,-1.6690520773374948,0.2670380175113678,0.7368479371070862,-0.6210843324661255
1727722637443,9i,8.36670796032525,0.9s : 0.3s,3.296642164304231,0.6591958802999344,3.230063521180981,1.1191526531498637,1.2225608825683594,-1.7212793827056885,-4.327114582061768,1.0493005514144897,0.3489479422569275,-0.1723552942276001,-0.8330182604813597,0.34009853087321484,-1.7347548953259728,0.22438104450702667,0.7399649620056152,-0.6341174840927124
1727722637453,9i,8.36670796032525,0.9s : 0.3s,3.3000959363258113,0.6740303405600773,3.230528794014782,1.1170625648205899,1.2710092067718506,-1.7714195251464844,-4.31105375289917,1.0489356517791748,0.3273557424545288,-0.20099997520446777,-0.8339730075616907,0.2730909349737999,-1.8010056967984618,0.18122796714305878,0.7406068444252014,-0.6470378041267395
1727722637463,9i,8.36670796032525,0.9s : 0.3s,3.3110593066714675,0.6895745741664013,3.238456521085155,1.1962774474429057,1.2225292921066284,-1.89146888256073,-4.313842296600342,1.081221342086792,0.4276474118232727,-0.2813500165939331,-0.8316660670990835,0.2054625564221713,-1.8670273828253388,0.1374371349811554,0.7390547394752502,-0.6594764590263367
1727722637473,9i,8.36670796032525,0.9s : 0.3s,3.311814459269661,0.7045877514157065,3.2359961546921765,1.0992939636298062,0.9210061430931091,-2.0115814208984375,-4.278748035430908,1.0474337339401245,0.25276118516921997,-0.21781086921691895,-0.8283954078340618,0.13757888397670168,-1.9318660047892675,0.09271829575300217,0.7368475198745728,-0.669670820236206
1727722637483,9i,8.36670796032525,0.9s : 0.3s,3.310955190780699,0.7197646171581606,3.231773997550699,1.1138986062838407,0.7425391674041748,-2.1050877571105957,-4.2525954246521,1.0952696800231934,0.17280292510986328,-0.10627126693725586,-0.824682082685369,0.06995461345462722,-1.995015477642352,0.04744580388069153,0.7343320250511169,-0.6771302223205566
1727722637493,9i,8.36670796032525,0.9s : 0.3s,3.296737218293177,0.7353221951978238,3.2136859765274037,1.1270597977724683,0.7752503752708435,-2.1164169311523438,-4.184936046600342,1.083311676979065,0.2671669125556946,-0.1591271162033081,-0.8186716589595702,0.003084085539809506,-2.056658632924332,0.002107018604874611,0.7302389740943909,-0.6831885576248169
1727722637503,9i,8.36670796032525,0.9s : 0.3s,3.2813576555129624,0.7512073949126475,3.1942128158940943,1.095350545512466,0.773639976978302,-2.1393702030181885,-4.121585369110107,1.0377532243728638,0.2969430685043335,-0.18624144792556763,-0.8097045461604804,-0.061878656844090614,-2.1160212757884205,-0.04265124350786209,0.724083423614502,-0.6883923411369324
1727722637513,9i,8.36670796032525,0.9s : 0.3s,3.266294191463859,0.7666926945029052,3.1750370166954616,1.0316434629140039,0.8128730058670044,-2.145993232727051,-4.069891929626465,0.9961453676223755,0.2204500436782837,-0.15291965007781982,-0.7980513191867444,-0.12494274831604671,-2.173076121258358,-0.0869961827993393,0.7159970998764038,-0.6926614046096802
1727722637523,9i,8.36670796032525,0.9s : 0.3s,3.2596247475719045,0.7820645769425916,3.1644159796832665,1.0156878842660588,0.9549260139465332,-2.143174409866333,-4.0513834953308105,0.9742721319198608,0.23876988887786865,-0.15938830375671387,-0.7830277861388703,-0.18566706866409405,-2.2273105213721784,-0.13084249198436737,0.7054286599159241,-0.6965993046760559
1727722637533,9i,8.36670796032525,0.9s : 0.3s,3.2582481759269473,0.797540911961782,3.1591311574036376,0.9928439321446957,1.0701251029968262,-2.1823127269744873,-4.003906726837158,0.9334574341773987,0.2696073055267334,-0.2042258381843567,-0.7645961622287302,-0.24383200872789576,-2.2785882342384314,-0.1742258220911026,0.692245602607727,-0.7003151178359985
1727722637543,9i,8.36670796032525,0.9s : 0.3s,3.2603261475618677,0.8129505803914582,3.15734666172671,0.9984186661513503,1.0856127738952637,-2.2550437450408936,-3.964165449142456,0.9482700228691101,0.22402304410934448,-0.21780145168304443,-0.7434620892111191,-0.2993066439365981,-2.3262250134108,-0.21705353260040283,0.6768404841423035,-0.7034021615982056
1727722637553,9i,8.36670796032525,0.9s : 0.3s,3.263202407971893,0.8279644875691896,3.156416443170617,0.9848786095956898,0.9974645376205444,-2.3361382484436035,-3.9536447525024414,0.9512952566146851,0.14846110343933105,-0.20732223987579346,-0.7209343160259194,-0.3529693802627131,-2.371257478762216,-0.25967535376548767,0.6600868105888367,-0.7048787474632263
1727722637563,9i,8.36670796032525,0.9s : 0.3s,3.265982321007806,0.8427507938730697,3.1553782056295323,0.9646263712337745,0.980759859085083,-2.3750786781311035,-3.931992292404175,0.9318733215332031,0.15179085731506348,-0.1976757049560547,-0.6971859370292637,-0.4048796940124161,-2.413898634335772,-0.3019905090332031,0.6420628428459167,-0.7046680450439453
1727722637573,9i,8.36670796032525,0.9s : 0.3s,3.2693682184117643,0.8576433308357099,3.154871861840658,0.9563545059212164,0.9823665618896484,-2.4352548122406006,-3.9049184322357178,0.9173707365989685,0.19223558902740479,-0.1899746060371399,-0.6719034534093273,-0.4546386946135051,-2.453665251457085,-0.34368595480918884,0.6224768161773682,-0.7031375765800476
1727722637583,9i,8.36670796032525,0.9s : 0.3s,3.271287844148767,0.8726430351940325,3.1527477368801384,0.9503571449513475,0.9809348583221436,-2.4812188148498535,-3.848853588104248,0.903162956237793,0.18519830703735352,-0.23060131072998047,-0.6454335524776106,-0.502405684347506,-2.4906542232285624,-0.3846692144870758,0.6015448570251465,-0.7001238465309143
1727722637593,9i,8.36670796032525,0.9s : 0.3s,3.274042804489226,0.8877826953351272,3.1513803596981385,0.9523408492905672,0.9264265894889832,-2.5703132152557373,-3.819103717803955,0.9149764180183411,0.1562015414237976,-0.21300780773162842,-0.6179476822429598,-0.5484380249884824,-2.5249217285660643,-0.4249403774738312,0.5793635845184326,-0.6955310702323914
1727722637603,9i,8.36670796032525,0.9s : 0.3s,3.2760115858419994,0.903028961786869,3.1490936163831558,0.9463505692565158,0.8849583864212036,-2.6321816444396973,-3.771411657333374,0.9174070358276367,0.15187084674835205,-0.17572414875030518,-0.5898220844511396,-0.5931209248207475,-2.556853911429931,-0.4645109176635742,0.5562132000923157,-0.6890982389450073
1727722637613,9i,8.36670796032525,0.9s : 0.3s,3.2725377745363677,0.9185175293955931,3.140991727776509,0.9848744387904044,0.7559100985527039,-2.691378355026245,-3.729395627975464,0.952831506729126,0.16102641820907593,-0.19015854597091675,-0.5614260820517624,-0.6365601675283944,-2.5867419698296583,-0.5031853914260864,0.5323939323425293,-0.680706262588501
1727722637623,9i,8.36670796032525,0.9s : 0.3s,3.2526675818871684,0.9341886424426138,3.1156280231425164,0.9639393380733334,0.621997594833374,-2.7292230129241943,-3.62211537361145,0.9225241541862488,0.1482667326927185,-0.23694980144500732,-0.5335328595820306,-0.6788223799292258,-2.6148508205126277,-0.5406118631362915,0.508578360080719,-0.6701394319534302
1727722637633,9i,8.36670796032525,0.9s : 0.3s,3.2339771864537106,0.9497564972035786,3.091370414318324,0.9427234779098029,0.4872604310512543,-2.7527289390563965,-3.5790562629699707,0.9075853824615479,0.07682090997695923,-0.2431355118751526,-0.5060927599074574,-0.7199787713436424,-2.64162448808967,-0.5767136812210083,0.484763503074646,-0.6575754880905151
1727722637643,9i,8.36670796032525,0.9s : 0.3s,3.213291800537754,0.9649044694270263,3.0649965024911383,0.9168598607391855,0.36565011739730835,-2.771646022796631,-3.5168724060058594,0.8814271688461304,0.06929329037666321,-0.2427273988723755,-0.4790477368696118,-0.7601257295171598,-2.667221003558923,-0.6114533543586731,0.4609343111515045,-0.6431674361228943
1727722637653,9i,8.36670796032525,0.9s : 0.3s,3.1946422994509676,0.9801806620561824,3.040556740331031,0.9399367448966767,0.25738435983657837,-2.793907403945923,-3.4683098793029785,0.9146829843521118,0.0798560082912445,-0.20114457607269287,-0.4522661206065988,-0.799360017808703,-2.6916202751083698,-0.6448312997817993,0.4370049238204956,-0.6270719766616821
1727722637663,9i,8.36670796032525,0.9s : 0.3s,3.177716288018669,0.9955695693240334,3.0177345873643544,0.9416663576245852,0.14112617075443268,-2.8091773986816406,-3.4248046875,0.9236404299736023,0.06682413816452026,-0.17075836658477783,-0.42581675565204496,-0.8377588510677237,-2.716082430050514,-0.6767836809158325,0.41306474804878235,-0.6093778014183044
1727722637673,9i,8.36670796032525,0.9s : 0.3s,3.1568550335938905,1.0111182767545408,2.990547363533976,0.948371397677217,0.14037290215492249,-2.7860329151153564,-3.3629372119903564,0.9267255067825317,0.08794596791267395,-0.1812557578086853,-0.39924549940033466,-0.8750297178828135,-2.7381938645656736,-0.7071971893310547,0.3887232840061188,-0.5905643105506897
1727722637683,9i,8.36670796032525,0.9s : 0.3s,3.1344620562385415,1.0268490721979229,2.96149174655703,0.9593889155340553,0.09709946811199188,-2.7553114891052246,-3.322049140930176,0.9364956021308899,0.09333634376525879,-0.1862562894821167,-0.37242792964686006,-0.9108617832661278,-2.7588100987044504,-0.7358729839324951,0.3638779819011688,-0.5710374712944031
1727722637693,9i,8.36670796032525,0.9s : 0.3s,3.109532935699154,1.0426564998899646,2.929515745210291,0.9378040731117606,0.05255170911550522,-2.7359373569488525,-3.2626781463623047,0.9239419102668762,0.049431681632995605,-0.15285396575927734,-0.34563873027609854,-0.9455287169905725,-2.778304250528724,-0.762854814529419,0.3387976884841919,-0.5506983399391174
1727722637703,9i,8.36670796032525,0.9s : 0.3s,3.0738635806939434,1.0586203343781466,2.8858205592790576,0.9812777726392241,0.0696750357747078,-2.7036497592926025,-3.1487276554107666,0.9637399315834045,0.06580665707588196,-0.17257142066955566,-0.3189851766147595,-0.9788993863750254,-2.7960655240994905,-0.788019597530365,0.31360310316085815,-0.5297906994819641
1727722637713,9i,8.36670796032525,0.9s : 0.3s,3.0288871005057856,1.074665976999979,2.831828050127519,0.9968910003336133,-0.0014900884125381708,-2.6466052532196045,-3.0458803176879883,0.9904996156692505,0.035798460245132446,-0.10686743259429932,-0.2927518958093421,-1.0108593701346034,-2.812394528517018,-0.8112393021583557,0.28858813643455505,-0.508534848690033
1727722637723,9i,8.36670796032525,0.9s : 0.3s,2.981817497049082,1.090708274709202,2.77517405673751,0.9683315626840588,-0.05745375528931618,-2.622579574584961,-2.942654609680176,0.9674985408782959,-0.03434038162231445,-0.020816504955291748,-0.26732563621575456,-1.0417511330361544,-2.8277931138533545,-0.8326259851455688,0.26415300369262695,-0.486782431602478
1727722637733,9i,8.36670796032525,0.9s : 0.3s,2.9196931162833235,1.1065233465168338,2.701890815130288,1.0071182383348738,-0.11485885828733444,-2.551788091659546,-2.7808656692504883,1.0041224956512451,-0.05459052324295044,-0.0551818311214447,-0.2428374721264834,-1.0714976640990423,-2.84195481042651,-0.8521600365638733,0.24045780301094055,-0.4647614359855652
1727722637743,9i,8.36670796032525,0.9s : 0.3s,2.8430926415113555,1.1220310059147416,2.612321226415689,1.0055255851018032,-0.11784932017326355,-2.4586949348449707,-2.6063265800476074,0.9970844984054565,-0.12662309408187866,0.029509276151657104,-0.2195696252370291,-1.0997937540558895,-2.854917769491161,-0.8697192072868347,0.21780960261821747,-0.4428851902484894
1727722637753,9i,8.36670796032525,0.9s : 0.3s,2.760806892023638,1.1373755183939043,2.5156374192644333,0.9634557216168982,-0.030700836330652237,-2.3467302322387695,-2.478924512863159,0.9417055249214172,-0.17417922616004944,0.10535287857055664,-0.19719859697384942,-1.1262503432000999,-2.8659597117095887,-0.8853089809417725,0.19592300057411194,-0.42171338200569153
1727722637763,9i,8.36670796032525,0.9s : 0.3s,2.6757395784480296,1.152442813377478,2.4148411652876556,0.9772911057058505,-0.012041399255394936,-2.2489171028137207,-2.34482479095459,0.9272940754890442,-0.2431212216615677,0.19004124402999878,-0.1754469326094083,-1.1511222717050014,-2.875211818729235,-0.8992025852203369,0.1745482236146927,-0.40120768547058105
1727722637773,9i,8.36670796032525,0.9s : 0.3s,2.5825517058553182,1.1659022538207533,2.304396938019121,1.0242269863520148,0.05330272018909454,-2.137220621109009,-2.177701711654663,0.9246421456336975,-0.340110719203949,0.28000450134277344,-0.15456825245098807,-1.174553758206455,-2.883079246719784,-0.9115195274353027,0.15395350754261017,-0.3813534379005432
1727722637783,9i,8.36670796032525,0.9s : 0.3s,2.477152841711156,1.1780069599047793,2.1791250087164697,1.0680556926122917,0.08278630673885345,-1.9982693195343018,-1.9796384572982788,0.9284533858299255,-0.4137480556964874,0.3279173970222473,-0.1350289669256921,-1.1962785092069261,-2.8892839033982987,-0.9222124814987183,0.13461901247501373,-0.3624938726425171
1727722637793,9i,8.36670796032525,0.9s : 0.3s,2.3563941740435994,1.1886291473258617,2.0346386051567027,1.1345982268416916,0.11848118901252747,-1.8438441753387451,-1.7338407039642334,0.9118636250495911,-0.5328323245048523,0.4146173894405365,-0.11729910954512544,-1.2162186609758523,-2.894061647677085,-0.9313489198684692,0.1170303076505661,-0.3448084890842438
1727722637803,9i,8.36670796032525,0.9s : 0.3s,2.2216018618707323,1.1977797350501478,1.8710527889321296,1.2368999099930493,0.19391709566116333,-1.6606876850128174,-1.4720070362091064,0.9152292609214783,-0.6614689826965332,0.5047133564949036,-0.10170775379923294,-1.2341875616776405,-2.897020799540291,-0.9390023350715637,0.10153248906135559,-0.32858118414878845
1727722637813,9i,8.36670796032525,0.9s : 0.3s,2.0725148449424773,1.2056014269257558,1.6857766702328993,1.3500644531331947,0.311177134513855,-1.416327714920044,-1.2035561800003052,0.9195595979690552,-0.7673659920692444,0.6230839490890503,-0.08826607506843924,-1.249791557268755,-2.8978933426428655,-0.9452247619628906,0.08815150707960129,-0.3142918348312378
