timestamp,club,max_speed,tempo,speed,l.speed,t.spped,acc,rotation.x,rotation.y,rotation.z,userAcceleration.x,userAcceleration.y,userAcceleration.z,pitch,roll,yaw,gravity.x,gravity.y,gravity.z
1727729684764,6i,7.980655350334369,0.8s : 0.3s,0.1957939412680072,0.0005856971371634536,0.1957930652401238,0.06365311179595264,0.9158061146736145,0.2791972756385803,0.09548160433769226,0.04640042781829834,-0.021553292870521545,-0.03787049651145935,-0.16671849819130496,1.874478714909023,3.0189944847064587,0.9410113096237183,0.16594724357128143,0.29488998651504517
1727729684774,6i,7.980655350334369,0.8s : 0.3s,0.33009709130320164,0.0007939096141699146,0.3300961365941122,0.0752562965679458,0.9169174432754517,0.2920142710208893,0.061995018273591995,0.04860156774520874,-0.05722862482070923,-0.005126625299453735,-0.16869967918020018,1.875850952308326,3.0099401012280564,0.9402899742126465,0.16790063679218292,0.2960815727710724
1727729684784,6i,7.980655350334369,0.8s : 0.3s,0.44606508554935037,0.001117731017644102,0.4460636851656067,0.07905605487622737,1.0331169366836548,0.26845380663871765,0.053426433354616165,0.03280532360076904,-0.06831023097038269,0.022525161504745483,-0.17108764731496817,1.8771136395183585,3.0003800373525222,0.9395304918289185,0.17025421559810638,0.29714691638946533
1727729684794,6i,7.980655350334369,0.8s : 0.3s,0.5567255856938105,0.0017341825560944722,0.5567228847254067,0.05719354730961095,1.1923303604125977,0.23319195210933685,0.06205081567168236,0.04297614097595215,-0.032251566648483276,-0.01959565281867981,-0.17390439700736698,1.8777471379660666,2.98945818255019,0.9388811588287354,0.17302916944026947,0.29759594798088074
1727729684804,6i,7.980655350334369,0.8s : 0.3s,0.6400922766354395,0.0024898768001949674,0.6400874339665324,0.07181802431167479,1.228453516960144,0.20555473864078522,0.018687959760427475,0.05536729097366333,0.0020936429500579834,-0.04569363594055176,-0.17711461917672885,1.8778520979802282,2.9774425271644525,0.9383156299591064,0.1761900633573532,0.2975250780582428
1727729684814,6i,7.980655350334369,0.8s : 0.3s,0.6840686692699988,0.003270528898122244,0.6840608510341412,0.04740290772097643,1.1687595844268799,0.1332419216632843,-0.023845385760068893,0.026290476322174072,-0.006641492247581482,-0.03888106346130371,-0.17992830103267848,1.8774523221310133,2.9657027036391486,0.937958300113678,0.17895902693271637,0.29699915647506714
1727729684824,6i,7.980655350334369,0.8s : 0.3s,0.6923863434411522,0.004238281755095405,0.6923733714922706,0.07205905147359334,1.0747153759002686,-0.17518949508666992,0.28457096219062805,0.05211353302001953,-0.046856775879859924,-0.016766905784606934,-0.18339643914440687,1.8773078163164347,2.9556731016849276,0.9374037981033325,0.18237009644508362,0.29667454957962036
1727729684834,6i,7.980655350334369,0.8s : 0.3s,0.6632514036349577,0.005464131617181382,0.6632288953969149,0.08905791829600526,0.865048885345459,-0.11389046162366867,0.2758975923061371,0.061356425285339355,-0.06152281165122986,0.019535750150680542,-0.18602218341095425,1.8774936261146167,2.9470296302634553,0.9368888139724731,0.18495117127895355,0.2967030704021454
1727729684844,6i,7.980655350334369,0.8s : 0.3s,0.6401310981161943,0.006606405030482336,0.6400970068575684,0.057822232325709294,0.8753147721290588,0.12748482823371887,0.011564303189516068,-0.003928720951080322,-0.03819394111633301,0.04323422908782959,-0.18827589990878874,1.8776107531756168,2.938892220089231,0.9364544749259949,0.1871655434370041,0.29668623208999634
1727729684854,6i,7.980655350334369,0.8s : 0.3s,0.627527140714319,0.00755052117003944,0.6274817144452495,0.06856333010848238,0.8858592510223389,0.1440449059009552,0.018009686842560768,-0.040716350078582764,0.017294466495513916,-0.05238330364227295,-0.19066097786933742,1.87735450619367,2.9304082678838133,0.9361021518707275,0.18950793147087097,0.2963106632232666
1727729684864,6i,7.980655350334369,0.8s : 0.3s,0.6710813067453363,0.007873794747779739,0.6710351135516665,0.14045965883645378,1.1436755657196045,0.15043240785598755,0.024488292634487152,-0.03859090805053711,0.05987966060638428,-0.12105405330657959,-0.19356996812310504,1.8769206520880657,2.9191633933678873,0.9357010126113892,0.1923634111881256,0.2957371175289154
1727729684874,6i,7.980655350334369,0.8s : 0.3s,0.7309696936026704,0.007635592153591013,0.730929812429378,0.11712667414324882,1.2864775657653809,0.18217754364013672,0.011796197853982449,-0.0863524079322815,0.04511992633342743,-0.06500855088233948,-0.19704321829344734,1.8762893834540249,2.9059368711084463,0.935244619846344,0.19577062129974365,0.294943630695343
1727729684884,6i,7.980655350334369,0.8s : 0.3s,0.8115477571594347,0.006876417326464291,0.811518623960819,0.13708934889746793,1.476234793663025,0.20471911132335663,0.009683478623628616,-0.0958852767944336,0.0934630036354065,-0.029396772384643555,-0.20110269078443704,1.8756194966690383,2.8912252188940872,0.9346762895584106,0.1997499167919159,0.294076144695282
1727729684894,6i,7.980655350334369,0.8s : 0.3s,0.8870754640805272,0.006156049837536942,0.8870541032113433,0.13469436501056212,1.5705252885818481,0.21536031365394592,-0.011599439196288586,-0.07018858194351196,0.10620588064193726,-0.04400506615638733,-0.2057281371116483,1.8747168046110017,2.8750149695646017,0.934049665927887,0.20428000390529633,0.29295262694358826
1727729684904,6i,7.980655350334369,0.8s : 0.3s,0.8685160750636264,0.005965850073789195,0.8684955850646701,0.05632032227138332,1.2174241542816162,0.176047220826149,-0.0225093774497509,-0.03855431079864502,0.03411763906478882,-0.022837042808532715,-0.21016290804807267,1.873877832725953,2.8597804870717756,0.9334213733673096,0.20861922204494476,0.29189565777778625
1727729684914,6i,7.980655350334369,0.8s : 0.3s,0.7553501701701835,0.005945909212567615,0.7553267675249972,0.14163009570675833,0.7232030034065247,0.11418145149946213,0.01100836880505085,0.004024386405944824,-0.13736742734909058,0.034250229597091675,-0.2131195696438902,1.8733851170826505,2.8491995386506197,0.9329720139503479,0.21150991320610046,0.2912505865097046
1727729684924,6i,7.980655350334369,0.8s : 0.3s,0.6250981789386892,0.0063073427849332205,0.6250663570689586,0.2429510711432557,0.46961089968681335,0.09327803552150726,0.03538401424884796,0.02063697576522827,-0.2417449951171875,0.012597441673278809,-0.21462620094014878,1.873160757238103,2.8420869817729537,0.9327322840690613,0.21298222243785858,0.2909460961818695
1727729684934,6i,7.980655350334369,0.8s : 0.3s,0.48922383697745936,0.006870883070948392,0.4891755856875659,0.15766599669389703,0.2457871437072754,0.0865841805934906,0.010517547838389874,-0.019626915454864502,-0.13595233857631683,0.07739710807800293,-0.2154660617767418,1.8733209064074419,2.8373563280255,0.9325146079063416,0.2138027399778366,0.2910420596599579
1727729684944,6i,7.980655350334369,0.8s : 0.3s,0.37663576024441237,0.00731762661055901,0.37656466673823086,0.12958185552518578,0.15894518792629242,0.07516108453273773,-0.013246104121208191,-0.038700640201568604,-0.0052953362464904785,0.12355434894561768,-0.21606377691154788,1.8737388489944833,2.834299606371856,0.9322707056999207,0.21438659727573395,0.29139357805252075
1727729684954,6i,7.980655350334369,0.8s : 0.3s,0.30175363541598943,0.007632685367880909,0.30165708776828176,0.11845834660476563,0.17715294659137726,0.07225557416677475,-0.07016398012638092,-0.028283536434173584,0.03361760079860687,0.11001035571098328,-0.2168730565047014,1.8741484112619229,2.8327918388360183,0.9319853782653809,0.21517698466777802,0.29172345995903015
1727729684964,6i,7.980655350334369,0.8s : 0.3s,0.26735915489812856,0.007800902042219779,0.2672453248144281,0.17278482808335005,0.24192528426647186,-0.018968872725963593,-0.3050946593284607,0.1459648609161377,0.040079012513160706,0.08332183957099915,-0.2176473070899849,1.8741537928767749,2.8314458671867277,0.9318246245384216,0.21593303978443146,0.29167866706848145
1727729684974,6i,7.980655350334369,0.8s : 0.3s,0.28748618403252785,0.008110195847242482,0.28737176397987296,0.11589994990513744,0.3577349781990051,-0.1348632574081421,-0.4603092670440674,0.10096341371536255,0.026320815086364746,0.05046188831329346,-0.21920495000389129,1.8744505449019764,2.8302512022954374,0.931415855884552,0.21745367348194122,0.29185420274734497
1727729684984,6i,7.980655350334369,0.8s : 0.3s,0.26442449361396303,0.008648298729980372,0.26428302963315253,0.06955033046854418,0.31337296962738037,-0.012856698594987392,-0.07667618244886398,-0.037144362926483154,0.010449931025505066,0.057864874601364136,-0.22031680723532093,1.8744929301106703,2.8285154246522555,0.9311720728874207,0.2185387909412384,0.2918211817741394
1727729684994,6i,7.980655350334369,0.8s : 0.3s,0.22545515970551203,0.00935739353378948,0.2252608892464285,0.0903699137030407,0.2157880961894989,0.04404120519757271,-0.002195018343627453,-0.059783101081848145,-0.014129787683486938,0.06628009676933289,-0.22162822263327261,1.874773842338204,2.8262342656647954,0.9308157563209534,0.21981830894947052,0.29199668765068054
1727729685004,6i,7.980655350334369,0.8s : 0.3s,0.19273625064091,0.01025516582682888,0.19246322735779925,0.051928945968182226,0.1802038699388504,0.06015346199274063,0.004506393801420927,0.02776157855987549,-0.025705784559249878,0.035568565130233765,-0.22212319443266595,1.874853219071472,2.823332367766819,0.9306886792182922,0.22030115127563477,0.2920379638671875
1727729685014,6i,7.980655350334369,0.8s : 0.3s,0.15361325506869938,0.01125263464626439,0.15320055595956233,0.08422231505415154,0.08049112558364868,0.04401310905814171,-0.03503036126494408,-0.02258479595184326,-0.015821024775505066,0.07958027720451355,-0.22275197122666873,1.8751053559976325,2.8208967749500333,0.9304826855659485,0.22091443836688995,0.2922310531139374
1727729685024,6i,7.980655350334369,0.8s : 0.3s,0.10699050401447707,0.01219605371114948,0.10629310524745522,0.12975157515447833,-0.000423832971137017,0.02343357726931572,0.029713379219174385,-0.03366518020629883,0.03092247247695923,0.12143281102180481,-0.2230277003058398,1.8754718915361095,2.8195977415384004,0.9303176403045654,0.22118334472179413,0.2925539016723633
1727729685034,6i,7.980655350334369,0.8s : 0.3s,0.07488018320622722,0.013056909555611116,0.07373302482507241,0.11146629448561558,0.013435257598757744,-0.04070359468460083,0.0955781489610672,-0.05356764793395996,0.04796580970287323,0.08517348766326904,-0.22334136107173896,1.8759582647459339,2.818749949259499,0.930108904838562,0.22148922085762024,0.2929854393005371
1727729685044,6i,7.980655350334369,0.8s : 0.3s,0.07203931916365107,0.013996162056536888,0.07066661837989378,0.08117955664794499,0.031032493337988853,-0.1081407368183136,0.1785769909620285,-0.05363589525222778,0.029534906148910522,0.05330103635787964,-0.22387169976783985,1.8764359806210122,2.818112532066287,0.9298568964004517,0.22200636565685272,0.29339441657066345
1727729685054,6i,7.980655350334369,0.8s : 0.3s,0.1118329748059862,0.014990051378093288,0.11082379082867751,0.055466654121135155,0.08758152276277542,-0.15777380764484406,0.28675299882888794,-0.03663867712020874,0.002432197332382202,0.041572123765945435,-0.22436000884367374,1.876859526871672,2.8174080216518305,0.9296289682388306,0.22248245775699615,0.29375550150871277
1727729685064,6i,7.980655350334369,0.8s : 0.3s,0.16208176484887862,0.016061441087320317,0.16128399984724373,0.05953739836308051,0.12170633673667908,-0.2068156898021698,0.3480137884616852,-0.03167879581451416,-0.0037046074867248535,0.05027356743812561,-0.2249419591376285,1.87732409732861,2.816383265478433,0.929368793964386,0.22304978966712952,0.2941482365131378
1727729685074,6i,7.980655350334369,0.8s : 0.3s,0.21516317104242325,0.017178403926529237,0.21447632179699486,0.061215641547267226,0.10910985618829727,-0.26182276010513306,0.42392265796661377,-0.019767820835113525,0.020589515566825867,0.054154038429260254,-0.22569117435298458,1.8778496444164692,2.815500671509086,0.9290543794631958,0.2237800657749176,0.2945859730243683
1727729685084,6i,7.980655350334369,0.8s : 0.3s,0.2716362992007705,0.018274978806554612,0.27102085564234807,0.048233398261694524,0.057825490832328796,-0.33272868394851685,0.5071647763252258,0.010600924491882324,0.030369773507118225,0.03594103455543518,-0.2262241822519941,1.8784077731487347,2.815186104851312,0.9287760853767395,0.22429952025413513,0.29506832361221313
1727729685094,6i,7.980655350334369,0.8s : 0.3s,0.3328360100367882,0.01914849881284234,0.3322847341820318,0.030560959171051227,0.06390095502138138,-0.4050273597240448,0.5821927189826965,0.019403517246246338,0.021455466747283936,0.009855896234512329,-0.2266188973900317,1.878839521915714,2.8151431973046934,0.928564190864563,0.22468416392803192,0.29544246196746826
1727729685104,6i,7.980655350334369,0.8s : 0.3s,0.39515940585444104,0.01989884679876163,0.3946580696391679,0.026667580797365368,0.06929026544094086,-0.4591400921344757,0.6595408320426941,-0.002077639102935791,0.02584950625896454,0.006216615438461304,-0.22690121694515528,1.879213562314671,2.815005572866352,0.9283930063247681,0.22495925426483154,0.29577043652534485
1727729685114,6i,7.980655350334369,0.8s : 0.3s,0.45322746020391763,0.020558568628416735,0.4527609478950724,0.03993309469018808,0.07120881229639053,-0.49713432788848877,0.7194914817810059,-0.027233421802520752,0.02884666621685028,-0.004567563533782959,-0.22714516172703464,1.8795726951400475,2.814762588739386,0.9282342791557312,0.2251969426870346,0.2960870862007141
1727729685124,6i,7.980655350334369,0.8s : 0.3s,0.49381003961683384,0.021152172869338275,0.4933568088202337,0.038661388451176164,0.06399550288915634,-0.5041556358337402,0.7145475149154663,-0.034300923347473145,0.01782447099685669,0.000661700963973999,-0.22749523447621484,1.880030782768399,2.8145416513200567,0.9280234575271606,0.2255380004644394,0.29648828506469727
1727729685134,6i,7.980655350334369,0.8s : 0.3s,0.5121713652576906,0.021657905771249052,0.5117132424586356,0.019035251454582253,0.09659738838672638,-0.4818684458732605,0.6646507978439331,-0.012671887874603271,0.005436062812805176,-0.013123005628585815,-0.22783809501649235,1.8804244149939973,2.813932452904107,0.9278331995010376,0.22587202489376068,0.29683005809783936
1727729685144,6i,7.980655350334369,0.8s : 0.3s,0.5129294019227115,0.02208843615927259,0.5124535806732433,0.017909550029105017,0.09721457213163376,-0.473626971244812,0.605284571647644,-0.0014213919639587402,0.008043155074119568,-0.015938609838485718,-0.22831025662497298,1.8807148534992666,2.8126378637609566,0.9276453256607056,0.2263319492340088,0.29706698656082153
1727729685154,6i,7.980655350334369,0.8s : 0.3s,0.5121745727612702,0.0224456930728967,0.5116825029700224,0.02810865589844831,0.11678560823202133,-0.4682939946651459,0.5796705484390259,0.002780437469482422,0.023705869913101196,-0.014845788478851318,-0.22875710159722484,1.880820251037854,2.8110514685753363,0.9275173544883728,0.2267671823501587,0.29713377356529236
1727729685164,6i,7.980655350334369,0.8s : 0.3s,0.5066590447302014,0.022707950566266427,0.5061499151318709,0.044526526447784265,0.14635004103183746,-0.4571668207645416,0.549750030040741,-0.0009920597076416016,0.03652726113796234,-0.02544379234313965,-0.2290663816859836,1.8807372383762408,2.8087427210542897,0.9274752736091614,0.22706839442253113,0.29703542590141296
1727729685174,6i,7.980655350334369,0.8s : 0.3s,0.4915544959429233,0.02284770834743611,0.49102322216466693,0.04783972817385693,0.13392771780490875,-0.4391465485095978,0.5038813352584839,-0.011395454406738281,0.033567219972610474,-0.03212514519691467,-0.22934821945904388,1.8805422091956712,2.805975525658999,0.9274721145629883,0.2273428589105606,0.2968349754810333
1727729685184,6i,7.980655350334369,0.8s : 0.3s,0.4711567371100709,0.022932438358526916,0.4705983151214428,0.0241266928532312,0.0985627993941307,-0.4261472225189209,0.45637205243110657,-0.008407652378082275,0.0064855217933654785,-0.021664410829544067,-0.22954920683779012,1.8803342475258304,2.803213245305879,0.9274902939796448,0.2275385856628418,0.2966281771659851
1727729685194,6i,7.980655350334369,0.8s : 0.3s,0.44290829159367673,0.022994725216307646,0.44231097360867716,0.016421135439298976,0.0555596761405468,-0.3942002058029175,0.39842191338539124,0.0006096959114074707,-0.011758610606193542,-0.011446267366409302,-0.22970038624466965,1.8801702505460354,2.800488247189494,0.9275060892105103,0.22768579423427582,0.29646557569503784
1727729685204,6i,7.980655350334369,0.8s : 0.3s,0.40715747222898735,0.023100234882296875,0.4065016437116599,0.01960215063114843,-0.006732195615768433,-0.36339718103408813,0.3265627324581146,0.004467964172363281,-0.0016906112432479858,0.01901113986968994,-0.22990702337629873,1.8802176096478587,2.7980492189015793,0.9274474382400513,0.22788698971271515,0.2964952290058136
1727729685214,6i,7.980655350334369,0.8s : 0.3s,0.37155161311917895,0.023187607337147823,0.3708273669478053,0.02696315972521516,0.048498835414648056,-0.32876089215278625,0.27518901228904724,0.011894762516021729,0.023723125457763672,-0.004768639802932739,-0.2302907344682167,1.8803850718797852,2.7955097471786594,0.9273142218589783,0.2282605916261673,0.2966238260269165
1727729685224,6i,7.980655350334369,0.8s : 0.3s,0.33574140020448245,0.02321773562602122,0.3349376427988748,0.039668536241725415,0.08871310204267502,-0.2900431752204895,0.22786490619182587,0.014424681663513184,0.032889947295188904,-0.01684555411338806,-0.23095289463052013,1.8805578017050204,2.7924337976993043,0.9271190762519836,0.22890521585941315,0.296737939119339
1727729685234,6i,7.980655350334369,0.8s : 0.3s,0.3040125254581958,0.02321286715832804,0.3031250211278508,0.03161847703605141,0.12589481472969055,-0.261460542678833,0.19629207253456116,0.01783573627471924,0.01930759847164154,-0.01757359504699707,-0.23173876615152816,1.8807275490603015,2.788965507746815,0.9268969893455505,0.22967015206813812,0.2968403100967407
1727729685244,6i,7.980655350334369,0.8s : 0.3s,0.2751112795558894,0.023185967932123908,0.27413249904002485,0.03425399147814495,0.10651712864637375,-0.24359168112277985,0.16534142196178436,0.03007608652114868,-0.0062358081340789795,-0.015161782503128052,-0.2324915112874239,1.8808494878552495,2.7854877536487135,0.9266957640647888,0.23040270805358887,0.2969004511833191
1727729685254,6i,7.980655350334369,0.8s : 0.3s,0.25464642919676433,0.023175057468453504,0.25358966976987957,0.043984415286797335,0.11433324217796326,-0.23902596533298492,0.16195175051689148,0.04188811779022217,-0.013277053833007812,-0.0019324123859405518,-0.2330632046548354,1.880843495295774,2.7820282758950774,0.9265720248222351,0.2309589833021164,0.296854704618454
1727729685264,6i,7.980655350334369,0.8s : 0.3s,0.2381712388241733,0.023184877852435528,0.2370400819313245,0.030311048132564643,0.09789194911718369,-0.2360120564699173,0.15234331786632538,0.027973651885986328,0.010845616459846497,0.0043135881423950195,-0.23337841593984893,1.880614870732628,2.778500645318567,0.9265705347061157,0.23126566410064697,0.296620637178421
1727729685274,6i,7.980655350334369,0.8s : 0.3s,0.22128628792998972,0.023248423802659533,0.22006165503450675,0.03272516538666981,0.08105970174074173,-0.2230009287595749,0.12983322143554688,-0.0022130608558654785,0.023607522249221802,0.022554904222488403,-0.23349821335572787,1.8803034838165493,2.7754128382712815,0.9266364574432373,0.23138222098350525,0.29632368683815
1727729685284,6i,7.980655350334369,0.8s : 0.3s,0.2021670536142163,0.023369453402930635,0.2008118179159326,0.030857678783954384,0.044261615723371506,-0.21340560913085938,0.09320014715194702,-0.011135458946228027,0.006998017430305481,0.027914613485336304,-0.23358473699989193,1.8799436265677032,2.7726255715046526,0.9267237782478333,0.2314663827419281,0.29598405957221985
1727729685294,6i,7.980655350334369,0.8s : 0.3s,0.1817644465810901,0.02355276057745926,0.18023202132282384,0.03522367228855207,0.002655047457665205,-0.19702449440956116,0.06418287009000778,0.011707663536071777,-0.015122547745704651,0.029579490423202515,-0.23361129679978818,1.8795651235927955,2.7704743978063515,0.9268299341201782,0.23149222135543823,0.29563140869140625
1727729685304,6i,7.980655350334369,0.8s : 0.3s,0.1631417682390449,0.02376864319039613,0.16140101655519357,0.037801089152032924,-0.007416894659399986,-0.18081706762313843,0.04047391563653946,0.031537532806396484,-0.014969155192375183,0.01449933648109436,-0.23357915279495672,1.879205443784371,2.7687908276671687,0.9269434809684753,0.23146095871925354,0.29530036449432373
1727729685314,6i,7.980655350334369,0.8s : 0.3s,0.14584191561566692,0.02396712846833819,0.14385910156618345,0.031351735578300864,0.03077416680753231,-0.15383125841617584,0.02350798062980175,0.02981668710708618,0.008844539523124695,-0.003958612680435181,-0.23360021606184198,1.8788392390696038,2.7672163842654824,0.9270466566085815,0.23148144781589508,0.29495933651924133
1727729685324,6i,7.980655350334369,0.8s : 0.3s,0.1285832639129209,0.02409816625199172,0.1263049252475581,0.044532355114260486,0.052881598472595215,-0.12446530163288116,0.006577334366738796,0.021235764026641846,0.036717116832733154,-0.013565629720687866,-0.2337311255845031,1.878464046961563,2.7655592303178307,0.9271286725997925,0.2316087931394577,0.2946023941040039
1727729685334,6i,7.980655350334369,0.8s : 0.3s,0.11415653475225193,0.024105827562910635,0.11158236197602793,0.05320877758234269,0.07407397031784058,-0.10318663716316223,0.0003559237811714411,0.019480645656585693,0.04319688677787781,-0.024201393127441406,-0.23389332289962786,1.8780818811269402,2.763767440740892,0.9272052049636841,0.23176658153533936,0.2942366302013397
1727729685344,6i,7.980655350334369,0.8s : 0.3s,0.10047966806486937,0.024095775373525054,0.0975477180849196,0.03216763141716371,0.05938224121928215,-0.08509422838687897,-0.007646375335752964,0.010649561882019043,0.025129765272140503,-0.017024636268615723,-0.23401951859387543,1.8777402482524181,2.762085606438812,0.9272777438163757,0.23188933730125427,0.29391101002693176
1727729685354,6i,7.980655350334369,0.8s : 0.3s,0.0871036619976726,0.02406989583675131,0.08371193491858098,0.0168408360204694,0.04506508633494377,-0.0685618594288826,-0.027501041069626808,-0.005750834941864014,0.009339645504951477,-0.012779384851455688,-0.23414219607518788,1.8774497747139396,2.760677546037315,0.9273359179496765,0.2320086807012558,0.29363304376602173
1727729685364,6i,7.980655350334369,0.8s : 0.3s,0.07360363200741057,0.024046454093282058,0.06956480928042563,0.01731369195103865,0.00022304884623736143,-0.059100713580846786,-0.041029300540685654,-0.0171278715133667,-0.002465352416038513,-0.0005674362182617188,-0.2343250115247704,1.8775405418519147,2.759820461432496,0.927268922328949,0.23218649625778198,0.29370445013046265
1727729685374,6i,7.980655350334369,0.8s : 0.3s,0.06668733465736058,0.02399645141207272,0.062220341716602935,0.0180502450116273,0.020647097378969193,-0.05401354283094406,-0.035680606961250305,-0.0027513504028320312,-0.010090470314025879,-0.014711350202560425,-0.23419516618092925,1.8775955572946301,2.7599532845522687,0.9272816181182861,0.23206019401550293,0.293764591217041
1727729685384,6i,7.980655350334369,0.8s : 0.3s,0.06385296462163206,0.023934767574173784,0.05919736473984019,0.019819330251887198,0.0332166850566864,-0.05148673802614212,-0.027697516605257988,0.010442852973937988,-0.012853369116783142,-0.010887771844863892,-0.23402363812360846,1.8772932459382528,2.759821408514446,0.9274080991744995,0.23189334571361542,0.29349619150161743
1727729685394,6i,7.980655350334369,0.8s : 0.3s,0.06275193286936913,0.023890142390897026,0.058026426526062026,0.012301778933017283,0.07988645136356354,-0.041103336960077286,-0.0123627670109272,0.011880815029144287,-0.0031407177448272705,0.0005620419979095459,-0.2341094768492897,1.8766684154355824,2.7592877976801966,0.9275723099708557,0.23197685182094574,0.2929106652736664
1727729685404,6i,7.980655350334369,0.8s : 0.3s,0.06599090919816498,0.023852625687125647,0.061529280384466783,0.020253154326580883,0.11954305320978165,-0.04524189233779907,0.005380010232329369,0.004553020000457764,0.01911388337612152,-0.004911184310913086,-0.23460400351884844,1.8758122773800543,2.758237655637737,0.9277132749557495,0.23245786130428314,0.29208195209503174
1727729685414,6i,7.980655350334369,0.8s : 0.3s,0.07831365154010193,0.023756116317912582,0.07462355496111343,0.03907341328470654,0.16593292355537415,-0.046632591634988785,0.024657567963004112,-0.00575411319732666,0.028284549713134766,-0.02633640170097351,-0.23530994715623088,1.8745681859326575,2.756659879159281,0.9279192686080933,0.23314440250396729,0.29087844491004944
1727729685424,6i,7.980655350334369,0.8s : 0.3s,0.08164010224810114,0.023642307760985436,0.07814184268889017,0.026162265763618606,0.12937837839126587,-0.05144501104950905,0.0224791020154953,-0.022809505462646484,0.0076774656772613525,-0.010259002447128296,-0.23585140179284309,1.8734308237585535,2.755007131793441,0.9281288981437683,0.2336709052324295,0.289785236120224
1727729685434,6i,7.980655350334369,0.8s : 0.3s,0.07941005965102564,0.023597500542358592,0.07582292227244238,0.042418493002182776,0.08236319571733475,-0.04004162177443504,0.012323403730988503,-0.02768164873123169,-0.020106539130210876,0.025075525045394897,-0.23613153453896155,1.87261869497721,2.7538830813125346,0.9283011555671692,0.23394326865673065,0.2890118360519409
1727729685444,6i,7.980655350334369,0.8s : 0.3s,0.06376528789481198,0.02369654169596336,0.059198698059667876,0.05606913501666147,0.011620712466537952,-0.038810133934020996,-0.012117457576096058,-0.024762988090515137,-0.03664366900920868,0.034464240074157715,-0.23626931218786987,1.8722624891571393,2.753443394272026,0.9283733367919922,0.23407721519470215,0.2886715829372406
1727729685454,6i,7.980655350334369,0.8s : 0.3s,0.05055484669731938,0.023860161873120588,0.04457000336524497,0.04435979742972583,-0.013595694676041603,-0.038495082408189774,-0.02028750255703926,-0.011374592781066895,-0.03299257159233093,0.027384310960769653,-0.23629636706968313,1.871787644247724,2.7535163848876847,0.9285042881965637,0.23410353064537048,0.2882288694381714
1727729685464,6i,7.980655350334369,0.8s : 0.3s,0.04881219235706295,0.024043600333052167,0.04247982351337361,0.03001690490122805,0.02096441388130188,-0.03286045417189598,-0.0215410515666008,-0.0073926448822021484,-0.02145804464817047,0.019644737243652344,-0.23631317638382787,1.8713488380213705,2.7535509227097834,0.9286268949508667,0.23411986231803894,0.2878202199935913
1727729685474,6i,7.980655350334369,0.8s : 0.3s,0.04912014636759855,0.02423284997576051,0.0427265463292622,0.013386359184601238,0.0602409765124321,-0.03453584760427475,-0.005347967613488436,-0.004810214042663574,-0.006684914231300354,0.010553121566772461,-0.2364831359755602,1.8709644348292171,2.7531903995041334,0.9286994934082031,0.23428510129451752,0.28745147585868835
1727729685484,6i,7.980655350334369,0.8s : 0.3s,0.05590855044731835,0.024407579482266274,0.050299463982603175,0.00533985104255825,0.0953528955578804,-0.04545152559876442,0.010123266838490963,0.003078281879425049,-0.004331812262535095,-0.0005230605602264404,-0.23690363344632034,1.8703696482756333,2.752405934794983,0.928776204586029,0.23469386994838715,0.28687000274658203
1727729685494,6i,7.980655350334369,0.8s : 0.3s,0.06546344369299796,0.0245827845962294,0.06067247449743335,0.008231508448013682,0.11324480921030045,-0.0577196441590786,0.02199350856244564,0.006056427955627441,-0.0019358396530151367,0.005227804183959961,-0.23746836801060675,1.869296447427918,2.7512352085094536,0.9289564490318298,0.2352427989244461,0.2858339548110962
1727729685504,6i,7.980655350334369,0.8s : 0.3s,0.0708564072026327,0.024786435032297504,0.06637968876135979,0.019333417369271445,0.09973645210266113,-0.07026011496782303,0.03003525547683239,0.0004521608352661133,0.002902314066886902,0.019108980894088745,-0.23768700475856014,1.8684141262549936,2.7501217359214687,0.9291590452194214,0.23545528948307037,0.2849991023540497
1727729685514,6i,7.980655350334369,0.8s : 0.3s,0.0804000143585836,0.024979857334775066,0.07642099866132823,0.012228317206538867,0.12767168879508972,-0.06918393075466156,0.037467870861291885,-0.010677516460418701,0.0029749423265457153,0.005164504051208496,-0.2374396104676137,1.8679993457867194,2.749078074999555,0.9293330311775208,0.23521484434604645,0.28463077545166016
1727729685524,6i,7.980655350334369,0.8s : 0.3s,0.09141730856441908,0.02511934031457389,0.08789848148473803,0.02505201658416093,0.15383297204971313,-0.06346230208873749,0.04603845626115799,-0.020721733570098877,0.004260852932929993,-0.013418585062026978,-0.23698003200989476,1.8676512362994122,2.7476596435991376,0.9295352101325989,0.23476813733577728,0.2843388319015503
1727729685534,6i,7.980655350334369,0.8s : 0.3s,0.09505501333908699,0.02528151899977702,0.091631328474261,0.03378550979755379,0.14638438820838928,-0.056410789489746094,0.03358844667673111,-0.023454487323760986,-0.012920960783958435,0.020600885152816772,-0.23658804362476932,1.8672036777740237,2.7461981906544453,0.9297503232955933,0.2343870848417282,0.283949613571167
1727729685544,6i,7.980655350334369,0.8s : 0.3s,0.09408695867881015,0.025516340185604235,0.09056087553110696,0.046896373211592526,0.10453546792268753,-0.05385157838463783,0.026833603158593178,-0.01386958360671997,-0.03529982268810272,0.02758309245109558,-0.23639375454405567,1.8667203653912203,2.744939800178444,0.9299310445785522,0.2341982126235962,0.28351351618766785
1727729685554,6i,7.980655350334369,0.8s : 0.3s,0.09089436268036362,0.025797008794590393,0.08715675248838328,0.048668027657920776,0.09383675456047058,-0.04685039445757866,0.020581034943461418,-0.00240480899810791,-0.0418248325586319,0.024768471717834473,-0.23637216103849157,1.866217624345778,2.7439932562325744,0.9300782084465027,0.23417721688747406,0.2830474376678467
1727729685564,6i,7.980655350334369,0.8s : 0.3s,0.08997297831899194,0.026100923022021175,0.0861038828682442,0.03718907247830929,0.1033162772655487,-0.04358287155628204,0.02261175960302353,0.0009445548057556152,-0.03070998191833496,0.020953088998794556,-0.23641265677540174,1.8655652613292504,2.7429399178325244,0.9302537441253662,0.2342165857553482,0.28243792057037354
1727729685574,6i,7.980655350334369,0.8s : 0.3s,0.08924053045859566,0.02644961589429343,0.08523080485115625,0.03469660141494643,0.10229122638702393,-0.0393548384308815,0.04035267233848572,0.003521144390106201,-0.01666674017906189,0.030227065086364746,-0.2363759115792082,1.8649920472010764,2.7418725756772577,0.9304236173629761,0.23418085277080536,0.2819070816040039
1727729685584,6i,7.980655350334369,0.8s : 0.3s,0.08805221317762378,0.0268010338943273,0.08387429181622234,0.022766900250034135,0.08424657583236694,-0.04936215654015541,0.05223027244210243,0.006012678146362305,-0.017701223492622375,0.012994080781936646,-0.23621579927924594,1.8645931077092177,2.740879493075114,0.930571973323822,0.23402519524097443,0.28154677152633667
1727729685594,6i,7.980655350334369,0.8s : 0.3s,0.08691458892434661,0.027107218110569556,0.08257932243724311,0.020489887950208965,0.08006861060857773,-0.05309005081653595,0.05310219153761864,-0.0033292174339294434,-0.018884316086769104,-0.007220417261123657,-0.23603581956168176,1.8640189214020702,2.7399328377950396,0.9307737350463867,0.23385021090507507,0.2810245454311371
1727729685604,6i,7.980655350334369,0.8s : 0.3s,0.08588628193428871,0.027367280512967603,0.0814093691280105,0.014762292229014576,0.07442763447761536,-0.05489172413945198,0.06429016590118408,-0.012054085731506348,-0.00118255615234375,-0.00843954086303711,-0.23583021416361344,1.863215566819282,2.7389948828497244,0.9310452938079834,0.2336502969264984,0.2802906036376953
1727729685614,6i,7.980655350334369,0.8s : 0.3s,0.0852309105713746,0.027607196383650542,0.08063591522801863,0.020257863811247796,0.07898270338773727,-0.05248289182782173,0.06497380137443542,-0.010935783386230469,0.016941815614700317,0.0019402503967285156,-0.23531551729195682,1.862879305217572,2.7381667142272685,0.931254506111145,0.23314981162548065,0.2800121009349823
1727729685624,6i,7.980655350334369,0.8s : 0.3s,0.0858883290317341,0.027822070589995626,0.08125723015183768,0.027808421226202314,0.09935002774000168,-0.05220343545079231,0.07071876525878906,-0.0051490068435668945,0.027320072054862976,-0.0006400644779205322,-0.23454436705416856,1.8625797192985774,2.7372304588138685,0.9315101504325867,0.2323998510837555,0.2797846794128418
1727729685634,6i,7.980655350334369,0.8s : 0.3s,0.0858658371541252,0.027997120060225453,0.08117329153429759,0.03029104844244561,0.09157679229974747,-0.04797300323843956,0.06523238867521286,-0.004736602306365967,0.028938397765159607,-0.0075948238372802734,-0.23364932318720527,1.8622010054931746,2.736149165033248,0.931814968585968,0.23152922093868256,0.2794915437698364
1727729685644,6i,7.980655350334369,0.8s : 0.3s,0.08480250015529797,0.028161195683458894,0.07999006869772803,0.019228629013072592,0.08628096431493759,-0.04535764828324318,0.034447282552719116,-0.013087689876556396,0.01342955231666565,0.004254370927810669,-0.2330908129287093,1.8618084639926673,2.735170864464658,0.932048499584198,0.2309858500957489,0.27916285395622253
1727729685654,6i,7.980655350334369,0.8s : 0.3s,0.07674119539163544,0.028331684016858285,0.07131989028949826,0.0158432910945572,0.05991141125559807,-0.04327372461557388,0.021248389035463333,8.827447891235352e-05,0.012048378586769104,0.01028779149055481,-0.2328323110523294,1.8616033216544268,2.734519814113306,0.9321629405021667,0.23073433339595795,0.278988778591156
1727729685664,6i,7.980655350334369,0.8s : 0.3s,0.076164720383948,0.028469931802903515,0.07064366648400272,0.027222005717700816,0.085856594145298,-0.04996247589588165,0.0075715589337050915,0.019025206565856934,0.017703980207443237,-0.008102357387542725,-0.2327281391522446,1.8611412155596405,2.7337987692965373,0.9323148131370544,0.2306329756975174,0.2785648703575134
1727729685674,6i,7.980655350334369,0.8s : 0.3s,0.07628390118892768,0.028607751964670306,0.07071654762592688,0.04328018660284159,0.09100688248872757,-0.05577455833554268,0.015971967950463295,0.029783964157104492,0.031058847904205322,0.0046301186084747314,-0.23272458807123667,1.8603809726280538,2.7329174113813544,0.9325270652770996,0.23062951862812042,0.2778562307357788
1727729685684,6i,7.980655350334369,0.8s : 0.3s,0.07591051371903267,0.02879186190794127,0.07023841385567793,0.04893342542055309,0.08043625950813293,-0.053407806903123856,0.021032240241765976,0.028617918491363525,0.03792238235473633,0.011721253395080566,-0.23283732511199984,1.8596081308188077,2.7319617034294983,0.932716429233551,0.23073920607566833,0.2771279811859131
1727729685694,6i,7.980655350334369,0.8s : 0.3s,0.07446104355187821,0.029002998809944912,0.06858041314300344,0.04226872616058213,0.05554502457380295,-0.05381127446889877,0.03265773877501488,0.01917022466659546,0.03441312909126282,0.015325933694839478,-0.2329311744419332,1.8589729654774283,2.731265828284515,0.9328715801239014,0.23083052039146423,0.27652937173843384
1727729685704,6i,7.980655350334369,0.8s : 0.3s,0.069047923692801,0.029213538093120335,0.06256344746230562,0.032221065841935355,0.030580155551433563,-0.048656683415174484,0.03939789533615112,0.016295969486236572,0.027495354413986206,0.004079699516296387,-0.23296820077164251,1.8583709395240213,2.7307287117476435,0.9330297112464905,0.23086655139923096,0.27596530318260193
1727729685714,6i,7.980655350334369,0.8s : 0.3s,0.062176716991123065,0.029446692758764006,0.05476163274926312,0.03986518727133827,0.014887744560837746,-0.04436473175883293,0.03283347189426422,0.0103074312210083,0.03574436902999878,0.014329344034194946,-0.23303710427825877,1.8577915808575394,2.7304203007876287,0.933174192905426,0.23093359172344208,0.2754201889038086
1727729685724,6i,7.980655350334369,0.8s : 0.3s,0.05717690700123551,0.02978524003756535,0.04880612840753247,0.06312354453420045,0.016746364533901215,-0.03504526987671852,0.027812015265226364,0.0034570693969726562,0.0581861287355423,0.024228185415267944,-0.23294699690940524,1.857479122659785,2.7301985807500104,0.9332799911499023,0.23084592819213867,0.27513444423675537
1727729685734,6i,7.980655350334369,0.8s : 0.3s,0.055223499022973035,0.030190043443441186,0.046240632794366444,0.06569546311235507,0.03571126610040665,-0.025242704898118973,0.019077913835644722,-0.0024314522743225098,0.061320722103118896,0.023446768522262573,-0.23289324293291136,1.8572498418888033,2.729915839934549,0.9333549737930298,0.23079362511634827,0.2749239504337311
1727729685744,6i,7.980655350334369,0.8s : 0.3s,0.05259671818284998,0.030609914523035107,0.04277204573665639,0.034635292512150424,0.031152870506048203,-0.01922941952943802,0.01812879554927349,0.0009157657623291016,0.031916216015815735,0.01342087984085083,-0.23295676662163245,1.8568302327488093,2.7295048448333885,0.9334560632705688,0.23085542023181915,0.2745281159877777
1727729685754,6i,7.980655350334369,0.8s : 0.3s,0.05152279160416569,0.030963706920469184,0.04118066182602673,0.00890206804037102,0.027726178988814354,-0.020893895998597145,0.025004545226693153,0.007519125938415527,-0.004562780261039734,0.0013749897480010986,-0.23301468723558152,1.8565472183017415,2.729156052105913,0.9335210919380188,0.23091177642345428,0.2742602229118347
1727729685764,6i,7.980655350334369,0.8s : 0.3s,0.048832691397366026,0.03128713419783924,0.037493292504083765,0.013295076240553337,0.006525419652462006,-0.019528182223439217,0.027628324925899506,0.002807438373565674,-0.012964606285095215,-0.0008923709392547607,-0.23302443848709375,1.8563287094168948,2.728912548509244,0.9335788488388062,0.23092126846313477,0.2740556001663208
1727729685774,6i,7.980655350334369,0.8s : 0.3s,0.04883359615509509,0.03157665381943237,0.03725097377259613,0.00471775583378159,0.030170828104019165,-0.026246005669236183,0.03531340882182121,-0.0036224722862243652,0.0030074268579483032,-0.00030049681663513184,-0.23296573471697601,1.8561319806022432,2.7286958774573455,0.9336458444595337,0.23086415231227875,0.27387577295303345
1727729685784,6i,7.980655350334369,0.8s : 0.3s,0.05215841286519471,0.03183031090603456,0.041319866169208325,0.021033063264992838,0.06805628538131714,-0.02665688842535019,0.04716390743851662,-0.006057798862457275,0.018600955605506897,-0.007726401090621948,-0.23287262498002712,1.8557278049543093,2.7280767831745507,0.9337770938873291,0.23077355325222015,0.27350443601608276
1727729685794,6i,7.980655350334369,0.8s : 0.3s,0.0577138294017425,0.03206416187182306,0.04798724442673245,0.0267566431236957,0.08519852161407471,-0.02462169900536537,0.04591462016105652,-0.010502934455871582,0.024479717016220093,-0.0025198757648468018,-0.23288403344848072,1.8553655871693397,2.727186777485479,0.9338733553886414,0.23078465461730957,0.27316537499427795
1727729685804,6i,7.980655350334369,0.8s : 0.3s,0.06074132662991568,0.032282500689014074,0.05145239459953161,0.011859748912166573,0.08814185112714767,-0.024304784834384918,0.04186035692691803,-0.005084335803985596,0.010714471340179443,-5.7250261306762695e-05,-0.23310542684889185,1.855080519774431,2.7262367967276164,0.9339020252227783,0.23100006580352783,0.2728847861289978
1727729685814,6i,7.980655350334369,0.8s : 0.3s,0.06085448200213153,0.03248148053833852,0.051460872532296684,0.008731947731349516,0.06242956221103668,-0.027130931615829468,0.03565306216478348,0.005421698093414307,-0.006827205419540405,-0.0004912912845611572,-0.23338164842394227,1.854829213030752,2.7254192292978505,0.9339093565940857,0.23126880824565887,0.2726322114467621
1727729685824,6i,7.980655350334369,0.8s : 0.3s,0.05948632028431372,0.03266314378868582,0.049716610290803105,0.017835049929324966,0.03684963658452034,-0.029660576954483986,0.02843562699854374,0.01028364896774292,-0.014533445239067078,0.0010557174682617188,-0.2334449569663742,1.854533235607438,2.724860947724865,0.9339760541915894,0.23133040964603424,0.2723517119884491
1727729685834,6i,7.980655350334369,0.8s : 0.3s,0.053197665951909015,0.032828248712880224,0.04186045567329837,0.015404321430905385,0.01170114055275917,-0.026832301169633865,0.022205429151654243,0.0067702531814575195,-0.013740018010139465,0.0016336143016815186,-0.23322539968768324,1.8541933756983306,2.724552850536629,0.9341171979904175,0.23111680150032043,0.2720484435558319
1727729685844,6i,7.980655350334369,0.8s : 0.3s,0.05164410262412076,0.032980815975176006,0.039741403013259256,0.02027336200704817,0.00958765484392643,-0.02524896338582039,0.03077554702758789,0.010391414165496826,-0.017085358500480652,0.0033344030380249023,-0.23291552955215294,1.8539030465687665,2.724391077410675,0.9342650771141052,0.23081530630588531,0.2717972695827484
1727729685854,6i,7.980655350334369,0.8s : 0.3s,0.0506182041539531,0.0331004825131728,0.038295700139394456,0.020682784387254745,0.008139161393046379,-0.029867151752114296,0.03220486640930176,0.006654918193817139,-0.01883120834827423,-0.005373567342758179,-0.23267117130217077,1.8536033868764032,2.7242205996758093,0.9344006180763245,0.23057754337787628,0.2715330421924591
1727729685864,6i,7.980655350334369,0.8s : 0.3s,0.05001923224715666,0.033196914170341846,0.03741508364499475,0.01096700040876541,0.0032674414105713367,-0.03387005999684334,0.042873553931713104,-0.00742727518081665,-0.0076970309019088745,-0.0024220645427703857,-0.23245650692245426,1.8532223538854238,2.7240447520139917,0.9345515370368958,0.23036865890026093,0.2711907625198364
1727729685874,6i,7.980655350334369,0.8s : 0.3s,0.04965729816848068,0.03328382830524685,0.03685151333039451,0.027146544877874247,0.006966305896639824,-0.031497981399297714,0.043970778584480286,-0.02655351161956787,0.004148766398429871,0.0038253962993621826,-0.2322318321876592,1.8528734409580627,2.723897708238137,0.9346955418586731,0.2301500141620636,0.27087903022766113
1727729685884,6i,7.980655350334369,0.8s : 0.3s,0.050191093646131696,0.03326456755027964,0.037584763230432146,0.03579800621930186,0.03955407813191414,-0.029295193031430244,0.044123511761426926,-0.03168761730194092,0.004470929503440857,-0.016043782234191895,-0.23199486918547413,1.8525330870471326,2.7235382468363944,0.934840202331543,0.2299194037914276,0.2705760598182678
1727729685894,6i,7.980655350334369,0.8s : 0.3s,0.052258809287463355,0.033181887139491585,0.04037258369247018,0.031632605324866496,0.05844227969646454,-0.028862161561846733,0.05063999816775322,-0.02547532320022583,-0.008912235498428345,-0.016498535871505737,-0.23161987060312034,1.8521125712690623,2.722918873233478,0.9350367188453674,0.2295544445514679,0.27020686864852905
1727729685904,6i,7.980655350334369,0.8s : 0.3s,0.05456728855728419,0.03302989268621686,0.04343518354549588,0.03687563630959132,0.06303689628839493,-0.025614749640226364,0.055361948907375336,-0.021722137928009033,-0.026615634560585022,-0.013400346040725708,-0.2311214831291577,1.8516699896037039,2.722149355624308,0.9352658987045288,0.22906933724880219,0.26982465386390686
1727729685914,6i,7.980655350334369,0.8s : 0.3s,0.05557568267179985,0.03283287423802404,0.04484037102552444,0.03645318370770085,0.07235556840896606,-0.026575617492198944,0.03865993395447731,-0.02261984348297119,-0.02543298900127411,-0.013051450252532959,-0.23072171735518449,1.8512702809606583,2.7213762065086113,0.9354618191719055,0.22868017852306366,0.26947617530822754
1727729685924,6i,7.980655350334369,0.8s : 0.3s,0.056003926855259206,0.032629392503044176,0.04551661859246035,0.014833188902617972,0.06967536360025406,-0.027486596256494522,0.02952076680958271,-0.007018625736236572,-0.008195921778678894,-0.01017788052558899,-0.23042939196842124,1.8508534662044276,2.7205500745944775,0.9356380701065063,0.22839558124542236,0.26910465955734253
1727729685934,6i,7.980655350334369,0.8s : 0.3s,0.05692178934023374,0.032436263785371094,0.04677583663965584,0.01667199257133341,0.07879455387592316,-0.030934855341911316,0.02746693789958954,0.013889074325561523,0.004175722599029541,-0.00822266936302185,-0.23018198658924754,1.85032914743259,2.719751252593142,0.9358333945274353,0.228154718875885,0.26862967014312744
1727729685944,6i,7.980655350334369,0.8s : 0.3s,0.059819757475258695,0.03224960628327018,0.050382202005994435,0.01960510064093728,0.0905822366476059,-0.029806653037667274,0.03008229285478592,0.014733493328094482,0.00806000828742981,-0.010115355253219604,-0.2300948483061241,1.8498510386399636,2.7188483358752182,0.9359808564186096,0.22806987166404724,0.26818767189979553
1727729685954,6i,7.980655350334369,0.8s : 0.3s,0.061513774295700804,0.03207919460481672,0.052486852654819366,0.019679179786113922,0.0883670225739479,-0.03105354495346546,0.032402973622083664,-0.0093345046043396,0.0168256014585495,-0.00412750244140625,-0.2301659331584801,1.849490284163327,2.7178944474398326,0.9360618591308594,0.22813908755779266,0.2678455114364624
1727729685964,6i,7.980655350334369,0.8s : 0.3s,0.06145945755871011,0.03197716991470406,0.05248547920765356,0.03736016200373108,0.06754602491855621,-0.03267696499824524,0.024949951097369194,-0.026309192180633545,0.025499537587165833,0.007306277751922607,-0.2302528943321804,1.84893663309526,2.717023759265309,0.9361910820007324,0.2282237559556961,0.2673218250274658
1727729685974,6i,7.980655350334369,0.8s : 0.3s,0.059911724323403096,0.03193536196310168,0.05069070297095049,0.03213193607934221,0.040731728076934814,-0.0298612043261528,0.02509269490838051,-0.021205246448516846,0.011396586894989014,0.021281838417053223,-0.2301627463507336,1.8484107180539442,2.71639625174262,0.9363512396812439,0.22813598811626434,0.2668350338935852
1727729685984,6i,7.980655350334369,0.8s : 0.3s,0.05010398431721777,0.031965141697334915,0.03858288429769481,0.03465100777850849,-0.006122731138020754,-0.030977735295891762,0.012663689441978931,-0.012453317642211914,-0.014082863926887512,0.02910807728767395,-0.22984652026873606,1.8480164686355285,2.7161657980867786,0.9365257620811462,0.22782808542251587,0.2664856016635895
1727729685994,6i,7.980655350334369,0.8s : 0.3s,0.04888023926885643,0.03200069245851927,0.03694906593076369,0.01964462028980665,0.007344341371208429,-0.03915043920278549,0.014507129788398743,-0.007109522819519043,-0.016617104411125183,0.007696598768234253,-0.2295500452806494,1.847641975644258,2.7161559380792677,0.9366902112960815,0.22753939032554626,0.2661532461643219
1727729686004,6i,7.980655350334369,0.8s : 0.3s,0.04758410839028087,0.03204083247532661,0.03518000036364489,0.012573751238827802,0.002578215440735221,-0.042779576033353806,0.004138011950999498,-0.011776924133300781,0.0031163394451141357,0.0031131505966186523,-0.22943646489689812,1.847168305308205,2.7160479767588006,0.9368410706520081,0.22742879390716553,0.2657166123390198
1727729686014,6i,7.980655350334369,0.8s : 0.3s,0.04706970470638805,0.03209217832404696,0.034433257057155366,0.02759892039141172,0.02167787402868271,-0.04254335165023804,0.001468193018808961,-0.017971396446228027,0.02079591155052185,0.002501875162124634,-0.22944198913682068,1.8466485282914993,2.715941395759625,0.9369779229164124,0.2274341732263565,0.2652292847633362
1727729686024,6i,7.980655350334369,0.8s : 0.3s,0.04678271402811413,0.03214551945263773,0.03398952648914657,0.023745439963454112,0.028106344863772392,-0.044197309762239456,-0.006042353808879852,-0.015236616134643555,0.018179744482040405,-0.0010901093482971191,-0.22959017485461647,1.8460785778749302,2.7156609698716156,0.9370966553688049,0.22757847607135773,0.26468610763549805
1727729686034,6i,7.980655350334369,0.8s : 0.3s,0.0465817518237975,0.03221434588147105,0.03364662720694024,0.024653405497515556,0.02375607192516327,-0.04638376459479332,-0.0043280767276883125,-0.014015495777130127,0.019783541560173035,0.0044685304164886475,-0.229839116345432,1.845585614295708,2.715426862931139,0.9371722340583801,0.22782087326049805,0.2642086446285248
1727729686044,6i,7.980655350334369,0.8s : 0.3s,0.045804192772109814,0.032291890767900455,0.032484732816179696,0.030302372582134432,0.010393127799034119,-0.042922455817461014,-0.015845049172639847,-0.026419520378112793,0.014396414160728455,0.003603607416152954,-0.23023177441437967,1.8452644493614176,2.7153129799045987,0.9371710419654846,0.2282031923532486,0.26388344168663025
1727729686054,6i,7.980655350334369,0.8s : 0.3s,0.04532470988411414,0.032361940179114514,0.031733801441405154,0.026404925862142367,0.00748575571924448,-0.04670041427016258,-0.012127810157835484,-0.024306416511535645,0.009865045547485352,-0.0030164718627929688,-0.2305290294963414,1.8451025439668183,2.7153434089120023,0.9371482729911804,0.2284925878047943,0.2637133002281189
1727729686064,6i,7.980655350334369,0.8s : 0.3s,0.04522295119608406,0.0324022152042373,0.03154697710941088,0.01780383201223963,0.00653793616220355,-0.05327078700065613,-0.010271120816469193,-0.011685729026794434,0.0038418620824813843,-0.0128709077835083,-0.23050920689163518,1.8449518164060195,2.7154150931545487,0.937192440032959,0.22847329080104828,0.2635732591152191
1727729686074,6i,7.980655350334369,0.8s : 0.3s,0.045471480839126936,0.03241868196023987,0.0318854924638762,0.023562897981940358,0.021654037758708,-0.04960068687796593,-0.00390936154872179,-0.02024322748184204,0.0037373602390289307,-0.011465340852737427,-0.23045978232747688,1.8445395726716178,2.7153081958051284,0.9373117089271545,0.22842517495155334,0.2631899118423462
1727729686084,6i,7.980655350334369,0.8s : 0.3s,0.04567251366283894,0.03243038400998564,0.03215973720736968,0.033853725713904645,0.028302352875471115,-0.04503069818019867,-0.007660357281565666,-0.02990591526031494,0.014266535639762878,-0.006940960884094238,-0.23060024359759868,1.8441173551038723,2.7150908822764097,0.9373919367790222,0.22856192290782928,0.26278549432754517
1727729686094,6i,7.980655350334369,0.8s : 0.3s,0.04543436290451346,0.03243675123062786,0.03181412425545282,0.032866823198978004,0.012772662565112114,-0.04486851394176483,-0.021909333765506744,-0.02667909860610962,0.016981586813926697,-0.008948713541030884,-0.23097745464237898,1.8437121301428996,2.714938539633023,0.9374151825904846,0.22892913222312927,0.2623823285102844
1727729686104,6i,7.980655350334369,0.8s : 0.3s,0.045548062602076576,0.032417247399221805,0.031996063474439077,0.02679408994223411,0.017992457374930382,-0.04849432036280632,-0.03175404295325279,-0.014542162418365479,0.013298124074935913,-0.01815512776374817,-0.23140697688948925,1.8432577453706456,2.7148607585173616,0.9374395608901978,0.22934722900390625,0.26192986965179443
1727729686114,6i,7.980655350334369,0.8s : 0.3s,0.04583326932097298,0.032370242064238705,0.03244774268499173,0.02178313033200007,0.008613071404397488,-0.05234099179506302,-0.04544482007622719,-0.007381618022918701,0.008284732699394226,-0.018745124340057373,-0.23194870505026363,1.842815957576776,2.7148678310023975,0.9374352693557739,0.22987447679042816,0.26148226857185364
1727729686124,6i,7.980655350334369,0.8s : 0.3s,0.048574454295702355,0.03229242939130958,0.03628603883220876,0.021343863870867303,0.02289680391550064,-0.05775967985391617,-0.05347242206335068,-0.003576338291168213,0.00498199462890625,-0.020443826913833618,-0.2325829553630298,1.8423584520021836,2.714863681166035,0.9374142289161682,0.23049169778823853,0.2610142230987549
1727729686134,6i,7.980655350334369,0.8s : 0.3s,0.050081204946193336,0.03221389144531138,0.0383456945016297,0.013223134809606785,0.021063216030597687,-0.057872332632541656,-0.049294985830783844,0.0025461316108703613,0.009592697024345398,-0.008737772703170776,-0.2332390450137453,1.841813031971657,2.7148158712349817,0.9374107718467712,0.23113007843494415,0.2604624032974243
1727729686144,6i,7.980655350334369,0.8s : 0.3s,0.05185184981798615,0.03212104383130814,0.040704457651885885,0.025467617530074697,0.03569408878684044,-0.06201683357357979,-0.03963190317153931,0.014280438423156738,0.014237523078918457,-0.015555113554000854,-0.23376600039464782,1.84112806619384,2.7146431473734074,0.9374715089797974,0.2316427230834961,0.2597877085208893
1727729686154,6i,7.980655350334369,0.8s : 0.3s,0.05254190344800877,0.032034518732532685,0.04164662324264585,0.029941750946927807,0.021838197484612465,-0.06389302760362625,-0.03284537047147751,0.023910045623779297,0.016845569014549255,-0.006406635046005249,-0.234253525222598,1.8404188145625886,2.714442551248333,0.9375464916229248,0.2321169674396515,0.2590925991535187
1727729686164,6i,7.980655350334369,0.8s : 0.3s,0.052921288788350805,0.03197289993267884,0.042171038366572496,0.036229729867476475,0.02591962367296219,-0.058180324733257294,-0.028738809749484062,0.027058720588684082,0.024070829153060913,-0.0010070502758026123,-0.23474747637736695,1.839835167902571,2.714349038971779,0.9375869035720825,0.23259739577770233,0.2585148513317108
1727729686174,6i,7.980655350334369,0.8s : 0.3s,0.05374806408965977,0.03191508066635199,0.04324675732868789,0.031190669732303992,0.04747658222913742,-0.055915042757987976,-0.03461214900016785,0.021340250968933105,0.021368205547332764,-0.00780072808265686,-0.23534548644319325,1.8392110113371494,2.7140576862623833,0.9376135468482971,0.23317895829677582,0.2578926086425781
1727729686184,6i,7.980655350334369,0.8s : 0.3s,0.053377867185490785,0.03192145392821231,0.04278104117925267,0.03339446905898398,0.00877978466451168,-0.04666641354560852,-0.03774568811058998,0.020241260528564453,0.007020086050033569,0.02561640739440918,-0.23589977178064483,1.838547357511625,2.7137987658976734,0.9376598596572876,0.2337179332971573,0.257236123085022
1727729686194,6i,7.980655350334369,0.8s : 0.3s,0.05184931711738912,0.03220093128258137,0.0406380574101919,0.05434380876526353,-0.04093903675675392,-0.034183382987976074,-0.03856700658798218,0.022132515907287598,-0.010207951068878174,0.04857158660888672,-0.23627731172644473,1.8380940855334074,2.7140785464777495,0.9376912117004395,0.23408499360084534,0.2567877471446991
1727729686204,6i,7.980655350334369,0.8s : 0.3s,0.05033205798717406,0.03248572155917827,0.038444686967171314,0.03884489859302927,-0.04447917640209198,-0.027819400653243065,-0.0320059098303318,0.026057422161102295,-0.017780184745788574,0.02266719937324524,-0.23653244601363294,1.837763773758683,2.714565098760429,0.9377184510231018,0.23433303833007812,0.2564622759819031
1727729686214,6i,7.980655350334369,0.8s : 0.3s,0.048912574103429245,0.03275686341256841,0.0363239288182569,0.02545126024591049,-0.039801597595214844,-0.02411467768251896,-0.02289843186736107,0.019765079021453857,-0.011409983038902283,0.01126590371131897,-0.23672899829422947,1.837568297507808,2.7150453620105783,0.9377241134643555,0.23452411592006683,0.25626683235168457
1727729686224,6i,7.980655350334369,0.8s : 0.3s,0.04784928473763309,0.03302734219555194,0.034622950732151665,0.016330204930089128,-0.020614322274923325,-0.026884810999035835,-0.015313816256821156,0.009651720523834229,-0.0026138722896575928,0.01291075348854065,-0.23691011498949413,1.8372418985220609,2.715367293056767,0.9377667307853699,0.23470017313957214,0.25594955682754517
1727729686234,6i,7.980655350334369,0.8s : 0.3s,0.04608670697688321,0.03331460061211486,0.03184528137775473,0.01981314701171089,-0.008336351253092289,-0.026262430474162102,-8.825818076729774e-05,0.005721569061279297,0.006878063082695007,0.017678141593933105,-0.2370189705007118,1.8369327950598677,2.7155109827759585,0.9378210306167603,0.23480598628520966,0.25565290451049805
1727729686244,6i,7.980655350334369,0.8s : 0.3s,0.044868259278878594,0.03364061436066729,0.02968955634821007,0.030979580845570745,-0.0150182219222188,-0.023533843457698822,0.010646144859492779,0.008648395538330078,0.0075094252824783325,0.028784513473510742,-0.23704444817667703,1.8366600650050091,2.715603462514925,0.9378848671913147,0.23483075201511383,0.2553955316543579
1727729686254,6i,7.980655350334369,0.8s : 0.3s,0.04367113649668661,0.033975858898327896,0.027437368223522208,0.0244283949694909,-0.004998877644538879,-0.022647010162472725,0.02379949763417244,0.01126629114151001,-0.00531613826751709,0.021013230085372925,-0.2369429605384046,1.8363654019132627,2.715650875407411,0.937982976436615,0.23473210632801056,0.25512540340423584
1727729686264,6i,7.980655350334369,0.8s : 0.3s,0.042669402329351055,0.03428241891830906,0.025404598958723868,0.02025464864446015,0.012823928147554398,-0.02237354777753353,0.03198276087641716,0.011525332927703857,-0.015237271785736084,0.006726294755935669,-0.23667917912689956,1.8362392653187893,2.7155484295408105,0.9380751252174377,0.23447568714618683,0.25502339005470276
1727729686274,6i,7.980655350334369,0.8s : 0.3s,0.04194153223126965,0.034568537928242826,0.023750964431160856,0.015465931606279432,0.011836161836981773,-0.021689115092158318,0.036943960934877396,0.002644062042236328,-0.012850642204284668,0.00818932056427002,-0.23628030988037885,1.8362313233772949,2.7154048591285145,0.9381672143936157,0.23408791422843933,0.25504040718078613
1727729686284,6i,7.980655350334369,0.8s : 0.3s,0.04152233831047012,0.034814535986585654,0.022628580662689968,0.016357009344666294,0.030007442459464073,-0.019680293276906013,0.034689661115407944,-0.0025772452354431152,-0.01612129807472229,-0.0010066330432891846,-0.2358619821257657,1.8360521431759331,2.7151200995485114,0.9383072257041931,0.23368118703365326,0.25489795207977295
1727729686294,6i,7.980655350334369,0.8s : 0.3s,0.04138604683256222,0.035013294977555495,0.022065222574035384,0.02345934801263788,0.035314325243234634,-0.019040068611502647,0.02936573699116707,-0.005440652370452881,-0.022427335381507874,-0.004213660955429077,-0.2355524573721476,1.835807232876214,2.7147122520146634,0.9384395480155945,0.23338022828102112,0.25468710064888
1727729686304,6i,7.980655350334369,0.8s : 0.3s,0.04163997625034368,0.03519444616623194,0.022253956528702643,0.023761126665201516,0.025582201778888702,-0.02357352338731289,0.04388133063912392,-0.002117753028869629,-0.022494211792945862,0.007356405258178711,-0.23526027123008636,1.8355727339626482,2.714348162581748,0.9385649561882019,0.23309609293937683,0.2544848620891571
1727729686314,6i,7.980655350334369,0.8s : 0.3s,0.04203224582580495,0.03537190806456411,0.022705457692654477,0.02577377930053995,0.016206009313464165,-0.027536839246749878,0.03820240497589111,-0.006419181823730469,-0.021575555205345154,0.012552976608276367,-0.2349589531594377,1.8353651640989448,2.7140123119041215,0.9386855363845825,0.23280306160449982,0.25430840253829956
1727729686324,6i,7.980655350334369,0.8s : 0.3s,0.04184646499880477,0.03562794852562289,0.021949394450684924,0.03966313411218151,-0.03525225445628166,-0.02044169045984745,0.04170729219913483,-0.01732933521270752,-0.008496016263961792,0.0346507728099823,-0.23461092146657175,1.835371815896428,2.714061010167382,0.9387617707252502,0.23246458172798157,0.25433576107025146
1727729686334,6i,7.980655350334369,0.8s : 0.3s,0.041915975725035415,0.03589754719569327,0.021640589786665533,0.02266457567020648,-0.04504230245947838,-0.017100755125284195,0.031229350715875626,-0.013070285320281982,-0.0027807801961898804,0.018306225538253784,-0.23406884555695662,1.8354368393216351,2.714403548680676,0.9388667941093445,0.23193731904029846,0.25442972779273987
1727729686344,6i,7.980655350334369,0.8s : 0.3s,0.04228508774295361,0.03614609247985306,0.021942849492880268,0.00958474646546022,-0.040953949093818665,-0.008986592292785645,0.03705764561891556,-0.009133219718933105,0.002560064196586609,0.0013775825500488281,-0.23351962713713648,1.8354410165995554,2.714781846008973,0.9389886260032654,0.23140305280685425,0.2544669806957245
1727729686354,6i,7.980655350334369,0.8s : 0.3s,0.04261516624720197,0.03635349378281098,0.0222368137119459,0.023893950478733834,-0.01284774485975504,-0.004216338507831097,0.047753434628248215,-0.007848262786865234,0.018404915928840637,-0.013060808181762695,-0.2329329127787301,1.8354882910604327,2.7149516674289687,0.9391075372695923,0.23083221912384033,0.2545468509197235
1727729686364,6i,7.980655350334369,0.8s : 0.3s,0.044530697596443576,0.0364576108350183,0.025570014482363172,0.03574797467930368,0.045242056250572205,-0.010390655137598515,0.05556771159172058,-0.011528968811035156,0.01706412434577942,-0.029220134019851685,-0.2323663454305363,1.835370878830018,2.7146888399333786,0.9392633438110352,0.23028092086315155,0.25447070598602295
1727729686374,6i,7.980655350334369,0.8s : 0.3s,0.05243852908889486,0.03631786136244619,0.037826079350958525,0.041809010298202144,0.0858595222234726,-0.017171328887343407,0.06977861374616623,-0.0010953545570373535,0.007350504398345947,-0.041143208742141724,-0.23179549887805947,1.835015825461563,2.713812393414192,0.9394803643226624,0.22972537577152252,0.2541714906692505
1727729686384,6i,7.980655350334369,0.8s : 0.3s,0.06150025423495159,0.03613423302025745,0.049765434540466114,0.028992418490521248,0.09044256061315536,-0.0256753358989954,0.07196160405874252,0.0032774806022644043,0.010664865374565125,-0.02675965428352356,-0.2311808148541881,1.8346252442222977,2.7127272411042513,0.9397157430648804,0.22912707924842834,0.2538413107395172
1727729686394,6i,7.980655350334369,0.8s : 0.3s,0.06169234770566817,0.035978966609688134,0.050114466246145004,0.018341157357570706,0.04919285327196121,-0.028482308611273766,0.055768247693777084,-0.006329953670501709,0.017212092876434326,-0.00027129054069519043,-0.23061531260238802,1.8342981108931844,2.711886712233111,0.939923882484436,0.22857658565044403,0.253567636013031
1727729686404,6i,7.980655350334369,0.8s : 0.3s,0.05883456861114616,0.035861920859238554,0.04664149542998569,0.023875121865908896,0.020646166056394577,-0.020769881084561348,0.0367465540766716,-0.01348799467086792,0.019070327281951904,0.004941463470458984,-0.23022689432160076,1.8343283397499726,2.711516351791045,0.9400017857551575,0.22819843888282776,0.25361913442611694
1727729686414,6i,7.980655350334369,0.8s : 0.3s,0.05172805159611956,0.03574594737015777,0.037390086500845625,0.022158373898911538,0.005580929573625326,-0.015253409743309021,0.020879972726106644,-0.013993263244628906,0.014351770281791687,-0.009445041418075562,-0.23001120860063493,1.8343282867218824,2.7113897264255984,0.9400493502616882,0.22798843681812286,0.25363191962242126
1727729686424,6i,7.980655350334369,0.8s : 0.3s,0.04664001560343665,0.03561662801643977,0.030112237781795156,0.02005351547678698,-0.012350800447165966,-0.012282254174351692,0.014349603094160557,-0.012716591358184814,0.006523340940475464,-0.014066904783248901,-0.2299022169654918,1.834222317735461,2.711359644844688,0.9401002526283264,0.22788231074810028,0.25353875756263733
1727729686434,6i,7.980655350334369,0.8s : 0.3s,0.04449715140960521,0.03548747278766927,0.026844659780182804,0.017913969896410975,-0.02095174603164196,-0.005770293064415455,0.009923696517944336,-0.013768374919891357,0.007325991988182068,-0.008813172578811646,-0.22993970310478543,1.8340736598686043,2.7114937466788422,0.9401293992996216,0.2279188185930252,0.2533967196941376
1727729686444,6i,7.980655350334369,0.8s : 0.3s,0.043520562503661216,0.03534013067267458,0.02539910480062965,0.01739668564251053,0.004029638133943081,-0.009335244074463844,0.016847215592861176,-0.004365265369415283,0.003878295421600342,-0.01638743281364441,-0.22998597960950962,1.8338068901079392,2.711531862815373,0.9401869773864746,0.2279638797044754,0.25314322113990784
1727729686454,6i,7.980655350334369,0.8s : 0.3s,0.04299519462617522,0.03519033348607811,0.024702776971047124,0.011279068769407987,0.012892105616629124,-0.014890331774950027,0.01963101699948311,0.007323086261749268,0.00018090009689331055,-0.008576542139053345,-0.2299594799670944,1.8332876155162705,2.7112822294696244,0.9403240084648132,0.22793807089328766,0.2526565194129944
1727729686464,6i,7.980655350334369,0.8s : 0.3s,0.04330570919798911,0.03507845526776905,0.025394614097637408,0.017442106488994455,0.02273235283792019,-0.023656703531742096,0.03423842415213585,0.013496041297912598,0.007400959730148315,0.008204251527786255,-0.22984710231728026,1.8328141094465955,2.711021787010111,0.9404683709144592,0.22782865166664124,0.2522178888320923
1727729686474,6i,7.980655350334369,0.8s : 0.3s,0.04811227969462494,0.034974323967019175,0.033039190675072654,0.02295896768558313,0.06048532575368881,-0.03241477534174919,0.04068007692694664,0.016842901706695557,0.014294028282165527,-0.006253927946090698,-0.22974143259631913,1.832442957167628,2.710503246520394,0.9405852556228638,0.22772575914859772,0.2518750727176666
1727729686484,6i,7.980655350334369,0.8s : 0.3s,0.054977791101470566,0.03487447938690533,0.04250092001226857,0.026680568096663183,0.08068233728408813,-0.029200561344623566,0.04901134595274925,0.016392290592193604,0.018936902284622192,-0.009194523096084595,-0.22967437981700997,1.8320448413050041,2.7096833931528597,0.9407000541687012,0.22766046226024628,0.25150448083877563
1727729686494,6i,7.980655350334369,0.8s : 0.3s,0.055374065215160057,0.03480187345049672,0.04307106572617411,0.013371279726117768,0.05332048982381821,-0.023238809779286385,0.042343586683273315,0.009360551834106445,0.008103489875793457,0.005050212144851685,-0.2295487191509574,1.831557855651219,2.7088667710925445,0.9408501982688904,0.2275381088256836,0.2510537803173065
1727729686504,6i,7.980655350334369,0.8s : 0.3s,0.05423671216274593,0.034721409368646663,0.041665869457859724,0.014915790004046834,0.02593107521533966,-0.018659992143511772,0.030333630740642548,0.0023156404495239258,-0.014492005109786987,-0.0026646554470062256,-0.22938917986102444,1.831168449733205,2.7083736170662607,0.9409829378128052,0.22738274931907654,0.25069668889045715
1727729686514,6i,7.980655350334369,0.8s : 0.3s,0.048253529384901746,0.034547719983571264,0.03368765563283273,0.037238134393901105,-0.008518245071172714,-0.01636354811489582,0.020315881818532944,0.003418147563934326,-0.03376743197441101,-0.015321731567382812,-0.22926748105480807,1.8309256089630503,2.708181368477005,0.9410704374313354,0.22726424038410187,0.25047528743743896
1727729686524,6i,7.980655350334369,0.8s : 0.3s,0.04545661795505981,0.03435372798765485,0.02976786000475153,0.03199254660422669,-0.048368189483881,-0.013644460588693619,0.018953943625092506,0.005976319313049316,-0.031119540333747864,-0.004402369260787964,-0.2290554651281558,1.8307242001909232,2.7084170762535935,0.9411674737930298,0.22705775499343872,0.2502981424331665
1727729686534,6i,7.980655350334369,0.8s : 0.3s,0.04379442566636363,0.03414174794981808,0.02742795592780735,0.019131421699486544,-0.026169942691922188,-0.011381838470697403,0.02252098172903061,0.003666818141937256,-0.013348281383514404,-0.013205647468566895,-0.22874747287439998,1.8306068335587438,2.708737696244389,0.9412643313407898,0.22675779461860657,0.2502056062221527
1727729686544,6i,7.980655350334369,0.8s : 0.3s,0.04308322937942225,0.03392157004494709,0.02656109447002628,0.015486595776527248,0.004720462020486593,-0.008492709137499332,0.028545349836349487,0.0037630200386047363,0.0025512129068374634,-0.014804244041442871,-0.22852831008383973,1.8305732070725638,2.7087713832346423,0.9413206577301025,0.2265443354845047,0.2501867115497589
1727729686554,6i,7.980655350334369,0.8s : 0.3s,0.04287621773422163,0.03373061202752797,0.026469149201301626,0.02009728156311975,0.018296193331480026,-0.015416128560900688,0.029963750392198563,0.01162177324295044,0.016270339488983154,-0.0020276010036468506,-0.2283701734617526,1.830347349993838,2.708563392105574,0.9414118528366089,0.2263903170824051,0.2499833106994629
1727729686564,6i,7.980655350334369,0.8s : 0.3s,0.04310257350005598,0.03358583479770857,0.02701524649653888,0.026670250607123216,0.026935221627354622,-0.01846296153962612,0.03534979373216629,0.013621330261230469,0.022308990359306335,0.00529816746711731,-0.22826444524674974,1.8300150309643224,2.708241317099767,0.9415180683135986,0.2262873351573944,0.24967658519744873
1727729686574,6i,7.980655350334369,0.8s : 0.3s,0.04357582231898999,0.03347536458079234,0.02789717292055272,0.020790834286628306,0.024436110630631447,-0.022810040041804314,0.04167107120156288,0.012126624584197998,0.016479909420013428,0.0036900341510772705,-0.227998384415094,1.8297618844790737,2.7078750583494053,0.9416394233703613,0.22602815926074982,0.24945364892482758
1727729686584,6i,7.980655350334369,0.8s : 0.3s,0.04411967923582411,0.03339657204092637,0.028830800748283498,0.010576550298658265,0.01064479723572731,-0.02512650191783905,0.050568994134664536,0.005346417427062988,0.0014673322439193726,0.009007006883621216,-0.2275106908646112,1.829432993813889,2.7075808819221048,0.9418278336524963,0.22555306553840637,0.24917210638523102
1727729686594,6i,7.980655350334369,0.8s : 0.3s,0.045996756270794595,0.033327902897408966,0.03170098540890741,0.0056915348808621894,0.013417147099971771,-0.028824834153056145,0.06220194697380066,0.0032060742378234863,-0.004138097167015076,0.0022340118885040283,-0.22674888420764994,1.8289794327297175,2.707287599510518,0.9421066641807556,0.22481082379817963,0.24878869950771332
1727729686604,6i,7.980655350334369,0.8s : 0.3s,0.04666892989466359,0.03327226401436145,0.03272530312879703,0.007522015289036027,0.009003624320030212,-0.025067780166864395,0.05835957080125809,-0.007032155990600586,0.0005911141633987427,0.002603858709335327,-0.22596695862165275,1.828620424314514,2.707023280946207,0.9423653483390808,0.22404883801937103,0.24849514663219452
1727729686614,6i,7.980655350334369,0.8s : 0.3s,0.04719488387679874,0.033220135663041515,0.03352282283271555,0.013467364890539735,0.01897183619439602,-0.019608832895755768,0.05470544844865799,-0.008723616600036621,0.009376779198646545,-0.004164665937423706,-0.22535991461193977,1.8282369613843519,2.7060718903441683,0.9425922632217407,0.2234571874141693,0.2481684386730194
1727729686624,6i,7.980655350334369,0.8s : 0.3s,0.04771646347390975,0.03312243068360414,0.03434771421895207,0.026365428333043537,0.04933254048228264,-0.019003186374902725,0.04384324699640274,-0.0036956071853637695,0.0106964111328125,-0.02381312847137451,-0.22502359356963356,1.8278230778336475,2.70556551043827,0.9427673816680908,0.22312936186790466,0.24779734015464783
1727729686634,6i,7.980655350334369,0.8s : 0.3s,0.04913047348719004,0.032987122696297305,0.03640952020138291,0.023869738532374504,0.06000089645385742,-0.017971210181713104,0.04546590894460678,0.0037375688552856445,0.002441778779029846,-0.023448511958122253,-0.22486664311744065,1.82747543927359,2.704903623136144,0.9428870677947998,0.22297637164592743,0.2474784106016159
1727729686644,6i,7.980655350334369,0.8s : 0.3s,0.049556921112533514,0.03284256895149435,0.03711137419741028,0.011681640605033777,0.05296362191438675,-0.013806602917611599,0.04212900251150131,0.0026282072067260742,0.000974014401435852,-0.011340394616127014,-0.22477573810923424,1.8272026881346395,2.7034984117525247,0.9429742693901062,0.22288775444030762,0.24722640216350555
1727729686654,6i,7.980655350334369,0.8s : 0.3s,0.04982751140791691,0.03270321521927354,0.0375936245582674,0.008171379238589462,0.05242167040705681,-0.011269409209489822,0.039428289979696274,-0.0002232193946838379,0.005115926265716553,-0.006367802619934082,-0.22462792287235064,1.8269691914823893,2.7021706327894646,0.9430638551712036,0.22274364531040192,0.24701456725597382
1727729686664,6i,7.980655350334369,0.8s : 0.3s,0.0487881923083076,0.03257976413686804,0.036315928702133626,0.002733573495621688,0.02246696874499321,-0.009819762781262398,0.027860650792717934,-0.0011538267135620117,0.002475842833518982,-0.00010634958744049072,-0.22442476468157457,1.826838130761994,2.7009430143588142,0.943139910697937,0.2225455939769745,0.24690240621566772
1727729686674,6i,7.980655350334369,0.8s : 0.3s,0.04772215455692993,0.03248967581893975,0.03495461343994107,0.009970821616401764,0.012756017968058586,-0.008344370871782303,0.03144606575369835,-0.0007209181785583496,-0.00024418532848358154,0.009941726922988892,-0.2241471503157115,1.8267323413604137,2.700725585964361,0.9432260394096375,0.22227492928504944,0.24681831896305084
1727729686684,6i,7.980655350334369,0.8s : 0.3s,0.044923430783541864,0.03242754050899831,0.031089696844790096,0.012836093077262422,0.00241483049467206,-0.0029337594751268625,0.02347758784890175,-0.008192718029022217,0.007603555917739868,0.006311148405075073,-0.22393879896650665,1.8266865549196427,2.70057861596135,0.9432818293571472,0.2220717817544937,0.24678677320480347
1727729686694,6i,7.980655350334369,0.8s : 0.3s,0.042620045069443224,0.03240818625754083,0.027679915195280378,0.02976517930567445,0.010564635507762432,0.0009914734400808811,0.01539169903844595,-0.015344083309173584,0.02545545995235443,0.0015951693058013916,-0.22386152784029015,1.8266505862793299,2.700492614097972,0.9433075785636902,0.22199644148349762,0.24675726890563965
1727729686704,6i,7.980655350334369,0.8s : 0.3s,0.042479601738039004,0.03238910090472871,0.02748568184356555,0.02814965024550223,0.0558338463306427,0.001871115411631763,0.009245655499398708,-0.010273575782775879,0.02421778440475464,-0.010017752647399902,-0.22394149609813147,1.8264138233925462,2.7000948157671556,0.9433486461639404,0.22207441926002502,0.24652938544750214
1727729686714,6i,7.980655350334369,0.8s : 0.3s,0.04280539208369845,0.03238568139647086,0.027990520393973303,0.010648129018637448,0.05518696457147598,-0.008691247552633286,0.015056672506034374,-0.0021591782569885254,0.010204508900642395,0.002142101526260376,-0.22400998055774382,1.8260312164817403,2.699429151489721,0.9434283375740051,0.22214119136333466,0.24616463482379913
1727729686724,6i,7.980655350334369,0.8s : 0.3s,0.04306307129229038,0.032423514267139096,0.028339792372096023,0.02220793136152378,0.04279434308409691,-0.015466018579900265,0.020085619762539864,0.0007276535034179688,-0.0059477537870407104,0.02138426899909973,-0.22397171319698228,1.8257046062032494,2.6980685840146745,0.9435169100761414,0.22210387885570526,0.24585863947868347
1727729686734,6i,7.980655350334369,0.8s : 0.3s,0.04303789338524951,0.032507068053203705,0.02820550998695976,0.02580354032894863,0.03497903048992157,-0.013350670225918293,0.018328998237848282,-0.006069779396057129,-0.0033534467220306396,0.024854272603988647,-0.22390875372736418,1.825419285256018,2.6976337241768045,0.9436002969741821,0.2220424860715866,0.2455928772687912
1727729686744,6i,7.980655350334369,0.8s : 0.3s,0.04290696454747694,0.032613007236981684,0.027881882390524186,0.01758257773642118,0.03174648806452751,-0.008955743163824081,0.018677406013011932,-0.0075037479400634766,-0.002598404884338379,0.015687227249145508,-0.22383861088179985,1.8252335604798728,2.697259266617381,0.9436610341072083,0.22197408974170685,0.24542155861854553
1727729686754,6i,7.980655350334369,0.8s : 0.3s,0.04240108583051617,0.03272041781908571,0.0269671343926502,0.012884109122078052,0.01922563463449478,-0.004031558521091938,0.020247340202331543,-0.005800127983093262,-0.007529780268669128,0.008698344230651855,-0.2237162746843108,1.8251943574141571,2.6969827278782263,0.9436969757080078,0.2218548059463501,0.24539139866828918
1727729686764,6i,7.980655350334369,0.8s : 0.3s,0.04313891875466721,0.03278795456121197,0.02803419959645143,0.01515646584355743,0.04854770377278328,-0.001085437135770917,0.0317179411649704,-0.00465846061706543,-0.010451510548591614,-0.00993897020816803,-0.22359858471108682,1.8251617479574933,2.696618192920459,0.9437301754951477,0.22174005210399628,0.24536718428134918
1727729686774,6i,7.980655350334369,0.8s : 0.3s,0.04487857037775614,0.03281701449258896,0.03061257321664444,0.018714747521259477,0.06312797963619232,0.006087254732847214,0.026995625346899033,-0.009920060634613037,0.001169845461845398,-0.015826106071472168,-0.22368283048868592,1.825099184660592,2.6952404379310715,0.9437274932861328,0.22182220220565796,0.2453034669160843
1727729686784,6i,7.980655350334369,0.8s : 0.3s,0.045429000275464995,0.032862643966875466,0.03136623499138177,0.0198233969628394,0.056801240891218185,0.010272722691297531,0.020969856530427933,-0.011112868785858154,0.016191020607948303,0.0027059316635131836,-0.22380131032020406,1.8249846643952028,2.6937721723098704,0.9437301158905029,0.22193773090839386,0.24518877267837524
1727729686794,6i,7.980655350334369,0.8s : 0.3s,0.05056218593703994,0.0329126267177372,0.038383507516519255,0.013848672516401003,0.08555831760168076,0.013369446620345116,0.013833915814757347,-0.007110953330993652,0.01185879111289978,-0.0007675588130950928,-0.22390959890864195,1.824969028475669,2.6930335035578263,0.9437108635902405,0.22204332053661346,0.24516801536083221
1727729686804,6i,7.980655350334369,0.8s : 0.3s,0.05098509787981615,0.03296609492305457,0.0388936600404049,0.0048188985013443075,0.06462134420871735,0.010782629251480103,0.012681566178798676,-0.00327986478805542,0.0015916675329208374,0.00315132737159729,-0.22392314386375953,1.8250858664227392,2.6916435216130647,0.9436792135238647,0.2220565229654312,0.2452774941921234
1727729686814,6i,7.980655350334369,0.8s : 0.3s,0.051386730453447424,0.033015042402717125,0.039377697264340525,0.012957411894875752,0.06704322248697281,0.007342091761529446,0.006352297496050596,-0.00567173957824707,-0.010743916034698486,0.00450490415096283,-0.2239610630940421,1.8252545009084638,2.691008247012917,0.9436295628547668,0.22209349274635315,0.2454344779253006
1727729686824,6i,7.980655350334369,0.8s : 0.3s,0.05282123199941596,0.03305537071471492,0.04119981816524063,0.009320586792807804,0.08012346923351288,0.014335863292217255,0.008567148819565773,-0.005704402923583984,-0.0073125362396240234,0.0009273290634155273,-0.22405686753054632,1.8253484734893461,2.690340286948698,0.9435859322547913,0.22218690812587738,0.2455178052186966
1727729686834,6i,7.980655350334369,0.8s : 0.3s,0.06206966796246014,0.03307480813453137,0.05252333526951604,0.013568136691758948,0.11860508471727371,0.014830678701400757,0.006882965564727783,-0.005573689937591553,0.005897387862205505,-0.010874241590499878,-0.2241707501293973,1.8253459236611391,2.6893211930925776,0.9435621500015259,0.22229793667793274,0.2455090433359146
1727729686844,6i,7.980655350334369,0.8s : 0.3s,0.07035646839552367,0.0330766855420218,0.06209642114199923,0.012834932755444286,0.1259269118309021,0.0176105760037899,0.0010731464717537165,-0.008320808410644531,0.003133326768875122,-0.009256452322006226,-0.22437647711599923,1.825163689000563,2.688083543471256,0.9435627460479736,0.22249850630760193,0.24532561004161835
1727729686854,6i,7.980655350334369,0.8s : 0.3s,0.07260559138063626,0.03304195707892155,0.06465138028013499,0.019175851565764446,0.11633181571960449,0.014831566251814365,0.009971832856535912,-0.0005626082420349121,-0.015336394309997559,-0.011497467756271362,-0.22464930312808742,1.824951333193354,2.686829866942389,0.9435559511184692,0.2227644920349121,0.2451099455356598
1727729686864,6i,7.980655350334369,0.8s : 0.3s,0.07268490726989403,0.032963415949331776,0.06478046737855812,0.028067526691593167,0.09678328037261963,0.010008803568780422,0.014109686017036438,0.0043318867683410645,-0.026757806539535522,-0.0072828978300094604,-0.22493902263657808,1.8248682163523358,2.6857342521277117,0.9435135126113892,0.2230469286441803,0.2450152039527893
1727729686874,6i,7.980655350334369,0.8s : 0.3s,0.0730232174365537,0.03286493990295568,0.06520955459103606,0.01852223562258407,0.10038307309150696,0.0027466295287013054,0.02922525443136692,0.007752656936645508,-0.015305966138839722,-0.006978318095207214,-0.22505630866291726,1.824714085411111,2.684726527371239,0.9435259103775024,0.2231612503528595,0.24486321210861206
1727729686884,6i,7.980655350334369,0.8s : 0.3s,0.08325233434004045,0.032750081248053745,0.07654007676578171,0.01643314009987903,0.14940960705280304,-0.00043189735151827335,0.040296316146850586,0.011365354061126709,-0.0014489442110061646,-0.011780381202697754,-0.22503860623515035,1.8244657096892347,2.6833960856872237,0.9435907602310181,0.22314399480819702,0.2446299046278
1727729686894,6i,7.980655350334369,0.8s : 0.3s,0.08689152984960793,0.03266792576879617,0.08051673481686729,0.012109781913956246,0.13748104870319366,0.0011798478662967682,0.0438055619597435,0.004264652729034424,0.009219944477081299,0.006591826677322388,-0.2249103298872931,1.8241825760370167,2.681859801426472,0.9436878561973572,0.22301894426345825,0.24436993896961212
1727729686904,6i,7.980655350334369,0.8s : 0.3s,0.09967718317639926,0.032604762769162486,0.09419379114754904,0.008531043846924517,0.1823747456073761,0.0118402149528265,0.043876536190509796,-0.00682300329208374,0.003858327865600586,0.003367289900779724,-0.2248223086548126,1.8239077596038438,2.6802112896941113,0.9437737464904785,0.22293314337730408,0.2441154420375824
1727729686914,6i,7.980655350334369,0.8s : 0.3s,0.12152759331359121,0.03253291381928053,0.11709212379584243,0.017038913155187265,0.2492685616016388,0.027467910200357437,0.04336840286850929,-0.015402495861053467,-0.003174826502799988,-0.006558060646057129,-0.22500898930608365,1.8235383333040815,2.677935286909196,0.9438235759735107,0.22311513125896454,0.24375636875629425
1727729686924,6i,7.980655350334369,0.8s : 0.3s,0.1551345465265331,0.03245126118472941,0.15170248242370174,0.02482294922120552,0.34190633893013,0.03683069720864296,0.045707859098911285,-0.01667916774749756,0.012221336364746094,-0.013734012842178345,-0.22533763766959664,1.8231419968175462,2.674889711045571,0.9438489675521851,0.22343547642230988,0.24336393177509308
1727729686934,6i,7.980655350334369,0.8s : 0.3s,0.19445322546225619,0.03226035104025203,0.19175851126725707,0.04135547687581321,0.42164379358291626,0.036436546593904495,0.0442441888153553,-0.016698777675628662,0.01848919689655304,-0.033008724451065063,-0.22576392710922616,1.822555925703401,2.6709372606409656,0.9438990950584412,0.22385096549987793,0.2427869737148285
1727729686944,6i,7.980655350334369,0.8s : 0.3s,0.21125967790253522,0.03203165438191286,0.20881720385313232,0.028153958370676663,0.36572927236557007,0.03236710652709007,0.0495130829513073,-0.004168808460235596,-0.0022028088569641113,-0.027756333351135254,-0.226109519859069,1.8219423347179724,2.66675872154861,0.9439730048179626,0.22418777644634247,0.24218854308128357
1727729686954,6i,7.980655350334369,0.8s : 0.3s,0.2094957758179647,0.03173950464581035,0.2070774829149937,0.04567121489285173,0.28549009561538696,0.029838433489203453,0.03623003512620926,0.016219735145568848,-0.04197673499584198,-0.0077931880950927734,-0.22636980237473378,1.821467756039953,2.663453110464016,0.9440312385559082,0.22444142401218414,0.24172604084014893
1727729686964,6i,7.980655350334369,0.8s : 0.3s,0.1926502743565463,0.03149420477341288,0.19005852592120906,0.04618865429264687,0.21943023800849915,0.029388315975666046,0.035592108964920044,0.022852420806884766,-0.038002997636795044,0.012920171022415161,-0.22662940700563344,1.821087606155884,2.660859813895472,0.9440667629241943,0.2246944010257721,0.24135275185108185
1727729686974,6i,7.980655350334369,0.8s : 0.3s,0.19213886390926602,0.03126903027665498,0.1895774004724748,0.01721998519810461,0.27003827691078186,0.02375839278101921,0.054184701293706894,0.014934241771697998,0.0070353299379348755,-0.004899024963378906,-0.22680741750424094,1.8208684791342629,2.658400587346968,0.9440807700157166,0.22486785054206848,0.24113595485687256
1727729686984,6i,7.980655350334369,0.8s : 0.3s,0.20618679752320193,0.031056085563326164,0.20383452853321302,0.03516218928107092,0.34708473086357117,0.029348056763410568,0.059651006013154984,-0.004837632179260254,0.029563352465629578,-0.0184115469455719,-0.22705171752661793,1.8204717012302072,2.6552134772445273,0.9441229104995728,0.2251058965921402,0.24074772000312805
1727729686994,6i,7.980655350334369,0.8s : 0.3s,0.237160315057656,0.030865409909938062,0.23514323615477048,0.030599837026769394,0.4493756890296936,0.047082316130399704,0.08281704783439636,-0.01620393991470337,0.023865118622779846,-0.010209724307060242,-0.22734049949357846,1.8198985854825804,2.6510645143535285,0.9441976547241211,0.22538726031780243,0.2401905357837677
1727729687004,6i,7.980655350334369,0.8s : 0.3s,0.2677218066446509,0.030682927216337346,0.2659577480174488,0.026536453870862918,0.49087414145469666,0.06653617322444916,0.0912536010146141,-0.023304224014282227,0.008207842707633972,-0.00968131422996521,-0.22774961837043078,1.8193145745424795,2.6460799769836023,0.9442486763000488,0.22578582167625427,0.23961646854877472
1727729687014,6i,7.980655350334369,0.8s : 0.3s,0.29903871733782084,0.03052211456381428,0.2974769822853568,0.025343975325974117,0.5397148728370667,0.07545403391122818,0.09388640522956848,-0.0245172381401062,0.006078869104385376,-0.0020662695169448853,-0.22811803303209435,1.8188181032145891,2.6407883182857295,0.944286584854126,0.2261447161436081,0.23912714421749115
1727729687024,6i,7.980655350334369,0.8s : 0.3s,0.32996450348144374,0.03036374152741566,0.328564478844278,0.025661354748827518,0.5845534801483154,0.08651876449584961,0.09091531485319138,-0.020000815391540527,0.010566309094429016,-0.012117162346839905,-0.22860228658268109,1.8183084276300723,2.6349277313203996,0.9443020224571228,0.22661639750003815,0.23861896991729736
1727729687034,6i,7.980655350334369,0.8s : 0.3s,0.3678853451620761,0.03022125366183139,0.36664192751528984,0.029069856598020118,0.6645713448524475,0.09711228311061859,0.09876178950071335,-0.013616979122161865,0.023353561758995056,-0.010688573122024536,-0.22921290700272126,1.8177687700743834,2.6284811552116745,0.9442963004112244,0.2272110879421234,0.23807546496391296
1727729687044,6i,7.980655350334369,0.8s : 0.3s,0.404171507322711,0.030054629482329457,0.4030525109439118,0.04083956665170615,0.7136098742485046,0.09166482836008072,0.10604436695575714,0.0032882094383239746,0.031444162130355835,-0.025851935148239136,-0.22991458556735545,1.81711102139813,2.6213562448520755,0.9442980289459229,0.2278943508863449,0.23741541802883148
1727729687054,6i,7.980655350334369,0.8s : 0.3s,0.43800322644417267,0.02977253837437278,0.4369901856269219,0.05148004010515456,0.75617915391922,0.08515100181102753,0.11291985213756561,0.011648118495941162,0.028331756591796875,-0.04137423634529114,-0.23063504734061116,1.816236790373966,2.613726533121783,0.9443455338478088,0.2285958081483841,0.23654977977275848
1727729687064,6i,7.980655350334369,0.8s : 0.3s,0.46842903380925777,0.029494325571893267,0.4674995662827228,0.03704298628049289,0.7907489538192749,0.09386570751667023,0.10252223908901215,0.0008180141448974609,0.025653377175331116,-0.02670988440513611,-0.23144288414259867,1.8152979844023798,2.6057849951830407,0.9443879127502441,0.22938217222690582,0.23561839759349823
1727729687074,6i,7.980655350334369,0.8s : 0.3s,0.5042190077157939,0.02926041909701738,0.503369283544563,0.04291200633166876,0.8613576292991638,0.11250544339418411,0.10478033125400543,-0.013225018978118896,0.03812742233276367,-0.014588996767997742,-0.23243845878691302,1.8143978993626009,2.597313916989323,0.9443775415420532,0.23035109043121338,0.23471307754516602
1727729687084,6i,7.980655350334369,0.8s : 0.3s,0.5459847033740531,0.02910552237704445,0.5452083683195005,0.065547992716769,0.9441291093826294,0.1344926357269287,0.09500943124294281,-0.024019956588745117,0.05392153561115265,-0.028496474027633667,-0.2336290851841153,1.8134890910958021,2.588045935749076,0.9443235397338867,0.23150953650474548,0.2337886542081833
1727729687094,6i,7.980655350334369,0.8s : 0.3s,0.5983355963064856,0.02915500197742995,0.5976248586422201,0.0804224028331595,1.0539692640304565,0.1716163009405136,0.10767488926649094,-0.03554034233093262,0.07007189095020294,-0.017163246870040894,-0.23503419383521734,1.8126552284372577,2.577898117908871,0.9442014098167419,0.2328762412071228,0.2329229861497879
1727729687104,6i,7.980655350334369,0.8s : 0.3s,0.6744864516620395,0.029442992712250902,0.6738435157036053,0.10164133021253374,1.2456895112991333,0.217903733253479,0.11407466232776642,-0.04587864875793457,0.08870543539524078,-0.01890648901462555,-0.23669501673734827,1.8118523516282845,2.566124499439493,0.9440109729766846,0.23449108004570007,0.2320721298456192
1727729687114,6i,7.980655350334369,0.8s : 0.3s,0.766715024518631,0.02998330888010808,0.766128533609867,0.14116330940990304,1.4386227130889893,0.23580816388130188,0.12026970833539963,-0.05973172187805176,0.12215830385684967,-0.037901848554611206,-0.2387460468923477,1.810889204637706,2.5524374571986916,0.9437651038169861,0.23648442327976227,0.23104798793792725
1727729687124,6i,7.980655350334369,0.8s : 0.3s,0.8684988229372202,0.030830846561325235,0.8679514181932355,0.17003729683220617,1.6218005418777466,0.26097315549850464,0.12725111842155457,-0.0614812970161438,0.14935605227947235,-0.05315545201301575,-0.24117407990086168,1.8096704391130807,2.5368031794517787,0.9434850215911865,0.2388428896665573,0.22976098954677582
1727729687134,6i,7.980655350334369,0.8s : 0.3s,0.9745840569819771,0.032229989561770034,0.9740509801320966,0.1804552124061191,1.7885231971740723,0.3010265827178955,0.15646839141845703,-0.06041514873504639,0.16796575486660004,-0.02648770809173584,-0.24382106430352637,1.8082976172753507,2.5194201957720868,0.9431819915771484,0.2414124310016632,0.2283160388469696
1727729687144,6i,7.980655350334369,0.8s : 0.3s,1.0649500593150172,0.034100865528336036,1.0644039457862213,0.16601753872632147,1.8713663816452026,0.30065008997917175,0.13824345171451569,-0.05633103847503662,0.1561647653579712,0.001096963882446289,-0.2466742381580548,1.8067905505174,2.4998084071177895,0.9428515434265137,0.24418023228645325,0.22673237323760986
1727729687154,6i,7.980655350334369,0.8s : 0.3s,1.121601663089341,0.03622036243930904,1.121016670700994,0.1442038313014681,1.8398377895355225,0.29709744453430176,0.11971317231655121,-0.04962271451950073,0.13269641995429993,0.02690708637237549,-0.24974411127806143,1.8051399699582065,2.480124281964157,0.942490816116333,0.247156023979187,0.22500067949295044
1727729687164,6i,7.980655350334369,0.8s : 0.3s,1.1413949392647664,0.03852045766629715,1.1407447487148028,0.13234249559376607,1.7448809146881104,0.27851036190986633,0.08397521823644638,-0.039192914962768555,0.12258347868919373,0.030850321054458618,-0.2529068912141791,1.8034639261530623,2.4610529632041804,0.9421014785766602,0.2502194344997406,0.22323939204216003
1727729687174,6i,7.980655350334369,0.8s : 0.3s,1.1467333330338634,0.0409925422727271,1.1460004138607331,0.1566388520430322,1.7107503414154053,0.2740221321582794,0.059644848108291626,-0.05491173267364502,0.14591717720031738,0.015119820833206177,-0.25615173856921036,1.8017989365325962,2.442948482306236,0.9416764378547668,0.25335973501205444,0.22148342430591583
1727729687184,6i,7.980655350334369,0.8s : 0.3s,1.1810059636569306,0.04397659587338581,1.1801869111325647,0.2146711088171432,1.8536092042922974,0.30503907799720764,0.02848033607006073,-0.08874744176864624,0.19503915309906006,-0.012934654951095581,-0.25979309855906696,1.8000882727680423,2.424959376043611,0.9411493539810181,0.25688061118125916,0.21966107189655304
1727729687194,6i,7.980655350334369,0.8s : 0.3s,1.2491574966739023,0.04765808136207402,1.2482480357595185,0.2737451576871874,2.067770481109619,0.3496949374675751,0.03142712265253067,-0.12449359893798828,0.24236828088760376,-0.02636989951133728,-0.2639515903373322,1.7982469563173957,2.404440701660397,0.9405032992362976,0.26089730858802795,0.21768496930599213
1727729687204,6i,7.980655350334369,0.8s : 0.3s,1.3554463003984885,0.05192014321320665,1.3544515391820666,0.3209442036667791,2.3610763549804688,0.3612132966518402,0.0030688527040183544,-0.14489924907684326,0.2706446647644043,-0.09359943866729736,-0.26871037775185397,1.7958996370119253,2.381408417620469,0.939790666103363,0.26548832654953003,0.2151971161365509
1727729687214,6i,7.980655350334369,0.8s : 0.3s,1.4747901009377749,0.057124067001274446,1.473683372639213,0.37566808064266366,2.581838846206665,0.3921334147453308,-0.03136848658323288,-0.16770422458648682,0.32720765471458435,-0.07705160975456238,-0.2743663592456165,1.7929362037118186,2.3556805102582072,0.9389446377754211,0.27093705534935,0.21207697689533234
1727729687224,6i,7.980655350334369,0.8s : 0.3s,1.5969471366298662,0.06331438348060707,1.5956915259644637,0.40052496716441494,2.7700676918029785,0.4236883223056793,-0.03342277929186821,-0.16564494371414185,0.3607335090637207,-0.05341663956642151,-0.2805356621043138,1.7895914187374447,2.327910246488825,0.9379990100860596,0.27687039971351624,0.20856839418411255
1727729687234,6i,7.980655350334369,0.8s : 0.3s,1.7006189750943213,0.07024091351175246,1.6991677705629582,0.3908774024502692,2.860168218612671,0.42550939321517944,-0.06997519731521606,-0.158067524433136,0.35678431391716003,-0.0224667489528656,-0.28709726422263177,1.7858247419019222,2.2986850176420517,0.9369831681251526,0.2831695079803467,0.20464178919792175
1727729687244,6i,7.980655350334369,0.8s : 0.3s,1.791328242745432,0.07777021922817423,1.789639255900093,0.3930628357714941,2.949223756790161,0.4271760880947113,-0.12765853106975555,-0.1484803557395935,0.36255526542663574,0.031712085008621216,-0.29419740171667735,1.7816779301924148,2.268572939646966,0.9358341097831726,0.28997182846069336,0.20032864809036255
1727729687254,6i,7.980655350334369,0.8s : 0.3s,1.875376565854773,0.08594709383896923,1.8734060854011008,0.42837118222592396,3.0472779273986816,0.4427555799484253,-0.17972919344902039,-0.1474231481552124,0.39742985367774963,0.061788320541381836,-0.3019306088190772,1.777105229891786,2.2375707950356185,0.9345173835754395,0.2973640263080597,0.19558203220367432
1727729687264,6i,7.980655350334369,0.8s : 0.3s,1.9729758995581057,0.09485048019766987,1.9706946203416167,0.4722273720088726,3.236255407333374,0.46337875723838806,-0.2107723504304886,-0.16125339269638062,0.43995994329452515,0.058577150106430054,-0.31018381597913625,1.772046629075721,2.2051643739660394,0.9330581426620483,0.3052336871623993,0.1903550922870636
1727729687274,6i,7.980655350334369,0.8s : 0.3s,2.082471725694415,0.1045490962581273,2.079845661290348,0.5160196007977382,3.431670665740967,0.5184209942817688,-0.25298401713371277,-0.18292021751403809,0.4788073003292084,0.05966566503047943,-0.3190270177225257,1.76644909695836,2.1706717922104612,0.9314248561859131,0.31364282965660095,0.18459734320640564
1727729687284,6i,7.980655350334369,0.8s : 0.3s,2.202966406959823,0.11499383916784227,2.199963046768494,0.5451691932762295,3.6414241790771484,0.5558027029037476,-0.3173001706600189,-0.1965726613998413,0.5058014392852783,0.052283287048339844,-0.3285861802087098,1.7603645688495269,2.1340913422115104,0.9295439720153809,0.3227051794528961,0.17835359275341034
1727729687294,6i,7.980655350334369,0.8s : 0.3s,2.3348605068925474,0.1261299395657878,2.331451227238446,0.5732807931910651,3.873880386352539,0.5566482543945312,-0.3894404172897339,-0.19211572408676147,0.5396053791046143,0.023842215538024902,-0.3389970926083673,1.7534175036054658,2.095256196063646,0.9274063110351562,0.33254143595695496,0.17127227783203125
1727729687304,6i,7.980655350334369,0.8s : 0.3s,2.472119283991101,0.13803722836641125,2.468262441043414,0.6179830541305974,4.0959553718566895,0.5326192378997803,-0.45809823274612427,-0.1885209083557129,0.5883766412734985,0.0132608562707901,-0.35027636314822896,1.744995663258779,2.053914320424525,0.9250628352165222,0.34315741062164307,0.16279536485671997
1727729687314,6i,7.980655350334369,0.8s : 0.3s,2.6217358562019135,0.150747491430538,2.6173983444485827,0.6607321818746564,4.35724401473999,0.5236100554466248,-0.5352486968040466,-0.20315653085708618,0.628488302230835,-0.01723061501979828,-0.36227964794511786,1.7350768832816914,2.010016792262444,0.922501802444458,0.35440683364868164,0.15292732417583466
1727729687324,6i,7.980655350334369,0.8s : 0.3s,2.7661520732073113,0.16423278488194512,2.761272330734335,0.6903493585629057,4.539872169494629,0.5526211857795715,-0.6367119550704956,-0.21831798553466797,0.6547661423683167,-0.014170140027999878,-0.3751185544318411,1.7237840086477276,1.9634511343830907,0.9195969700813293,0.3663828372955322,0.14179497957229614
1727729687334,6i,7.980655350334369,0.8s : 0.3s,2.9040050848312857,0.17842398611916072,2.8985186585397917,0.7104916137611245,4.706557273864746,0.5751819014549255,-0.7430732846260071,-0.20905309915542603,0.6786630153656006,0.02261960506439209,-0.388682655667426,1.7114734736003443,1.914979096895377,0.9162675738334656,0.378969669342041,0.12975499033927917
1727729687344,6i,7.980655350334369,0.8s : 0.3s,3.035715502852475,0.19318840907664986,3.029562155305167,0.725019429272525,4.868622779846191,0.5315959453582764,-0.8727600574493408,-0.169048011302948,0.7039026021957397,0.03996334969997406,-0.40311872488357686,1.69760622227997,1.8644951282574598,0.9124561548233032,0.3922889828681946,0.11633270978927612
1727729687354,6i,7.980655350334369,0.8s : 0.3s,3.1614597011280647,0.2085310027162905,3.1545748148939015,0.7611402403903993,5.025129795074463,0.4847959578037262,-0.9661052227020264,-0.11340612173080444,0.751474142074585,0.0419539138674736,-0.4181360543771038,1.681819644700649,1.8120699982006578,0.9082211852073669,0.40605780482292175,0.10125008225440979
1727729687364,6i,7.980655350334369,0.8s : 0.3s,3.290689780463974,0.2244937675113652,3.283023268208526,0.7989467640642216,5.220845699310303,0.424378365278244,-1.0561559200286865,-0.0853082537651062,0.7931694984436035,0.04382442682981491,-0.4334240367293796,1.6636719429213018,1.7571783824059017,0.9036217927932739,0.4199806749820709,0.08416657149791718
1727729687374,6i,7.980655350334369,0.8s : 0.3s,3.414090201268901,0.24103115729024524,3.405571300621329,0.8196990607591721,5.366729736328125,0.38657480478286743,-1.1673157215118408,-0.07861864566802979,0.8150407075881958,0.037872202694416046,-0.4488922634192302,1.643247673690414,1.6998156190598046,0.8985651135444641,0.43396779894828796,0.06521640717983246
1727729687384,6i,7.980655350334369,0.8s : 0.3s,3.524361679366226,0.25806253951089464,3.5149009904528334,0.8365870343215723,5.46519660949707,0.31083884835243225,-1.291110634803772,-0.059700965881347656,0.8342448472976685,0.018686771392822266,-0.46450686975217365,1.6205225395236256,1.6404848673713195,0.8929377198219299,0.44798198342323303,0.04443904384970665
1727729687394,6i,7.980655350334369,0.8s : 0.3s,3.6348406369124806,0.2755765607563176,3.624379121299543,0.867523259036536,5.6116814613342285,0.2086067646741867,-1.406773567199707,-0.028878986835479736,0.8663872480392456,-0.03370082378387451,-0.4801084513952142,1.595135723025137,1.5791133544131284,0.8866825103759766,0.46187537908554077,0.021585578098893166
1727729687404,6i,7.980655350334369,0.8s : 0.3s,3.748721125569958,0.2938709361288204,3.737184762651328,0.9437857575624815,5.775338649749756,0.1189066618680954,-1.501074194908142,-0.008983135223388672,0.940219521522522,-0.08147460222244263,-0.49536614511654725,1.5665563864890621,1.5151200381226275,0.8797869086265564,0.47535380721092224,-0.0037302663549780846
1727729687414,6i,7.980655350334369,0.8s : 0.3s,3.866224637288215,0.3132604364886198,3.853512792882015,1.026895761161688,5.941823482513428,0.016338737681508064,-1.6027686595916748,-0.002759397029876709,1.021965742111206,-0.10046547651290894,-0.509760207405078,1.5348139931324882,1.4483714879864222,0.8722967505455017,0.48796796798706055,-0.03140082582831383
1727729687424,6i,7.980655350334369,0.8s : 0.3s,3.942772482151634,0.3336904547698084,3.92862641726185,1.0528273522333114,5.88301420211792,0.022843997925519943,-1.6895562410354614,-0.006754457950592041,1.0521457195281982,-0.03727191686630249,-0.5231160279034198,1.5008039823780785,1.37967652254699,0.864145815372467,0.49958187341690063,-0.06058255583047867
1727729687434,6i,7.980655350334369,0.8s : 0.3s,3.997786802474763,0.3546817078209831,3.98202212502374,1.020758870177328,5.824582099914551,-0.1703811138868332,-1.9181255102157593,0.0011709332466125488,1.0205458402633667,0.02082037180662155,-0.5358620272111594,1.4649287473484396,1.3110142153703923,0.8550150990486145,0.510582447052002,-0.0908580794930458
1727729687444,6i,7.980655350334369,0.8s : 0.3s,4.015246633199725,0.37597930363917875,3.9976049190304845,1.0160759648096147,5.628081798553467,-0.3068293631076813,-2.163571357727051,0.04714405536651611,1.014139175415039,0.04134654998779297,-0.5490618079792279,1.426770745534686,1.2423854066274675,0.8441828489303589,0.5218871831893921,-0.12243165075778961
1727729687454,6i,7.980655350334369,0.8s : 0.3s,4.031544194335082,0.3975939011191049,4.0118907862340665,1.0641633784432187,5.579155445098877,-0.4765121638774872,-2.30521821975708,0.15799015760421753,1.0523700714111328,-0.00019727647304534912,-0.5620197038385403,1.3863787381529056,1.1740901870205496,0.8318321704864502,0.5328963398933411,-0.1551675647497177
1727729687464,6i,7.980655350334369,0.8s : 0.3s,4.0650234940500365,0.4197219174784854,4.043296862606918,1.1356878190325943,5.613469123840332,-0.6628777980804443,-2.4531259536743164,0.24033737182617188,1.1082667112350464,-0.06139761209487915,-0.5738529501448476,1.3425915456644635,1.1043126085627126,0.8180427551269531,0.5428718328475952,-0.18999086320400238
1727729687474,6i,7.980655350334369,0.8s : 0.3s,4.079978969601812,0.44282050514332055,4.055877018921762,1.218672736917755,5.491815567016602,-0.8123812675476074,-2.564685106277466,0.25925105810165405,1.1907352209091187,-0.010087728500366211,-0.5843422456696952,1.2958419620960522,1.0337254345812743,0.8027454614639282,0.551650881767273,-0.226453959941864
1727729687484,6i,7.980655350334369,0.8s : 0.3s,4.105139581912539,0.46719025763402994,4.078468370621121,1.2967194848477916,5.471693515777588,-0.9506834745407104,-2.717064142227173,0.26258617639541626,1.2698514461517334,-0.0026883184909820557,-0.5934260206886777,1.2469545813340355,0.9629052381696052,0.7859368920326233,0.5592045783996582,-0.26380640268325806
1727729687494,6i,7.980655350334369,0.8s : 0.3s,4.15992131896711,0.4929809426533676,4.130607118835881,1.3778390205437732,5.5620551109313965,-1.0667496919631958,-2.8909108638763428,0.2945735454559326,1.34581458568573,-0.021210700273513794,-0.6008932138577855,1.1949481424863708,0.8899878608646999,0.7672550082206726,0.5653794407844543,-0.30276381969451904
1727729687504,6i,7.980655350334369,0.8s : 0.3s,4.211017487094304,0.5201090137866754,4.178774328722703,1.4483432671807472,5.548782825469971,-1.192514181137085,-2.9865622520446777,0.3829687237739563,1.396193027496338,0.040965914726257324,-0.60612689219851,1.140419158643436,0.8152292565465027,0.7469140887260437,0.5696885585784912,-0.34289151430130005
1727729687514,6i,7.980655350334369,0.8s : 0.3s,4.266223744009276,0.5476837558258051,4.230922776127338,1.4034538291908696,5.545779705047607,-1.4222973585128784,-3.0940120220184326,0.4733520746231079,1.3187546730041504,0.08066335320472717,-0.6087842168224311,1.083544727801771,0.7402826788977127,0.7248747944831848,0.5718705058097839,-0.3840843141078949
1727729687524,6i,7.980655350334369,0.8s : 0.3s,4.319103717671034,0.5752738708764975,4.280621087819677,1.3090287995389442,5.425112247467041,-1.6002161502838135,-3.368056058883667,0.4945266842842102,1.2104967832565308,0.06080538034439087,-0.6098781110701271,1.0239453390537887,0.6643764886566019,0.700175404548645,0.5727675557136536,-0.42625337839126587
1727729687534,6i,7.980655350334369,0.8s : 0.3s,4.329014552230912,0.602740536823,4.286848590596281,1.3807277493802943,5.167312145233154,-1.7655532360076904,-3.4217610359191895,0.5954672694206238,1.2375123500823975,0.14279717206954956,-0.6094594616393625,0.9633749740856293,0.5892489268113809,0.673285722732544,0.5724243521690369,-0.4679924547672272
1727729687544,6i,7.980655350334369,0.8s : 0.3s,4.330286474062164,0.6299276164493198,4.284223633924846,1.3069324089776568,4.965379238128662,-1.9430619478225708,-3.537149429321289,0.6606734991073608,1.0996521711349487,0.24969571828842163,-0.6071873456490331,0.902065114043991,0.5164386350769119,0.6443649530410767,0.5705597996711731,-0.5091714262962341
1727729687554,6i,7.980655350334369,0.8s : 0.3s,4.289182063312127,0.6565223102208244,4.238639077395101,1.2909017069499156,4.565656661987305,-2.051980495452881,-3.7097411155700684,0.6789867281913757,1.0691773891448975,0.2495274543762207,-0.6040543149491083,0.8403004259605366,0.4454157951489955,0.6130358576774597,0.5679839849472046,-0.5491642951965332
1727729687564,6i,7.980655350334369,0.8s : 0.3s,4.244793249473593,0.6829925930461163,4.189485749900665,1.4085530942800046,4.283079147338867,-2.2240257263183594,-3.8019421100616455,0.7482532858848572,1.1441028118133545,0.3393635153770447,-0.6009002657723719,0.7790399324553086,0.3753495911777149,0.5795206427574158,0.5653852820396423,-0.5869373679161072
1727729687574,6i,7.980655350334369,0.8s : 0.3s,4.2316536490029915,0.7097670224469999,4.171705092521169,1.463364443406622,4.233403205871582,-2.308135509490967,-3.9021050930023193,0.8173860907554626,1.1847602128982544,0.2639293670654297,-0.5959227247281248,0.7173056401819504,0.30611686997845045,0.5440487265586853,0.5612726807594299,-0.6236858367919922
1727729687584,6i,7.980655350334369,0.8s : 0.3s,4.232533694375811,0.7370796111760164,4.167859777009678,1.518897193769943,4.104700088500977,-2.4190163612365723,-3.982696533203125,0.8652803897857666,1.2080652713775635,0.3145104646682739,-0.5886522768470749,0.6553557132377549,0.23743349684256565,0.5068661570549011,0.5552406311035156,-0.6593896150588989
1727729687594,6i,7.980655350334369,0.8s : 0.3s,4.244272678533149,0.7646944665355774,4.174816516039097,1.5098249592496902,4.066524028778076,-2.574510097503662,-4.050673007965088,0.9088431596755981,1.176196575164795,0.2648341655731201,-0.5790060796553479,0.5931487909846459,0.16989965765827225,0.4678657352924347,0.5471922755241394,-0.6940333843231201
1727729687604,6i,7.980655350334369,0.8s : 0.3s,4.27784362722706,0.792589046067938,4.203777908389106,1.495559192954929,3.945324659347534,-2.686530351638794,-4.274194240570068,0.9048044681549072,1.1689095497131348,0.2273249626159668,-0.5671575744817965,0.5302789976253837,0.10248930454111066,0.42658576369285583,0.5372368097305298,-0.7275996804237366
1727729687614,6i,7.980655350334369,0.8s : 0.3s,4.317168261473583,0.8205862230020755,4.238464350268152,1.505326686120516,3.916771173477173,-2.752513885498047,-4.341681957244873,0.949257493019104,1.128081202507019,0.3038938045501709,-0.553516295565857,0.46754550039865994,0.03564194816549145,0.38339918851852417,0.525681734085083,-0.7593839168548584
1727729687624,6i,7.980655350334369,0.8s : 0.3s,4.3566783391733575,0.8482208902092946,4.2733087265531,1.4395427193496133,3.8472843170166016,-2.852033853530884,-4.4085893630981445,1.027141809463501,0.9666104912757874,0.2879706621170044,-0.5364777342173828,0.4055310363734932,-0.03001791414250396,0.3390842378139496,0.5111117362976074,-0.7898017168045044
1727729687634,6i,7.980655350334369,0.8s : 0.3s,4.351402502524319,0.8753450997291865,4.262449377453651,1.430922350797926,3.243224620819092,-3.045604944229126,-4.518224239349365,1.0689988136291504,0.8828938007354736,0.3539475202560425,-0.5197387788983835,0.3442119594502459,-0.09323891204318574,0.2928936779499054,0.4966534376144409,-0.817036509513855
1727729687644,6i,7.980655350334369,0.8s : 0.3s,4.347727771179046,0.9020571769528946,4.2531199867614,1.5452966400808468,2.834697961807251,-3.2434334754943848,-4.649342060089111,1.1672126054763794,0.9167219400405884,0.4303223490715027,-0.5051553807194149,0.28303855914768716,-0.15384049270611527,0.2443930059671402,0.4839434325695038,-0.8402802348136902
1727729687654,6i,7.980655350334369,0.8s : 0.3s,4.351642100217447,0.9292458689850155,4.251269349660076,1.6275657763548492,2.556626796722412,-3.4010744094848633,-4.866160869598389,1.2310324907302856,0.9991601705551147,0.367706835269928,-0.49097050213561677,0.22107366932003145,-0.2140142885643399,0.19337531924247742,0.47148197889328003,-0.860413134098053
1727729687664,6i,7.980655350334369,0.8s : 0.3s,4.3714091321592035,0.9572751566430256,4.265306797312352,1.6734908845475118,2.424144983291626,-3.4592630863189697,-4.927652835845947,1.2654120922088623,1.047442078590393,0.3196389675140381,-0.47583595104783555,0.15888316645431685,-0.2736982377145057,0.14063939452171326,0.4580816924571991,-0.8777139186859131
1727729687674,6i,7.980655350334369,0.8s : 0.3s,4.386876546093612,0.9853534982615797,4.274782370382132,1.6015900530181404,2.416358232498169,-3.416266679763794,-4.899260520935059,1.2532081604003906,0.9419559240341187,0.3275347948074341,-0.4581854189996196,0.09835677528455075,-0.3317542918207386,0.08806976675987244,0.44232141971588135,-0.8925219774246216
1727729687684,6i,7.980655350334369,0.8s : 0.3s,4.404027834670486,1.0121948236937983,4.2861314500887495,1.4448221788850542,2.369060754776001,-3.450833320617676,-4.906935214996338,1.201197862625122,0.7366280555725098,0.3193961977958679,-0.4375891837153787,0.03978891314757042,-0.38783819870844743,0.03603032976388931,0.42375704646110535,-0.9050590395927429
1727729687694,6i,7.980655350334369,0.8s : 0.3s,4.392866792402953,1.0376863560851481,4.268546085283762,1.3596991573881299,2.0294759273529053,-3.4971137046813965,-4.873547077178955,1.1587445735931396,0.6576049327850342,0.2713826894760132,-0.41601312756537967,-0.017257913503457678,-0.441920332301225,-0.015785157680511475,0.40411683917045593,-0.9145711660385132
1727729687704,6i,7.980655350334369,0.8s : 0.3s,4.377454028128974,1.0629228957731671,4.246445417761043,1.4352971777349188,1.7844985723495483,-3.6391398906707764,-4.806523323059082,1.1995915174484253,0.7335426807403564,0.28805088996887207,-0.3949794712888197,-0.07327502512448764,-0.49365730643320493,-0.06757266819477081,0.38478922843933105,-0.9205276966094971
1727729687714,6i,7.980655350334369,0.8s : 0.3s,4.383978739209392,1.088909351715753,4.246592282005179,1.5646622286015348,1.3385859727859497,-3.7741804122924805,-4.97875452041626,1.309066891670227,0.8452167510986328,0.1418464183807373,-0.37357114013402815,-0.12937630344916712,-0.5439682881981338,-0.12011747807264328,0.3649425804615021,-0.9232490062713623
1727729687724,6i,7.980655350334369,0.8s : 0.3s,4.420339839194067,1.116324356343084,4.277057893622839,1.6756424931645024,1.2546418905258179,-3.88244891166687,-5.08477783203125,1.3751195669174194,0.9461264610290527,0.14720278978347778,-0.3531938115413087,-0.1861724716696856,-0.5954120266113703,-0.17367324233055115,0.34589624404907227,-0.9220593571662903
1727729687734,6i,7.980655350334369,0.8s : 0.3s,4.449759166502213,1.144409283788976,4.300079537758352,1.7033370674435098,1.2542980909347534,-3.9244461059570312,-5.037531852722168,1.4760510921478271,0.8411831855773926,0.12264251708984375,-0.330124666907389,-0.24160446978350375,-0.6448594616393317,-0.22634118795394897,0.32416096329689026,-0.9185256361961365
1727729687744,6i,7.980655350334369,0.8s : 0.3s,4.504232840542079,1.1719852391362287,4.349087729750294,1.5180441310164599,0.9804221391677856,-4.015796661376953,-5.246246814727783,1.3332643508911133,0.7099041938781738,0.15132808685302734,-0.30569917623352805,-0.2966108265021729,-0.6939322016496972,-0.278729647397995,0.3009600043296814,-0.9119939208030701
1727729687754,6i,7.980655350334369,0.8s : 0.3s,4.543189297072865,1.1992232440328048,4.3820580324784455,1.4846642630137654,0.9407783150672913,-3.995584487915039,-5.244450569152832,1.2907912731170654,0.7333952784538269,-0.014738678932189941,-0.2799993428113269,-0.3508844835318639,-0.7428439512299958,-0.33034223318099976,0.2763550281524658,-0.9024975895881653
1727729687764,6i,7.980655350334369,0.8s : 0.3s,4.5665595841662885,1.2267161173402779,4.398708219829838,1.5751131111948153,0.959628164768219,-3.944878339767456,-5.227636337280273,1.3702569007873535,0.7715641260147095,-0.08981168270111084,-0.25188871256833634,-0.4028516630628084,-0.7895711676892556,-0.37967178225517273,0.24923351407051086,-0.8909164071083069
1727729687774,6i,7.980655350334369,0.8s : 0.3s,4.573968506394738,1.2544328014132755,4.398589119732525,1.5897315791792386,0.9199070930480957,-3.866971969604492,-5.2164306640625,1.4087117910385132,0.7367247939109802,0.0037631988525390625,-0.221627957193775,-0.45239294298867,-0.8345466194726016,-0.4264274835586548,0.21981805562973022,-0.8774051070213318
1727729687784,6i,7.980655350334369,0.8s : 0.3s,4.559625224391015,1.2821793095499368,4.37563691421773,1.5843803932875689,0.8727416396141052,-3.836671829223633,-5.103959560394287,1.455660343170166,0.6164432764053345,0.10635733604431152,-0.19001103221209537,-0.49957556187095004,-0.8771333341681524,-0.4704311192035675,0.18886972963809967,-0.8619877696037292
1727729687794,6i,7.980655350334369,0.8s : 0.3s,4.549399485186612,1.309014314766763,4.357007826427664,1.5018744914397921,0.7672016024589539,-3.846597671508789,-5.098298072814941,1.407074213027954,0.5106480121612549,0.12250614166259766,-0.15740522055148282,-0.5451264837920505,-0.9178239812801808,-0.5121158957481384,0.15675604343414307,-0.8444908857345581
1727729687804,6i,7.980655350334369,0.8s : 0.3s,4.526592134295509,1.33528516134036,4.325164723819224,1.480770375055931,0.7053857445716858,-3.809389114379883,-5.016119003295898,1.3837037086486816,0.5176199078559875,0.10057127475738525,-0.12407072338798669,-0.5889459479290202,-0.9569800579881251,-0.5512149333953857,0.1237526535987854,-0.825134813785553
1727729687814,6i,7.980655350334369,0.8s : 0.3s,4.497322756278129,1.3617597045807375,4.286201404637595,1.5142595762953306,0.8343660831451416,-3.6913704872131348,-4.976184844970703,1.407841682434082,0.534217357635498,0.1599239706993103,-0.08937556981625426,-0.630383738129431,-0.993780470708341,-0.5871021151542664,0.08925662934780121,-0.8045771718025208
1727729687824,6i,7.980655350334369,0.8s : 0.3s,4.476139213476827,1.3878174526488591,4.255559302435836,1.48004231107366,1.0852739810943604,-3.552900552749634,-5.01293420791626,1.3931258916854858,0.4757857024669647,0.15281838178634644,-0.05144323487154374,-0.6690025860257063,-1.0278038801540648,-0.6193834543228149,0.05142054706811905,-0.7834029793739319
1727729687834,6i,7.980655350334369,0.8s : 0.3s,4.451536895409354,1.4136452759632792,4.221112147874948,1.4792210186482555,1.228784203529358,-3.5148634910583496,-4.928046703338623,1.4223859310150146,0.38849687576293945,0.11825084686279297,-0.010917254096022878,-0.7052901552423088,-1.058875200199339,-0.648216187953949,0.010917036794126034,-0.7613781094551086
1727729687844,6i,7.980655350334369,0.8s : 0.3s,4.409493038251279,1.4394227191349553,4.167936070769875,1.5232860414126936,1.0297136306762695,-3.4568088054656982,-4.82756233215332,1.4783889055252075,0.36690932512283325,-0.01200646162033081,0.030030473972468465,-0.7398035337913773,-1.0878968901959933,-0.6738389134407043,-0.030025960877537727,-0.7382680177688599
1727729687854,6i,7.980655350334369,0.8s : 0.3s,4.359385042278185,1.4652732267105437,4.105753562736571,1.6160046985969299,1.1133967638015747,-3.4292216300964355,-4.674108982086182,1.5684113502502441,0.3880939185619354,0.030661582946777344,0.06999023809873084,-0.7729701058166951,-1.1153906782322438,-0.6965548992156982,-0.06993310898542404,-0.7140873074531555
1727729687864,6i,7.980655350334369,0.8s : 0.3s,4.3407286136635,1.4910850970230536,4.076590503216235,1.5545678865218795,1.5746232271194458,-3.2844736576080322,-4.758744716644287,1.5318281650543213,0.26312118768692017,0.030838727951049805,0.11292481732623855,-0.8044115658159479,-1.1390947413491788,-0.7158341407775879,-0.11268496513366699,-0.6891180276870728
1727729687874,6i,7.980655350334369,0.8s : 0.3s,4.303861949718411,1.5154223330075873,4.0282406624798135,1.456272400540209,1.757425308227539,-3.206115484237671,-4.575957298278809,1.4427706003189087,0.13633693754673004,0.14336854219436646,0.15871590196962423,-0.8341585833210649,-1.1590967643606058,-0.7314213514328003,-0.15805037319660187,-0.6633573770523071
1727729687884,6i,7.980655350334369,0.8s : 0.3s,4.226555712490634,1.539674194402571,3.936137264613367,1.491648829665983,1.9296832084655762,-3.121083974838257,-4.198074817657471,1.4700379371643066,0.09751293063163757,0.23344361782073975,0.2037166347749104,-0.8631212158365495,-1.174419862957261,-0.7441622018814087,-0.2023105025291443,-0.6366264820098877
1727729687894,6i,7.980655350334369,0.8s : 0.3s,4.169684689352,1.5627093900383617,3.8657741489774606,1.4460719721284017,2.0841376781463623,-3.0297188758850098,-4.149014472961426,1.408970594406128,0.05517937242984772,0.3207510709762573,0.2485102270771077,-0.8913412749016367,-1.185885978876382,-0.75401771068573,-0.24596022069454193,-0.6090657114982605
1727729687904,6i,7.980655350334369,0.8s : 0.3s,4.1164080916499195,1.5845528359149874,3.7992114822940177,1.400237140634316,2.2667789459228516,-2.9127962589263916,-4.025638103485107,1.3450958728790283,0.006289184093475342,0.3890264630317688,0.2941908356073127,-0.9187579456781297,-1.1944338314984526,-0.7606996297836304,-0.28996554017066956,-0.5807377099990845
1727729687914,6i,7.980655350334369,0.8s : 0.3s,4.035945243106224,1.6054025597096944,3.7029092112323405,1.3661386521060868,2.3670454025268555,-2.7329442501068115,-3.7602617740631104,1.3020389080047607,-0.01643231511116028,0.4132305383682251,0.3393153632889007,-0.9455599430303278,-1.199250793598954,-0.7645938396453857,-0.33284157514572144,-0.5519174337387085
1727729687924,6i,7.980655350334369,0.8s : 0.3s,3.9348669364658138,1.6247298578427858,3.583773248508619,1.275895125725255,2.580432415008545,-2.499079704284668,-3.4460160732269287,1.1633951663970947,-0.10207408666610718,0.5138102173805237,0.38294027596144087,-0.9715760772115813,-1.1998643385537384,-0.7659647464752197,-0.37364938855171204,-0.5231483578681946
1727729687934,6i,7.980655350334369,0.8s : 0.3s,3.824380645002816,1.6415174887099262,3.454172498896315,1.1623571984473269,2.816129207611084,-2.253187656402588,-3.1244730949401855,1.0188782215118408,-0.2836318612098694,0.48219746351242065,0.42526904317447406,-0.9971108024392743,-1.195106593321885,-0.7650942206382751,-0.4125658869743347,-0.49438902735710144
1727729687944,6i,7.980655350334369,0.8s : 0.3s,3.6947325565540408,1.6557226030563568,3.3029731040667953,1.2262367776116863,2.755906105041504,-2.0745370388031006,-2.8163001537323,1.0084667205810547,-0.4562057554721832,0.5277573466300964,0.4653462144447298,-1.0225238181153595,-1.1861603930901343,-0.7626782655715942,-0.4487322270870209,-0.46579116582870483
1727729687954,6i,7.980655350334369,0.8s : 0.3s,3.5525981474890718,1.6682455788239567,3.1365443223836493,1.4203550948795391,2.4889049530029297,-2.0048985481262207,-2.595832586288452,1.1137197017669678,-0.5684372186660767,0.6737329959869385,0.5019185014809121,-1.0476534657654752,-1.1761640352732587,-0.7594106197357178,-0.48110830783843994,-0.437984436750412
1727729687964,6i,7.980655350334369,0.8s : 0.3s,3.37691467026663,1.679392788395419,2.9297086122253595,1.502086885686016,1.9055095911026,-1.962862253189087,-2.41461181640625,1.1183340549468994,-0.6617891192436218,0.7534116506576538,0.5345399624924787,-1.0713442788593615,-1.168155981963384,-0.7553885579109192,-0.5094452500343323,-0.4121333658695221
1727729687974,6i,7.980655350334369,0.8s : 0.3s,3.1705305906434926,1.6894396801995764,2.6829196397159056,1.4712652912657687,1.4016780853271484,-1.842775821685791,-2.143376111984253,1.031412124633789,-0.6653682589530945,0.8112309575080872,0.5623541770625954,-1.0928873804331265,-1.1636150854103768,-0.7512150406837463,-0.5331792831420898,-0.38909628987312317
1727729687984,6i,7.980655350334369,0.8s : 0.3s,2.9467667519393053,1.6993652419929508,2.4074035940492333,1.3363631870912005,0.9729182720184326,-1.5895482301712036,-1.8939870595932007,0.9283292889595032,-0.5132204294204712,0.8128198385238647,0.5856528251960501,-1.1108999632974403,-1.1620579296436133,-0.7467650771141052,-0.5527435541152954,-0.36988744139671326
1727729687994,6i,7.980655350334369,0.8s : 0.3s,2.7276217484231498,1.7089798622314682,2.1258664663986475,1.2169721696096352,0.8050480484962463,-1.2224552631378174,-1.6471892595291138,0.7971067428588867,-0.4312729835510254,0.8121857643127441,0.605440045651773,-1.125112423549959,-1.161851113644829,-0.7419310212135315,-0.5691239833831787,-0.3544522523880005
1727729688004,6i,7.980655350334369,0.8s : 0.3s,2.5204463158146932,1.7174832849086306,1.8446953127720906,1.1242563347653425,0.7239513993263245,-0.9111887812614441,-1.341511845588684,0.6684520840644836,-0.5017581582069397,0.751906156539917,0.622215344114217,-1.1361239687822609,-1.161199925988822,-0.7370251417160034,-0.5828367471694946,-0.3421921730041504
1727729688014,6i,7.980655350334369,0.8s : 0.3s,2.328807330499665,1.7249963368245147,1.5645226813731337,1.1086888844137182,0.6996748447418213,-0.5655357837677002,-1.0330754518508911,0.6222293972969055,-0.5213537812232971,0.7551237344741821,0.6359876164489099,-1.1446910647506698,-1.159281927527381,-0.7325504422187805,-0.5939723253250122,-0.33251598477363586
1727729688024,6i,7.980655350334369,0.8s : 0.3s,2.148696702754386,1.7311690865516292,1.2727730018332286,1.1426124814111573,0.5276093482971191,-0.2723097503185272,-0.6861392855644226,0.5340604782104492,-0.6062242388725281,0.8079819679260254,0.6464015547651556,-1.1504385673913762,-1.1566364005106067,-0.7287626266479492,-0.6023178100585938,-0.325758159160614
