timestamp,club,max_speed,tempo,speed,l.speed,t.spped,acc,rotation.x,rotation.y,rotation.z,userAcceleration.x,userAcceleration.y,userAcceleration.z,pitch,roll,yaw,gravity.x,gravity.y,gravity.z
1727722599962,9i,8.84839301538943,0.9s : 0.3s,0.03089923377086098,0.0003152634934222859,0.03089762541937537,0.009272199858463512,-0.018002618104219437,-0.012498220428824425,-0.024981603026390076,-0.00603640079498291,4.749000072479248e-05,0.007037989795207977,-0.24194543950063696,1.5180235745443986,0.2296146360371764,0.9695223569869995,0.23959185183048248,-0.05121191218495369
1727722599972,9i,8.84839301538943,0.9s : 0.3s,0.02803891929493484,0.0006121189838155696,0.028032236899282973,0.011444478252052777,-0.020356986671686172,-0.011439215391874313,-0.02484475076198578,-0.003698885440826416,0.005132392048835754,0.009536921977996826,-0.2420987319568793,1.5180880850362541,0.22982744122867801,0.969488799571991,0.23974068462848663,-0.051147423684597015
1727722599982,9i,8.84839301538943,0.9s : 0.3s,0.025696251602446492,0.0008923439612421397,0.02568075288364943,0.012141380610039712,-0.023151442408561707,-0.013748441822826862,-0.024961397051811218,-0.003484368324279785,0.00447748601436615,0.010734263807535172,-0.24230180039600968,1.5181252995073558,0.23006133961035688,0.9694420695304871,0.23993782699108124,-0.05110878124833107
1727722599992,9i,8.84839301538943,0.9s : 0.3s,0.023813978260410838,0.0011547359540056868,0.02378596530443628,0.0114252932150449,-0.02284104935824871,-0.014066912233829498,-0.027517268434166908,-0.004939079284667969,0.0025100409984588623,0.009992122650146484,-0.24253661889111547,1.5181322561474146,0.23031477716503246,0.9693862199783325,0.24016577005386353,-0.05109907314181328
1727722600002,9i,8.84839301538943,0.9s : 0.3s,0.037188570798714814,0.0013985577684904888,0.03716226357771038,0.008739189935376437,-0.02164422534406185,-0.016738062724471092,0.16728124022483826,-0.0035858750343322754,0.001295819878578186,0.007863573729991913,-0.2424513961479879,1.5181254624590474,0.23055586934741293,0.9694064259529114,0.24008303880691528,-0.05110674351453781
1727722600012,9i,8.84839301538943,0.9s : 0.3s,0.1570991677863819,0.001624179943824832,0.1570907717171313,0.014101726674876067,-0.004211040213704109,0.05811918154358864,0.6616639494895935,-0.011084020137786865,-0.0009627342224121094,0.008664660155773163,-0.2430647309564192,1.5181410413957415,0.23075271550298385,0.9692599177360535,0.24067839980125427,-0.05108387768268585
1727722600022,9i,8.84839301538943,0.9s : 0.3s,0.19887843593550963,0.0018245107137182673,0.19887006672903326,0.025876615105379943,-0.011340588331222534,0.022367306053638458,0.4416668117046356,-0.020992398262023926,-0.008845522999763489,0.012274980545043945,-0.24455227153430303,1.5180962475039963,0.23094259034665407,0.9688990116119385,0.24212194979190826,-0.05110837519168854
1727722600032,9i,8.84839301538943,0.9s : 0.3s,0.11931304602671634,0.0020013820841966144,0.1192962590441393,0.04319453391022055,-0.007053964771330357,-0.023068085312843323,-0.09826696664094925,0.04109901189804077,0.007483750581741333,0.010983280837535858,-0.2445813088789938,1.5181691651400069,0.23115644946990788,0.9688957333564758,0.24215011298656464,-0.05103735998272896
1727722600042,9i,8.84839301538943,0.9s : 0.3s,0.05906592236975844,0.0021689017087598247,0.05902608788296976,0.012331023133961725,-0.01941702328622341,-0.024602731689810753,-0.12435740232467651,-0.010290563106536865,-0.004557758569717407,0.0050383806228637695,-0.24461510556245103,1.5182884943084665,0.2313859795345736,0.9688935875892639,0.2421829104423523,-0.05092130973935127
1727722600052,9i,8.84839301538943,0.9s : 0.3s,0.041729592767117366,0.002171248960209183,0.041673067927166636,0.061097492322870865,-0.025412864983081818,-0.002203949261456728,-0.05273527279496193,-0.05309450626373291,-0.015573352575302124,-0.025910377502441406,-0.24494409247802987,1.5184142554394273,0.23171047181310664,0.968820333480835,0.2425020933151245,-0.050795283168554306
1727722600062,9i,8.84839301538943,0.9s : 0.3s,0.029147983778193196,0.002199956584638521,0.029064843872959635,0.018611441109865366,-0.01306032482534647,-0.004978430923074484,-0.02553241327404976,-0.010541200637817383,-0.010754615068435669,0.010936502367258072,-0.24521461635662617,1.5185713765398337,0.2319292979366404,0.9687626957893372,0.24276453256607056,-0.05063963308930397
1727722600072,9i,8.84839301538943,0.9s : 0.3s,0.025104119327342356,0.0022598936993008293,0.025002193657143457,0.007786285296478958,-0.008622299879789352,0.00041327206417918205,-0.022595377638936043,0.006498754024505615,0.0037814676761627197,0.0020231008529663086,-0.24547201543625732,1.5186805981615588,0.23205315591181655,0.9687058329582214,0.24301421642303467,-0.0505305640399456
1727722600082,9i,8.84839301538943,0.9s : 0.3s,0.020912808233050615,0.002351110204647958,0.02078022687551678,0.010920410109372874,0.010420633479952812,0.0007168722804635763,-0.023441730067133904,-0.009316504001617432,0.001966610550880432,0.005347013473510742,-0.24570701266658967,1.5187431391129056,0.23202829703918282,0.9686519503593445,0.24324215948581696,-0.05046701058745384
1727722600092,9i,8.84839301538943,0.9s : 0.3s,0.01705092775010671,0.002473509510614011,0.016870562760034447,0.010673594807312016,0.013238124549388885,0.002004555193707347,-0.023881252855062485,-0.0037993192672729492,0.009579211473464966,0.0027801990509033203,-0.2459445700234828,1.518806484867717,0.2319135635236054,0.968597412109375,0.24347257614135742,-0.05040264502167702
1727722600102,9i,8.84839301538943,0.9s : 0.3s,0.013657163753162175,0.0026137334465883193,0.013404720036273503,0.012089191548516426,0.01771489903330803,0.0030453186482191086,-0.02108253724873066,-0.009193837642669678,0.0014909803867340088,0.007707066833972931,-0.24611869635290218,1.518900529726472,0.23176541247385637,0.9685596823692322,0.2436414659023285,-0.05030934885144234
1727722600112,9i,8.84839301538943,0.9s : 0.3s,0.010891435371622703,0.0027606399158740308,0.010535759664548028,0.006834451425791616,0.015078769065439701,0.003823094768449664,-0.01848245970904827,-0.005437970161437988,0.0011426061391830444,0.003979027271270752,-0.24627341124986574,1.518998093968586,0.2315925245485197,0.96852707862854,0.24379150569438934,-0.050212908536195755
1727722600122,9i,8.84839301538943,0.9s : 0.3s,0.009006825831629543,0.0029078386510965684,0.00852451675700729,0.01225121569514572,0.00010354723781347275,-7.364246994256973e-05,-0.015265360474586487,-0.01079171895980835,-0.005753949284553528,0.0007232949137687683,-0.24641461177160912,1.519033567142818,0.23151617774129057,0.9684945940971375,0.2439284473657608,-0.050176773220300674
1727722600132,9i,8.84839301538943,0.9s : 0.3s,0.007739271248581873,0.0030404038396190792,0.007117040392688212,0.0152793384875552,-0.0035219471901655197,0.004405483603477478,-0.01070339884608984,-0.006454765796661377,-0.013110622763633728,0.0044615864753723145,-0.24649523811578322,1.518748987651576,0.23145020233392788,0.9684605002403259,0.24400663375854492,-0.050451356917619705
1727722600152,9i,8.84839301538943,0.9s : 0.3s,0.05796877762213152,0.0031658923731069646,0.05788226243406557,0.008482255379224141,-0.00033214595168828964,-0.004935332108289003,0.2650836110115051,-0.004982173442840576,-0.006856843829154968,-0.00033210963010787964,-0.24607282696396618,1.5189775897395557,0.23155664615092428,0.9685747027397156,0.24359697103500366,-0.050235290080308914
1727722600162,9i,8.84839301538943,0.9s : 0.3s,0.28130877072591126,0.0028237543197382163,0.28129459806200524,0.09429956279501274,0.011276839300990105,0.036595333367586136,1.1957327127456665,0.09400510787963867,0.006431132555007935,0.0037533678114414215,-0.24623265596750393,1.5190740746622629,0.2314594793430309,0.9685407280921936,0.24375198781490326,-0.05013982579112053
1727722600172,9i,8.84839301538943,0.9s : 0.3s,0.405639900710746,0.0023715027812894773,0.405632968363251,0.09675699639311744,-0.001894755638204515,-0.01029170397669077,1.037009835243225,0.09558373689651489,0.014686033129692078,0.0031600669026374817,-0.24826287145145456,1.5190929951609777,0.23099481864140148,0.9680454730987549,0.24572046101093292,-0.0500958226621151
1727722600182,9i,8.84839301538943,0.9s : 0.3s,0.31115650842966364,0.0023163024577127684,0.31114788683367867,0.010629990074183535,0.05140068754553795,-0.01432585995644331,0.13428561389446259,-0.006587326526641846,0.008342534303665161,-7.706880569458008e-05,-0.2480224939646379,1.5190984714805262,0.23042758248278786,0.9681047797203064,0.24548745155334473,-0.050093576312065125
1727722600192,9i,8.84839301538943,0.9s : 0.3s,0.2093628624751374,0.002427582835420221,0.20934878797203596,0.039069370039222326,0.0801222175359726,-0.021300455555319786,-0.048209529370069504,-0.03825032711029053,-0.007888451218605042,-0.001049041748046875,-0.24768746814642692,1.519003545447487,0.22969249943814568,0.9681820869445801,0.24516266584396362,-0.050189729779958725
1727722600202,9i,8.84839301538943,0.9s : 0.3s,0.14635530479397996,0.0026428474410167715,0.14633144090981365,0.029975595597030148,0.11155764013528824,0.00017980136908590794,-0.022578466683626175,0.029349029064178467,-0.005548432469367981,0.002526998519897461,-0.24766614457217156,1.5188405768914164,0.22871570638399485,0.9681791663169861,0.24514198303222656,-0.05034778639674187
1727722600212,9i,8.84839301538943,0.9s : 0.3s,0.11370106383048302,0.0029034318740279734,0.11366398725865837,0.019637931538471157,0.15869837999343872,-0.00163998082280159,-0.008455291390419006,-0.018502891063690186,0.0031006336212158203,-0.005803227424621582,-0.24760592921604194,1.518556567525906,0.22734298881565368,0.9681795835494995,0.24508360028266907,-0.05062352493405342
1727722600222,9i,8.84839301538943,0.9s : 0.3s,0.10372600362303237,0.003222794140457163,0.10367592500447517,0.02355767831127269,0.2057359367609024,0.019676493480801582,-0.02820422872900963,0.012079000473022461,0.01802946627140045,-0.009165167808532715,-0.24741114911400228,1.5181545481075496,0.2254968933888965,0.9682067632675171,0.24489475786685944,-0.051015257835388184
1727722600232,9i,8.84839301538943,0.9s : 0.3s,0.10771525354469474,0.0035376952588902434,0.107657143555145,0.02893951915251791,0.22116442024707794,0.026690904051065445,-0.05280810967087746,-0.01693183183670044,0.018455103039741516,-0.014498896896839142,-0.24717678931285011,1.5177093551522762,0.22336238891076304,0.968241274356842,0.24466753005981445,-0.05144933611154556
1727722600242,9i,8.84839301538943,0.9s : 0.3s,0.1160562380902244,0.00382127579792483,0.11599331123358383,0.02491191364213973,0.21788553893566132,0.03323002904653549,-0.09066414088010788,-0.015244126319885254,0.010294586420059204,-0.01680004596710205,-0.24693767166878847,1.5172840534553076,0.2212485626199594,0.9682776927947998,0.24443568289279938,-0.05186425521969795
1727722600252,9i,8.84839301538943,0.9s : 0.3s,0.12433967167771487,0.004036066363437163,0.12427414904650065,0.033838133473084356,0.20005394518375397,0.034424591809511185,-0.1380872279405594,-0.028704464435577393,0.0008773654699325562,-0.017897017300128937,-0.24672002108403196,1.5168913347793198,0.21933231441515305,0.9683104157447815,0.24422462284564972,-0.05224738270044327
1727722600262,9i,8.84839301538943,0.9s : 0.3s,0.13320601336490656,0.004137382047214806,0.13314174426665384,0.036556057603192714,0.17881789803504944,0.0371420793235302,-0.18073055148124695,-0.029994487762451172,-0.005109831690788269,-0.020262420177459717,-0.24655285516263523,1.5165630071836893,0.21771506799999368,0.9683338403701782,0.24406251311302185,-0.052567508071660995
1727722600272,9i,8.84839301538943,0.9s : 0.3s,0.1413258271417916,0.00400446649270556,0.14126908248240433,0.04460911372859731,0.14545409381389618,0.036172688007354736,-0.21891248226165771,-0.03725928068161011,-0.014759421348571777,-0.01959281787276268,-0.24643316286419167,1.516330080352558,0.21647516824198038,0.9683506488800049,0.24394643306732178,-0.05279464274644852
1727722600282,9i,8.84839301538943,0.9s : 0.3s,0.1509384269706752,0.00368008780702773,0.15089355748379188,0.04867090888627383,0.11765867471694946,0.03994345664978027,-0.2523474097251892,-0.041722893714904785,-0.018359333276748657,-0.01705849915742874,-0.2463690904210349,1.5161877227512472,0.21566038591933245,0.9683588743209839,0.24388431012630463,-0.052933353930711746
1727722600292,9i,8.84839301538943,0.9s : 0.3s,0.1637027781217389,0.00326546779576562,0.16367020585570877,0.05295224665241943,0.10697460919618607,0.04441260173916817,-0.2802956700325012,-0.04657655954360962,-0.016301825642585754,-0.019204556941986084,-0.2463558333779284,1.516150818627839,0.2151420491811592,0.968360185623169,0.24387145042419434,-0.05296926945447922
1727722600302,9i,8.84839301538943,0.9s : 0.3s,0.17769190189192466,0.002848607866777762,0.177669067176002,0.05681500259999025,0.09795767813920975,0.04291963204741478,-0.3047613501548767,-0.0514986515045166,-0.016025394201278687,-0.01786113530397415,-0.2463854915112058,1.5161655032996895,0.21482026050042635,0.9683537483215332,0.24390020966529846,-0.05295465514063835
1727722600312,9i,8.84839301538943,0.9s : 0.3s,0.1895749128048644,0.0025644508689719194,0.18955756686746264,0.05370090223569959,0.09270338714122772,0.041615791618824005,-0.3128034174442291,-0.048645973205566406,-0.0148334801197052,-0.01724308729171753,-0.2464466403559019,1.5161724894182598,0.2146706606936497,0.9683390855789185,0.24395951628684998,-0.052947066724300385
1727722600322,9i,8.84839301538943,0.9s : 0.3s,0.19009710733425134,0.002493657185072608,0.1900807509736144,0.05664519465542203,0.0985327810049057,0.038057807832956314,-0.2713145613670349,-0.05298370122909546,-0.016830965876579285,-0.010868489742279053,-0.24655530658404964,1.5161746776285603,0.21455015938052968,0.9683127999305725,0.24406489729881287,-0.052943505346775055
1727722600332,9i,8.84839301538943,0.9s : 0.3s,0.18025652305785,0.002699321657865289,0.1802363109018063,0.048429531569296386,0.09193532913923264,0.03770529478788376,-0.21230635046958923,-0.04793417453765869,-0.006664082407951355,-0.0018233060836791992,-0.24661356262240747,1.516177268046459,0.21442038314859266,0.9682986736297607,0.24412138760089874,-0.05294021964073181
1727722600342,9i,8.84839301538943,0.9s : 0.3s,0.162038212896483,0.003138241535430763,0.16200782042466733,0.043453757569508374,0.08332613110542297,0.036542028188705444,-0.15380123257637024,-0.04342740774154663,-0.0003915131092071533,0.001461513340473175,-0.2466280414313729,1.516141215161727,0.21433225882841173,0.9682931303977966,0.24413542449474335,-0.05297492817044258
1727722600352,9i,8.84839301538943,0.9s : 0.3s,0.13944615787377926,0.003734115495689985,0.139396152483574,0.0415154504334911,0.08301255106925964,0.03590948134660721,-0.0980963259935379,-0.04136967658996582,0.003179699182510376,-0.0014042779803276062,-0.24661161135318377,1.516106979803364,0.21423082297373278,0.9682953357696533,0.24411949515342712,-0.0530082993209362
1727722600362,9i,8.84839301538943,0.9s : 0.3s,0.11541771955812155,0.004430756231745269,0.1153326423317009,0.04299557233127289,0.08103515207767487,0.034748077392578125,-0.04861373081803322,-0.04212421178817749,0.007694870233535767,-0.0038676857948303223,-0.24658166290044603,1.51609857478175,0.21408029647370505,0.968302309513092,0.24409045279026031,-0.053016841411590576
1727722600372,9i,8.84839301538943,0.9s : 0.3s,0.09176150667218402,0.00518105897477406,0.09161512284906453,0.03910361123320291,0.08133076131343842,0.03333713486790657,0.002619763370603323,-0.038547515869140625,0.0020108073949813843,-0.006256043910980225,-0.24654249714376122,1.5160916246670393,0.21387534840499461,0.9683114290237427,0.2440524697303772,-0.05302409082651138
1727722600382,9i,8.84839301538943,0.9s : 0.3s,0.07339395843599315,0.005955460914082247,0.0731519351774451,0.03388656431802227,0.07901514321565628,0.03290170803666115,0.050485290586948395,-0.03206515312194824,-0.00043523311614990234,-0.010951519012451172,-0.2464685922318442,1.5160882804590796,0.21360944634214357,0.9683293104171753,0.2439807951450348,-0.05302831903100014
1727722600392,9i,8.84839301538943,0.9s : 0.3s,0.0672758113449297,0.0067301209872299515,0.06693833179588374,0.02909180864207322,0.06136970594525337,0.0301522146910429,0.09053827077150345,-0.025751352310180664,-0.004548415541648865,-0.01274806261062622,-0.24639877750598255,1.516116618047061,0.21335244364162168,0.9683479070663452,0.24391309916973114,-0.05300181359052658
1727722600402,9i,8.84839301538943,0.9s : 0.3s,0.052747250302035226,0.007488229009401485,0.05221301409350272,0.02816684559051905,0.0349452868103981,0.028314633294939995,0.12846380472183228,-0.022960960865020752,-0.013681933283805847,-0.008886516094207764,-0.24634486160207544,1.516195017436762,0.213282412956683,0.9683651328086853,0.24386081099510193,-0.05292661115527153
1727722600412,9i,8.84839301538943,0.9s : 0.3s,0.05545873493212107,0.00821483455200071,0.05484694862573961,0.020948930799794593,0.02491648495197296,0.030270593240857124,0.15866056084632874,-0.017614781856536865,-0.010804712772369385,-0.003440253436565399,-0.24633599083153876,1.5163381458603764,0.2133698047141231,0.9683746695518494,0.24385219812393188,-0.05278811603784561
1727722600422,9i,8.84839301538943,0.9s : 0.3s,0.07172867186369615,0.008911118521649327,0.07117298879506828,0.01690617242271733,0.01661115139722824,0.030108937993645668,0.18798941373825073,-0.014766275882720947,0.005502477288246155,-0.006123602390289307,-0.24635634938304882,1.5165246852243408,0.2134636599127661,0.9683796763420105,0.24387194216251373,-0.052607212215662
1727722600432,9i,8.84839301538943,0.9s : 0.3s,0.09221530241202663,0.00957402754995974,0.09171695587738474,0.015537006381689217,0.0023780199699103832,0.027997717261314392,0.21910816431045532,-0.013346314430236816,0.005869641900062561,-0.005368590354919434,-0.24640256789411538,1.5167213166537339,0.21363131593294615,0.9683787822723389,0.24391676485538483,-0.05241619423031807
1727722600442,9i,8.84839301538943,0.9s : 0.3s,0.11305311026177815,0.010173640800266988,0.11259441714724984,0.00764269446596638,-0.0019168597646057606,0.028811845928430557,0.243678480386734,-0.007150709629058838,0.002666562795639038,-0.0004093572497367859,-0.24644843308184763,1.5169254202210218,0.21382842490163903,0.9683781266212463,0.24396124482154846,-0.05221793055534363
1727722600452,9i,8.84839301538943,0.9s : 0.3s,0.13273477891066768,0.010729215072177993,0.13230043641802086,0.010640819146876108,-0.017145879566669464,0.025513166561722755,0.26749786734580994,-0.005402803421020508,0.008538514375686646,-0.0033362433314323425,-0.24646693846452203,1.5171428369602977,0.21405035013546359,0.9683849215507507,0.24397920072078705,-0.052007146179676056
1727722600462,9i,8.84839301538943,0.9s : 0.3s,0.15008880489728693,0.011221884015682956,0.1496686963751419,0.0026978666225845223,-0.03734089434146881,0.020977802574634552,0.2835812270641327,-0.002039968967437744,0.0017289668321609497,-0.0003573298454284668,-0.24647122934226376,1.5173440794138435,0.2144187241307757,0.9683944582939148,0.24398335814476013,-0.05181221291422844
1727722600472,9i,8.84839301538943,0.9s : 0.3s,0.1639027923818218,0.011658299755749554,0.16348764295005197,0.00738376500077318,-0.0414741225540638,0.016157303005456924,0.2900657057762146,0.003979861736297607,0.0061928629875183105,-0.0005737021565437317,-0.2464783913686456,1.5175201512620793,0.21487598483662015,0.9684019684791565,0.24399030208587646,-0.05164162069559097
1727722600482,9i,8.84839301538943,0.9s : 0.3s,0.1749838960890336,0.012046564119404047,0.17456873770356138,0.015441902234186943,-0.03487720713019371,0.015414548106491566,0.2966919243335724,0.003485739231109619,0.014914661645889282,-0.0019633732736110687,-0.24648478709448277,1.5176630112811693,0.21527848277874553,0.9684076309204102,0.2439965009689331,-0.05150318518280983
1727722600492,9i,8.84839301538943,0.9s : 0.3s,0.18228028127514725,0.01238277208944108,0.18185919799979258,0.022248998877520406,-0.022373799234628677,0.01349036954343319,0.2973783612251282,0.007375836372375488,0.02097894251346588,-0.0007063709199428558,-0.2465095069018137,1.517798522737746,0.2155443435962436,0.9684085249900818,0.244020476937294,-0.051371630281209946
1727722600502,9i,8.84839301538943,0.9s : 0.3s,0.1839250474714527,0.012674194655051731,0.18348784122448544,0.022549816100372714,-0.01883019506931305,0.01174919493496418,0.29156017303466797,0.007328033447265625,0.021184787154197693,-0.002449270337820053,-0.24664340275077826,1.5178790129928557,0.21567452475769486,0.9683800339698792,0.2441503256559372,-0.05129195749759674
1727722600512,9i,8.84839301538943,0.9s : 0.3s,0.18476286517784854,0.012930806709672952,0.18430982227370551,0.020694533026235928,-0.018331388011574745,0.008981814607977867,0.2851153612136841,0.006120502948760986,0.01905001699924469,-0.005282044410705566,-0.2468307287254858,1.5179182642162334,0.2157560429075506,0.9683364033699036,0.2443319708108902,-0.05125153064727783
1727722600522,9i,8.84839301538943,0.9s : 0.3s,0.1848213642687063,0.013154161261937513,0.18435266402100287,0.017425463578972393,-0.029291093349456787,0.008664099499583244,0.2738161087036133,0.007925212383270264,0.013794317841529846,-0.007110174745321274,-0.24699495355786194,1.5180234028011073,0.2158848894538801,0.9683017134666443,0.24449121952056885,-0.05114760249853134
1727722600532,9i,8.84839301538943,0.9s : 0.3s,0.18423244535264002,0.013346147298244782,0.18374839937508855,0.013628556637808842,-0.033512603491544724,0.00979137234389782,0.26372870802879333,0.0076628923416137695,0.010323956608772278,-0.004520349204540253,-0.24719061865105785,1.5181196095490497,0.21605955924753895,0.9682587385177612,0.24468094110488892,-0.051051922142505646
1727722600542,9i,8.84839301538943,0.9s : 0.3s,0.18081990027166825,0.013510438294012874,0.18031445974008772,0.016509641568612236,-0.037256743758916855,0.008946350775659084,0.2428409904241562,0.009005546569824219,0.011639446020126343,-0.007482759654521942,-0.24734464618914956,1.5182617013895028,0.21628634000381153,0.9682283401489258,0.24483028054237366,-0.05091235786676407
1727722600552,9i,8.84839301538943,0.9s : 0.3s,0.17198491907300995,0.013658210189241123,0.171441726784865,0.00941186758757714,-0.039360370486974716,0.01103941723704338,0.22141818702220917,0.004403948783874512,0.004059195518493652,-0.007260262966156006,-0.2475300495810447,1.5184234231040776,0.2165342226801132,0.968191385269165,0.24501004815101624,-0.050753407180309296
1727722600562,9i,8.84839301538943,0.9s : 0.3s,0.16095674896278306,0.013795251896132043,0.16036447880310226,0.007199355995050784,-0.04433382302522659,0.007162122055888176,0.1962350755929947,0.0019379854202270508,0.0022816061973571777,-0.006547458469867706,-0.2477739880926551,1.5185822962474558,0.2168245989746138,0.9681397676467896,0.2452465444803238,-0.05059646815061569
1727722600572,9i,8.84839301538943,0.9s : 0.3s,0.1468052619547754,0.013909874248341295,0.14614479236704112,0.008010870643481395,-0.030595775693655014,0.007955166511237621,0.16544170677661896,0.0066678524017333984,-0.0015892237424850464,-0.00414586067199707,-0.24805223832244683,1.5187300957116823,0.21707151172648234,0.9680789709091187,0.24551628530025482,-0.05044981837272644
1727722600582,9i,8.84839301538943,0.9s : 0.3s,0.12975744152800792,0.014003700726661331,0.1289995736343826,0.010754242267266526,-0.020915718749165535,0.005523966625332832,0.13084058463573456,0.008379518985748291,0.0025500357151031494,-0.0062397681176662445,-0.24833129561838865,1.5188245380188565,0.2171911872412082,0.968015193939209,0.24578678607940674,-0.05035482719540596
1727722600592,9i,8.84839301538943,0.9s : 0.3s,0.11052756539513851,0.014076835469822363,0.1096274847624088,0.011192213143873492,-0.02336728945374489,0.007177568040788174,0.09321581572294235,0.008783221244812012,-0.002748653292655945,-0.006369110196828842,-0.24861865400894326,1.5188755187088925,0.21728299694443354,0.9679471850395203,0.24606531858444214,-0.05030180886387825
1727722600602,9i,8.84839301538943,0.9s : 0.3s,0.0907270908521973,0.014124955555896025,0.08962081591375312,0.0142460943898347,-0.030525067821145058,0.005963965319097042,0.058985933661460876,0.009008288383483887,-0.010750383138656616,-0.002496238797903061,-0.24886113131407891,1.5189226116937589,0.21746051172093891,0.9678899645805359,0.2463003396987915,-0.05025313049554825
1727722600612,9i,8.84839301538943,0.9s : 0.3s,0.06903358871201343,0.014153975991877652,0.06756701365371108,0.014231704019012843,-0.03501422330737114,0.004870160948485136,0.0151831591501832,0.006108880043029785,-0.012823253870010376,-0.000887211412191391,-0.2490634155274091,1.5190074406422283,0.21772575944963754,0.9678444862365723,0.24649637937545776,-0.05016844719648361
1727722600622,9i,8.84839301538943,0.9s : 0.3s,0.05113301363695222,0.014171645949042256,0.049129925042602454,0.010639075777254023,-0.024419106543064117,0.004587333183735609,0.0002888983581215143,0.005465209484100342,-0.008042573928833008,-0.004317224025726318,-0.24918453893978784,1.5190497971742014,0.21799535199234327,0.9678167700767517,0.2466137707233429,-0.050125908106565475
1727722600632,9i,8.84839301538943,0.9s : 0.3s,0.038011384843398985,0.014182179489701852,0.035266572879071506,0.007213694318634154,-0.020335813984274864,-0.0003379611298441887,-0.005248312838375568,0.005162239074707031,-0.0016564726829528809,-0.004758652299642563,-0.24925508926710055,1.5190477712109804,0.2182143029276673,0.9677992463111877,0.24668213725090027,-0.05012696608901024
1727722600642,9i,8.84839301538943,0.9s : 0.3s,0.02932880225149144,0.014202248444100406,0.025660763446147445,0.007584767418882182,-0.012868843041360378,-0.002115621231496334,-0.00648934580385685,-0.0010486245155334473,0.0010865181684494019,-0.0074329376220703125,-0.2493060458041565,1.5190039428703166,0.21835995094001434,0.967784583568573,0.24673151969909668,-0.05016873776912689
1727722600652,9i,8.84839301538943,0.9s : 0.3s,0.026321240904145837,0.014233872422370319,0.022140564550114022,0.013535964697011163,-0.011541791260242462,-0.004596178885549307,-0.005502777174115181,0.0005577802658081055,0.007089361548423767,-0.011517472565174103,-0.24931547046533903,1.5189672767151945,0.21847337146944446,0.9677804708480835,0.2467406541109085,-0.05020410567522049
1727722600662,9i,8.84839301538943,0.9s : 0.3s,0.024320293937584576,0.014283474313772509,0.019683979748473475,0.014879499401833475,-0.00872869323939085,-0.004546377342194319,-0.006189607083797455,-0.002291440963745117,0.006482481956481934,-0.013195689767599106,-0.24937481579384974,1.5188716360833876,0.21855700410902018,0.9677608609199524,0.24679815769195557,-0.05029589310288429
1727722600672,9i,8.84839301538943,0.9s : 0.3s,0.02330127975760844,0.014350185830285595,0.018358153637514946,0.015242042200942042,-0.022212011739611626,-0.008344044908881187,-0.007970995269715786,-0.002202630043029785,0.004269406199455261,-0.014465145766735077,-0.24940689027637875,1.5187796693834126,0.21868572726147278,0.9677482843399048,0.24682924151420593,-0.05038448050618172
1727722600682,9i,8.84839301538943,0.9s : 0.3s,0.02304008527840269,0.014427944455820848,0.017963294475563687,0.011034608762268179,-0.034425534307956696,-0.013132408261299133,-0.007773920893669128,-0.0053749680519104,-0.006209805607795715,-0.007369574159383774,-0.24940319605672528,1.5187321983883246,0.21896228125692455,0.9677468538284302,0.2468256652355194,-0.05043047294020653
1727722600692,9i,8.84839301538943,0.9s : 0.3s,0.023402931291628577,0.014507822932759066,0.018363558119068268,0.01194621706255185,-0.04298573359847069,-0.012658189050853252,-0.006650933064520359,-0.0032720565795898438,-0.010249316692352295,-0.005192037671804428,-0.24938326121076138,1.518689800565343,0.21936636286785705,0.9677496552467346,0.24680635333061218,-0.05047176033258438
1727722600702,9i,8.84839301538943,0.9s : 0.3s,0.023448012772276216,0.01458440437438445,0.018360404462137114,0.013797662285829668,-0.03222816064953804,-0.014969012700021267,-0.00536249577999115,-0.0037091970443725586,-0.013275012373924255,-0.0006256103515625,-0.24938785869082977,1.5186066984657547,0.21975539129882884,0.9677444100379944,0.24681080877780914,-0.0505521260201931
1727722600712,9i,8.84839301538943,0.9s : 0.3s,0.022774305434247195,0.014647522672433997,0.017439009936716977,0.008594706248563873,-0.014484583400189877,-0.01835770718753338,-0.005873223301023245,0.0011919140815734863,-0.008344918489456177,0.0016764998435974121,-0.2494335749271753,1.5184662090493455,0.21997522357050675,0.9677260518074036,0.24685510993003845,-0.05068749561905861
1727722600722,9i,8.84839301538943,0.9s : 0.3s,0.021836840003663645,0.01469576268722208,0.016151846346051463,0.007895536723449868,-0.005473244935274124,-0.015920383855700493,-0.004784256685525179,0.0018151402473449707,-0.0068867504596710205,0.003408435732126236,-0.24950342403695133,1.5182523332672369,0.2200567986766732,0.9676978588104248,0.2469227910041809,-0.05089355632662773
1727722600732,9i,8.84839301538943,0.9s : 0.3s,0.020750913703280117,0.014723723627642803,0.014622324782939669,0.012634364438288664,0.0038129310123622417,-0.01706305518746376,-0.0014294730499386787,0.0018944144248962402,-0.0089331716299057,0.00873136892914772,-0.24958393965659528,1.5179856934018598,0.2200307502679985,0.9676644206047058,0.2470008134841919,-0.05115053057670593
1727722600742,9i,8.84839301538943,0.9s : 0.3s,0.020164343729495188,0.014738301229821844,0.013761658145015222,0.010073669724890492,-0.004450058564543724,-0.013866730965673923,9.731738828122616e-05,-0.0001679062843322754,-0.004867434501647949,0.008818089962005615,-0.24963982804984453,1.5177060780901994,0.2199806188278814,0.9676362872123718,0.24705496430397034,-0.05142037197947502
1727722600752,9i,8.84839301538943,0.9s : 0.3s,0.020243673067302365,0.01473750297669464,0.013878483536314039,0.01502819570242348,-0.01830315589904785,-0.013154822401702404,0.004001677967607975,-0.0011268258094787598,-0.008410587906837463,0.012403182685375214,-0.2496588210838918,1.5174542472049002,0.2200669953548972,0.9676187634468079,0.24707336723804474,-0.05166380852460861
1727722600762,9i,8.84839301538943,0.9s : 0.3s,0.020209041602258247,0.014727762188320375,0.013838294093062383,0.016936864700827118,-0.015598717145621777,-0.01075265184044838,0.007223836146295071,-0.00399172306060791,-0.010684475302696228,0.012520603835582733,-0.24958043122973717,1.517302428547452,0.2202198188910976,0.9676302671432495,0.2469974160194397,-0.05181174725294113
1727722600772,9i,8.84839301538943,0.9s : 0.3s,0.01980905002903847,0.014720257470533314,0.013255658529630178,0.007159825098787741,-0.005247142631560564,-0.011937092989683151,0.0068194689229130745,-0.0023341774940490723,0.0051848143339157104,0.004351139068603516,-0.24934405381373376,1.5171699454266296,0.22032873830957436,0.9676815867424011,0.24676835536956787,-0.051943063735961914
1727722600782,9i,8.84839301538943,0.9s : 0.3s,0.019026007115346286,0.01471445533651492,0.012061249972656863,0.007275068884913492,0.006326156668365002,-0.011110180988907814,0.0044367387890815735,-0.002344787120819092,0.00524921715259552,0.0044580623507499695,-0.24927764349484494,1.517060370778847,0.22031956269072206,0.9676923155784607,0.24670399725437164,-0.05204997956752777
1727722600792,9i,8.84839301538943,0.9s : 0.3s,0.018060474031003422,0.014716327052703988,0.010469500480080305,0.009027922733627704,0.013808307237923145,-0.006234466098248959,0.003024863777682185,-0.004958689212799072,0.006625756621360779,0.003607511520385742,-0.24917976118057966,1.516978814077063,0.22022043946172165,0.9677121043205261,0.2466091364622116,-0.05213019624352455
1727722600802,9i,8.84839301538943,0.9s : 0.3s,0.017017929412669844,0.014727787494460388,0.008526558333385727,0.008005226167876713,0.028991788625717163,-0.0057340580970048904,0.003922082483768463,-0.006780266761779785,0.00243474543094635,0.0034905076026916504,-0.24907998927383523,1.5169118533588155,0.22001624299763742,0.9677332043647766,0.24651244282722473,-0.05219632014632225
1727722600812,9i,8.84839301538943,0.9s : 0.3s,0.016292276470766594,0.014749674915583804,0.006919925034600637,0.0065915428418526064,0.040833134204149246,-0.004327509552240372,0.008242095820605755,-0.006447970867156982,-0.001162216067314148,0.0007220543920993805,-0.24893401442062824,1.5168733893604658,0.21967259737911363,0.967767059803009,0.24637097120285034,-0.05223548039793968
1727722600822,9i,8.84839301538943,0.9s : 0.3s,0.019795157262095027,0.01478098073969651,0.013167036849792526,0.006891939854603318,0.053095925599336624,-0.0038361563347280025,0.006007703952491283,-0.005651235580444336,-0.0037876367568969727,-0.0011028051376342773,-0.24880902821448292,1.5168056263165015,0.21922352782026108,0.9677942991256714,0.24624983966350555,-0.05230272561311722
1727722600832,9i,8.84839301538943,0.9s : 0.3s,0.02518812612154296,0.014814507608606071,0.02037086306049176,0.0072775567813926105,0.0581042654812336,-0.004360799212008715,0.005468613468110561,-0.0013039112091064453,-0.006288811564445496,-0.0034224987030029297,-0.24866603221442804,1.516744924636152,0.2186640614397256,0.967826247215271,0.24611124396324158,-0.05236336961388588
1727722600842,9i,8.84839301538943,0.9s : 0.3s,0.02576103656290925,0.0148508006558012,0.021049577779072005,0.010233756453123294,0.04132688418030739,-0.003722439520061016,-0.0004705018363893032,-0.0030552148818969727,-0.009637817740440369,-0.0015836358070373535,-0.2485476408454544,1.516706962783053,0.21818116674673604,0.967853307723999,0.24599649012088776,-0.05240168049931526
1727722600852,9i,8.84839301538943,0.9s : 0.3s,0.02557144755851572,0.014883204369941307,0.02079396926804691,0.016010163015258542,0.028661556541919708,-0.0009415221866220236,-0.002811187645420432,-0.0038295984268188477,-0.014728322625160217,0.0049735307693481445,-0.24855728779487185,1.5166794954097103,0.21784600117306097,0.9678494930267334,0.2460058331489563,-0.05242813751101494
1727722600862,9i,8.84839301538943,0.9s : 0.3s,0.024839818425281813,0.014920958282372726,0.01985904286053743,0.01954011956028053,0.018159646540880203,0.0023125940933823586,-0.002271364675834775,-0.008760392665863037,-0.01641523838043213,0.005967557430267334,-0.24861320121574562,1.5166922118233512,0.21761463222445926,0.9678364396095276,0.24606002867221832,-0.052415087819099426
1727722600872,9i,8.84839301538943,0.9s : 0.3s,0.02386958494227146,0.014955819770073127,0.018603240049018404,0.019825739110476963,0.012548365630209446,0.0064420029520988464,-0.004752365872263908,-0.005641758441925049,-0.017133474349975586,0.008226454257965088,-0.248708789323937,1.5167375855092522,0.2174590900561044,0.9678153395652771,0.24615268409252167,-0.05236990377306938
1727722600882,9i,8.84839301538943,0.9s : 0.3s,0.023044288416363697,0.014993194423388952,0.01749980998751165,0.01597024311625437,0.012954764068126678,0.008655622601509094,-0.006997143849730492,-0.00707477331161499,-0.01213352382183075,0.00760091096162796,-0.2487925675110762,1.516815238965491,0.21733837794754407,0.96779865026474,0.24623388051986694,-0.052293628454208374
1727722600892,9i,8.84839301538943,0.9s : 0.3s,0.022264762727756234,0.015036308476769828,0.016420386314417303,0.0112179316227495,0.011273777112364769,0.011138398200273514,-0.010745476931333542,-0.007393836975097656,-0.005727589130401611,0.006194181740283966,-0.2488741252887649,1.5168801845814481,0.21721249266920464,0.9677820205688477,0.2463129311800003,-0.05222969129681587
1727722600902,9i,8.84839301538943,0.9s : 0.3s,0.021752533252797603,0.015084101073124506,0.015672989431816435,0.013626882662120822,0.013266353867948055,0.01451581995934248,-0.0166355911642313,-0.008070230484008789,-0.0073233842849731445,0.00818115845322609,-0.2489934978652067,1.5169539416850844,0.21707684976262917,0.9677565693855286,0.24642862379550934,-0.052156735211610794
1727722600912,9i,8.84839301538943,0.9s : 0.3s,0.021896658651680806,0.015137272260981811,0.015821714464783476,0.013735903271214411,0.02268875017762184,0.017719823867082596,-0.02133084274828434,-0.008911550045013428,-0.004719555377960205,0.009326580911874771,-0.24912506909912194,1.5170298948674419,0.21686650540789856,0.9677281379699707,0.2465561330318451,-0.05208148434758186
1727722600922,9i,8.84839301538943,0.9s : 0.3s,0.022155139409103596,0.015199680727962763,0.0161189301135284,0.010121211645133861,0.02201656810939312,0.019411463290452957,-0.02278253063559532,-0.007526218891143799,-0.006221860647201538,0.002661466598510742,-0.24925820462506837,1.5171353790925792,0.21660803191457217,0.9677008986473083,0.24668516218662262,-0.051977645605802536
1727722600932,9i,8.84839301538943,0.9s : 0.3s,0.021900668888688392,0.015260512992967856,0.015708470357212474,0.01275119484039263,0.00787811353802681,0.018839683383703232,-0.025739971548318863,-0.0030924081802368164,-0.011741399765014648,0.003894805908203125,-0.24939563405386547,1.5173254802310305,0.21645655228099694,0.9676769375801086,0.24681833386421204,-0.05179187282919884
1727722600942,9i,8.84839301538943,0.9s : 0.3s,0.021372658558565096,0.015314757467403366,0.014908009175460642,0.0189140637756011,-0.005325306206941605,0.021625349298119545,-0.028174368664622307,-0.0009132623672485352,-0.018092617392539978,0.0054373666644096375,-0.24955681656112785,1.5175583176897547,0.2164347695446541,0.9676493406295776,0.24697452783584595,-0.051564447581768036
1727722600952,9i,8.84839301538943,0.9s : 0.3s,0.020757811823715593,0.01536295840829252,0.013959450585673532,0.021584040680707052,-0.018761221319437027,0.02163529209792614,-0.03128447383642197,0.00027549266815185547,-0.02113749086856842,0.004359059035778046,-0.2497386601761696,1.5178660063345175,0.2165580260914459,0.9676202535629272,0.2471507340669632,-0.051264334470033646
1727722600962,9i,8.84839301538943,0.9s : 0.3s,0.020826964105982195,0.015398476070473174,0.014023172557554003,0.021448492401623363,-0.02803621254861355,0.020237132906913757,-0.037177518010139465,0.0032862424850463867,-0.02004331350326538,0.006892316043376923,-0.25001098331661725,1.5181931660245471,0.21679339635349085,0.9675697684288025,0.24741460382938385,-0.05094422399997711
1727722600972,9i,8.84839301538943,0.9s : 0.3s,0.023186227369187178,0.015439851820222129,0.01729774885310883,0.014344537473690027,-0.03262963145971298,0.017131708562374115,-0.040733836591243744,0.0004476308822631836,-0.013426601886749268,-0.0050290897488594055,-0.2503789948376142,1.5184923061868827,0.21710077917693357,0.9674938917160034,0.24777115881443024,-0.05065001919865608
1727722600982,9i,8.84839301538943,0.9s : 0.3s,0.025087808616418534,0.015495690571401021,0.01973022338670897,0.018290850600260304,-0.0354326106607914,0.01388505008071661,-0.03752525895833969,-0.00022405385971069336,-0.012349814176559448,-0.013490259647369385,-0.25074803317626393,1.5187951311787613,0.21744619092370507,0.9674177765846252,0.24812866747379303,-0.050352275371551514
1727722600992,9i,8.84839301538943,0.9s : 0.3s,0.027170458775356676,0.015561675591398283,0.02227258590400844,0.016139015848014582,-0.03827233612537384,0.013564138673245907,-0.038898319005966187,-0.00023567676544189453,-0.012506663799285889,-0.010197825729846954,-0.2511305150046953,1.5190933311806878,0.21782204527540158,0.967337965965271,0.24849916994571686,-0.05005888268351555
1727722601002,9i,8.84839301538943,0.9s : 0.3s,0.02969325296375027,0.015636854257336984,0.025242386188790995,0.01645916583273386,-0.04801471158862114,0.012357460334897041,-0.036896951496601105,0.0005761384963989258,-0.011124476790428162,-0.012116856873035431,-0.25149942927428043,1.5193371345012576,0.21823710365487498,0.9672585725784302,0.24885649979114532,-0.04981832578778267
1727722601012,9i,8.84839301538943,0.9s : 0.3s,0.030400561351909345,0.01572775973366239,0.02601598939635762,0.020556313363871214,-0.042575739324092865,0.007325506769120693,-0.030218012630939484,-0.002313852310180664,-0.016572609543800354,-0.01193971186876297,-0.2517680320609422,1.5195763901356933,0.21871926425638427,0.9672036170959473,0.24911664426326752,-0.04958347603678703
1727722601022,9i,8.84839301538943,0.9s : 0.3s,0.029902891353048033,0.01583144161167232,0.025368255118718847,0.021638561994984644,-0.016758790239691734,0.004457281902432442,-0.023891938850283623,0.0007187724113464355,-0.01269376277923584,-0.017509400844573975,-0.25190656575085546,1.5197325854063746,0.2190170637917179,0.9671768546104431,0.24925079941749573,-0.049430642277002335
1727722601032,9i,8.84839301538943,0.9s : 0.3s,0.028443008494250993,0.015946766524037547,0.023552183967349392,0.02295565276235464,-0.005072306375950575,0.002164655365049839,-0.014954570680856705,0.0015946030616760254,-0.002003788948059082,-0.022812366485595703,-0.2519447357950992,1.5198035912185988,0.2191044563795503,0.9671708345413208,0.24928776919841766,-0.04936147853732109
1727722601042,9i,8.84839301538943,0.9s : 0.3s,0.027282537297447795,0.016063609401700187,0.02205214942757824,0.01978348507981839,-0.015510831959545612,4.50455117970705e-05,-0.004960790742188692,0.004736721515655518,-0.007296919822692871,-0.01776808127760887,-0.25189572153650663,1.5198897078453022,0.2192193279054554,0.967187225818634,0.24924030900001526,-0.049278806895017624
1727722601052,9i,8.84839301538943,0.9s : 0.3s,0.025241838126490848,0.016174336516273674,0.019378886197671502,0.018107356051861485,-0.008617506362497807,-0.003679562360048294,0.0046271211467683315,0.0074231624603271484,-0.007585927844047546,-0.014670606702566147,-0.2518317587196996,1.519859056124424,0.2193436251691946,0.9672015905380249,0.24917834997177124,-0.04930926114320755
1727722601062,9i,8.84839301538943,0.9s : 0.3s,0.023086059441487197,0.016270554004157254,0.016377887926521003,0.019085647936033883,0.007049071602523327,-0.010314562357962132,0.011961999349296093,0.010682463645935059,0.0024382025003433228,-0.015626966953277588,-0.25164362626559905,1.5196513539748784,0.2193253720469966,0.967238187789917,0.24899615347385406,-0.04951255023479462
1727722601072,9i,8.84839301538943,0.9s : 0.3s,0.020378412563975143,0.016348565348018037,0.012165693966608068,0.022905520746742285,0.0309261754155159,-0.014624001458287239,0.02115057222545147,0.012488484382629395,0.009360000491142273,-0.016765769571065903,-0.25136591961816057,1.519381006073192,0.21911950564345872,0.9672936797142029,0.24872718751430511,-0.04977758601307869
1727722601082,9i,8.84839301538943,0.9s : 0.3s,0.016835903959467685,0.016411511530227428,0.0037563215285211955,0.03107150722333847,0.04284435138106346,-0.021753016859292984,0.02783350832760334,0.011627435684204102,0.01993653178215027,-0.020803268998861313,-0.25101710220875895,1.5190008068932508,0.21873032416134747,0.9673612713813782,0.2483893185853958,-0.050149835646152496
1727722601092,9i,8.84839301538943,0.9s : 0.3s,0.024619495442161403,0.016468438632405047,0.018300548757819123,0.03274899320967955,0.07113125175237656,-0.02650183066725731,0.032255854457616806,0.007333874702453613,0.02326880395412445,-0.02184659242630005,-0.25058577663117976,1.5185077498134496,0.21812575514863625,0.9674434661865234,0.24797149002552032,-0.05063239485025406
1727722601102,9i,8.84839301538943,0.9s : 0.3s,0.03837366039276458,0.016527521941566852,0.03463204918006232,0.04306547077692542,0.09871920198202133,-0.028518110513687134,0.035380274057388306,0.004781126976013184,0.033203840255737305,-0.02700519561767578,-0.2501274185039038,1.5178684383671863,0.2172176324209402,0.9675242900848389,0.24752742052078247,-0.05125689134001732
1727722601112,9i,8.84839301538943,0.9s : 0.3s,0.052536866692067336,0.016591606007188786,0.04984817922374168,0.03564179421069556,0.11490882188081741,-0.035432830452919006,0.04151346534490585,0.0026378631591796875,0.02996838092803955,-0.019112177193164825,-0.2496871144493528,1.5170815274463254,0.21608808680809943,0.9675924777984619,0.24710078537464142,-0.052024081349372864
1727722601122,9i,8.84839301538943,0.9s : 0.3s,0.0652128001979053,0.01665676469494744,0.06304967485680692,0.03616875834984086,0.12751781940460205,-0.035794489085674286,0.045069850981235504,0.006269097328186035,0.029883846640586853,-0.019386418163776398,-0.24914448519575055,1.5162844053930065,0.21481741191681894,0.9676843881607056,0.24657495319843292,-0.05280264839529991
1727722601132,9i,8.84839301538943,0.9s : 0.3s,0.07463473929011705,0.016728208452124933,0.07273590138910768,0.03549339085716726,0.12864340841770172,-0.03904900699853897,0.04591856896877289,0.005516469478607178,0.02912108600139618,-0.01952720433473587,-0.24857753456981355,1.5154759505173376,0.21349578267316924,0.9677808880805969,0.2460254579782486,-0.05359268561005592
1727722601142,9i,8.84839301538943,0.9s : 0.3s,0.0812547046181906,0.016805331863821476,0.07949784804342966,0.02824748823696525,0.1307491809129715,-0.04182535037398338,0.048304494470357895,0.003844022750854492,0.02464616298675537,-0.013255592435598373,-0.24804650129772243,1.5146476115325973,0.212163955603921,0.9678662419319153,0.24551071226596832,-0.05440162867307663
1727722601152,9i,8.84839301538943,0.9s : 0.3s,0.08563264403182193,0.016890316701104906,0.08395038371334049,0.02343390729981287,0.13446775078773499,-0.046010684221982956,0.04709774628281593,0.001955866813659668,0.02093912661075592,-0.010338064283132553,-0.24755771499840076,1.5137843195994123,0.2108035489672485,0.9679386019706726,0.24503687024116516,-0.05524399131536484
1727722601162,9i,8.84839301538943,0.9s : 0.3s,0.09019918781240026,0.016990322261143845,0.08858454962056948,0.02334815452540476,0.14101272821426392,-0.050829142332077026,0.04635472595691681,7.432699203491211e-05,0.019655779004096985,-0.012600839138031006,-0.247134464491865,1.5128335140131945,0.20938221362685963,0.9679892063140869,0.2446264922618866,-0.05617029592394829
1727722601172,9i,8.84839301538943,0.9s : 0.3s,0.09568701439140802,0.017117763567023565,0.09414343786799484,0.02111467832327306,0.1511756181716919,-0.05240174010396004,0.04523513466119766,-0.0057901740074157715,0.014945298433303833,-0.01374560222029686,-0.24675216303997943,1.5118149462557748,0.20787778308007332,0.9680247902870178,0.24425579607486725,-0.057161737233400345
1727722601182,9i,8.84839301538943,0.9s : 0.3s,0.1035289603899141,0.017263880383987535,0.10207940082849122,0.018384859649387738,0.16542859375476837,-0.054004695266485214,0.04637390002608299,-0.007909953594207764,0.015228182077407837,-0.006598345935344696,-0.24642896328624103,1.5106943166589908,0.2062356947061651,0.9680387377738953,0.24394236505031586,-0.05825123190879822
1727722601192,9i,8.84839301538943,0.9s : 0.3s,0.10657810013515917,0.017424257920572363,0.10514412329910496,0.01452118511803753,0.16294147074222565,-0.054926060140132904,0.0499628446996212,-0.009492158889770508,0.010608956217765808,-0.0028659701347351074,-0.2460627913636961,1.5096185159674327,0.2045356637547321,0.9680646657943726,0.24358724057674408,-0.059298075735569
1727722601202,9i,8.84839301538943,0.9s : 0.3s,0.1091294003965753,0.017584577799874185,0.10770333632026552,0.008822291317429284,0.16888484358787537,-0.05266237258911133,0.04245779290795326,-0.007903993129730225,0.0012604445219039917,0.0037109293043613434,-0.24567991360865493,1.5085522675670107,0.2028505597823677,0.9680938720703125,0.243215873837471,-0.06033603474497795
1727722601212,9i,8.84839301538943,0.9s : 0.3s,0.11036500665526809,0.0177329689665114,0.1089310630887724,0.010006035269403713,0.162299245595932,-0.0515248067677021,0.05476076155900955,-0.0036644339561462402,0.007500395178794861,0.005516950041055679,-0.2452246627406134,1.5075292653454189,0.20115750247365843,0.968142032623291,0.24277427792549133,-0.06133335456252098
1727722601222,9i,8.84839301538943,0.9s : 0.3s,0.11595836389472196,0.017848274591637056,0.11457653010648507,0.013521696346692088,0.18487407267093658,-0.050381243228912354,0.04531426355242729,0.002359926700592041,0.002337217330932617,0.01310741901397705,-0.24477446171915754,1.5065522397094884,0.19942425710903433,0.9681907296180725,0.24233750998973846,-0.062286242842674255
1727722601232,9i,8.84839301538943,0.9s : 0.3s,0.12412862339335388,0.017938301969129156,0.12282561812583488,0.022026008220098963,0.2002646028995514,-0.04620855674147606,0.052398502826690674,0.00046139955520629883,0.018392428755760193,0.012109942734241486,-0.24429960182758248,1.5055571213154044,0.1974297520737334,0.9682429432868958,0.2418767809867859,-0.06325716525316238
1727722601242,9i,8.84839301538943,0.9s : 0.3s,0.12592672148894932,0.018000949596664005,0.12463348265443668,0.02225534039901492,0.19504374265670776,-0.04344925656914711,0.04713982716202736,-9.298324584960938e-05,0.015371128916740417,0.01609409600496292,-0.2438278961391332,1.5045704184745932,0.19542189138755314,0.9682937264442444,0.24141906201839447,-0.06422004848718643
1727722601252,9i,8.84839301538943,0.9s : 0.3s,0.1268979816033365,0.01804326948027177,0.12560867072564308,0.020152746647516432,0.1895861178636551,-0.038279615342617035,0.05343780666589737,-0.004520237445831299,0.008164003491401672,0.01786196231842041,-0.24337708518763165,1.503634594827405,0.19344721375725826,0.9683417677879333,0.2409815490245819,-0.0651334747672081
1727722601262,9i,8.84839301538943,0.9s : 0.3s,0.12706912771477732,0.018063167275727345,0.12577871523498516,0.017961087043888928,0.1792525202035904,-0.03884074464440346,0.0491597019135952,-0.0022922754287719727,0.0030323415994644165,0.017554230988025665,-0.2428945635821721,1.5027944595248892,0.1915954797961108,0.9684025645256042,0.24051322042942047,-0.06595487892627716
1727722601272,9i,8.84839301538943,0.9s : 0.3s,0.1272869736017507,0.018049649386541303,0.12600072938564963,0.021483321291522223,0.1810622662305832,-0.033393558114767075,0.05149373039603233,0.0015770196914672852,-0.0030532479286193848,0.02120669186115265,-0.24240448941636097,1.5020407150795783,0.18979343991620262,0.9684699177742004,0.24003751575946808,-0.06669286638498306
1727722601282,9i,8.84839301538943,0.9s : 0.3s,0.12704831866828745,0.0180115346301364,0.1257650980864966,0.019986460111318934,0.17441582679748535,-0.03831268474459648,0.045729584991931915,0.0027312636375427246,0.009030953049659729,0.01761932671070099,-0.24180801452609513,1.501359266852006,0.18804996893407067,0.96856689453125,0.23945842683315277,-0.06736274063587189
1727722601292,9i,8.84839301538943,0.9s : 0.3s,0.1277979449122898,0.017946697403652807,0.12653154063752792,0.02303643201702691,0.19237671792507172,-0.03105255216360092,0.04319705069065094,0.008089959621429443,0.014586687088012695,0.015888936817646027,-0.24130355335810494,1.500665389730907,0.18622629786529557,0.9686403870582581,0.2389686107635498,-0.06804324686527252
1727722601302,9i,8.84839301538943,0.9s : 0.3s,0.1279647343582415,0.01787644416741684,0.12670992851116497,0.029956262724666154,0.18626023828983307,-0.026322513818740845,0.03929658234119415,0.0023388266563415527,0.0269976407289505,0.012768514454364777,-0.2408264677093368,1.5000987053985413,0.18434774243015592,0.9687153100967407,0.2385053187608719,-0.06860020011663437
1727722601312,9i,8.84839301538943,0.9s : 0.3s,0.12576803847572918,0.017785267905637715,0.12450415152739762,0.026869913232276325,0.1574566811323166,-0.024599403142929077,0.04328044131398201,0.00344771146774292,0.015412971377372742,0.021738119423389435,-0.2404055738355277,1.4996046924312854,0.18267014839157364,0.9687812924385071,0.23809655010700226,-0.06908588111400604
1727722601322,9i,8.84839301538943,0.9s : 0.3s,0.1240690331397454,0.01764966777557488,0.12280722377630347,0.030037147713026447,0.154701367020607,-0.020497070625424385,0.05085154250264168,0.01543503999710083,0.0077183544635772705,0.02458488941192627,-0.23993863908546978,1.4991944494607903,0.18114206755701678,0.968863844871521,0.2376430183649063,-0.06949126720428467
1727722601332,9i,8.84839301538943,0.9s : 0.3s,0.12104319834690663,0.017485331160868128,0.11977361587696747,0.024096914725822562,0.1457957625389099,-0.024315154179930687,0.050928641110658646,0.015368342399597168,0.007403761148452759,0.01701939105987549,-0.2394142728815762,1.4988070106669613,0.17970033868313542,0.9689610004425049,0.23713365197181702,-0.06987559050321579
1727722601342,9i,8.84839301538943,0.9s : 0.3s,0.1198789961304407,0.017290932909144425,0.1186254498510909,0.023321605461509937,0.15160411596298218,-0.02060350775718689,0.053209904581308365,0.017164111137390137,-0.0002654045820236206,0.015786707401275635,-0.2388269772381299,1.4984203012733153,0.17825248507470737,0.9690726399421692,0.2365630567073822,-0.07026034593582153
1727722601352,9i,8.84839301538943,0.9s : 0.3s,0.11911174985363121,0.017080798742548614,0.11788068233392002,0.02039327581342021,0.15595053136348724,-0.02603311464190483,0.049930255860090256,0.016831696033477783,0.006104573607444763,0.009762883186340332,-0.23820728421853166,1.4980341257224676,0.1767690136506914,0.9691913723945618,0.2359609156847,-0.07064521312713623
1727722601362,9i,8.84839301538943,0.9s : 0.3s,0.11798140160018278,0.016866347255957075,0.11676959130606342,0.017784265362769842,0.14911048114299774,-0.02807709015905857,0.048066042363643646,0.015702366828918457,0.007115885615348816,0.00436805933713913,-0.23768480854624238,1.4975955584366696,0.17527667805414054,0.9692832231521606,0.23545315861701965,-0.07107927650213242
1727722601372,9i,8.84839301538943,0.9s : 0.3s,0.11456469142397,0.016656729536304146,0.1133473505743468,0.009702283819453074,0.13627511262893677,-0.02855725772678852,0.04355478286743164,0.008745849132537842,0.00026194751262664795,0.004192352294921875,-0.23723230196354758,1.497155230311276,0.1738824891112867,0.9693579077720642,0.23501335084438324,-0.07151389867067337
1727722601382,9i,8.84839301538943,0.9s : 0.3s,0.10984182784202842,0.01646709183591096,0.10860046975103509,0.005450203707517583,0.12819507718086243,-0.025328708812594414,0.04063941910862923,-0.0003622770309448242,-0.005205169320106506,0.0015747025609016418,-0.236907246150963,1.4967132221256008,0.17258457418414103,0.9694022536277771,0.2346973866224289,-0.07194799929857254
1727722601392,9i,8.84839301538943,0.9s : 0.3s,0.10499863774015708,0.016313894741033553,0.10372353043387608,0.011109246027762944,0.11773403733968735,-0.03166654333472252,0.04386966675519943,-0.007035315036773682,-0.006886869668960571,-0.005146913230419159,-0.2365181519412155,1.4963662104684203,0.1714074683292809,0.9694681763648987,0.23431913554668427,-0.07229117304086685
1727722601402,9i,8.84839301538943,0.9s : 0.3s,0.10024777243096608,0.016187009616765922,0.09893228288600993,0.011412444862751907,0.10912350565195084,-0.035498566925525665,0.043342627584934235,-0.00539630651473999,-0.00917448103427887,-0.004117362201213837,-0.23604608034117455,1.4960210348500937,0.1703409813555681,0.9695534706115723,0.23386017978191376,-0.07263407111167908
1727722601412,9i,8.84839301538943,0.9s : 0.3s,0.09584904634400508,0.016091954608024792,0.09448856376275651,0.012030798769629293,0.1019677221775055,-0.035728707909584045,0.043623488396406174,-0.007014751434326172,-0.006251141428947449,-0.007513761520385742,-0.2355818151410658,1.4955979637946308,0.16931787241741608,0.9696308374404907,0.23340876400470734,-0.07305240631103516
1727722601422,9i,8.84839301538943,0.9s : 0.3s,0.08918231679165846,0.01602896688091552,0.08773002820618628,0.015859515546063744,0.08898881077766418,-0.03647199645638466,0.03975338116288185,-0.0082741379737854,-0.00893181562423706,-0.010162949562072754,-0.23509036072532075,1.495191713257586,0.16841921266427695,0.9697152972221375,0.23293086886405945,-0.07345496118068695
1727722601432,9i,8.84839301538943,0.9s : 0.3s,0.08328390472439537,0.01599504308908242,0.08173351444004205,0.014458290858720569,0.08114234358072281,-0.035028208047151566,0.036744412034749985,-0.007835924625396729,-0.0066664814949035645,-0.010158665478229523,-0.23467524994321362,1.4947700015363299,0.16761845366790848,0.9697807431221008,0.23252715170383453,-0.07387124747037888
1727722601442,9i,8.84839301538943,0.9s : 0.3s,0.0806302515632875,0.015988535786188626,0.07902913507417876,0.013083864075602835,0.08325103670358658,-0.03347691893577576,0.034696172922849655,-0.005460977554321289,-0.0011973828077316284,-0.011829264461994171,-0.23430779876363383,1.4943123323868164,0.16682825909013774,0.9698319435119629,0.2321697473526001,-0.07432159781455994
1727722601452,9i,8.84839301538943,0.9s : 0.3s,0.07853962267036327,0.016017222166253793,0.07688901692231413,0.01805146830953776,0.0806933343410492,-0.03637852147221565,0.032778166234493256,-0.007713496685028076,0.00026798248291015625,-0.01631826162338257,-0.23391505839711424,1.493834812336717,0.16601875943866498,0.9698870778083801,0.23178772628307343,-0.07479169964790344
1727722601462,9i,8.84839301538943,0.9s : 0.3s,0.07603876333366819,0.016070847573158072,0.07432106960743985,0.01506658707776686,0.07532147318124771,-0.03740144148468971,0.03100050613284111,-0.008143842220306396,-0.003284931182861328,-0.012242920696735382,-0.23353619155851923,1.4933212902780242,0.16525537249449757,0.9699360728263855,0.2314191609621048,-0.0752965435385704
1727722601472,9i,8.84839301538943,0.9s : 0.3s,0.07499159508704878,0.01615093225464478,0.07323173301927077,0.01465491160818737,0.08149027824401855,-0.036768361926078796,0.03151659294962883,-0.010891437530517578,0.0006984472274780273,-0.009780347347259521,-0.23314321331806684,1.492740465782227,0.1644780455049012,0.9699827432632446,0.23103682696819305,-0.07586698234081268
1727722601482,9i,8.84839301538943,0.9s : 0.3s,0.07369248579598682,0.016252822576231746,0.07187787017641278,0.013658941988714058,0.0748789831995964,-0.037005648016929626,0.03189156576991081,-0.008227884769439697,0.004242390394210815,-0.010043442249298096,-0.23273145087766756,1.4921856100948305,0.16369778949624564,0.9700353145599365,0.23063619434833527,-0.076412633061409
1727722601492,9i,8.84839301538943,0.9s : 0.3s,0.06971517118430211,0.016371831695768054,0.06776553858844472,0.012837327868790386,0.06192736327648163,-0.037805087864398956,0.026584051549434662,-0.007241010665893555,0.006623432040214539,-0.008276164531707764,-0.23238578888341924,1.4916129215938494,0.16300741083678788,0.9700707197189331,0.23029983043670654,-0.07697444409132004
1727722601502,9i,8.84839301538943,0.9s : 0.3s,0.06693018540172843,0.016509770564281195,0.06486198573759931,0.013979326236764518,0.060657039284706116,-0.03849724307656288,0.02151765488088131,-0.009924829006195068,0.006155282258987427,-0.007683217525482178,-0.23206717167722182,1.4910391446923654,0.16238948655027408,0.9700995087623596,0.22998976707458496,-0.07753688097000122
1727722601512,9i,8.84839301538943,0.9s : 0.3s,0.06427079904447051,0.016657004268213867,0.06207479213516077,0.01031803392035015,0.05792943015694618,-0.03224990889430046,0.024760253727436066,-0.007537841796875,0.0031915009021759033,-0.0062814876437187195,-0.23177293768434293,1.4904805951662792,0.16177936135168572,0.9701234102249146,0.2297034114599228,-0.07808414101600647
1727722601522,9i,8.84839301538943,0.9s : 0.3s,0.06128230408462353,0.016805255673442633,0.05893304824689192,0.00721026988963946,0.052411891520023346,-0.03328055515885353,0.020890414714813232,-0.005218088626861572,0.0005343109369277954,-0.0049471259117126465,-0.23152434256614546,1.4899435327152857,0.16122277484927097,0.9701383113861084,0.2294614613056183,-0.07860976457595825
1727722601532,9i,8.84839301538943,0.9s : 0.3s,0.05987149263680865,0.016945430146057348,0.05742341010184369,0.00717361144707893,0.05339672788977623,-0.03471191227436066,0.021405136212706566,-0.0023999810218811035,-0.005124688148498535,-0.004408895969390869,-0.2313027912529442,1.4893615544876395,0.16067127565579373,0.9701430201530457,0.22924581170082092,-0.07917848229408264
1727722601542,9i,8.84839301538943,0.9s : 0.3s,0.05888461991614602,0.017072936678389893,0.05635524195533784,0.009783620278722982,0.05615469813346863,-0.03456250950694084,0.023331400007009506,0.00252687931060791,-0.006210193037986755,-0.007125139236450195,-0.23103851100303277,1.4888163297023282,0.16009719362312258,0.9701600074768066,0.22898855805397034,-0.07971236854791641
1727722601552,9i,8.84839301538943,0.9s : 0.3s,0.05812278804580747,0.017181194796782404,0.05552535488921144,0.011144168750869033,0.059323325753211975,-0.033797383308410645,0.022042563185095787,0.005978286266326904,-0.007254645228385925,-0.0059852078557014465,-0.23079478567077383,1.4882752000226582,0.15949863758939536,0.9701724648475647,0.2287513017654419,-0.08024194836616516
1727722601562,9i,8.84839301538943,0.9s : 0.3s,0.0573024705318267,0.017275520886574698,0.0546363387055574,0.01314652357626027,0.05735844746232033,-0.036267198622226715,0.01735779643058777,0.008984982967376709,-0.0013645440340042114,-0.009499430656433105,-0.230606435760675,1.4877331864748424,0.15890632047711212,0.9701716303825378,0.2285679429769516,-0.08077134937047958
1727722601572,9i,8.84839301538943,0.9s : 0.3s,0.05616612513919705,0.01734854655590773,0.05341967376865423,0.011756007651218713,0.05067604407668114,-0.03511999920010567,0.01677130162715912,0.00993657112121582,-0.003771454095840454,-0.00502438098192215,-0.2304456429292137,1.4872130154401328,0.15835228794554124,0.9701662063598633,0.22841140627861023,-0.08127906918525696
1727722601582,9i,8.84839301538943,0.9s : 0.3s,0.05500015975211627,0.01739215719364982,0.05217787309683756,0.015105131245025542,0.04539899155497551,-0.0379091277718544,0.0194373931735754,0.01360553503036499,-0.005952909588813782,-0.0027599409222602844,-0.23028837017785164,1.4866907166556569,0.15786881430969188,0.9701593518257141,0.22825829684734344,-0.08178878575563431
1727722601592,9i,8.84839301538943,0.9s : 0.3s,0.0524074802728634,0.017418422993117553,0.0494281552253713,0.012775832445169819,0.03513077273964882,-0.03425389528274536,0.01861737295985222,0.01096278429031372,-0.004064574837684631,-0.005149610340595245,-0.2301041386481069,1.4862163764288359,0.157457577250089,0.9701623320579529,0.2280789166688919,-0.08225251734256744
1727722601602,9i,8.84839301538943,0.9s : 0.3s,0.048240854293123935,0.01743131734550119,0.04498143170832653,0.015154963931727172,0.017556041479110718,-0.03431914374232292,0.022493071854114532,0.0072876811027526855,-0.0121011883020401,-0.0054885223507881165,-0.2298955168561803,1.4857991805227262,0.15718972560841474,0.9701753258705139,0.22787578403949738,-0.08266129344701767
1727722601612,9i,8.84839301538943,0.9s : 0.3s,0.04344186034229566,0.017426529695116925,0.03979335739523279,0.01811725610321049,0.0012519024312496185,-0.03261338919401169,0.019584499299526215,0.006837010383605957,-0.016602560877799988,-0.0024176910519599915,-0.22966050694439136,1.485438203129222,0.15711538725676202,0.9701987504959106,0.22764696180820465,-0.0830160602927208
1727722601622,9i,8.84839301538943,0.9s : 0.3s,0.04048897204789383,0.017406007191131848,0.03655663785357448,0.01547504959588192,-0.017741229385137558,-0.02954728901386261,0.018067030236124992,0.004968404769897461,-0.014634445309638977,0.0007906481623649597,-0.22944139343569114,1.4851082272166438,0.15718386729404898,0.9702210426330566,0.22743359208106995,-0.08334046602249146
1727722601632,9i,8.84839301538943,0.9s : 0.3s,0.0368893415605995,0.01735782301612797,0.03255041475796202,0.01692471468041777,-0.04572039842605591,-0.024379514157772064,0.016683850437402725,0.009032070636749268,-0.012707829475402832,0.006586253643035889,-0.2292492234918453,1.4848947051426074,0.15754370531717024,0.9702466130256653,0.2272464483976364,-0.08355136960744858
1727722601642,9i,8.84839301538943,0.9s : 0.3s,0.033712481565143844,0.01726567784173291,0.028955617450602864,0.022764400540090476,-0.04488816112279892,-0.018724292516708374,0.011534894816577435,0.016296029090881348,-0.009038403630256653,0.013075344264507294,-0.22913205203658887,1.484751296113912,0.1580159528557287,0.9702612161636353,0.22713235020637512,-0.08369280397891998
1727722601652,9i,8.84839301538943,0.9s : 0.3s,0.031159807950766946,0.01714384219537286,0.02601965230953004,0.02076077177551818,-0.03316386044025421,-0.013625314459204674,0.007381695322692394,0.016434967517852783,0.005756556987762451,0.011303253471851349,-0.2290442447123346,1.4846765554415668,0.15842738867082398,0.9702746868133545,0.22704683244228363,-0.08376702666282654
1727722601662,9i,8.84839301538943,0.9s : 0.3s,0.02938088380404248,0.017000010650378716,0.023963221214887944,0.017758749002634026,-0.015862636268138885,-0.012899603694677353,0.007690355647355318,0.012406885623931885,0.004613429307937622,0.011838860809803009,-0.2289488926846791,1.4845982854487267,0.15868666356066308,0.9702896475791931,0.22695396840572357,-0.08384483307600021
1727722601672,9i,8.84839301538943,0.9s : 0.3s,0.027939690005572573,0.016843130040549572,0.02229204450122574,0.01631771738948282,-0.012295731343328953,-0.010610127821564674,0.012047653086483479,0.010147452354431152,0.007365629076957703,0.010442443192005157,-0.22883345897829233,1.4844829019938792,0.15882345530598585,0.9703060984611511,0.22684155404567719,-0.08395904302597046
1727722601682,9i,8.84839301538943,0.9s : 0.3s,0.02672834824414369,0.0166806917017181,0.0208844230040586,0.013356750514291827,-0.012448064051568508,-0.005506180692464113,0.020220894366502762,0.003095269203186035,-0.010435134172439575,0.007741451263427734,-0.2285920551492515,1.4844093370192049,0.1589611650611223,0.9703545570373535,0.22660642862319946,-0.08403515815734863
1727722601692,9i,8.84839301538943,0.9s : 0.3s,0.025925168879758827,0.016527202404858193,0.01997413232440561,0.02841134345025086,-0.0033702801447361708,-0.0012019353453069925,0.028611084446310997,-0.004197478294372559,-0.028092235326766968,0.0006418153643608093,-0.22825020582922434,1.4843892067926974,0.15906017378470796,0.9704300165176392,0.22627346217632294,-0.08406137675046921
1727722601702,9i,8.84839301538943,0.9s : 0.3s,0.02550279908335803,0.016416811626183,0.019516174243856037,0.02933332984217117,0.012277388945221901,0.0022258195094764233,0.03236960247159004,-0.010150909423828125,-0.02427522838115692,-0.012965977191925049,-0.22784053516631814,1.4844099940786066,0.15905000078591322,0.9705239534378052,0.2258743941783905,-0.08404918015003204
1727722601712,9i,8.84839301538943,0.9s : 0.3s,0.025631622551070148,0.016423150868230436,0.01967892756630477,0.036756531154097535,0.02930697239935398,-0.0009755666833370924,0.03164122998714447,-0.014400303363800049,-0.020745575428009033,-0.02670758217573166,-0.22741262998842152,1.4844432992854255,0.15888109145498083,0.9706228971481323,0.22545753419399261,-0.08402518182992935
1727722601722,9i,8.84839301538943,0.9s : 0.3s,0.026173464806133348,0.016514938612007403,0.020305345665600674,0.035070671416784695,0.03773747757077217,-0.0009707727003842592,0.032450027763843536,-0.016282379627227783,-0.015960976481437683,-0.02664738893508911,-0.22699660897685123,1.4844839199327786,0.15858718244783132,0.9707197546958923,0.22505219280719757,-0.08399384468793869
1727722601732,9i,8.84839301538943,0.9s : 0.3s,0.026672263226631035,0.016665349154661925,0.020824883269394412,0.03402579859446177,0.039678122848272324,-0.002363606123253703,0.025772420689463615,-0.018439173698425293,-0.015490815043449402,-0.024037189781665802,-0.22670203839294942,1.4844888396849143,0.15823551586890564,0.9707862138748169,0.22476518154144287,-0.0839947834610939
1727722601742,9i,8.84839301538943,0.9s : 0.3s,0.027062454511223626,0.016861216207703655,0.021167801779332675,0.030636429027641736,0.03226974233984947,-0.008669438771903515,0.02165703848004341,-0.01887071132659912,-0.01401454210281372,-0.01964890956878662,-0.22647104489984973,1.484468455370987,0.1579167722716225,0.9708361625671387,0.2245400846004486,-0.08401904255151749
1727722601752,9i,8.84839301538943,0.9s : 0.3s,0.027766150647529412,0.017090471887921996,0.021883210286186203,0.03150396828525294,0.03657713904976845,-0.009897689335048199,0.024857359007000923,-0.0194474458694458,-0.019933268427848816,-0.014729619026184082,-0.22625011545870813,1.484388130167563,0.15760488912599452,0.9708788990974426,0.2243247926235199,-0.08410130441188812
1727722601762,9i,8.84839301538943,0.9s : 0.3s,0.028243532301355727,0.017341859967496084,0.022292532600076673,0.02809794187304227,0.023204205557703972,-0.016822662204504013,0.026069730520248413,-0.019845306873321533,-0.018145769834518433,-0.008147954940795898,-0.22591904283274056,1.4842480259535313,0.15733194244827983,0.9709410071372986,0.2240021526813507,-0.08424374461174011
1727722601772,9i,8.84839301538943,0.9s : 0.3s,0.028527730521923315,0.01760043491783161,0.022451193719592033,0.027215709694193516,0.008051618933677673,-0.019253771752119064,0.032113973051309586,-0.017276287078857422,-0.020895838737487793,-0.002364039421081543,-0.22545293733535762,1.4840364370018262,0.1571980171437831,0.9710270166397095,0.22354786098003387,-0.08445821702480316
1727722601782,9i,8.84839301538943,0.9s : 0.3s,0.02934325846698424,0.017855873999466098,0.02328507206721579,0.02326253703507145,0.018895477056503296,-0.02699771150946617,0.033065520226955414,-0.013413429260253906,-0.018989011645317078,0.0008018612861633301,-0.22498385930787942,1.4836768085733087,0.15709971124291555,0.971100926399231,0.22309063374996185,-0.08481653779745102
1727722601792,9i,8.84839301538943,0.9s : 0.3s,0.031955980125807665,0.01809879158791209,0.026336636247978537,0.013974748193477377,0.0442475751042366,-0.02750624343752861,0.03397548943758011,-0.011681854724884033,-0.0033235102891921997,0.006912462413311005,-0.22451970867474647,1.4830974933645622,0.15675335281592423,0.9711547493934631,0.22263814508914948,-0.08538816124200821
1727722601802,9i,8.84839301538943,0.9s : 0.3s,0.03538326011076238,0.018347911443852297,0.030254408632700496,0.01722887081213805,0.0538749024271965,-0.032405391335487366,0.030475562438368797,-0.01673191785812378,0.004034563899040222,0.000774085521697998,-0.22407803194736445,1.4824823553986952,0.15621979911102069,0.9711998105049133,0.22220753133296967,-0.08599419891834259
1727722601812,9i,8.84839301538943,0.9s : 0.3s,0.037463562523888654,0.018609099052253563,0.03251491887495231,0.017819562117217948,0.05174729973077774,-0.032672688364982605,0.03273199498653412,-0.01718240976333618,-0.002753421664237976,-0.003836698830127716,-0.22366893929757894,1.4818806447803983,0.15566898881638463,0.9712384343147278,0.22180865705013275,-0.08658663183450699
1727722601822,9i,8.84839301538943,0.9s : 0.3s,0.03845148272135115,0.01888124169197455,0.03349649587105505,0.019182183698735186,0.0470966212451458,-0.03288627415895462,0.02792099118232727,-0.018270134925842285,-0.0050130486488342285,-0.003004610538482666,-0.22329473129069585,1.4813300484715677,0.1551689095596235,0.9712731838226318,0.2214437574148178,-0.08712878823280334
1727722601832,9i,8.84839301538943,0.9s : 0.3s,0.03894608687632887,0.019166121655731592,0.03390364970996857,0.02051281034036649,0.04123234376311302,-0.03194732964038849,0.0227848868817091,-0.016897499561309814,-0.0097685307264328,-0.006310760974884033,-0.2229607612875673,1.4808446494848255,0.1547262856259509,0.9713043570518494,0.22111806273460388,-0.08760686963796616
1727722601842,9i,8.84839301538943,0.9s : 0.3s,0.03951354078909235,0.019469519277698223,0.03438397482529619,0.022009107369921448,0.04080570489168167,-0.03436893969774246,0.023910604417324066,-0.01867973804473877,-0.0074895769357681274,-0.008909232914447784,-0.22265801229114973,1.4803999269526058,0.15434352756342642,0.9713320136070251,0.2208227962255478,-0.08804486691951752
1727722601852,9i,8.84839301538943,0.9s : 0.3s,0.04030646422972299,0.019781869443236826,0.03511821037628017,0.016999809870652277,0.04740288481116295,-0.033223338425159454,0.024568738415837288,-0.014488160610198975,-0.002585366368293762,-0.008508972823619843,-0.22232311641993435,1.4799633366883018,0.15390332829356085,0.9713669419288635,0.22049616277217865,-0.08847562223672867
1727722601862,9i,8.84839301538943,0.9s : 0.3s,0.040759880360153024,0.020096869873792722,0.035461016176215686,0.014898471504831964,0.03968584164977074,-0.032152749598026276,0.02662869356572628,-0.012543082237243652,-0.0035347938537597656,-0.007220856845378876,-0.22198244534307118,1.4795553394706833,0.15348527746447096,0.9714054465293884,0.22016385197639465,-0.08887876570224762
1727722601872,9i,8.84839301538943,0.9s : 0.3s,0.04110757728931946,0.020395895815154486,0.035690900023601764,0.01287758155253862,0.037945203483104706,-0.032527897506952286,0.02625351957976818,-0.00782865285873413,-0.010224342346191406,8.440762758255005e-05,-0.22169160319109124,1.4791882054835874,0.1531277460389623,0.9714365005493164,0.2198801338672638,-0.08924125134944916
1727722601882,9i,8.84839301538943,0.9s : 0.3s,0.041238163801513225,0.020676960096711397,0.03567981887397188,0.010806132885822814,0.034271903336048126,-0.031383804976940155,0.02594379335641861,-0.0049225687980651855,-0.009600594639778137,-0.0006077885627746582,-0.22142761192105143,1.4788067076923554,0.1527753044847701,0.9714601635932922,0.21962259709835052,-0.08961717784404755
1727722601892,9i,8.84839301538943,0.9s : 0.3s,0.04118039229271253,0.02094649655858839,0.035455168752986384,0.011799777185827951,0.03084295243024826,-0.030730755999684334,0.024851199239492416,-0.006991207599639893,-0.009413406252861023,-0.0013211891055107117,-0.22115754720135974,1.4784157687103605,0.1524648332722965,0.9714841246604919,0.2193591296672821,-0.09000241756439209
1727722601902,9i,8.84839301538943,0.9s : 0.3s,0.041307863969791844,0.021203204321723915,0.03545086391384639,0.011087711036572263,0.03293273225426674,-0.030738743022084236,0.027776682749390602,-0.0052498579025268555,-0.009652629494667053,-0.0014842748641967773,-0.2208709997915159,1.4780398731179656,0.15216417669207008,0.9715127944946289,0.21907955408096313,-0.09037341177463531
1727722601912,9i,8.84839301538943,0.9s : 0.3s,0.04127054254369232,0.021436531388729634,0.035266596148065196,0.008017401215208414,0.02712184749543667,-0.03246460482478142,0.028210211545228958,0.0010346174240112305,-0.007920965552330017,-0.0006830766797065735,-0.22055068515375525,1.4776302701112831,0.1518711321532275,0.9715455770492554,0.21876700222492218,-0.09077787399291992
1727722601922,9i,8.84839301538943,0.9s : 0.3s,0.04091724419036173,0.02164514042671323,0.034723317353639406,0.008222858469729448,0.016558952629566193,-0.03319883719086647,0.02943446673452854,0.0007451772689819336,-0.007901325821876526,0.0021515488624572754,-0.22023341284755174,1.4772007857052583,0.15166705042913353,0.9715754985809326,0.2184574007987976,-0.09120160341262817
1727722601932,9i,8.84839301538943,0.9s : 0.3s,0.040351235906261336,0.021831988120915802,0.03393503401870912,0.014234235580174434,0.007694222033023834,-0.03216948360204697,0.03135796636343002,-0.0016502141952514648,-0.0130758136510849,0.0053771138191223145,-0.2199224883074419,1.476792871686492,0.15155697099341522,0.9716058373451233,0.21815398335456848,-0.09160428494215012
1727722601942,9i,8.84839301538943,0.9s : 0.3s,0.03997531215084626,0.02200054836366679,0.03337666030710015,0.01654083991008955,0.011674849316477776,-0.03541827201843262,0.026155482977628708,-0.0036731362342834473,-0.01435820758342743,0.007345020771026611,-0.21964174586215315,1.47639093796418,0.15148745713166825,0.971629798412323,0.2178799957036972,-0.0920005664229393
1727722601952,9i,8.84839301538943,0.9s : 0.3s,0.039708628566730686,0.02216126706479653,0.03294925529861555,0.006164616116986044,0.014959592372179031,-0.03358708322048187,0.025944892317056656,-0.004074990749359131,-0.004590451717376709,0.0005698204040527344,-0.21932688159924596,1.4760367510695258,0.15137833850955779,0.9716654419898987,0.2175726741552353,-0.09235119074583054
1727722601962,9i,8.84839301538943,0.9s : 0.3s,0.03982467127534189,0.022309436233179103,0.03298929367456594,0.006490609196994539,0.0259693656116724,-0.03617940470576286,0.02308598905801773,-0.003538072109222412,-0.00409245491027832,0.0035863444209098816,-0.21903557389745823,1.4756551584659712,0.15120779052750502,0.971693217754364,0.21728834509849548,-0.09272798895835876
1727722601972,9i,8.84839301538943,0.9s : 0.3s,0.04062023936586002,0.022444595690623736,0.03385622498779505,0.005181764833425598,0.044394444674253464,-0.0374472439289093,0.025267452001571655,-0.0033045411109924316,-0.001010015606880188,0.0038614198565483093,-0.21872275795903035,1.475206022019351,0.15086094880338752,0.9717190861701965,0.21698299050331116,-0.0931708812713623
1727722601982,9i,8.84839301538943,0.9s : 0.3s,0.042098558296825704,0.022565754352385833,0.03553977125952012,0.004438680674346834,0.056200239807367325,-0.036500222980976105,0.028649665415287018,-0.0022242069244384766,0.0014314055442810059,0.0035645291209220886,-0.2183632365376454,1.4747340707993664,0.15038268715624295,0.9717526435852051,0.21663202345371246,-0.09363695234060287
1727722601992,9i,8.84839301538943,0.9s : 0.3s,0.042844522887061365,0.02266303743645105,0.03635986627552339,0.007708640347305079,0.04887614771723747,-0.03388122841715813,0.02883918210864067,0.001687467098236084,-0.001614585518836975,0.007346339523792267,-0.21798218241397796,1.4742893472316116,0.1498677399586987,0.9717928171157837,0.21626000106334686,-0.09407703578472137
1727722602002,9i,8.84839301538943,0.9s : 0.3s,0.04347165317662665,0.022743002400862956,0.03704781331878112,0.010108265831763372,0.04749556630849838,-0.033382683992385864,0.029290057718753815,-0.00044482946395874023,-0.006157040596008301,0.00800437480211258,-0.2176179619431493,1.4739026278782188,0.14943161190353296,0.971834659576416,0.2159043848514557,-0.09446045011281967
1727722602012,9i,8.84839301538943,0.9s : 0.3s,0.04440599285060362,0.022798336382590087,0.03810679807113331,0.008368663038119778,0.05785273015499115,-0.03514450043439865,0.026436777785420418,0.004208087921142578,0.0013339817523956299,0.007109642028808594,-0.2172284004981757,1.473512815192472,0.14894047180657588,0.9718815088272095,0.21552398800849915,-0.09484744817018509
1727722602022,9i,8.84839301538943,0.9s : 0.3s,0.04476480295559763,0.022839670220419772,0.03849983179022932,0.007817837861821558,0.04634813964366913,-0.03302515670657158,0.026914283633232117,0.0019786953926086426,0.007157966494560242,0.0024427175521850586,-0.2168427555743462,1.473141999727167,0.14843346906749727,0.9719288945198059,0.21514739096164703,-0.09521592408418655
1727722602032,9i,8.84839301538943,0.9s : 0.3s,0.04478078467433945,0.022859085035012425,0.03850689428416197,0.009775292376330553,0.03817729651927948,-0.03477458655834198,0.025362394750118256,0.0032363533973693848,-4.6372413635253906e-05,0.009223893284797668,-0.2165480851969689,1.4727337220416619,0.1480459400963731,0.9719528555870056,0.21485961973667145,-0.09561892598867416
1727722602042,9i,8.84839301538943,0.9s : 0.3s,0.04494069611688932,0.022851798124075725,0.03869704756137191,0.01162577005628454,0.03733067587018013,-0.03798636049032211,0.028409581631422043,0.00702214241027832,0.0028636902570724487,0.008811771869659424,-0.21624011339440444,1.4723480676954142,0.1477015046981595,0.9719818830490112,0.21455882489681244,-0.09600026905536652
1727722602052,9i,8.84839301538943,0.9s : 0.3s,0.04491459515758435,0.022827935922408983,0.03868082470284326,0.009123066285272926,0.03048049658536911,-0.03726082295179367,0.03280113637447357,0.004200160503387451,0.005125448107719421,0.006270468235015869,-0.215924150820204,1.4719554010459417,0.14738029374224995,0.9720115065574646,0.21425020694732666,-0.09638861566781998
1727722602062,9i,8.84839301538943,0.9s : 0.3s,0.044322365990338834,0.022786786996259866,0.03801623949536075,0.011679658190398436,0.01645575650036335,-0.037242718040943146,0.030824271962046623,0.005251586437225342,-0.004730254411697388,0.009298384189605713,-0.21561023288240827,1.471594270750504,0.1471931169303311,0.9720434546470642,0.21394357085227966,-0.0967462807893753
1727722602072,9i,8.84839301538943,0.9s : 0.3s,0.04356525360303631,0.022727143395658792,0.037167301147245424,0.013102421186670963,0.008020060136914253,-0.036778662353754044,0.03279823809862137,0.004571020603179932,-0.002957358956336975,0.01191776990890503,-0.21527925806261758,1.4712771531272189,0.14711375095212548,0.9720831513404846,0.21362024545669556,-0.09706155955791473
1727722602082,9i,8.84839301538943,0.9s : 0.3s,0.042476753300777416,0.022654414296127547,0.03593121322575286,0.009415175823685394,-0.0027817212976515293,-0.037448178976774216,0.028098557144403458,0.004577040672302246,0.0018109381198883057,0.00802600383758545,-0.21495913901314354,1.4709867005170292,0.14713806764906406,0.9721229076385498,0.21330751478672028,-0.09735070914030075
1727722602092,9i,8.84839301538943,0.9s : 0.3s,0.041007932621154417,0.022582666232179024,0.0342297198894052,0.005182051416844112,-0.018234048038721085,-0.03582937270402908,0.025077035650610924,0.0009055733680725098,0.004433721303939819,0.002525016665458679,-0.21472667367803291,1.4707329897026562,0.1472990975330868,0.9721476435661316,0.21308039128780365,-0.09760230779647827
1727722602102,9i,8.84839301538943,0.9s : 0.3s,0.03988989712803578,0.022524389657496462,0.0329219647567174,0.00992881970079769,-0.02266554720699787,-0.03610954433679581,0.028770573437213898,-0.006342291831970215,0.007467553019523621,0.0016101077198982239,-0.21452635352219063,1.4704542500268765,0.14754036349233754,0.972162663936615,0.21288466453552246,-0.09787753969430923
1727722602112,9i,8.84839301538943,0.9s : 0.3s,0.03901351697365715,0.022467324657298515,0.031894730433057135,0.007412374642975858,-0.014945176430046558,-0.03269816190004349,0.02684773877263069,-0.002680063247680664,0.0018253475427627563,0.006665483117103577,-0.21428845655299986,1.4702505655488096,0.14780370876048132,0.9721930027008057,0.21265220642089844,-0.09808062762022018
1727722602122,9i,8.84839301538943,0.9s : 0.3s,0.038568270309912896,0.022421323634257116,0.03138145505209106,0.013613346690663643,0.0029443411622196436,-0.03181825578212738,0.026191800832748413,-0.01006382703781128,0.00242064893245697,0.008842118084430695,-0.21405401243011404,1.4700415200881465,0.14791190869591184,0.972222089767456,0.21242313086986542,-0.0982888713479042
1727722602132,9i,8.84839301538943,0.9s : 0.3s,0.03833927166259751,0.022400028850806226,0.0311149234146816,0.01595342776720583,0.00881541334092617,-0.03167395666241646,0.027858640998601913,-0.014026880264282227,0.007414281368255615,0.0016694068908691406,-0.21381570857701873,1.4697967104878995,0.14789569883958223,0.9722484350204468,0.21219025552272797,-0.09853198379278183
1727722602142,9i,8.84839301538943,0.9s : 0.3s,0.03823827063513007,0.022391958370079287,0.030996218180902115,0.013205058623945307,0.0193380955606699,-0.030083252117037773,0.02730496972799301,-0.011201679706573486,0.0007630735635757446,0.006950803101062775,-0.21350177337394186,1.4695662955485975,0.14780875095001553,0.9722918272018433,0.21188345551490784,-0.09876272082328796
1727722602152,9i,8.84839301538943,0.9s : 0.3s,0.038288696725031005,0.02239709460387505,0.031054700935711346,0.012502895817801117,0.02758617140352726,-0.028653930872678757,0.028342070057988167,-0.010941386222839355,9.180605411529541e-05,0.006049796938896179,-0.21318943162529244,1.469354259193171,0.1476192033771678,0.9723368883132935,0.21157819032669067,-0.09897559881210327
1727722602162,9i,8.84839301538943,0.9s : 0.3s,0.03820538206263223,0.022414341791043995,0.03093943277802551,0.01708898906435399,0.02403910644352436,-0.029114127159118652,0.02522457391023636,-0.009829163551330566,-0.011390730738639832,0.00810384750366211,-0.21291650526147987,1.4690995757169718,0.14739751741291812,0.9723689556121826,0.2113114446401596,-0.09922908246517181
1727722602172,9i,8.84839301538943,0.9s : 0.3s,0.03765984831703068,0.022445817246180787,0.03023986546618242,0.016471644981656344,0.003925582859665155,-0.029879340901970863,0.021442485973238945,-0.006077826023101807,-0.015221282839775085,0.0016394108533859253,-0.21269858750258303,1.468816479669667,0.1472720743294674,0.9723866581916809,0.21109843254089355,-0.09950904548168182
1727722602182,9i,8.84839301538943,0.9s : 0.3s,0.03675960895198252,0.0224914732161358,0.02907580579916091,0.018656833912477886,-0.020098261535167694,-0.03173956274986267,0.0176211167126894,-0.0046547651290893555,-0.018060892820358276,-0.0004634261131286621,-0.2125907856781322,1.468549130796331,0.1473679961411044,0.9723825454711914,0.21099306643009186,-0.09977132081985474
1727722602192,9i,8.84839301538943,0.9s : 0.3s,0.035980697877747575,0.022528201889146577,0.028055137486948822,0.01820209170643862,-0.03355521336197853,-0.03274783492088318,0.017729908227920532,0.002436995506286621,-0.016851887106895447,0.006433591246604919,-0.21247790553779922,1.4683475809008404,0.14767200142737558,0.9723862409591675,0.21088272333145142,-0.09996974468231201
1727722602202,9i,8.84839301538943,0.9s : 0.3s,0.03530959008247151,0.022554487877810295,0.027167300719097565,0.014279264266532752,-0.04323260858654976,-0.031386688351631165,0.014721067622303963,0.0019752979278564453,-0.011867329478263855,0.00769168883562088,-0.21238938068240923,1.4682012373075324,0.14810141802974625,0.9723899960517883,0.21079619228839874,-0.10011394321918488
1727722602212,9i,8.84839301538943,0.9s : 0.3s,0.034950286096880875,0.022574427614713864,0.026681786224349167,0.015385983615787018,-0.045102279633283615,-0.030291112139821053,0.014788612723350525,-0.0013238787651062012,-0.011375516653060913,0.010274894535541534,-0.21235454438731416,1.4680091217916924,0.14857244578410958,0.9723780155181885,0.2107621431350708,-0.10030150413513184
1727722602222,9i,8.84839301538943,0.9s : 0.3s,0.03485915100098528,0.022589792757225172,0.02654923109423529,0.014763593747943546,-0.043830886483192444,-0.0289576668292284,0.01626586727797985,-0.0036165714263916016,-0.007885217666625977,0.011946022510528564,-0.21228057933405428,1.4678928013239563,0.1490638017437762,0.9723820090293884,0.21068982779979706,-0.10041622817516327
1727722602232,9i,8.84839301538943,0.9s : 0.3s,0.034938742001846226,0.022610339722664446,0.026636220270475235,0.013762070979741303,-0.03253655508160591,-0.03111265040934086,0.016765443608164787,-0.009389281272888184,0.0008333921432495117,0.01002703607082367,-0.21218098395868315,1.4677343679979715,0.14948556222379486,0.9723869562149048,0.21059247851371765,-0.10057244449853897
1727722602242,9i,8.84839301538943,0.9s : 0.3s,0.034964151607973906,0.022637917680121696,0.026646136319801006,0.011366901993456417,-0.019503843039274216,-0.03143249452114105,0.018139900639653206,-0.008801937103271484,0.0012981593608856201,0.007074400782585144,-0.21198651565074883,1.467558255003542,0.14978734795557183,0.9724099636077881,0.21040235459804535,-0.10074791312217712
1727722602252,9i,8.84839301538943,0.9s : 0.3s,0.03470798681289082,0.02267869812518778,0.02627396049228984,0.012481325096402011,0.005984339863061905,-0.029668550938367844,0.02148439735174179,-0.009806036949157715,-0.005297258496284485,0.005618199706077576,-0.21172487572026924,1.4672885086774585,0.14989588182414795,0.9724375009536743,0.21014657616615295,-0.10101590305566788
1727722602262,9i,8.84839301538943,0.9s : 0.3s,0.03445232052232203,0.02272706512228359,0.02589291216337576,0.0068521950899407,0.031373851001262665,-0.03313625231385231,0.02110889181494713,-0.006008803844451904,-0.002487495541572571,0.002158522605895996,-0.21139489329853972,1.4669307641009894,0.1497166558535134,0.9724701046943665,0.20982395112514496,-0.10137095302343369
1727722602272,9i,8.84839301538943,0.9s : 0.3s,0.034574342126784834,0.02277746275186768,0.02601100390387208,0.005502241191287889,0.04121742770075798,-0.03663529455661774,0.021647782996296883,-0.004335463047027588,0.0032390058040618896,0.0009936094284057617,-0.21104702771118394,1.4665674113552205,0.149371228459488,0.9725057482719421,0.2094838172197342,-0.10173188149929047
1727722602282,9i,8.84839301538943,0.9s : 0.3s,0.03508189716511838,0.02282872376256287,0.026638109543969866,0.0031220935211473764,0.034570444375276566,-0.04080180823802948,0.022307181730866432,-0.002716660499572754,-0.001201346516609192,0.0009612441062927246,-0.21071937020697032,1.466184369131215,0.14903749134986385,0.9725348949432373,0.20916341245174408,-0.10211154073476791
1727722602292,9i,8.84839301538943,0.9s : 0.3s,0.03569553445836696,0.0228930465037588,0.027387581164557053,0.01698706599148322,0.02876315452158451,-0.04121433198451996,0.024010073393583298,-0.00593489408493042,-0.015778496861457825,0.00209200382232666,-0.21039681534663843,1.4658134435624803,0.14875502576068264,0.9725641012191772,0.2088479846715927,-0.10247934609651566
1727722602302,9i,8.84839301538943,0.9s : 0.3s,0.036481056434314624,0.022982584616310742,0.028331401005205616,0.022584708237357694,0.022412845864892006,-0.04438428953289986,0.026773102581501007,-0.012600302696228027,-0.01851232349872589,0.0029317736625671387,-0.21008734447418595,1.4654589939227092,0.1485587850191653,0.9725918769836426,0.20854532718658447,-0.10283085703849792
1727722602312,9i,8.84839301538943,0.9s : 0.3s,0.03825743886397646,0.023089046179966783,0.03050455006929716,0.017543639148516824,0.03366190567612648,-0.05028492584824562,0.028917847201228142,-0.00917816162109375,-0.014918610453605652,0.0009877681732177734,-0.20981405225827757,1.4650165459118054,0.14832288968177176,0.9726029634475708,0.20827803015708923,-0.10326717793941498
1727722602322,9i,8.84839301538943,0.9s : 0.3s,0.04287554721703189,0.0232168278614746,0.036045685639346466,0.014830972745241972,0.04846082627773285,-0.054398711770772934,0.035794928669929504,-0.010807693004608154,-0.009006679058074951,-0.004693746566772461,-0.20949509011241224,1.4644957248634434,0.147957437243789,0.972615122795105,0.20796605944633484,-0.10378076881170273
1727722602332,9i,8.84839301538943,0.9s : 0.3s,0.04887388999149295,0.023337024119785374,0.042942291836057266,0.012792269596403047,0.056207429617643356,-0.060035914182662964,0.041063059121370316,0.0012615323066711426,-0.01268930733203888,0.0010159611701965332,-0.20904810349366396,1.4639067301765272,0.1474691830703766,0.9726460576057434,0.20752881467342377,-0.10436351597309113
1727722602342,9i,8.84839301538943,0.9s : 0.3s,0.05654292705623776,0.02342828204828592,0.05146084142678769,0.019254073896469423,0.0739869549870491,-0.06561549752950668,0.04392275959253311,0.009917795658111572,-0.01453392207622528,0.007818043231964111,-0.20856283753549548,1.463199589637559,0.1468923550568947,0.9726720452308655,0.20705409348011017,-0.1050620898604393
1727722602352,9i,8.84839301538943,0.9s : 0.3s,0.06755713939684,0.02350876364618056,0.06333486492692703,0.013881925257332681,0.10810205340385437,-0.07160007208585739,0.04951227083802223,0.0012598633766174316,-0.01149497926235199,0.007680237293243408,-0.20803009340302464,1.4623651659373127,0.1460220533655623,0.9726935029029846,0.20653286576271057,-0.1058855876326561
1727722602362,9i,8.84839301538943,0.9s : 0.3s,0.07849032071612394,0.023572913043687437,0.07486686995430453,0.005675402266942213,0.12003647536039352,-0.07397747039794922,0.0596165731549263,0.005079805850982666,-0.0019861608743667603,0.0015687346458435059,-0.20737249361936652,1.4614787018467539,0.14490251200936075,0.9727340340614319,0.20588940382003784,-0.10676259547472
1727722602372,9i,8.84839301538943,0.9s : 0.3s,0.08767428603588762,0.02363949394609533,0.0844272157415792,0.015344168033271448,0.12338073551654816,-0.07995612919330597,0.06160638481378555,0.0007031559944152832,-0.015293285250663757,0.0010317414999008179,-0.20657885648109411,1.4605119066772507,0.14376187962988624,0.9727925658226013,0.20511269569396973,-0.10772094875574112
1727722602382,9i,8.84839301538943,0.9s : 0.3s,0.09828237466614397,0.023724299195286676,0.0953760074531788,0.010896502353486963,0.14741896092891693,-0.08299560099840164,0.06429511308670044,-0.007275640964508057,-0.005432263016700745,-0.006024062633514404,-0.20573308360324638,1.4594714312428294,0.14247688233478994,0.9728519916534424,0.20428483188152313,-0.1087522804737091
1727722602392,9i,8.84839301538943,0.9s : 0.3s,0.11069035850500093,0.023837946449020847,0.10809305146520402,0.018425881041777434,0.17443686723709106,-0.08366711437702179,0.07198622077703476,-0.013438582420349121,0.002370864152908325,-0.012381300330162048,-0.20483865241570678,1.4583572260692603,0.14092058820987236,0.9729112982749939,0.20340919494628906,-0.10985661298036575
1727722602402,9i,8.84839301538943,0.9s : 0.3s,0.129732091858795,0.023979672684555968,0.1274966311554952,0.018260737377484366,0.23003408312797546,-0.08992953598499298,0.079673171043396,-0.011622190475463867,-0.009403958916664124,-0.010485455393791199,-0.2038362687731861,1.457075286808985,0.13896681606833328,0.9729716777801514,0.20242765545845032,-0.11112681776285172
1727722602412,9i,8.84839301538943,0.9s : 0.3s,0.1649181947955436,0.024121835755182022,0.16314456170654568,0.013434839402947927,0.3520192503929138,-0.0915016457438469,0.08236046135425568,-0.0018565654754638672,0.003104373812675476,-0.012938737869262695,-0.20265622370439554,1.4556413052875632,0.13618597125949997,0.9730480909347534,0.2012719064950943,-0.1125493049621582
1727722602422,9i,8.84839301538943,0.9s : 0.3s,0.2354026313916339,0.024247053617316088,0.2341505482739352,0.03526522147569371,0.5927810072898865,-0.09431314468383789,0.08107681572437286,0.0006375908851623535,0.02584323287010193,-0.023986592888832092,-0.201251150720942,1.4539190671241364,0.131565131755538,0.9731327891349792,0.19989538192749023,-0.11425783485174179
1727722602432,9i,8.84839301538943,0.9s : 0.3s,0.35321686565506755,0.024279932390070716,0.3523813829735101,0.056134660143739426,0.9326959252357483,-0.11770439893007278,0.079832524061203,0.010838210582733154,0.04448065161705017,-0.03248237818479538,-0.19954733437902653,1.4514636613578382,0.12400170261002709,0.9731858968734741,0.19822566211223602,-0.11668728291988373
1727722602442,9i,8.84839301538943,0.9s : 0.3s,0.520775046706199,0.024169332673264182,0.5202138912312635,0.09599768280258007,1.357003092765808,-0.11254239827394485,0.08494845777750015,0.020856797695159912,0.08314532041549683,-0.04321347922086716,-0.197385030586998,1.4480714244484705,0.11256686319407497,0.9732075929641724,0.19610580801963806,-0.12004007399082184
1727722602452,9i,8.84839301538943,0.9s : 0.3s,0.7087101994349196,0.023981549207064117,0.7083043357771521,0.14165386880172437,1.7075111865997314,-0.10257125645875931,0.08696494251489639,0.024314522743225098,0.12617740035057068,-0.059614479541778564,-0.19461362246312228,1.4439833647780635,0.09703235293360361,0.9732441902160645,0.1933874636888504,-0.12408585846424103
1727722602462,9i,8.84839301538943,0.9s : 0.3s,0.8879340034720621,0.02388748146819936,0.8876126310226947,0.09834421081866929,1.9434638023376465,-0.1096707135438919,0.07132525742053986,0.028772413730621338,0.07437926530838013,-0.0575452595949173,-0.19146748377642414,1.439350257868238,0.07865636324407702,0.9732572436332703,0.19029976427555084,-0.1286727637052536
1727722602472,9i,8.84839301538943,0.9s : 0.3s,1.0501467264276119,0.023854556162791203,1.049875757971821,0.10246373906062255,2.126330614089966,-0.09062235802412033,0.07975103706121445,0.050549983978271484,0.0648912638425827,-0.06109534204006195,-0.1879995248722125,1.434496024361383,0.05815656988500994,0.973268985748291,0.18689404428005219,-0.13348449766635895
1727722602482,9i,8.84839301538943,0.9s : 0.3s,1.187212748885358,0.02395602687009754,1.1869710274023235,0.11852368498739706,2.242495059967041,-0.09691300988197327,0.07672169059515,0.04507368803024292,0.08132971823215485,-0.07349628210067749,-0.184144086841066,1.4295133181619357,0.036225347514451174,0.9732980132102966,0.18310515582561493,-0.13843278586864471
1727722602492,9i,8.84839301538943,0.9s : 0.3s,1.3236871458232398,0.024277086843942804,1.3234645001177956,0.09981684049297918,2.4448678493499756,-0.10371512919664383,0.04183005169034004,0.02891021966934204,0.03789025545120239,-0.0877036452293396,-0.18021629281067764,1.4242265415057465,0.012819104783384404,0.9732566475868225,0.17924237251281738,-0.1436803787946701
1727722602502,9i,8.84839301538943,0.9s : 0.3s,1.4691013772644193,0.02518966388855727,1.4688854065288397,0.15354351438645922,2.692969560623169,-0.09103821963071823,0.04784693196415901,-0.005965530872344971,0.11152231693267822,-0.10536980628967285,-0.17595965453705323,1.4186782291541105,-0.013038402602161355,0.9731898307800293,0.17505306005477905,-0.14919233322143555
1727722602512,9i,8.84839301538943,0.9s : 0.3s,1.6010364492855174,0.027012902696640452,1.6008085503984162,0.21469630155891745,2.8420801162719727,-0.11668916046619415,0.018897369503974915,-0.055150389671325684,0.1601007580757141,-0.13198743760585785,-0.17133322118523484,1.4128217753641228,-0.04079839773142224,0.9730886816978455,0.17049619555473328,-0.15501491725444794
1727722602522,9i,8.84839301538943,0.9s : 0.3s,1.698751930201543,0.029570962709251303,1.6984945329696874,0.207492801876372,2.8689615726470947,-0.11535251885652542,-0.02006547525525093,-0.06546461582183838,0.14993712306022644,-0.12761859595775604,-0.16675260711913276,1.4068433954694224,-0.07005734562152838,0.9729048609733582,0.16598087549209595,-0.16095538437366486
1727722602532,9i,8.84839301538943,0.9s : 0.3s,1.7272059508950974,0.032344222373558856,1.7269030801079972,0.1766957230170214,2.670781373977661,-0.09546536952257156,-0.07054795324802399,-0.07022726535797119,0.14399579167366028,-0.07453000545501709,-0.16255105868727118,1.4012166127711647,-0.09866066046194599,0.9726627469062805,0.1618361622095108,-0.1665433794260025
1727722602542,9i,8.84839301538943,0.9s : 0.3s,1.7080404201289348,0.03515817326948584,1.7076785352186694,0.1556346768554033,2.4741861820220947,-0.11385023593902588,-0.1296621412038803,-0.06543153524398804,0.14116612076759338,-0.003604605793952942,-0.15923441328127394,1.3960198968861532,-0.12492805588799838,0.9723073840141296,0.15856234729290009,-0.17168815433979034
1727722602552,9i,8.84839301538943,0.9s : 0.3s,1.683912440818764,0.037757813246951634,1.6834890721008604,0.2216221553118846,2.4179720878601074,-0.12008300423622131,-0.17623649537563324,-0.03105604648590088,0.21719326078891754,0.03128880262374878,-0.15636808002899907,1.3910351222444395,-0.15025879485183105,0.9718826413154602,0.15573163330554962,-0.17661327123641968
1727722602562,9i,8.84839301538943,0.9s : 0.3s,1.6432872858433427,0.04077262624130541,1.642781390436283,0.35068686436238067,2.2914702892303467,-0.15523380041122437,-0.2751716077327728,-0.03797101974487305,0.346393883228302,0.03937964141368866,-0.15426306953953836,1.3859408264201831,-0.17468147638347395,0.9712903499603271,0.15365196764469147,-0.18162186443805695
1727722602572,9i,8.84839301538943,0.9s : 0.3s,1.6332606305844157,0.04457951181945338,1.6326521229407513,0.4235694615271837,2.3768086433410645,-0.08894665539264679,-0.3553050756454468,-0.05957835912704468,0.41279172897338867,0.07392223179340363,-0.1530362879867649,1.3810455577574987,-0.19905980010156082,0.970573902130127,0.1524396389722824,-0.18640978634357452
1727722602582,9i,8.84839301538943,0.9s : 0.3s,1.6608831620746585,0.05012389729089539,1.660126643658094,0.5401413418549468,2.5356502532958984,-0.10397380590438843,-0.44482430815696716,-0.1190682053565979,0.5248847603797913,0.045512855052948,-0.15227786019071987,1.3763001981923302,-0.2248803410807448,0.96979159116745,0.1516900211572647,-0.1910356879234314
1727722602592,9i,8.84839301538943,0.9s : 0.3s,1.7083224133877217,0.05815495964721074,1.707332266652066,0.6485303564247893,2.659268617630005,-0.09659343212842941,-0.5420575737953186,-0.17844027280807495,0.6223272681236267,-0.0382029265165329,-0.15200011254774942,1.371198875578878,-0.2524571166125107,0.9688456654548645,0.15141548216342926,-0.195988729596138
1727722602602,9i,8.84839301538943,0.9s : 0.3s,1.7555504165320592,0.06840685895464466,1.7542171378235494,0.6901412924659747,2.7069225311279297,-0.07299622893333435,-0.655900239944458,-0.2072877287864685,0.6542449593544006,-0.07273468375205994,-0.15248237504128317,1.3661422722118566,-0.2809740223902023,0.9677705764770508,0.15189217031002045,-0.20087039470672607
1727722602612,9i,8.84839301538943,0.9s : 0.3s,1.8237327867442346,0.08020684810070478,1.821968204707108,0.6977359757555345,2.854261875152588,-0.07750487327575684,-0.7786949872970581,-0.27413374185562134,0.6412671804428101,-0.021507829427719116,-0.15383353088079774,1.360967583409111,-0.3106395371303005,0.9665165543556213,0.15322750806808472,-0.20583266019821167
1727722602622,9i,8.84839301538943,0.9s : 0.3s,1.888301374052406,0.09367185677129118,1.8859765805802633,0.7824744422803307,2.907217025756836,-0.07537274807691574,-0.8935853242874146,-0.27354246377944946,0.7316910028457642,-0.04548680782318115,-0.1558564090859257,1.3555670912370419,-0.3418013196617836,0.9650862216949463,0.1552261859178543,-0.21098269522190094
1727722602632,9i,8.84839301538943,0.9s : 0.3s,1.946117608370157,0.10832481582133838,1.9431004811603678,0.7911935588249983,2.921534538269043,-0.09624984115362167,-1.054456114768982,-0.2788704037666321,0.7402377128601074,-0.01633015275001526,-0.15905282191863127,1.3498714607775182,-0.3734610984309993,0.963379979133606,0.1583830565214157,-0.2163662165403366
1727722602642,9i,8.84839301538943,0.9s : 0.3s,2.013505871742715,0.12390966171781129,2.009689600728273,0.8096514746462071,3.009248971939087,-0.10596718639135361,-1.193199634552002,-0.3057847023010254,0.7496033906936646,0.011224210262298584,-0.1634155873277451,1.3437195910241972,-0.4060002968873561,0.9613482356071472,0.1626892387866974,-0.22213098406791687
1727722602652,9i,8.84839301538943,0.9s : 0.3s,2.0472088292086585,0.1406656764616836,2.0423704751722846,0.8799577299287872,2.857400417327881,-0.13253870606422424,-1.3921486139297485,-0.3128141760826111,0.8223397731781006,-0.015172183513641357,-0.16923540415332844,1.3372912654350602,-0.4386012653950473,0.9589629769325256,0.1684287190437317,-0.22808325290679932
1727722602662,9i,8.84839301538943,0.9s : 0.3s,2.0910444417670084,0.15815147395188475,2.0850551476475503,0.8727354769993646,2.8792524337768555,-0.1606805920600891,-1.5616860389709473,-0.34776997566223145,0.7999718189239502,0.027719050645828247,-0.17697921647930087,1.3303521439467565,-0.47094987168629987,0.9560618996620178,0.17605678737163544,-0.2344144582748413
1727722602672,9i,8.84839301538943,0.9s : 0.3s,2.144659647431566,0.17684467304398385,2.137356068823643,0.9671481521432941,2.906432867050171,-0.17776237428188324,-1.7357540130615234,-0.3392808437347412,0.9054704904556274,-0.019678622484207153,-0.1859621510014125,1.3227026110011126,-0.5042596857855132,0.9526691436767578,0.1848921775817871,-0.2413228452205658
1727722602682,9i,8.84839301538943,0.9s : 0.3s,2.1623545939925104,0.19647003837073088,2.153410530805289,0.9820015774889069,2.662367582321167,-0.1908976137638092,-1.950971245765686,-0.34029269218444824,0.921150803565979,-0.0030296742916107178,-0.19683229697809737,1.3147594180376545,-0.5368631337413745,0.9487216472625732,0.19556377828121185,-0.24835866689682007
1727722602692,9i,8.84839301538943,0.9s : 0.3s,2.2033425586616886,0.2166522379443207,2.192665099508713,0.9846846597941128,2.6810500621795654,-0.21383537352085114,-2.144113302230835,-0.3598790168762207,0.9114106893539429,0.0970645546913147,-0.20989344288955114,1.3063228078312445,-0.568877609162214,0.9440466165542603,0.20835568010807037,-0.25566422939300537
1727722602702,9i,8.84839301538943,0.9s : 0.3s,2.264559823721315,0.23806800016760465,2.2520112838325015,1.1006744736602527,2.705167055130005,-0.2589741051197052,-2.351776599884033,-0.3075839877128601,1.0562254190444946,0.03555631637573242,-0.22433831253820297,1.29688494849582,-0.6020826232261401,0.9385960698127747,0.2224612981081009,-0.2637208104133606
1727722602712,9i,8.84839301538943,0.9s : 0.3s,2.322936825850104,0.2603493219651542,2.3083010478364474,1.1028355074833645,2.6071534156799316,-0.294536828994751,-2.569772243499756,-0.2675262689590454,1.0694037675857544,0.03242582082748413,-0.24066747970065439,1.2865139564550785,-0.6355643066998383,0.932199239730835,0.23835092782974243,-0.2723853886127472
1727722602722,9i,8.84839301538943,0.9s : 0.3s,2.4003089018872417,0.28309585757990563,2.383556074419109,1.087134197703109,2.6402931213378906,-0.3263815641403198,-2.772491693496704,-0.24910134077072144,1.0556060075759888,0.07419732213020325,-0.25881250221652297,1.2750661768338496,-0.6696493399087018,0.9247300624847412,0.2559327781200409,-0.2817319333553314
1727722602732,9i,8.84839301538943,0.9s : 0.3s,2.4804461505857383,0.3063360185241902,2.461457159836497,1.1228221492493335,2.587700128555298,-0.3715163469314575,-2.9855008125305176,-0.1735207438468933,1.1070491075515747,0.07115057110786438,-0.2785109253850478,1.2623462419258518,-0.7046487809999348,0.9160897731781006,0.27492424845695496,-0.2918839752674103
1727722602742,9i,8.84839301538943,0.9s : 0.3s,2.553284308949809,0.3297503767220106,2.5319015485166467,1.1170746982776794,2.453437328338623,-0.42309457063674927,-3.1986758708953857,-0.0835953950881958,1.1096104383468628,0.09814462065696716,-0.3000697484649018,1.2484272082536867,-0.7398153507187665,0.9061052203178406,0.29558682441711426,-0.30265796184539795
1727722602752,9i,8.84839301538943,0.9s : 0.3s,2.6454321732275963,0.35326396570774177,2.621739108622389,1.1351433021240704,2.48408579826355,-0.4851037263870239,-3.4081151485443115,0.0063100457191467285,1.130111813545227,0.10657292604446411,-0.3234349873289562,1.2329095517718613,-0.7755896522661989,0.8945384621620178,0.3178253173828125,-0.3143059313297272
1727722602762,9i,8.84839301538943,0.9s : 0.3s,2.746906061223004,0.3770584835276812,2.72090422638936,1.1947681987809682,2.491854667663574,-0.5251755118370056,-3.6123478412628174,0.11726725101470947,1.187023401260376,0.0685192346572876,-0.3479393639089598,1.2154881013228547,-0.8132833752590587,0.8813595175743103,0.34096136689186096,-0.32703351974487305
1727722602772,9i,8.84839301538943,0.9s : 0.3s,2.8466434508637004,0.4007698421811454,2.8182907000420125,1.1778228559417512,2.4446098804473877,-0.5751726031303406,-3.8032186031341553,0.20309746265411377,1.1567708253860474,0.088878333568573,-0.373833364898961,1.1962800232545643,-0.8521926003121855,0.8664063811302185,0.3651867210865021,-0.34055665135383606
1727722602782,9i,8.84839301538943,0.9s : 0.3s,2.945898056465043,0.42443234277143643,2.9151625247135136,1.1387175317510285,2.4025514125823975,-0.6244946122169495,-3.98911190032959,0.28548598289489746,1.0982792377471924,0.09464716911315918,-0.40086595111339196,1.1751632085587145,-0.8922528118126561,0.8496001362800598,0.39021578431129456,-0.35483992099761963
1727722602792,9i,8.84839301538943,0.9s : 0.3s,3.0412500443747215,0.447938632753363,3.008081251179278,1.1261409582090631,2.342203378677368,-0.6933566927909851,-4.158036231994629,0.36884284019470215,1.0596747398376465,0.09611380100250244,-0.42889433600233046,1.151837673376346,-0.9337176853490047,0.8307727575302124,0.41586554050445557,-0.3699631094932556
1727722602802,9i,8.84839301538943,0.9s : 0.3s,3.126161436752226,0.4712048696288088,3.090445162023562,1.1252370745674873,2.204411029815674,-0.7546706795692444,-4.324482440948486,0.45814818143844604,1.0238782167434692,0.08906242251396179,-0.45806881822247975,1.1263321744733672,-0.9762156306821471,0.809765636920929,0.4422168433666229,-0.38564732670783997
1727722602812,9i,8.84839301538943,0.9s : 0.3s,3.2036502570265304,0.4941258963149706,3.165314292125994,1.1241216882393397,2.096613645553589,-0.8343788981437683,-4.459105014801025,0.5567710995674133,0.972373902797699,0.09024691581726074,-0.48809136141947645,1.0985697437358943,-1.0195701337667276,0.786566972732544,0.46894097328186035,-0.4017549455165863
1727722602822,9i,8.84839301538943,0.9s : 0.3s,3.2725111754772676,0.5165874645321118,3.231480587147614,1.123078674218813,1.9850621223449707,-0.9106017351150513,-4.5701141357421875,0.6572079658508301,0.9070724844932556,0.08125826716423035,-0.5184282468808976,1.0682469635216079,-1.0641974059417845,0.7612032890319824,0.49551552534103394,-0.4183705151081085
1727722602832,9i,8.84839301538943,0.9s : 0.3s,3.33712812842654,0.5373040818738829,3.2935889951749124,1.1345543639297893,1.82099449634552,-0.9761241674423218,-4.714145183563232,0.7405056953430176,0.8568941950798035,0.06780308485031128,-0.549351573183086,1.0354457037759037,-1.1099598761201852,0.7335391044616699,0.5221343040466309,-0.43508198857307434
1727722602842,9i,8.84839301538943,0.9s : 0.3s,3.411340439711883,0.5566522340363382,3.3656176083976055,1.169061048018622,1.832177996635437,-1.0423511266708374,-4.840404510498047,0.8112066984176636,0.8364179134368896,0.09514462947845459,-0.5804602839121656,0.9996138488281525,-1.1578259124693726,0.7034723162651062,0.5484088659286499,-0.45207810401916504
1727722602852,9i,8.84839301538943,0.9s : 0.3s,3.4793710867615713,0.5753520368074658,3.431470995525665,1.2490725050143314,1.8537168502807617,-1.1093902587890625,-4.894224166870117,0.9068212509155273,0.8585752248764038,0.026569247245788574,-0.6106514476263643,0.9600499143748854,-1.2089350547308315,0.6711664199829102,0.5734012722969055,-0.469836950302124
1727722602862,9i,8.84839301538943,0.9s : 0.3s,3.5302634894657445,0.5933869340282347,3.4800362428542932,1.3002848237876246,1.7423076629638672,-1.1991413831710815,-4.929290294647217,1.0264699459075928,0.7981854677200317,0.00017955899238586426,-0.6395687062415498,0.9170589072534769,-1.2623806668270638,0.636921226978302,0.5968494415283203,-0.4879571497440338
1727722602872,9i,8.84839301538943,0.9s : 0.3s,3.569818306177463,0.6104943171606445,3.5172289416292326,1.3016026561442955,1.5930815935134888,-1.282762050628662,-4.9792351722717285,1.103766679763794,0.6884954571723938,0.042925477027893066,-0.6678377642591965,0.8708719588771505,-1.317530323469993,0.6005637645721436,0.619289755821228,-0.5057702660560608
1727722602882,9i,8.84839301538943,0.9s : 0.3s,3.595798205093028,0.6270508705775504,3.5407021814123505,1.3257144888261696,1.3946659564971924,-1.3715460300445557,-5.0068864822387695,1.1515848636627197,0.6563082337379456,0.025113940238952637,-0.6952761156538076,0.821628310819204,-1.3741950655222686,0.5622823238372803,0.6405974626541138,-0.5229470729827881
1727722602892,9i,8.84839301538943,0.9s : 0.3s,3.605286844057602,0.6430893772703935,3.5474680098313502,1.3262260685977427,1.1501855850219727,-1.4387699365615845,-5.005773544311523,1.18858802318573,0.58810955286026,0.016163229942321777,-0.7221784275454538,0.769730499797161,-1.4318698891193087,0.5222121477127075,0.6610208749771118,-0.5388376712799072
1727722602902,9i,8.84839301538943,0.9s : 0.3s,3.606339931205575,0.6587004592929725,3.545673617852475,1.325484833901621,0.917198896408081,-1.497474193572998,-4.9965596199035645,1.2140203714370728,0.5299587249755859,0.04699289798736572,-0.7484528772964594,0.715401098064061,-1.4905369310055152,0.48062074184417725,0.6805059313774109,-0.5530962944030762
1727722602912,9i,8.84839301538943,0.9s : 0.3s,3.5959747516715863,0.6741805672852377,3.5322110607032644,1.338006605486504,0.7119467854499817,-1.5336437225341797,-4.96851110458374,1.2381154298782349,0.5068845152854919,0.019998669624328613,-0.7737030240988446,0.658572513394789,-1.5504797374846593,0.43777257204055786,0.6987888813018799,-0.5657291412353516
1727722602922,9i,8.84839301538943,0.9s : 0.3s,3.5961115021857495,0.6896708704278289,3.529358585725736,1.34857151451604,0.5951874256134033,-1.587893009185791,-4.98496675491333,1.2623356580734253,0.47432011365890503,-0.013200223445892334,-0.7979067423820323,0.598936723134791,-1.6122429767559805,0.39362436532974243,0.7158961296081543,-0.5766739249229431
1727722602932,9i,8.84839301538943,0.9s : 0.3s,3.5973718394350156,0.705813822874637,3.5274510625378146,1.3696260368269428,0.7041953802108765,-1.6001553535461426,-4.957590103149414,1.2620055675506592,0.5277565121650696,-0.06848716735839844,-0.819141224938778,0.5353691442854026,-1.6776155541422466,0.34836119413375854,0.7305597066879272,-0.5873048901557922
1727722602942,9i,8.84839301538943,0.9s : 0.3s,3.5979809154729243,0.7228889158881147,3.5246132104662897,1.4100378805905254,0.6663150787353516,-1.6215424537658691,-4.936927318572998,1.285823941230774,0.5553447604179382,-0.16265243291854858,-0.8368507787837823,0.46839591797096203,-1.746124906500812,0.302386999130249,0.7425374388694763,-0.5976623296737671
1727722602952,9i,8.84839301538943,0.9s : 0.3s,3.5873655632239445,0.740534035822957,3.5100998598320268,1.35719908416935,0.5393068790435791,-1.668890118598938,-4.901374816894531,1.2803423404693604,0.42657792568206787,-0.1440281867980957,-0.8520574265007554,0.39880728522221537,-1.8167061647263731,0.255683571100235,0.7526366710662842,-0.6067651510238647
1727722602962,9i,8.84839301538943,0.9s : 0.3s,3.5754297764727134,0.7586319381774779,3.4940199869011628,1.3565577800308934,0.46746885776519775,-1.7091376781463623,-4.855405330657959,1.2965400218963623,0.3744010925292969,-0.13804638385772705,-0.8647676276018972,0.327052093859849,-1.8886940528217764,0.20843426883220673,0.7609445452690125,-0.6144254803657532
1727722602972,9i,8.84839301538943,0.9s : 0.3s,3.5718602838182982,0.7769231627822183,3.4863413898026403,1.3854058196464738,0.48760169744491577,-1.764864206314087,-4.836338043212891,1.3044017553329468,0.42102015018463135,-0.20156234502792358,-0.8741507365307106,0.25309659139209445,-1.9621698205793958,0.16067078709602356,0.766998827457428,-0.6212067008018494
1727722602982,9i,8.84839301538943,0.9s : 0.3s,3.575221558624674,0.7958407837264855,3.485519565317667,1.3512869254306217,0.4785541594028473,-1.8149425983428955,-4.840481281280518,1.246633529663086,0.4467655420303345,-0.2688526511192322,-0.8797997872927698,0.17706068072778566,-2.0377317810006783,0.11225306242704391,0.7706112861633301,-0.627341628074646
1727722602992,9i,8.84839301538943,0.9s : 0.3s,3.5689285399059156,0.8149888450243898,3.4746286284207093,1.3054720489484106,0.5963794589042664,-1.8283698558807373,-4.770700454711914,1.2122944593429565,0.4329320788383484,-0.21718478202819824,-0.8811798723609648,0.10020101746768693,-2.1131341541480433,0.06364540755748749,0.7714900970458984,-0.6330500841140747
1727722603002,9i,8.84839301538943,0.9s : 0.3s,3.5690379692964513,0.8347190950126155,3.4700541867096337,1.3311082439810926,0.6062248945236206,-1.8844914436340332,-4.751697540283203,1.2386670112609863,0.449282169342041,-0.18894106149673462,-0.8781988133570646,0.023652801856773407,-2.187752028203235,0.015101814642548561,0.7695900201797485,-0.6383598446846008
1727722603012,9i,8.84839301538943,0.9s : 0.3s,3.5519209521966526,0.854423940446888,3.447622685365205,1.2830141339708718,0.5959902405738831,-1.923777461051941,-4.645995140075684,1.2056246995925903,0.38527774810791016,-0.21013188362121582,-0.8714301943282674,-0.0514792127406268,-2.2602897034120373,-0.033124227076768875,0.7652503848075867,-0.6428800821304321
1727722603022,9i,8.84839301538943,0.9s : 0.3s,3.5450190781233215,0.8737769731112872,3.435647546754294,1.2529905711219935,0.5313105583190918,-1.9749469757080078,-4.652193069458008,1.1984893083572388,0.31139618158340454,-0.1914188265800476,-0.8617881237165881,-0.12503359400057446,-2.330617058513621,-0.08119509369134903,0.75900799036026,-0.6459986567497253
1727722603032,9i,8.84839301538943,0.9s : 0.3s,3.5348530796591486,0.8927681413000182,3.4202560343716195,1.2042468147396899,0.5467163920402527,-1.9934154748916626,-4.602939605712891,1.1503618955612183,0.29150062799453735,-0.2047078013420105,-0.8491059393324258,-0.19640528964684534,-2.3983518602540816,-0.1289234608411789,0.7506900429725647,-0.6479532122612
1727722603042,9i,8.84839301538943,0.9s : 0.3s,3.533615058068902,0.9116168395349779,3.413999138325542,1.2054988519316248,0.6140704154968262,-2.023707389831543,-4.598534107208252,1.149956226348877,0.28964167833328247,-0.21664685010910034,-0.8329889262131254,-0.2651069114842848,-2.4630304923987882,-0.17624716460704803,0.7399452328681946,-0.6491671800613403
1727722603052,9i,8.84839301538943,0.9s : 0.3s,3.5353356499082262,0.9306764789615375,3.410636223495519,1.205706249426902,0.780399739742279,-2.0553224086761475,-4.558894157409668,1.132905125617981,0.3303442597389221,-0.24723714590072632,-0.8129407873890794,-0.3305127871522803,-2.523913064654888,-0.2230694442987442,0.7263116836547852,-0.6501626372337341
1727722603062,9i,8.84839301538943,0.9s : 0.3s,3.539782703262533,0.949859346654502,3.409960235529102,1.1956925297414356,0.908831000328064,-2.0906474590301514,-4.542508125305176,1.1186679601669312,0.3154117465019226,-0.2806742787361145,-0.7889267870514923,-0.39215542872081993,-2.5801169987119867,-0.2692876160144806,0.7095974683761597,-0.6511187553405762
1727722603072,9i,8.84839301538943,0.9s : 0.3s,3.5443589241656,0.9687734182085385,3.4093926508228516,1.166910684181295,0.9496995210647583,-2.157435655593872,-4.506565570831299,1.1053216457366943,0.24502450227737427,-0.28267931938171387,-0.7620001595729942,-0.45029489913018744,-2.632128442634538,-0.31487077474594116,0.6903698444366455,-0.6513416171073914
1727722603082,9i,8.84839301538943,0.9s : 0.3s,3.548805739226213,0.9873312170842898,3.4086946537546834,1.1241635112202695,1.005206823348999,-2.2186217308044434,-4.465714931488037,1.0646286010742188,0.2228642702102661,-0.28397369384765625,-0.7326734840841476,-0.5049535997075302,-2.679647538964895,-0.3596269488334656,0.6688594818115234,-0.6506117582321167
1727722603092,9i,8.84839301538943,0.9s : 0.3s,3.5516814180469445,1.005848066490497,3.406275174209694,1.128896933021495,0.9939813017845154,-2.2793705463409424,-4.407728672027588,1.0555229187011719,0.2477729320526123,-0.3144649863243103,-0.7015672775449832,-0.5563822569929329,-2.7228604778701997,-0.4033929109573364,0.6454156041145325,-0.6486238837242126
1727722603102,9i,8.84839301538943,0.9s : 0.3s,3.541803562566301,1.024425691854967,3.390416564033808,1.1180005805843123,0.9315624237060547,-2.33174467086792,-4.335450649261475,1.0597881078720093,0.2513205409049988,-0.25221508741378784,-0.6695236121921637,-0.6049948542305039,-2.762405527431856,-0.4459729492664337,0.6206125020980835,-0.6449405550956726
1727722603112,9i,8.84839301538943,0.9s : 0.3s,3.5282675847878053,1.0431158214858345,3.3705461772285967,1.119552206372742,0.8650524616241455,-2.37943434715271,-4.2676591873168945,1.074387788772583,0.22908389568328857,-0.21589022874832153,-0.6369589309472906,-0.6511660953720826,-2.798776183724938,-0.48726028203964233,0.5947534441947937,-0.6394105553627014
1727722603122,9i,8.84839301538943,0.9s : 0.3s,3.5122395854075013,1.061627881903475,3.347950588892942,1.0860529020490435,0.778785765171051,-2.424863576889038,-4.20614767074585,1.045564889907837,0.20419734716415405,-0.21120703220367432,-0.604078983926188,-0.6951969785574822,-2.832367866361085,-0.527178168296814,0.568004310131073,-0.6320240497589111
1727722603132,9i,8.84839301538943,0.9s : 0.3s,3.4932605115755857,1.0797969295353318,3.3221841599615445,1.0647615630507274,0.6701949238777161,-2.471165418624878,-4.140135288238525,1.029240608215332,0.1622801423072815,-0.219194233417511,-0.5712235254551449,-0.7374682046493538,-2.863579169769197,-0.5656633973121643,0.5406617522239685,-0.6226634979248047
1727722603142,9i,8.84839301538943,0.9s : 0.3s,3.475697015127016,1.0977237552025572,3.297798098463101,1.061134560989506,0.594573974609375,-2.495312452316284,-4.098935127258301,1.0201396942138672,0.1527317762374878,-0.248987078666687,-0.5383135788045331,-0.7782037421054775,-2.8928638630157497,-0.6027204394340515,0.5126888155937195,-0.6114559173583984
1727722603152,9i,8.84839301538943,0.9s : 0.3s,3.4616336569719035,1.1158331223069164,3.276861916261269,1.0832496530565896,0.5559526681900024,-2.5411431789398193,-4.052718162536621,1.0360186100006104,0.16738376021385193,-0.2684733271598816,-0.505166257486311,-0.8174016487776838,-2.9200954304399334,-0.638267993927002,0.48395293951034546,-0.5986681580543518
1727722603162,9i,8.84839301538943,0.9s : 0.3s,3.4502109426415775,1.1341465046925714,3.258476216672036,1.0986130592333645,0.5510426163673401,-2.571667432785034,-4.010240077972412,1.0534563064575195,0.16863709688186646,-0.2621869444847107,-0.4715212046046192,-0.855130525399036,-2.945161587213335,-0.6723072528839111,0.4542420208454132,-0.5845232009887695
1727722603172,9i,8.84839301538943,0.9s : 0.3s,3.434545379279571,1.1527153092347366,3.2353283261805927,1.1156359425450628,0.5117873549461365,-2.5904669761657715,-3.941699504852295,1.0725693702697754,0.18425074219703674,-0.2455405592918396,-0.43759933253239885,-0.8914314294710756,-2.9681725549371873,-0.704664945602417,0.42376622557640076,-0.5690954923629761
1727722603182,9i,8.84839301538943,0.9s : 0.3s,3.4106383237829196,1.1714977744761221,3.2031307716130257,1.1327721707344613,0.4744684398174286,-2.589167594909668,-3.8509268760681152,1.1063668727874756,0.14980003237724304,-0.19153350591659546,-0.4038596091607579,-0.9263526809747028,-2.989352815478762,-0.7351206541061401,0.39297038316726685,-0.5524238348007202
1727722603192,9i,8.84839301538943,0.9s : 0.3s,3.3821309950988145,1.190451243702596,3.1656967486439758,1.1350139340296224,0.4525469243526459,-2.6010477542877197,-3.755455255508423,1.1187732219696045,0.1319909393787384,-0.13849729299545288,-0.3703439398800244,-0.9598910200426138,-3.0085191080257565,-0.7635945081710815,0.3619360625743866,-0.534720242023468
