timestamp,club,max_speed,tempo,speed,l.speed,t.spped,acc,rotation.x,rotation.y,rotation.z,userAcceleration.x,userAcceleration.y,userAcceleration.z,pitch,roll,yaw,gravity.x,gravity.y,gravity.z
1727722780744,9i,10.12014254920261,0.7s : 0.3s,0.04215489921918588,0.0005037979176312813,0.04215188863903857,0.014059479480285526,-0.04855240508913994,0.0013341931626200676,-0.02034800499677658,0.00012260675430297852,0.011288881301879883,-0.008379444479942322,-0.265627479625944,1.4356576307205846,0.23227844271387227,0.9561303853988647,0.26251479983329773,-0.13000255823135376
1727722780754,9i,10.12014254920261,0.7s : 0.3s,0.03707620530846983,0.0009287989051119764,0.037064569775861,0.01636353633418836,-0.042939260601997375,0.0025978630874305964,-0.022466283291578293,-0.00044906139373779297,0.010468095541000366,-0.012569114565849304,-0.26589300832306195,1.4356569974014146,0.23268018962202242,0.9560611844062805,0.26277101039886475,-0.1299937665462494
1727722780764,9i,10.12014254920261,0.7s : 0.3s,0.032783743498874154,0.001288065601854167,0.032758429828141845,0.014045545982926917,-0.03575391694903374,0.001141868531703949,-0.02265346795320511,-0.00502091646194458,0.00928005576133728,-0.009270831942558289,-0.2661279880094372,1.4356138805638623,0.233017186230148,0.9559943079948425,0.26299771666526794,-0.1300266683101654
1727722780784,9i,10.12014254920261,0.7s : 0.3s,0.03220069047231969,0.0015870496609545642,0.03216155686946458,0.011882675733859016,-0.02539169229567051,0.007887166924774647,-0.11541659384965897,-0.005554258823394775,0.0034225285053253174,-0.009931489825248718,-0.26682207816950837,1.435592867642853,0.23354366399994864,0.955810546875,0.2636673152446747,-0.13002212345600128
1727722780794,9i,10.12014254920261,0.7s : 0.3s,0.18636478216484484,0.001833337124378327,0.1863557643496397,0.011705019994733092,0.02092760242521763,0.05113876610994339,-0.8415138721466064,-0.007864117622375488,-0.0014696717262268066,-0.008544191718101501,-0.26748041317169585,1.435553649315137,0.23375893867433714,0.9556332230567932,0.2643022835254669,-0.13003617525100708
1727722780804,9i,10.12014254920261,0.7s : 0.3s,0.38455652391628997,0.0018927210532392537,0.38455186606437725,0.05168409575668517,0.039432309567928314,0.11442683637142181,-1.2570316791534424,-0.050893306732177734,-0.003802061080932617,-0.008164644241333008,-0.2671142475017467,1.4356332123798448,0.2339527926254996,0.955739438533783,0.26394912600517273,-0.12997318804264069
1727722780814,9i,10.12014254920261,0.7s : 0.3s,0.34316371723893296,0.0019760810021184254,0.3431580276390389,0.04861559821723651,-0.0010405468055978417,0.0906037986278534,-0.35904034972190857,0.047053515911102295,0.012170791625976562,-0.0011466741561889648,-0.2674655242242552,1.4357489865999307,0.23431406751695436,0.9556625485420227,0.26428791880607605,-0.12985004484653473
1727722780824,9i,10.12014254920261,0.7s : 0.3s,0.23000982652735963,0.002055395446032253,0.23000064271368134,0.019195884516841833,-0.0370202511548996,0.03714612126350403,0.05711939185857773,-0.006395280361175537,-0.017874032258987427,0.0028462857007980347,-0.2682411823319283,1.435884789132097,0.23469144098493663,0.9554768204689026,0.2650359272956848,-0.1296926587820053
1727722780774,9i,10.12014254920261,0.7s : 0.3s,0.1657087222055976,0.0021082545812795687,0.1656953103670482,0.010425897315394617,-0.03374402970075607,0.0012268233112990856,-0.022404994815587997,-0.0038177967071533203,0.005139946937561035,-0.008228287100791931,-0.2663387726635764,1.4355849383739065,0.23330200135396958,0.9559356570243835,0.2632010579109192,-0.13004685938358307
1727722780834,9i,10.12014254920261,0.7s : 0.3s,0.11380072714065774,0.0021203171187099204,0.11378097271977657,0.06697121109940801,-0.07206319272518158,0.005534930154681206,0.02078694850206375,-0.057261645793914795,-0.03447672724723816,-0.004195511341094971,-0.2685746406883907,1.4360399035309768,0.23524666842782746,0.9554091691970825,0.26535743474960327,-0.12953254580497742
1727722780844,9i,10.12014254920261,0.7s : 0.3s,0.08323550336609921,0.002208015930356546,0.08320621182495454,0.01599950165098986,-0.05761101469397545,0.0025007021613419056,-0.0031240424141287804,-0.0027258992195129395,-0.015328943729400635,-0.003684699535369873,-0.26882995125438963,1.436198452171083,0.23585885864637773,0.9553625583648682,0.26560360193252563,-0.12937197089195251
1727722780854,9i,10.12014254920261,0.7s : 0.3s,0.0667864436121783,0.0023454534877672796,0.06674524625993518,0.015633081646032464,-0.06266169995069504,-0.0035340208560228348,-0.020285984501242638,0.012485682964324951,-0.00940445065498352,0.00023931264877319336,-0.2690631322607471,1.436330889194385,0.2364554228216719,0.9553182721138,0.265828400850296,-0.12923714518547058
1727722780864,9i,10.12014254920261,0.7s : 0.3s,0.057636924517952194,0.002523271544684287,0.05758166521211335,0.01126932456677361,-0.06149723380804062,-0.0010341557208448648,-0.016866318881511688,-0.0004824399948120117,-0.010900050401687622,0.002820253372192383,-0.26931661592558065,1.4364788664153525,0.2370750144294312,0.9552706480026245,0.26607275009155273,-0.12908674776554108
1727722780874,9i,10.12014254920261,0.7s : 0.3s,0.053518172769814486,0.0027140505334221064,0.053449310064038656,0.011188445841918708,-0.05666971951723099,0.001859102281741798,-0.017377646639943123,0.007920980453491211,-0.0074739158153533936,0.002565145492553711,-0.26956147587139767,1.436656896720219,0.23767785945523243,0.9552290439605713,0.2663087844848633,-0.1289079636335373
1727722780884,9i,10.12014254920261,0.7s : 0.3s,0.049503198720339626,0.002912781762804423,0.04941742998120915,0.0074493028094737125,-0.05065923184156418,0.004437663592398167,-0.013597688637673855,0.0033293962478637695,-0.003207683563232422,0.005841061472892761,-0.2697737656573405,1.4368456013387423,0.23821323903311092,0.955197274684906,0.2665133774280548,-0.12872016429901123
1727722780894,9i,10.12014254920261,0.7s : 0.3s,0.042991294073720654,0.0030995443569153207,0.0428794145355629,0.006614480100084508,-0.03684621304273605,0.001594472792930901,-0.0116176288574934,0.005765259265899658,0.0010488331317901611,0.003068074584007263,-0.26994863236212185,1.4370105384475558,0.23865208365257443,0.9551723003387451,0.2666819393634796,-0.12855638563632965
1727722780904,9i,10.12014254920261,0.7s : 0.3s,0.038554811657511005,0.0032664271253699992,0.038416193926270124,0.00515802959485765,-0.031384605914354324,0.0004912139847874641,-0.011638067662715912,0.0030181407928466797,0.004170477390289307,0.00032126903533935547,-0.27011354624339606,1.4371164236433505,0.23898064744554418,0.9551421999931335,0.2668408751487732,-0.12844938039779663
1727722780914,9i,10.12014254920261,0.7s : 0.3s,0.035427501924390516,0.003423793400913885,0.035261672271044556,0.004753072389789802,-0.028564848005771637,-0.0016510330606251955,-0.010956298559904099,-0.0019074082374572754,0.003190279006958008,0.002962365746498108,-0.27027564015778877,1.437188934776212,0.2392803227320039,0.955108642578125,0.2669970691204071,-0.1283743530511856
1727722780934,9i,10.12014254920261,0.7s : 0.3s,0.04692449801843065,0.0035827952372479484,0.04678752069269812,0.01145357647739913,-0.02304651215672493,0.008275100961327553,-0.1238197311758995,-0.010977864265441895,-0.002745300531387329,-0.0017703771591186523,-0.27082975988349156,1.4373147072650523,0.23976409055956122,0.9549781084060669,0.26753103733062744,-0.12823452055454254
1727722780924,9i,10.12014254920261,0.7s : 0.3s,0.037613487815559114,0.0037249214347646713,0.03742859102285371,0.002925407516420121,-0.025836706161499023,-0.0015381148550659418,-0.01084844022989273,-0.0009489059448242188,0.002422034740447998,-0.0013384073972702026,-0.27040778864162157,1.4372455696836486,0.23953920816435187,0.9550809264183044,0.2671244144439697,-0.12831555306911469
1727722780944,9i,10.12014254920261,0.7s : 0.3s,0.23679487100786786,0.0035022084171379402,0.23676897066937572,0.09686371192604072,0.040149763226509094,0.06145043671131134,-1.0687402486801147,0.09639537334442139,0.0031086504459381104,0.00899149477481842,-0.2714530320950097,1.4373187212191352,0.2400198038278972,0.9548130035400391,0.2681315541267395,-0.1282084584236145
1727722780954,9i,10.12014254920261,0.7s : 0.3s,0.4703192621487758,0.0030954958835852546,0.47030907524031856,0.17121767163279758,0.10086371004581451,0.06662070006132126,-1.510619044303894,0.16843271255493164,0.028309673070907593,0.012019768357276917,-0.2698604089708401,1.437354767132558,0.2406552404501253,0.9552397131919861,0.2665969133377075,-0.12823070585727692
1727722780964,9i,10.12014254920261,0.7s : 0.3s,0.41971839210577744,0.003261206155806238,0.41970572215097146,0.011111688055329047,0.041759781539440155,0.03482934832572937,-0.44696664810180664,0.007462799549102783,0.006340116262435913,0.005251586437225342,-0.2701263970668231,1.4374656084539361,0.24119718823974487,0.9551836848258972,0.2668532431125641,-0.12811540067195892
1727722780974,9i,10.12014254920261,0.7s : 0.3s,0.2961914980918771,0.0036638564063191654,0.29616883647363085,0.03799087988362809,-0.025235630571842194,0.009467842057347298,-0.012192938476800919,-0.03765326738357544,-0.003272414207458496,-0.0038509368896484375,-0.27088589160637916,1.437573864502434,0.24150559496744928,0.9549963474273682,0.2675851285457611,-0.12798503041267395
1727722780984,9i,10.12014254920261,0.7s : 0.3s,0.20620249968463927,0.004202689648884149,0.2061596669475114,0.019694952994986005,-0.06684938818216324,-0.003158204723149538,0.005894719157367945,0.016253650188446045,-0.011058151721954346,0.0011947005987167358,-0.27114324921024,1.4376494386930785,0.24204240385413417,0.9549378752708435,0.26783308386802673,-0.12790372967720032
1727722780994,9i,10.12014254920261,0.7s : 0.3s,0.14432946371644187,0.004679709515539697,0.14425357678590112,0.010289120466340486,-0.04376191273331642,-0.009229413233697414,0.0027910713106393814,-0.009521007537841797,-0.0015135109424591064,-0.0035952329635620117,-0.27132504380901656,1.4376892051816281,0.242531933792742,0.954894483089447,0.2680082321166992,-0.12785926461219788
1727722781004,9i,10.12014254920261,0.7s : 0.3s,0.10508882791432282,0.005162666569705513,0.10496193894120001,0.010946995933038725,-0.04457324370741844,-0.011373656801879406,-0.01408900786191225,0.010573148727416992,0.0026581883430480957,0.0009895861148834229,-0.2715563001083834,1.4377050246500866,0.2429381385548803,0.9548349380493164,0.26823103427886963,-0.12783591449260712
1727722781014,9i,10.12014254920261,0.7s : 0.3s,0.08843171863389859,0.005594501012176616,0.08825457732588017,0.0030265721837043707,-0.0316140353679657,-0.0006259377114474773,-0.06846729665994644,0.0012515783309936523,0.0020557940006256104,-0.0018350481986999512,-0.27169065387025293,1.4377338169914355,0.2432449194420879,0.9548031091690063,0.2683604657649994,-0.12780366837978363
1727722781024,9i,10.12014254920261,0.7s : 0.3s,0.08777282939903096,0.006001697958057979,0.08756739805619233,0.003520000348270278,-0.0346393845975399,0.014300990849733353,-0.11617010831832886,0.002809464931488037,-0.0020909905433654785,-0.0003536492586135864,-0.2717819894930319,1.4377930094102884,0.24349110456026096,0.9547864198684692,0.26844844222068787,-0.1277439147233963
1727722781034,9i,10.12014254920261,0.7s : 0.3s,0.08985908370439928,0.006377802906800821,0.08963246372981298,0.00968593258393058,-0.05131450295448303,0.030368907377123833,-0.14281609654426575,-0.0006914138793945312,-0.009396731853485107,-0.0022451430559158325,-0.271873659624295,1.4379167819725518,0.2437872040239359,0.9547777771949768,0.2685367465019226,-0.12762247025966644
1727722781044,9i,10.12014254920261,0.7s : 0.3s,0.09822631919866916,0.0067246289188052765,0.09799586291891718,0.018042702797839094,-0.07470451295375824,0.05176882818341255,-0.15588895976543427,-0.0002288818359375,-0.017534732818603516,-0.004244983196258545,-0.2719897981190597,1.4381212086741226,0.24425856987317154,0.9547728896141052,0.268648624420166,-0.12742315232753754
1727722781054,9i,10.12014254920261,0.7s : 0.3s,0.11154982951348341,0.00705174548494971,0.11132671444942002,0.012896890421761889,-0.09218204021453857,0.0640859454870224,-0.18367211520671844,0.004255890846252441,-0.011988848447799683,-0.0021177083253860474,-0.272109352410014,1.438381873216273,0.24488213517440674,0.9547743201255798,0.26876378059387207,-0.12717004120349884
1727722781064,9i,10.12014254920261,0.7s : 0.3s,0.1308667182261589,0.0073488849213881515,0.13066021517545828,0.010962775077485158,-0.10157833993434906,0.08198412507772446,-0.2283824235200882,0.002894163131713867,-0.005920350551605225,-0.008761033415794373,-0.27224069969635906,1.4386866798423605,0.24561287437748175,0.9547778964042664,0.26889029145240784,-0.12687434256076813
1727722781074,9i,10.12014254920261,0.7s : 0.3s,0.1530735344945597,0.00761686678656815,0.1528839111973946,0.011750036526962562,-0.09598889946937561,0.0958770364522934,-0.27403274178504944,0.004345238208770752,0.0038446784019470215,-0.010217666625976562,-0.2723839366148766,1.438976392490507,0.24632042351702096,0.9547764658927917,0.2690282464027405,-0.12659266591072083
1727722781084,9i,10.12014254920261,0.7s : 0.3s,0.17797016731984372,0.007857204210257445,0.17779663888232386,0.01654937239304553,-0.07998516410589218,0.11434543132781982,-0.32472848892211914,0.0049713850021362305,0.012100011110305786,-0.010136902332305908,-0.27251033674457076,1.439238720267306,0.24686823043798825,0.9547759294509888,0.2691499888896942,-0.12633773684501648
1727722781094,9i,10.12014254920261,0.7s : 0.3s,0.20638337711202118,0.008071582724320422,0.2062254783010266,0.021924602726812962,-0.07351633906364441,0.1337715983390808,-0.37847959995269775,0.0048705339431762695,0.01944667100906372,-0.00887654721736908,-0.2725979076650485,1.4394975957374039,0.24725922450926696,0.954785168170929,0.2692343294620514,-0.1260874718427658
1727722781104,9i,10.12014254920261,0.7s : 0.3s,0.2371691837378903,0.008263232963027207,0.23702519000286848,0.016773915897046465,-0.07303710281848907,0.144216388463974,-0.4323687255382538,0.003563225269317627,0.013610780239105225,-0.009133145213127136,-0.27262106673206027,1.4397495030226948,0.2476348133983231,0.9548106789588928,0.2692566215991974,-0.12584613263607025
1727722781114,9i,10.12014254920261,0.7s : 0.3s,0.26212811828048566,0.008439791133576484,0.261992214233343,0.012011087155439974,-0.06817018240690231,0.14520788192749023,-0.450358122587204,0.004261672496795654,0.007893890142440796,-0.007986918091773987,-0.2727108024560645,1.4399680386905023,0.24803879683740304,0.9548143148422241,0.2693430483341217,-0.1256343275308609
1727722781124,9i,10.12014254920261,0.7s : 0.3s,0.28429446765112015,0.008619499799723353,0.28416377066796594,0.019047106150415365,-0.06019667908549309,0.13786660134792328,-0.4784667193889618,0.012148380279541016,0.013139963150024414,-0.006523072719573975,-0.2726504513885891,1.4400991499841154,0.248429930116174,0.9548467993736267,0.2692849338054657,-0.12551124393939972
1727722781134,9i,10.12014254920261,0.7s : 0.3s,0.3044906373303099,0.008812304486070585,0.3043630915723244,0.01893490495641164,-0.052594419568777084,0.12982013821601868,-0.5059643983840942,0.014657080173492432,0.011881381273269653,-0.0015916675329208374,-0.27262636622775466,1.4402408982914603,0.24883905359915268,0.9548709988594055,0.2692617177963257,-0.12537674605846405
1727722781144,9i,10.12014254920261,0.7s : 0.3s,0.3224849245996948,0.009021194417895019,0.3223587204425303,0.019913130278252096,-0.049404215067625046,0.12161590903997421,-0.5279780030250549,0.016481876373291016,0.01085624098777771,-0.0026500076055526733,-0.2726768467689761,1.4402767428656797,0.2492664244015222,0.9548620581626892,0.2693103551864624,-0.12534074485301971
1727722781154,9i,10.12014254920261,0.7s : 0.3s,0.3383425085187139,0.009249022861728807,0.33821606799032955,0.02579313400450126,-0.03409769758582115,0.1170017197728157,-0.5470529198646545,0.019297242164611816,0.01632574200630188,-0.005135402083396912,-0.2728123676272911,1.4403817902525369,0.24969976476110178,0.9548390507698059,0.2694408595561981,-0.12523570656776428
1727722781164,9i,10.12014254920261,0.7s : 0.3s,0.3518361230184496,0.009503601568638364,0.3517077465991873,0.030054450243498104,-0.01881861314177513,0.11097311228513718,-0.561320960521698,0.02268052101135254,0.01944524049758911,-0.003278195858001709,-0.2729480202628439,1.4404612439561275,0.2500142129419349,0.95481276512146,0.2695714831352234,-0.12515509128570557
1727722781174,9i,10.12014254920261,0.7s : 0.3s,0.3634762503971884,0.009788264296844169,0.3633444295497796,0.028005026779414438,-0.014099223539233208,0.10847347229719162,-0.5725293755531311,0.023507535457611084,0.015218883752822876,0.00025075674057006836,-0.27310614455235244,1.4405309741224077,0.2503025976321432,0.9547792077064514,0.2697237432003021,-0.12508296966552734
1727722781184,9i,10.12014254920261,0.7s : 0.3s,0.3723146067837135,0.010100003116306695,0.37217758712953386,0.027282983621053306,0.0017638951539993286,0.10411760956048965,-0.5771318078041077,0.023629367351531982,0.013410210609436035,-0.0024860501289367676,-0.2732571978182851,1.4406111308771865,0.2505613388767946,0.9547489285469055,0.26986920833587646,-0.12500114738941193
1727722781194,9i,10.12014254920261,0.7s : 0.3s,0.37692025538418933,0.010437727443355842,0.3767757061763679,0.02762446251278752,0.011421849019825459,0.10036308318376541,-0.5779259204864502,0.023605823516845703,0.014336258172988892,-0.0005896836519241333,-0.2733730419142501,1.440682310456322,0.25072052026507263,0.9547267556190491,0.2699807584285736,-0.12492913752794266
1727722781204,9i,10.12014254920261,0.7s : 0.3s,0.3784593992899562,0.010803555151458453,0.37830516796232627,0.025429569736773974,0.009399443864822388,0.0932203009724617,-0.5750547647476196,0.024830937385559082,0.003659844398498535,0.004085719585418701,-0.27347902989550477,1.440751770458428,0.25090630136094144,0.9547070264816284,0.2700828015804291,-0.12485910207033157
1727722781214,9i,10.12014254920261,0.7s : 0.3s,0.3790193019096016,0.011206026304181814,0.3788536078678831,0.0320341375359078,0.01669996790587902,0.08620180934667587,-0.5662628412246704,0.03044027090072632,0.009517490863800049,0.0029988735914230347,-0.27354424655452375,1.4408169760738538,0.2511154170019186,0.9546977877616882,0.27014559507369995,-0.12479457259178162
1727722781224,9i,10.12014254920261,0.7s : 0.3s,0.37902027288122103,0.011635640543036967,0.3788416280243085,0.029651925497448214,0.025393057614564896,0.07973672449588776,-0.5596863627433777,0.02775055170059204,0.009782642126083374,0.0036665350198745728,-0.2736015906156589,1.4408507252521838,0.2512630118342263,0.9546864628791809,0.27020081877708435,-0.12476032227277756
1727722781234,9i,10.12014254920261,0.7s : 0.3s,0.37843520487137183,0.01209616530666695,0.37824183675382994,0.03238042595154176,0.03137558326125145,0.0758005678653717,-0.5512111186981201,0.03028005361557007,0.008945077657699585,0.0071830302476882935,-0.27366326371183064,1.4408891004579363,0.25137759359878475,0.9546746611595154,0.27026018500328064,-0.12472151964902878
1727722781244,9i,10.12014254920261,0.7s : 0.3s,0.37710179027931234,0.0125862452351392,0.376891690891088,0.033957978273812285,0.03732255473732948,0.06925118714570999,-0.5397680997848511,0.03209966421127319,0.011060357093811035,0.0006514191627502441,-0.27374844465788667,1.440918879535343,0.2514433954450708,0.9546557068824768,0.2703422009944916,-0.12469013035297394
1727722781254,9i,10.12014254920261,0.7s : 0.3s,0.3713385530992683,0.013093995243169761,0.37110762361669414,0.02894018877418447,0.034139275550842285,0.06787726283073425,-0.5218229293823242,0.028196215629577637,0.0058792829513549805,0.0028181523084640503,-0.2738364010251012,1.4409635883390899,0.2515045762531302,0.9546377062797546,0.270426869392395,-0.12464437633752823
1727722781264,9i,10.12014254920261,0.7s : 0.3s,0.3616277815208044,0.013619328146124097,0.36137123054901144,0.030417166797439974,0.03086225874722004,0.061834290623664856,-0.5005442500114441,0.02966010570526123,-0.0031157732009887695,0.005981147289276123,-0.27392356722180444,1.4410356589509197,0.25162634640872716,0.954623281955719,0.27051079273223877,-0.1245725229382515
1727722781274,9i,10.12014254920261,0.7s : 0.3s,0.34992902120247016,0.014157898202311416,0.3496424942683767,0.029710792251412193,0.027463000267744064,0.057316768914461136,-0.47632840275764465,0.028733372688293457,-0.0030084550380706787,0.006933517754077911,-0.2739864060823241,1.441138650584999,0.2517934263941917,0.9546191692352295,0.2705712914466858,-0.1244719922542572
1727722781284,9i,10.12014254920261,0.7s : 0.3s,0.33568725396183713,0.014697214327660198,0.33536535951622337,0.02574285919846801,0.024998510256409645,0.055560145527124405,-0.44607308506965637,0.024503350257873535,-0.005894511938095093,0.0052474141120910645,-0.2740361714035108,1.4412726782774443,0.25198653030442525,0.9546225666999817,0.2706191837787628,-0.12434231489896774
1727722781294,9i,10.12014254920261,0.7s : 0.3s,0.31947915992679465,0.015235381028632727,0.3191156793271725,0.02508012356701511,0.013680608943104744,0.050202932208776474,-0.4158448874950409,0.023999512195587158,-0.005932480096817017,0.004223942756652832,-0.27405980800124463,1.4414488339046718,0.25223510016073203,0.9546381831169128,0.270641952753067,-0.12417333573102951
1727722781304,9i,10.12014254920261,0.7s : 0.3s,0.3022442647299772,0.01577668600975991,0.301832224490219,0.026850474968498232,0.00784748699516058,0.04920060560107231,-0.38653892278671265,0.02627277374267578,-0.005324244499206543,0.001530289649963379,-0.2740937008342088,1.4416478741756902,0.252555235290945,0.9546537399291992,0.27067458629608154,-0.12398213148117065
1727722781314,9i,10.12014254920261,0.7s : 0.3s,0.28405854158172533,0.01631846815103643,0.28358942618288924,0.025167883428781183,-8.838134817779064e-06,0.04240075498819351,-0.3568289577960968,0.025020837783813477,0.0008405148983001709,-0.002583324909210205,-0.2741410199731058,1.44187936130816,0.25292458721549693,0.954669713973999,0.27072012424468994,-0.12375949323177338
1727722781324,9i,10.12014254920261,0.7s : 0.3s,0.26458549177159973,0.01685695544704072,0.2640479606228303,0.024854022887167822,-0.004177084658294916,0.03771248832345009,-0.323503315448761,0.02389359474182129,0.00047791004180908203,-0.006825700402259827,-0.27420070260938173,1.4421173711027742,0.2533383309868697,0.9546831846237183,0.2707775831222534,-0.12353020161390305
1727722781334,9i,10.12014254920261,0.7s : 0.3s,0.24403857398257964,0.017377561180362964,0.24341907476381908,0.02058816680710615,-0.022566745057702065,0.035152655094861984,-0.2889668941497803,0.01754939556121826,0.0003878176212310791,-0.01075829565525055,-0.2742784540719009,1.442381900908473,0.2538214656755462,0.9546949863433838,0.2708524465560913,-0.12327496707439423
1727722781344,9i,10.12014254920261,0.7s : 0.3s,0.22226258407352867,0.017865689504980183,0.22154338946931829,0.016780709917933956,-0.05551350861787796,0.030704909935593605,-0.2505227029323578,0.010894477367401123,-0.0077439844608306885,-0.010145604610443115,-0.2743723629856537,1.4427276571001364,0.2545421632179236,0.9547121524810791,0.2709428369998932,-0.12294159829616547
1727722781354,9i,10.12014254920261,0.7s : 0.3s,0.19944725420704587,0.018313969164556805,0.19860464683428142,0.02282370204088144,-0.08467725664377213,0.028664128854870796,-0.20716166496276855,0.007380843162536621,-0.01423683762550354,-0.016240596771240234,-0.2744915133727229,1.4431459611230262,0.2555402457519311,0.9547315835952759,0.27105751633644104,-0.12253812700510025
1727722781364,9i,10.12014254920261,0.7s : 0.3s,0.17724080197034714,0.018711316153402525,0.17625035753410326,0.02569100534686617,-0.12554705142974854,0.027436811476945877,-0.16176098585128784,0.0008514523506164551,-0.019368618726730347,-0.016857028007507324,-0.27462334397307236,1.443674995027431,0.25686911260645356,0.9547606706619263,0.27118441462516785,-0.12202847748994827
1727722781374,9i,10.12014254920261,0.7s : 0.3s,0.15748239406863757,0.0190584013048767,0.15632492373672194,0.027579687589345342,-0.17263466119766235,0.03141796961426735,-0.10861974209547043,-0.001421809196472168,-0.02311265468597412,-0.014980748295783997,-0.2747560164266499,1.4443420050240212,0.2586069091134473,0.9548062682151794,0.2713121175765991,-0.12138709425926208
1727722781384,9i,10.12014254920261,0.7s : 0.3s,0.15197939257711945,0.019362996497671186,0.15074087081724505,0.027724960452030545,-0.2088514119386673,0.03267129883170128,-0.05800347030162811,-0.0007352232933044434,-0.02276480197906494,-0.015808120369911194,-0.2749019206699519,1.4451713346854027,0.26071864239461356,0.954867422580719,0.27145254611968994,-0.12059024721384048
1727722781394,9i,10.12014254920261,0.7s : 0.3s,0.14282635555008344,0.019617610470104872,0.14147267297666385,0.03319600126756785,-0.26252955198287964,0.03304147720336914,-0.012578465044498444,-0.006107211112976074,-0.02444782853126526,-0.021609723567962646,-0.27504933564655565,1.4461442617258293,0.26324796738867406,0.9549444913864136,0.27159440517425537,-0.11965619027614594
1727722781404,9i,10.12014254920261,0.7s : 0.3s,0.15397456591498718,0.019793073362504868,0.1526970896761796,0.04187765727970873,-0.3250744044780731,0.03362772986292839,0.020522763952612877,-0.009421467781066895,-0.03454872965812683,-0.02171081304550171,-0.27527091577746643,1.4473128544379847,0.26633098062953536,0.9550238847732544,0.2718076705932617,-0.11853274703025818
1727722781414,9i,10.12014254920261,0.7s : 0.3s,0.18140038242351697,0.01990264183112564,0.1803052511479911,0.04453147163994075,-0.3884246349334717,0.03149906545877457,0.022866878658533096,-0.008325397968292236,-0.03801453113555908,-0.02164798229932785,-0.2755108168063972,1.4486606066684222,0.27003694254576627,0.95511794090271,0.2720385193824768,-0.11723754554986954
1727722781424,9i,10.12014254920261,0.7s : 0.3s,0.21399229261267017,0.01994439361356894,0.2130608421578533,0.04809957988529347,-0.4395340085029602,0.030395228415727615,0.02488825097680092,-0.012820303440093994,-0.04021391272544861,-0.023066222667694092,-0.27578262579817614,1.450151980337996,0.2743585917733796,0.9552183747291565,0.2723000645637512,-0.11580408364534378
1727722781434,9i,10.12014254920261,0.7s : 0.3s,0.24449728167453055,0.019965916908653843,0.24368069867806819,0.03867527984091808,-0.4723913073539734,0.022376449778676033,0.02681717835366726,-0.012330293655395508,-0.02969488501548767,-0.021493136882781982,-0.27606216294062913,1.451722314646202,0.27909919180715737,0.9553233981132507,0.27256903052330017,-0.11429488658905029
1727722781444,9i,10.12014254920261,0.7s : 0.3s,0.26792109109693385,0.019990183117533773,0.2671742944848905,0.02404294033305055,-0.4806108772754669,0.015558402985334396,0.03065546043217182,-0.004344463348388672,-0.015288293361663818,-0.01804041862487793,-0.27634522307727694,1.45328956823381,0.2840811708771698,0.9554247260093689,0.27284136414527893,-0.11278846114873886
1727722781454,9i,10.12014254920261,0.7s : 0.3s,0.2782375694567174,0.020020599254924134,0.27751634305506295,0.014975209826080601,-0.4494660198688507,0.008591573685407639,0.02854623645544052,-0.002610921859741211,-0.0016733109951019287,-0.014650598168373108,-0.27659472646016764,1.4547639547536684,0.2889471899263827,0.9555224180221558,0.27308139204978943,-0.11137180030345917
1727722781464,9i,10.12014254920261,0.7s : 0.3s,0.27715290378403423,0.02006820794945364,0.27642539518940656,0.02131688436766337,-0.3970089256763458,0.0012104448396712542,0.033548519015312195,0.00410383939743042,0.016120880842208862,-0.013329863548278809,-0.2767824792756778,1.4560423186815492,0.2933887480876597,0.9556129574775696,0.27326199412345886,-0.11014431715011597
1727722781474,9i,10.12014254920261,0.7s : 0.3s,0.2587850084030306,0.020125968661108717,0.25800121309716484,0.03222950903346101,-0.3200558125972748,-0.005797397345304489,0.02792658470571041,0.003511369228363037,0.02729898691177368,-0.016768328845500946,-0.27686865916086634,1.4570668679558612,0.29715597408623473,0.9557018280029297,0.27334490418434143,-0.10916250199079514
1727722781484,9i,10.12014254920261,0.7s : 0.3s,0.23181457671645495,0.020183638028453094,0.2309342303214609,0.03647647509380067,-0.2489735186100006,-0.009540869854390621,0.031825218349695206,0.00044089555740356445,0.030982494354248047,-0.019246399402618408,-0.2768781780955869,1.457823362261612,0.30011382409847115,0.9557816386222839,0.27335405349731445,-0.10843920707702637
1727722781494,9i,10.12014254920261,0.7s : 0.3s,0.20373825007895688,0.020258807315118685,0.20272852604259833,0.031556542925211394,-0.20216712355613708,-0.007382643409073353,0.034285981208086014,0.009362518787384033,0.028715848922729492,-0.009141042828559875,-0.276807540329339,1.4583961084084682,0.3024660316780359,0.9558627605438232,0.2732861042022705,-0.1078939363360405
1727722781504,9i,10.12014254920261,0.7s : 0.3s,0.17535880455079925,0.020331049328509272,0.1741762290517484,0.02818392169696554,-0.158427894115448,-0.007955046370625496,0.027460765093564987,0.0026891231536865234,0.027473628520965576,0.005683466792106628,-0.27675060724417694,1.4588682096077445,0.3043697657608262,0.9559291005134583,0.2732313573360443,-0.1074444055557251
1727722781514,9i,10.12014254920261,0.7s : 0.3s,0.14444462699866487,0.02045778338578484,0.14298856376551142,0.04024612612007456,-0.10264666378498077,-0.016204454004764557,0.02163483388721943,0.01875472068786621,0.03528520464897156,-0.0047922283411026,-0.2766246621371479,1.459136179929883,0.3057430569679272,0.9559921026229858,0.27311018109321594,-0.10719207674264908
1727722781524,9i,10.12014254920261,0.7s : 0.3s,0.11609421037044869,0.020606749035816458,0.11425072242971976,0.037610791266538914,-0.06724540144205093,-0.013223444111645222,0.024680057540535927,0.011931300163269043,0.03153941035270691,-0.016657769680023193,-0.27648955369258926,1.4592461418219893,0.30661999035071813,0.9560405015945435,0.2729802131652832,-0.10709105432033539
1727722781534,9i,10.12014254920261,0.7s : 0.3s,0.09771126459835673,0.020760909032667536,0.09548023819381361,0.014672664701535408,-0.07464872300624847,-0.018213143572211266,0.014733684249222279,0.006692111492156982,0.011486023664474487,-0.006210796535015106,-0.2762867969166721,1.4593538809213198,0.3074010420866002,0.9561069011688232,0.27278515696525574,-0.10699418932199478
1727722781544,9i,10.12014254920261,0.7s : 0.3s,0.07956865406274174,0.020913605602134566,0.07677103496810912,0.021887737603235535,-0.0461927093565464,-0.006234731990844011,0.0205141082406044,0.0035943984985351562,0.019112497568130493,-0.010043196380138397,-0.2761946827073972,1.459407238073889,0.3080329107358907,0.9561375975608826,0.27269652485847473,-0.10694596916437149
1727722781554,9i,10.12014254920261,0.7s : 0.3s,0.06722866618278701,0.021049802138785486,0.06384825280800245,0.013378800816129197,-0.04770858213305473,-0.004435500595718622,0.01641816645860672,-0.002594590187072754,0.013017594814300537,-0.0016741082072257996,-0.2760905945159952,1.4595146640651158,0.3085265664484311,0.9561772346496582,0.2725963890552521,-0.1068464070558548
1727722781564,9i,10.12014254920261,0.7s : 0.3s,0.0613425326531676,0.021193298038677033,0.05756518418756898,0.014904243863433303,-0.05668383464217186,-0.007509809918701649,0.015274838544428349,0.009372949600219727,0.0030183792114257812,0.011188104748725891,-0.2759844329943762,1.4596306957010226,0.30909726148636585,0.9562183618545532,0.27249425649642944,-0.10673866420984268
1727722781574,9i,10.12014254920261,0.7s : 0.3s,0.05725464470072892,0.021341433690204702,0.05312850033506782,0.011770713396852268,-0.05259561538696289,-0.007737243548035622,0.012495031580328941,0.008156776428222656,0.006270706653594971,0.005717948079109192,-0.27610900051997717,1.4596186404586569,0.30966045197935094,0.9561833143234253,0.27261409163475037,-0.10674642026424408
1727722781584,9i,10.12014254920261,0.7s : 0.3s,0.050530775153081436,0.02148506183093153,0.04573566830923455,0.01291542506922909,-0.0391308069229126,-0.004393067676573992,0.009927244856953621,0.00479048490524292,0.009131193161010742,0.007776938378810883,-0.2762919505738366,1.4597415511446892,0.31015640212719603,0.9561468362808228,0.2727901041507721,-0.10662336647510529
1727722781594,9i,10.12014254920261,0.7s : 0.3s,0.04723010503921139,0.021619079258403326,0.04199164481219826,0.015447065221788013,-0.037191759794950485,-0.005368050653487444,0.010568001307547092,0.0037123560905456543,0.0024255216121673584,0.01479686051607132,-0.2764896574228784,1.459766240956158,0.31055362458647745,0.9560959339141846,0.27298033237457275,-0.1065937876701355
1727722781604,9i,10.12014254920261,0.7s : 0.3s,0.04619911548579064,0.0217407986212264,0.040763904952552096,0.014254777198952951,-0.04347255825996399,0.0007650312036275864,0.009898083284497261,0.0022478103637695312,-0.0007784366607666016,0.01405489444732666,-0.2766796494384728,1.459674453748053,0.31091890182807325,0.9560346007347107,0.2731630802154541,-0.10667579621076584
1727722781614,9i,10.12014254920261,0.7s : 0.3s,0.04683153468851885,0.0218429041506503,0.04142559811936875,0.015078804557686627,-0.07141470909118652,0.0029352412093430758,0.0067824507132172585,-0.0012583732604980469,-0.0038377344608306885,0.014527857303619385,-0.2767350258378318,1.4597844986027981,0.3114782356404368,0.956031322479248,0.2732163667678833,-0.10656891763210297
1727722781624,9i,10.12014254920261,0.7s : 0.3s,0.0503864844839605,0.02193244161946584,0.04536260379719306,0.019081706898175014,-0.09153968840837479,-0.0005428472068160772,0.006908684968948364,0.001654982566833496,-0.010693341493606567,0.015717029571533203,-0.27689826694331715,1.4599240644959155,0.3123340292168821,0.956001877784729,0.27337339520454407,-0.1064305528998375
1727722781634,9i,10.12014254920261,0.7s : 0.3s,0.05141574513505279,0.022013505962342524,0.04646487278620931,0.006634345706857914,-0.08418403565883636,0.004040719475597143,0.008310306817293167,0.0005989670753479004,0.004492402076721191,0.0048450082540512085,-0.2770376853303709,1.4601671909692342,0.31326030542077965,0.9559898972511292,0.2735075056552887,-0.1061939224600792
1727722781644,9i,10.12014254920261,0.7s : 0.3s,0.05133546717892359,0.02208190457279538,0.04634349664102072,0.012148944309104645,-0.06646030396223068,0.0032553975470364094,0.012587842531502247,-0.0025619864463806152,0.011723905801773071,0.0018929094076156616,-0.2770071684165387,1.4605427248977554,0.3140766403249596,0.9560380578041077,0.2734781503677368,-0.10583582520484924
1727722781654,9i,10.12014254920261,0.7s : 0.3s,0.05062386857808392,0.02213979526146338,0.045525877647680735,0.012962859450915054,-0.055500324815511703,0.0032085259445011616,0.013626474887132645,-0.0021442174911499023,0.012423306703567505,0.003016538918018341,-0.2769621126245847,1.4608052459028051,0.3147396452707912,0.9560778141021729,0.2734347879886627,-0.10558617115020752
1727722781664,9i,10.12014254920261,0.7s : 0.3s,0.044338480188026316,0.022187142381207257,0.0383879087518458,0.018420590335564015,-0.02648172341287136,0.0016902576899155974,0.01507257204502821,-0.003629028797149658,0.018059521913528442,4.4345855712890625e-05,-0.2769244496802781,1.4610423978271774,0.3152192215789119,0.9561131000518799,0.27339857816696167,-0.10536056756973267
1727722781674,9i,10.12014254920261,0.7s : 0.3s,0.036033436475296256,0.02223606387877632,0.028354294337863347,0.0202745435897281,-0.001814461313188076,0.0014934501377865672,0.017489923164248466,0.001056075096130371,0.020235717296600342,0.0006764382123947144,-0.2767877620768282,1.4612633236756563,0.31540970881985986,0.9561736583709717,0.27326709032058716,-0.10515343397855759
1727722781684,9i,10.12014254920261,0.7s : 0.3s,0.03318025420155248,0.0222879699875452,0.02457998500231287,0.014242327471894618,0.008544037118554115,-0.0002533614169806242,0.01743256486952305,0.0031114816665649414,0.011836826801300049,0.007283687591552734,-0.27660421517310846,1.4614125119279167,0.3154432172331594,0.9562391042709351,0.27309051156044006,-0.10501624643802643
1727722781694,9i,10.12014254920261,0.7s : 0.3s,0.030484298760800756,0.022343901209088527,0.020737467292228595,0.013435677790575043,0.03131646290421486,-0.0028888259548693895,0.017067445442080498,0.002146303653717041,0.013240665197372437,-0.0007717534899711609,-0.27639796316074505,1.4614974322399323,0.3152973474983872,0.9563039541244507,0.2728921175003052,-0.10494118183851242
1727722781704,9i,10.12014254920261,0.7s : 0.3s,0.02809273258564758,0.022397833265356392,0.016956965800107048,0.013147886937518814,0.04336979240179062,-0.0015087313950061798,0.02012372389435768,-0.001053452491760254,0.012342303991317749,-0.004407346248626709,-0.2760946700902027,1.4615429702778149,0.31497401410012477,0.956390917301178,0.27260032296180725,-0.10490665584802628
1727722781714,9i,10.12014254920261,0.7s : 0.3s,0.025985324568154628,0.022444447657690537,0.013095184697190424,0.0052889424234273345,0.04466275870800018,-0.0020714574493467808,0.02516668476164341,-0.0025389790534973145,0.0016800761222839355,-0.004324793815612793,-0.2758688336229215,1.4614477071643583,0.314542537582189,0.9564421772956848,0.27238303422927856,-0.10500448197126389
1727722781724,9i,10.12014254920261,0.7s : 0.3s,0.025801597314050875,0.02248108505620746,0.012661881323563369,0.010285909747163861,0.04024723544716835,-0.0032603812869638205,0.026920774951577187,-0.0027591586112976074,-0.00885462760925293,-0.004447758197784424,-0.2756849197525461,1.4613267693559069,0.3141426987873792,0.9564791917800903,0.27220606803894043,-0.10512562096118927
1727722781734,9i,10.12014254920261,0.7s : 0.3s,0.027895367975390935,0.02249915118577124,0.016490595817079342,0.01492825747757189,0.04380255565047264,-0.004767997190356255,0.03120633400976658,-0.006311953067779541,-0.01286226511001587,-0.004192166030406952,-0.2754731194679146,1.4611937534848054,0.3137466212146835,0.9565224051475525,0.272002249956131,-0.10525914281606674
1727722781744,9i,10.12014254920261,0.7s : 0.3s,0.02975850051018808,0.02249343891587466,0.019483674149212198,0.02481499431469721,0.03783614560961723,-0.0036372628528624773,0.03572468459606171,-0.008001744747161865,-0.023139268159866333,-0.004041075706481934,-0.275259323616039,1.4610424623845908,0.31336063382149065,0.9565643072128296,0.27179649472236633,-0.10541022568941116
1727722781754,9i,10.12014254920261,0.7s : 0.3s,0.030122723136309596,0.022426603168342697,0.02011034359419159,0.03408461931718742,0.01260482519865036,-0.0005056515801697969,0.03741073235869408,-0.00922936201095581,-0.032811254262924194,-4.176795482635498e-05,-0.2750351263268024,1.460968063428002,0.3131374226054186,0.9566169381141663,0.2715807557106018,-0.10548806190490723
1727722781764,9i,10.12014254920261,0.7s : 0.3s,0.03026570902447806,0.02233492134800675,0.020424603573453395,0.03495947043063433,-0.008375025354325771,-0.0020409640856087208,0.04359971731901169,-0.005220472812652588,-0.03456723690032959,0.0001317933201789856,-0.2747193209253718,1.4610676138760135,0.3132022390136361,0.9567127227783203,0.2712768018245697,-0.10540222376585007
1727722781774,9i,10.12014254920261,0.7s : 0.3s,0.030754088024034964,0.022247442818386136,0.021233587031698857,0.03200306701764702,-0.01260785385966301,-0.0045363460667431355,0.049547623842954636,-0.0009150505065917969,-0.031706154346466064,-0.004251912236213684,-0.2743943244573554,1.4610823255469325,0.3133746246891663,0.9568020105361938,0.27096396684646606,-0.10539781302213669
1727722781784,9i,10.12014254920261,0.7s : 0.3s,0.03119415836746312,0.022171348654610068,0.021943263546931432,0.026280612558687255,-0.023501913994550705,-0.006912462413311005,0.0476001538336277,0.0004742741584777832,-0.024973511695861816,-0.00817125290632248,-0.2740419002687861,1.4610431731279148,0.31361566516457057,0.9568925499916077,0.27062472701072693,-0.10544570535421371
1727722781794,9i,10.12014254920261,0.7s : 0.3s,0.03219118054635054,0.022105713765654924,0.023401058178609616,0.02648500148713778,-0.028805598616600037,-0.013130677863955498,0.04875090718269348,-0.00026988983154296875,-0.024964600801467896,-0.008840315043926239,-0.2736364310987769,1.4609894942146984,0.31393764467633034,0.9569959044456482,0.2702343463897705,-0.10550908744335175
1727722781804,9i,10.12014254920261,0.7s : 0.3s,0.03310704844577055,0.022050057856041912,0.024695578659667053,0.0171981950178102,-0.022295501083135605,-0.012932894751429558,0.05006038025021553,-0.001967310905456543,-0.011907368898391724,-0.012252435088157654,-0.27313374164776033,1.4609032434252014,0.314250057769867,0.9571216106414795,0.26975032687187195,-0.10560650378465652
1727722781814,9i,10.12014254920261,0.7s : 0.3s,0.0339210526697887,0.021994252853032418,0.025824226138714292,0.019273007606620617,-0.02100173756480217,-0.012192534282803535,0.05089901015162468,-0.006816387176513672,-0.01027420163154602,-0.014813050627708435,-0.27259452407891477,1.4608053474911327,0.3145087764986206,0.9572557210922241,0.26923105120658875,-0.10571615397930145
1727722781824,9i,10.12014254920261,0.7s : 0.3s,0.03826171414006897,0.02194835638251537,0.03134052362425445,0.028695809174994594,-0.033025775104761124,-0.0152394138276577,0.06432005017995834,-0.002146124839782715,-0.02472156286239624,-0.014411382377147675,-0.27192636495576045,1.4606932880825425,0.3148199406079041,0.9574225544929504,0.26858752965927124,-0.10584317892789841
1727722781834,9i,10.12014254920261,0.7s : 0.3s,0.040063094619661954,0.02191790356398874,0.03353590693366852,0.03482703768196456,-0.04323314130306244,-0.02108079008758068,0.054260220378637314,-0.00021308660507202148,-0.03136417269706726,-0.015138223767280579,-0.27113968327701227,1.4606320020362875,0.3153052362839488,0.9576259255409241,0.26782965660095215,-0.1059250682592392
1727722781844,9i,10.12014254920261,0.7s : 0.3s,0.04648889843149096,0.021897085905348102,0.041008966168720816,0.030494865533826666,-0.06429315358400345,-0.017319608479738235,0.06363528221845627,-0.0041446685791015625,-0.02298504114151001,-0.0196073055267334,-0.2703457097861417,1.4606067774783598,0.3159052810642902,0.9578342437744141,0.2670646011829376,-0.10597256571054459
1727722781854,9i,10.12014254920261,0.7s : 0.3s,0.05245013804657024,0.0218964102503985,0.04766092948370309,0.031454264740622996,-0.06554776430130005,-0.02787451446056366,0.06831951439380646,0.0010843873023986816,-0.028310537338256836,-0.0136641263961792,-0.26955429957601246,1.4605435159885725,0.31665989443185283,0.9580373167991638,0.26630187034606934,-0.10605638474225998
1727722781864,9i,10.12014254920261,0.7s : 0.3s,0.05324048988891391,0.02193698021225565,0.04851101589101849,0.021928329909832414,-0.037855152040719986,-0.028570840135216713,0.07014498114585876,0.010927081108093262,-0.007006824016571045,-0.017673566937446594,-0.26877619737067543,1.460324613398911,0.3172533449155053,0.9582197666168213,0.26555177569389343,-0.10628890991210938
1727722781874,9i,10.12014254920261,0.7s : 0.3s,0.05215369055750157,0.02201355871340291,0.04728012977498255,0.027027884911707253,0.019305603578686714,-0.039359308779239655,0.0658264011144638,0.01000756025314331,0.006505399942398071,-0.02424943447113037,-0.26796057161836967,1.45991899385266,0.3174160710922845,0.9583914279937744,0.26476535201072693,-0.10670150071382523
1727722781884,9i,10.12014254920261,0.7s : 0.3s,0.05033708534573026,0.022114915511905114,0.04521894152901669,0.029928800024255194,0.0681595578789711,-0.039517633616924286,0.07257580757141113,0.0068274736404418945,0.012123137712478638,-0.026498079299926758,-0.2671668775396917,1.4593122680992634,0.3169860338289227,0.9585350751876831,0.263999879360199,-0.10730630904436111
1727722781894,9i,10.12014254920261,0.7s : 0.3s,0.05611206823516481,0.022261837241831194,0.05150703645373134,0.029017860267387608,0.0962766781449318,-0.04731829836964607,0.0735558569431305,0.01902186870574951,0.00839260220527649,-0.020242750644683838,-0.2663361530332083,1.4585426949694809,0.3161985679024434,0.9586697220802307,0.2631985545158386,-0.10806845873594284
1727722781904,9i,10.12014254920261,0.7s : 0.3s,0.06968474304174664,0.022469491240061066,0.06596275749396076,0.03925813994825436,0.13948620855808258,-0.04814876243472099,0.07955682277679443,0.021586954593658447,0.013283073902130127,-0.029979407787322998,-0.2653161380606907,1.457620846146841,0.31503223183159557,0.958836019039154,0.2622143626213074,-0.10898242890834808
1727722781914,9i,10.12014254920261,0.7s : 0.3s,0.08623642884380676,0.02273667740615321,0.08318512583546092,0.03951523239013555,0.16469649970531464,-0.05238638445734978,0.08349483460187912,0.02302032709121704,0.0034744441509246826,-0.03192877024412155,-0.26412751127547457,1.456619441527156,0.31352837835783254,0.9590352773666382,0.26106712222099304,-0.10997798293828964
1727722781924,9i,10.12014254920261,0.7s : 0.3s,0.10544650952211788,0.023143198656392472,0.10287545249644763,0.04994578675849997,0.20206835865974426,-0.05599052831530571,0.0865335762500763,0.03274738788604736,0.00048029422760009766,-0.03770887851715088,-0.2629457715201443,1.4554439936256287,0.31169858282344487,0.9592111706733704,0.2599261999130249,-0.11114063858985901
1727722781934,9i,10.12014254920261,0.7s : 0.3s,0.12655815815328317,0.023686373353798716,0.12432185291611403,0.05723270217286955,0.24053505063056946,-0.059755176305770874,0.08870936930179596,0.034764885902404785,0.010939270257949829,-0.04412841796875,-0.26165906869498723,1.4542230881997238,0.3095114717815383,0.9594062566757202,0.2586835026741028,-0.1123504787683487
1727722781944,9i,10.12014254920261,0.7s : 0.3s,0.14602151886289297,0.024325465363027595,0.14398109496006187,0.05813396305649858,0.26028239727020264,-0.06380939483642578,0.09486560523509979,0.03688758611679077,0.004793405532836914,-0.044675350189208984,-0.2604236082997386,1.4528917527936638,0.30700382878359656,0.9595723748207092,0.2574898898601532,-0.11366516351699829
1727722781954,9i,10.12014254920261,0.7s : 0.3s,0.1626700992314852,0.025030173778725545,0.16073285782498872,0.05825798640427403,0.27189722657203674,-0.07418639957904816,0.0976928174495697,0.03547877073287964,-0.01164504885673523,-0.04471736401319504,-0.25919697409173686,1.451400259116361,0.3043548696211112,0.9597145915031433,0.25630444288253784,-0.11513376235961914
1727722781964,9i,10.12014254920261,0.7s : 0.3s,0.1755986979257294,0.025771931153328532,0.17369717982120395,0.05890032075784708,0.27541303634643555,-0.07901164889335632,0.10177247226238251,0.02646780014038086,-0.009063303470611572,-0.051832035183906555,-0.2579628002463313,1.4498223109787953,0.3016064977587495,0.9598451256752014,0.2551112771034241,-0.11668609827756882
1727722781974,9i,10.12014254920261,0.7s : 0.3s,0.1786748378819405,0.02652842013821975,0.17669448383327596,0.0583610960552198,0.25034576654434204,-0.08537553995847702,0.10793290287256241,0.015144646167755127,-0.01921868324279785,-0.052983954548835754,-0.2566460000792562,1.4482988315170215,0.29902117231526915,0.9599989056587219,0.25383785367012024,-0.11818922311067581
1727722781984,9i,10.12014254920261,0.7s : 0.3s,0.17740399681693722,0.027297613920390363,0.17529123868829605,0.06146204460386608,0.19921664893627167,-0.09331996738910675,0.10880719125270844,0.014979004859924316,-0.04037401080131531,-0.0438537523150444,-0.25532790104507375,1.4467783552834743,0.29682456245850386,0.9601491093635559,0.2525627017021179,-0.11969000101089478
1727722781994,9i,10.12014254920261,0.7s : 0.3s,0.16709866641294482,0.028053056411956764,0.16472701764717343,0.05039179080861618,0.15665267407894135,-0.09115508198738098,0.11516574770212173,0.006829738616943359,-0.037757664918899536,-0.0326656699180603,-0.25402768022538574,1.4453553196125828,0.2951180066121898,0.9603028297424316,0.25130441784858704,-0.12109719216823578
1727722782004,9i,10.12014254920261,0.7s : 0.3s,0.15891209365919048,0.028782930289188793,0.15628370495709087,0.036400586227976164,0.13684527575969696,-0.10617908835411072,0.11452395468950272,0.003426969051361084,-0.022329062223434448,-0.028542451560497284,-0.25271738114561176,1.4439331437150598,0.29375769367000476,0.9604554176330566,0.25003594160079956,-0.1225043386220932
1727722782014,9i,10.12014254920261,0.7s : 0.3s,0.15799945062999654,0.029478200115845343,0.15522519807463891,0.030537457099039902,0.15092168748378754,-0.11335444450378418,0.11573995649814606,-0.0013009905815124512,-0.006978154182434082,-0.02970099449157715,-0.2514090140650695,1.4424025454707072,0.2924274221698334,0.9605905413627625,0.24876892566680908,-0.12401606887578964
1727722782024,9i,10.12014254920261,0.7s : 0.3s,0.1580811647138308,0.030103428166015314,0.15518839598995426,0.032719646991968124,0.1631128340959549,-0.11732139438390732,0.11928562074899673,-0.018918514251708984,-0.00041456520557403564,-0.026692569255828857,-0.25005200690343393,1.4407773347190378,0.29094247248389327,0.960721492767334,0.24745434522628784,-0.12562070786952972
1727722782034,9i,10.12014254920261,0.7s : 0.3s,0.15822034413062636,0.030653439900088775,0.15522256253233765,0.033066687208879945,0.16651634871959686,-0.11866682767868042,0.11340483278036118,-0.023044705390930176,0.00504031777381897,-0.02317202091217041,-0.2486428824531474,1.4390661616019564,0.28937869266873906,0.9608498811721802,0.24608880281448364,-0.12731017172336578
1727722782044,9i,10.12014254920261,0.7s : 0.3s,0.15878549457319835,0.031127587938999394,0.15570454892505567,0.03267231830241337,0.17226558923721313,-0.12518002092838287,0.11157631129026413,-0.025294005870819092,0.007308676838874817,-0.019346237182617188,-0.24726313570459574,1.4372114967576317,0.28774088929648,0.9609476923942566,0.24475125968456268,-0.1291370987892151
1727722782054,9i,10.12014254920261,0.7s : 0.3s,0.15861195120153201,0.031528740962498775,0.15544674186767898,0.02793219062497626,0.16114848852157593,-0.12508122622966766,0.10718049854040146,-0.024164140224456787,0.006651654839515686,-0.012331143021583557,-0.2458479694958382,1.4352790777188247,0.286105240839103,0.9610386490821838,0.2433788776397705,-0.13104048371315002
1727722782064,9i,10.12014254920261,0.7s : 0.3s,0.15838965987880102,0.03184988132508116,0.15515434062926023,0.03083536986230526,0.16232773661613464,-0.12733834981918335,0.100277841091156,-0.027652621269226074,0.011827841401100159,-0.00680108368396759,-0.24439733557788326,1.433401210477475,0.28455790876555687,0.9611396789550781,0.24197161197662354,-0.1328931748867035
1727722782074,9i,10.12014254920261,0.7s : 0.3s,0.15872695116593044,0.03210400328978751,0.15544638303672742,0.035038712168165655,0.17719963192939758,-0.12698067724704742,0.09313204884529114,-0.02026057243347168,0.02835187315940857,-0.003659486770629883,-0.24303065412974065,1.4315929170755204,0.28292931528231957,0.9612243175506592,0.24064531922340393,-0.1346767246723175
1727722782084,9i,10.12014254920261,0.7s : 0.3s,0.1588817279752052,0.03230125865551319,0.1555635952710554,0.03289590196009447,0.179875448346138,-0.12345274537801743,0.08675667643547058,-0.016543090343475342,0.02841433882713318,-0.001044929027557373,-0.24180313464841616,1.4298205565663078,0.2811917529936583,0.9612756967544556,0.23945368826389313,-0.1364215463399887
1727722782094,9i,10.12014254920261,0.7s : 0.3s,0.1582808702636576,0.03244959685046682,0.15491887411049368,0.027798557028972548,0.16434575617313385,-0.12385248392820358,0.08726774156093597,-0.009701848030090332,0.024824559688568115,0.007897794246673584,-0.24072294280353065,1.4280319352531365,0.27951285519743163,0.9612856507301331,0.238404780626297,-0.13817740976810455
1727722782104,9i,10.12014254920261,0.7s : 0.3s,0.1527194965946093,0.03256401491622282,0.14920733752951593,0.018848988494071264,0.12755590677261353,-0.12424881756305695,0.08538784831762314,-0.0027827024459838867,0.014637976884841919,0.011544287204742432,-0.23974245173970848,1.4263210145871874,0.27810535446759926,0.9612787961959839,0.2374524474143982,-0.13985547423362732
1727722782114,9i,10.12014254920261,0.7s : 0.3s,0.14758676485731148,0.032637704888942125,0.14393273908541335,0.01937792348115332,0.1162199005484581,-0.12435507774353027,0.08455214649438858,-0.009544849395751953,0.014129996299743652,0.009205594658851624,-0.2388831446235636,1.4246892231546826,0.2769806855358551,0.9612506628036499,0.23661763966083527,-0.14145353436470032
1727722782124,9i,10.12014254920261,0.7s : 0.3s,0.1444086207244937,0.03266868544320204,0.14066487383481277,0.024670570596001883,0.10722334682941437,-0.12810581922531128,0.08653310686349869,-0.01430666446685791,0.019225865602493286,0.0058585405349731445,-0.23803578804219164,1.4230902411717292,0.27595259849726905,0.9612213373184204,0.23579426109790802,-0.14301985502243042
1727722782134,9i,10.12014254920261,0.7s : 0.3s,0.14321723091674604,0.03265293975338398,0.13944518907772488,0.02669471396001841,0.12094501405954361,-0.12700088322162628,0.08018679171800613,-0.020805954933166504,0.016236290335655212,0.004012838006019592,-0.23721820602894078,1.4215476526322552,0.2749551979019016,0.9611897468566895,0.2349996417760849,-0.1445310413837433
1727722782144,9i,10.12014254920261,0.7s : 0.3s,0.14298378343429977,0.032576990701510676,0.13922320927927362,0.03713391801277007,0.14631709456443787,-0.1212700605392456,0.07697265595197678,-0.025055408477783203,0.02732132375240326,0.0021678656339645386,-0.23642602844994975,1.4200193705721673,0.2736726511593888,0.961151659488678,0.23422957956790924,-0.14602778851985931
1727722782154,9i,10.12014254920261,0.7s : 0.3s,0.14284063038820416,0.03246110330873128,0.13910327983796583,0.032579439228649594,0.15616199374198914,-0.11934886127710342,0.0660688728094101,-0.0260198712348938,0.01959797739982605,0.0005526691675186157,-0.235753596011234,1.418565263869826,0.2722669816573719,0.9610936045646667,0.23357580602169037,-0.1474490761756897
1727722782164,9i,10.12014254920261,0.7s : 0.3s,0.14436613574512094,0.032320981266053046,0.14070158250701423,0.029674076532141606,0.19179242849349976,-0.11810889095067978,0.05097581073641777,-0.024074196815490723,0.016787275671958923,-0.00437849760055542,-0.23514483646475803,1.4170504032774063,0.2706113275277608,0.9610095620155334,0.23298384249210358,-0.14892658591270447
1727722782174,9i,10.12014254920261,0.7s : 0.3s,0.1550001090847263,0.03216461333248943,0.15162609097859278,0.03279986632392589,0.24046967923641205,-0.11792486906051636,0.047814637422561646,-0.022190332412719727,0.023360073566436768,-0.006142258644104004,-0.23450540944528123,1.4155116384786133,0.26852719158573896,0.9609262943267822,0.23236195743083954,-0.1504281908273697
1727722782184,9i,10.12014254920261,0.7s : 0.3s,0.16557647574715845,0.03200799598626406,0.16245324716296888,0.020287154621856852,0.25889503955841064,-0.11065363883972168,0.04545268416404724,-0.018441379070281982,0.0020126253366470337,-0.008211791515350342,-0.2337842136303661,1.4139448069355318,0.2660557380382971,0.960854709148407,0.23166044056415558,-0.15195976197719574
1727722782194,9i,10.12014254920261,0.7s : 0.3s,0.16789587533234776,0.031844350099750236,0.16484830093252342,0.017807922793881617,0.23930799961090088,-0.10722428560256958,0.05159419775009155,-0.012857615947723389,-0.011322781443595886,0.0048578232526779175,-0.23303061748428325,1.4124243998882646,0.26362138221141074,0.9607946872711182,0.23092728853225708,-0.1534479707479477
1727722782204,9i,10.12014254920261,0.7s : 0.3s,0.16881655312828425,0.03168924141712052,0.1658156222692008,0.021386410462767177,0.22649647295475006,-0.11328329145908356,0.060200970619916916,-0.00745624303817749,-0.020016580820083618,0.0010580569505691528,-0.23227406110156873,1.4109129729317396,0.26138008145081876,0.9607337713241577,0.23019111156463623,-0.15492771565914154
1727722782214,9i,10.12014254920261,0.7s : 0.3s,0.16905077111407146,0.03154766224560671,0.16608102908249125,0.025093273226969387,0.21294072270393372,-0.11622102558612823,0.06459438055753708,-0.006607413291931152,-0.02410265803337097,-0.0022530704736709595,-0.23147114750541836,1.4093871576415469,0.25927808941250274,0.9606785178184509,0.22940967977046967,-0.15642312169075012
1727722782224,9i,10.12014254920261,0.7s : 0.3s,0.17130543810552415,0.03142456461306546,0.16839848533583918,0.02743188704934187,0.23623192310333252,-0.11575718969106674,0.06835117191076279,-0.008703410625457764,-0.02431248128414154,-0.009255394339561462,-0.23069909469583444,1.4078269502659042,0.2571687403678955,0.960607647895813,0.22865815460681915,-0.15795044600963593
1727722782234,9i,10.12014254920261,0.7s : 0.3s,0.18589827596379443,0.03133166365549914,0.18323890378107416,0.021438144143578072,0.2978803515434265,-0.11519899219274521,0.06735408306121826,-0.007098972797393799,-0.009657159447669983,-0.017774641513824463,-0.2297987029435889,1.4061513020264729,0.25459459531818307,0.9605443477630615,0.2277815192937851,-0.15959355235099792
1727722782244,9i,10.12014254920261,0.7s : 0.3s,0.2066756928442372,0.031249114536995526,0.20429962029651258,0.020886392345504944,0.3577134907245636,-0.11346656084060669,0.06312262266874313,-0.014414191246032715,0.0003422200679779053,-0.01511143147945404,-0.22879089894560897,1.4043075121964397,0.25137786642636095,0.9604743123054504,0.2268000990152359,-0.16140227019786835
1727722782254,9i,10.12014254920261,0.7s : 0.3s,0.22657555432705226,0.03117712937709042,0.22442029414118317,0.019138814386145852,0.3860742747783661,-0.10898099839687347,0.06561054289340973,-0.012882888317108154,-0.004844486713409424,-0.01329873502254486,-0.22775567519704767,1.4023813770095717,0.24769438544867808,0.9603925943374634,0.22579172253608704,-0.16329123079776764
1727722782264,9i,10.12014254920261,0.7s : 0.3s,0.23789588363902586,0.031123668070167868,0.235851158017617,0.024566661555037114,0.37059611082077026,-0.10755091905593872,0.06803745031356812,-0.006784200668334961,-0.02097421884536743,-0.010843321681022644,-0.2265196902914633,1.4004613844767395,0.24395763613134477,0.9603515863418579,0.22458748519420624,-0.16518206894397736
1727722782274,9i,10.12014254920261,0.7s : 0.3s,0.23907256394570287,0.031092915799578,0.2370420245835167,0.0402279043029749,0.34228459000587463,-0.11661339551210403,0.074685238301754,-0.003895401954650879,-0.03972558677196503,-0.004998788237571716,-0.22520280484587774,1.3985906896199691,0.24049793481092874,0.9603314995765686,0.22330404818058014,-0.16702882945537567
1727722782284,9i,10.12014254920261,0.7s : 0.3s,0.23943619245974734,0.03108608791757057,0.23740965733853847,0.04131929399282985,0.33276766538619995,-0.10571036487817764,0.08400186896324158,0.0014251470565795898,-0.04129160940647125,-0.0005059689283370972,-0.22385097483772798,1.3967627258456055,0.23723370320366996,0.9603209495544434,0.22198614478111267,-0.16883611679077148
1727722782294,9i,10.12014254920261,0.7s : 0.3s,0.2392811279161392,0.031081092084281125,0.23725392281618485,0.027120413683955957,0.32595980167388916,-0.09714537858963013,0.09237644821405411,0.0016245841979980469,-0.02618567645549774,0.0068693459033966064,-0.22239609468747046,1.3950677652343024,0.23406123037104556,0.9603503346443176,0.22056733071804047,-0.1705198585987091
1727722782304,9i,10.12014254920261,0.7s : 0.3s,0.23913123573741854,0.031078291572262415,0.23710311617153892,0.03425161339240644,0.3208390772342682,-0.1076803058385849,0.09795736521482468,-0.0008118748664855957,-0.033778876066207886,0.005612611770629883,-0.22088874562702884,1.3934022580086916,0.23098602205887328,0.9603913426399231,0.2190968543291092,-0.17217759788036346
1727722782314,9i,10.12014254920261,0.7s : 0.3s,0.24404687775510905,0.031098111451325718,0.2420574022957738,0.02894609126667389,0.35189154744148254,-0.12311892211437225,0.10054542869329453,0.007450699806213379,-0.02796107530593872,0.0007358938455581665,-0.21930517989277457,1.3915690989954517,0.22783301757544266,0.9604142308235168,0.21755149960517883,-0.17399947345256805
1727722782324,9i,10.12014254920261,0.7s : 0.3s,0.2640139881707044,0.03113654337348911,0.26217151183252474,0.00811002834825135,0.43230730295181274,-0.12152288854122162,0.10419496148824692,0.004467129707336426,-0.004985511302947998,-0.004578426480293274,-0.2176058000843091,1.3895451098789469,0.22407929319051695,0.9604224562644958,0.2158925086259842,-0.176009401679039
1727722782334,9i,10.12014254920261,0.7s : 0.3s,0.2931656814273093,0.031181895531167906,0.2915026692121737,0.012213546802425134,0.5127153396606445,-0.12157828360795975,0.10548392683267593,-0.006335198879241943,-0.004616186022758484,-0.009366258978843689,-0.2156964237322725,1.3873471263090782,0.21948426417048308,0.9604367017745972,0.2140277624130249,-0.1781948059797287
1727722782344,9i,10.12014254920261,0.7s : 0.3s,0.3224272640316356,0.031224535803658283,0.3209117775258055,0.02932756070492949,0.5545139312744141,-0.13191267848014832,0.11211858689785004,-0.010440230369567871,-0.027223587036132812,-0.0031597018241882324,-0.21362869770421725,1.385020372805697,0.2143466882112269,0.9604524374008179,0.21200749278068542,-0.18051040172576904
1727722782354,9i,10.12014254920261,0.7s : 0.3s,0.3532335177470454,0.0312838304089894,0.3518454774682969,0.03051385857533924,0.6062207818031311,-0.1345825046300888,0.11909980326890945,-0.010231435298919678,-0.024815037846565247,-0.014513000845909119,-0.2114144707420432,1.3825220256247222,0.20874057053995268,0.9604571461677551,0.20984308421611786,-0.18299676477909088
1727722782364,9i,10.12014254920261,0.7s : 0.3s,0.3829120134468832,0.03135692788739117,0.3816259334943198,0.03603643012624632,0.6442870497703552,-0.14470912516117096,0.1267116218805313,-0.020159900188446045,-0.018056675791740417,-0.023794099688529968,-0.20901304959051992,1.3799075504302802,0.202680894584799,0.9604673981666565,0.20749452710151672,-0.1856023073196411
1727722782374,9i,10.12014254920261,0.7s : 0.3s,0.4090823594681806,0.03145007480656331,0.4078716337559102,0.04942915939385891,0.665752112865448,-0.16032537817955017,0.14047616720199585,-0.02343153953552246,-0.03796181082725525,-0.02128627896308899,-0.20646344154581076,1.377099301775656,0.19638455209806277,0.9604583382606506,0.20499974489212036,-0.188400000333786
1727722782384,9i,10.12014254920261,0.7s : 0.3s,0.44363591764923077,0.03156159758646703,0.4425117998271515,0.046191385566043235,0.7452235221862793,-0.1700649857521057,0.15471775829792023,-0.01914757490158081,-0.037976548075675964,-0.01802210509777069,-0.2036419607847623,1.3740709267074172,0.1896542774372465,0.9604468941688538,0.20223736763000488,-0.1914200782775879
1727722782394,9i,10.12014254920261,0.7s : 0.3s,0.48838043450707636,0.03170111028250959,0.487350478009591,0.042901246739005375,0.8470689058303833,-0.17635378241539001,0.1728152632713318,-0.021306753158569336,-0.022657692432403564,-0.02954941987991333,-0.20044997662892602,1.3708573655372778,0.1820237344060832,0.9604547023773193,0.19911031424999237,-0.19463276863098145
1727722782404,9i,10.12014254920261,0.7s : 0.3s,0.5349425652589663,0.031886313107840084,0.5339913961500057,0.04738919121194641,0.9231691360473633,-0.16940660774707794,0.19384647905826569,-0.017182767391204834,-0.025491610169410706,-0.036064743995666504,-0.19688131195106828,1.367477179885542,0.17354118518514233,0.9604811072349548,0.1956118494272232,-0.19802038371562958
1727722782414,9i,10.12014254920261,0.7s : 0.3s,0.5940943635770995,0.032106844073833345,0.5932261486125655,0.03869901013637316,1.0580768585205078,-0.18272560834884644,0.1909945011138916,-0.014895856380462646,-0.011072859168052673,-0.033957600593566895,-0.19297822516273463,1.3639344925390728,0.164188936872017,0.9605135321617126,0.19178268313407898,-0.2015771120786667
1727722782424,9i,10.12014254920261,0.7s : 0.3s,0.6968946892013658,0.03247307820763129,0.6961377069436688,0.08763167941511325,1.376639485359192,-0.16288962960243225,0.18754273653030396,-0.009238600730895996,0.05654385685920715,-0.06630800664424896,-0.18860613591678546,1.3599690274083684,0.15251552957720957,0.9605172276496887,0.18748992681503296,-0.20555786788463593
1727722782434,9i,10.12014254920261,0.7s : 0.3s,0.8375910852495961,0.032985432617740555,0.8369413284840322,0.11718767497694967,1.7267003059387207,-0.14625179767608643,0.17805282771587372,-0.010705351829528809,0.0840836614370346,-0.080921471118927,-0.1835312217281541,1.3557070816489651,0.13751207383335837,0.9605496525764465,0.1825026273727417,-0.20985005795955658
1727722782444,9i,10.12014254920261,0.7s : 0.3s,1.018296000168875,0.033771958132975226,1.0177358197507809,0.12299423431945208,2.1417317390441895,-0.1173006221652031,0.1642053723335266,0.006456851959228516,0.08187976479530334,-0.0915510505437851,-0.17772125868797362,1.350995131753043,0.11875621837906798,0.9605688452720642,0.17678718268871307,-0.2146013379096985
1727722782454,9i,10.12014254920261,0.7s : 0.3s,1.2197775713792829,0.034842863432803566,1.2192798278113783,0.1452235218752781,2.515571117401123,-0.06309916824102402,0.1803920567035675,0.018246829509735107,0.10749295353889465,-0.09592804312705994,-0.17086404672680922,1.346166783567416,0.0956097707817798,0.9606806635856628,0.17003387212753296,-0.21950164437294006
1727722782464,9i,10.12014254920261,0.7s : 0.3s,1.359389080935098,0.03571360027208699,1.3589198696469105,0.027294087852242535,2.5055201053619385,-0.01612953096628189,0.2009708434343338,-0.0017561912536621094,0.022183239459991455,-0.015804648399353027,-0.16327942464979098,1.341856964211551,0.07069306107235737,0.9609541893005371,0.16255487501621246,-0.22392621636390686
1727722782474,9i,10.12014254920261,0.7s : 0.3s,1.4953972643382678,0.03641970232012724,1.4949537061304905,0.06284006098228768,2.697960376739502,-0.032946858555078506,0.15351703763008118,-0.0039000511169433594,0.003647416830062866,0.06261277198791504,-0.15570283207834223,1.3375209005671387,0.04534220209422611,0.9611449241638184,0.15507446229457855,-0.22836901247501373
1727722782484,9i,10.12014254920261,0.7s : 0.3s,1.6587381962981216,0.037289148158148634,1.658319005284564,0.2138581645779114,3.036801815032959,-0.0076469178311526775,0.15425466001033783,0.02886432409286499,0.20510537922382355,-0.05323484539985657,-0.14740228115671908,1.3330817175281708,0.016945657233523162,0.9613395929336548,0.14686907827854156,-0.2329285442829132
1727722782494,9i,10.12014254920261,0.7s : 0.3s,1.7795668932209807,0.03808071462700083,1.7791594045002461,0.18306955933945174,3.0725255012512207,-0.030821746215224266,0.07089293003082275,-0.010574758052825928,0.18188217282295227,-0.017930790781974792,-0.13901492113113284,1.3287005455340595,-0.013371693749428704,0.9614719152450562,0.13856761157512665,-0.2374250441789627
1727722782504,9i,10.12014254920261,0.7s : 0.3s,1.9036744027426167,0.03901687975411676,1.9032745242743387,0.25131517743893594,3.2702579498291016,-0.06451894342899323,-0.008348731324076653,-0.009489059448242188,0.25052136182785034,-0.017559140920639038,-0.13112539948982002,1.3240105203814667,-0.044606422090038386,0.9613781571388245,0.13074997067451477,-0.24219131469726562
1727722782514,9i,10.12014254920261,0.7s : 0.3s,2.060683441359326,0.040964856147503566,2.060276225668133,0.4660596185365295,3.6181836128234863,-0.04907980188727379,-0.06622188538312912,-0.0273779034614563,0.45772525668144226,-0.08336430788040161,-0.12296771366860446,1.3191900775219365,-0.07881783688064004,0.961200475692749,0.12265804409980774,-0.24708004295825958
1727722782524,9i,10.12014254920261,0.7s : 0.3s,2.189730459109563,0.04405973464625046,2.18928714958433,0.504969088629288,3.711150884628296,-0.05798221379518509,-0.1564832180738449,-0.08669042587280273,0.49406418204307556,-0.05813032388687134,-0.11473839398827283,1.3144323490707217,-0.11551680181462855,0.9609580039978027,0.11448680609464645,-0.25189781188964844
1727722782534,9i,10.12014254920261,0.7s : 0.3s,2.271483642123787,0.04845463611784397,2.270966773133115,0.509844005907078,3.6634867191314697,-0.09609445184469223,-0.24661575257778168,-0.09715497493743896,0.4997020959854126,-0.028277844190597534,-0.10726923768921029,1.3095956947514218,-0.1524308313643069,0.9605277180671692,0.10706363618373871,-0.2567563056945801
1727722782544,9i,10.12014254920261,0.7s : 0.3s,2.3046262249187355,0.05425276564501198,2.303987559428881,0.5575955492224719,3.537221670150757,-0.07818295806646347,-0.3367031514644623,-0.1418745517730713,0.5391035079956055,-0.0123213529586792,-0.10065375598199924,1.30501917031272,-0.18873776935929307,0.960004985332489,0.10048388689756393,-0.2613297998905182
1727722782554,9i,10.12014254920261,0.7s : 0.3s,2.286539660708641,0.061177354189451444,2.285721100949975,0.6272346901282424,3.3216187953948975,-0.028154680505394936,-0.44663551449775696,-0.23707252740859985,0.5770642161369324,0.06493738293647766,-0.09533659000938739,1.301136597303944,-0.2234842367461178,0.9594845771789551,0.09519223868846893,-0.2651937007904053
1727722782564,9i,10.12014254920261,0.7s : 0.3s,2.2263718126393113,0.07003570080246749,2.2252699720995563,0.7364507470630253,3.066249132156372,0.00042734225280582905,-0.5817328095436096,-0.2681252360343933,0.6846628785133362,0.04129531979560852,-0.09169540486528532,1.2980247477596425,-0.25625078769955845,0.9589821100234985,0.09156696498394012,-0.26826977729797363
1727722782574,9i,10.12014254920261,0.7s : 0.3s,2.1501266752957036,0.08124583703680031,2.1485911276420984,0.8527150621659351,2.8588361740112305,-0.016168147325515747,-0.7779608964920044,-0.3123147487640381,0.7920400500297546,0.04748719930648804,-0.09023868192556975,1.2952322297051027,-0.2871128844914824,0.9583566188812256,0.09011626243591309,-0.2709827423095703
1727722782584,9i,10.12014254920261,0.7s : 0.3s,2.107879573726157,0.09613347973054909,2.1056862661391085,1.0971351039477693,2.86855149269104,-0.040127407759428024,-0.9388359189033508,-0.36699873208999634,1.033277153968811,-0.0368196964263916,-0.09071809787009147,1.2922911808115287,-0.3175333400239717,0.9575138092041016,0.09059371799230576,-0.2737882137298584
1727722782594,9i,10.12014254920261,0.7s : 0.3s,2.075426396086508,0.11477845292756941,2.072250137487312,1.2418337198356562,2.7936806678771973,-0.06158795580267906,-1.1094236373901367,-0.4310101270675659,1.1591272354125977,-0.11316055059432983,-0.09272988073101099,1.2890023188239614,-0.3483259060991708,0.9564312696456909,0.09259704500436783,-0.27688464522361755
1727722782604,9i,10.12014254920261,0.7s : 0.3s,2.055281790794618,0.13629950944790173,2.0507573438357336,1.2969402346917485,2.711566925048828,-0.08029191941022873,-1.3472192287445068,-0.5099278092384338,1.1904011964797974,-0.07051661610603333,-0.09682882337334135,1.2854608321202416,-0.37880573249352817,0.9550724029541016,0.09667758643627167,-0.2801608741283417
1727722782614,9i,10.12014254920261,0.7s : 0.3s,2.06188320119982,0.16086451418290046,2.0555984392547866,1.4359905003420543,2.7038156986236572,-0.0974530577659607,-1.5745432376861572,-0.5401307940483093,1.3274694681167603,-0.09028983116149902,-0.10317915971422391,1.281576394661711,-0.40956748743461546,0.9533693194389343,0.10299618542194366,-0.28368785977363586
1727722782624,9i,10.12014254920261,0.7s : 0.3s,2.095810146722554,0.18815204913477865,2.087347354302009,1.5143676406730828,2.709152936935425,-0.16041520237922668,-1.8318997621536255,-0.5264397859573364,1.4176450967788696,-0.08032983541488647,-0.111700843990805,1.277042607264386,-0.44102201560760723,0.9511986374855042,0.11146870255470276,-0.2877427041530609
1727722782634,9i,10.12014254920261,0.7s : 0.3s,2.1680308626717157,0.21775672910236968,2.1570674139738197,1.5668546201488736,2.7923343181610107,-0.2437862604856491,-2.105830669403076,-0.5039887428283691,1.480112910270691,-0.10146191716194153,-0.12251885306907334,1.2712540513416264,-0.4738060002763298,0.9483093619346619,0.12221256643533707,-0.2928709387779236
1727722782644,9i,10.12014254920261,0.7s : 0.3s,2.234960886270312,0.24888696955534395,2.221059530841921,1.5522729784918268,2.660691738128662,-0.3359377980232239,-2.393575668334961,-0.4806366562843323,1.4727576971054077,-0.09759390354156494,-0.13575209087470375,1.2640983973426905,-0.5070317596638053,0.9445648789405823,0.1353355199098587,-0.29913467168807983
1727722782654,9i,10.12014254920261,0.7s : 0.3s,2.278297388738778,0.28022638871056876,2.260998045687826,1.4409767227285668,2.3564372062683105,-0.4086381196975708,-2.690239429473877,-0.4470919966697693,1.3693852424621582,-0.03614857792854309,-0.15232121165673482,1.2557813038089607,-0.5393939780556126,0.939782977104187,0.15173287689685822,-0.3062433898448944
1727722782664,9i,10.12014254920261,0.7s : 0.3s,2.325285628881495,0.3116762190656692,2.3043027557922455,1.43472947665063,2.1090850830078125,-0.4958971440792084,-2.989152669906616,-0.3749152421951294,1.3846092224121094,-0.027286142110824585,-0.1722873624442011,1.2463623426980397,-0.5700540883216241,0.9337987303733826,0.17143629491329193,-0.314052939414978
1727722782674,9i,10.12014254920261,0.7s : 0.3s,2.4104050613093766,0.34366576816148725,2.3857800400246107,1.492085807866634,2.0581533908843994,-0.568515419960022,-3.2928335666656494,-0.2890830636024475,1.4622410535812378,-0.06783908605575562,-0.195309242529602,1.2354746741075753,-0.6005542191154318,0.9263510704040527,0.19406990706920624,-0.32281649112701416
1727722782684,9i,10.12014254920261,0.7s : 0.3s,2.5254267009130604,0.3764096932365992,2.4972176045595535,1.5595364658373234,2.037329912185669,-0.6237560510635376,-3.5869224071502686,-0.20182347297668457,1.5450198650360107,-0.06583988666534424,-0.22087066725776927,1.2230614448717958,-0.632209277369329,0.9173080325126648,0.21907922625541687,-0.33249083161354065
1727722782694,9i,10.12014254920261,0.7s : 0.3s,2.6581103178406185,0.4096214874949445,2.626358829024165,1.5678782025098177,2.0016090869903564,-0.7121663689613342,-3.865828037261963,-0.0934222936630249,1.5643041133880615,-0.04966863989830017,-0.24884888246239917,1.20878665809029,-0.6651658535422907,0.9063799977302551,0.24628846347332,-0.3432452082633972
1727722782704,9i,10.12014254920261,0.7s : 0.3s,2.8065582619873215,0.44324899340376644,2.771335347404901,1.607935520424277,2.0122480392456055,-0.8131110072135925,-4.131903171539307,0.05725473165512085,1.6033045053482056,-0.10767170786857605,-0.27885050594137906,1.1921979286582334,-0.6997164743729497,0.8932916522026062,0.27525073289871216,-0.3553410768508911
1727722782714,9i,10.12014254920261,0.7s : 0.3s,2.9620551429284276,0.4771903668444132,2.923364504050024,1.6419100772679387,1.9922535419464111,-0.9067176580429077,-4.396019458770752,0.1899738907814026,1.6233108043670654,-0.15697342157363892,-0.3107912937150958,1.1730689626287467,-0.7360614670093915,0.8777751326560974,0.30581212043762207,-0.3687681555747986
1727722782724,9i,10.12014254920261,0.7s : 0.3s,3.122567176273088,0.5111497805042853,3.0804466676487854,1.6664547646710741,2.0183804035186768,-1.009647250175476,-4.633486747741699,0.36917197704315186,1.614588737487793,-0.18408352136611938,-0.3443070768445889,1.151146062397757,-0.7744764131522188,0.8596336245536804,0.3375445008277893,-0.3835282325744629
1727722782734,9i,10.12014254920261,0.7s : 0.3s,3.284737282201389,0.5448500150650076,3.239234087584198,1.7066586032032058,2.066558361053467,-1.1070523262023926,-4.853352069854736,0.5819212198257446,1.5952882766723633,-0.1706065535545349,-0.3789411586250266,1.1259968169837193,-0.8155334468772929,0.8386567831039429,0.3699369430541992,-0.3997517228126526
1727722782744,9i,10.12014254920261,0.7s : 0.3s,3.449022839247194,0.5781359291769216,3.400223138713622,1.7439995373730275,2.1163954734802246,-1.191752314567566,-5.083212852478027,0.7609283328056335,1.5625172853469849,-0.14512819051742554,-0.414339984476854,1.0974278819314178,-0.859712302983489,0.8147248029708862,0.40258586406707764,-0.41731080412864685
1727722782754,9i,10.12014254920261,0.7s : 0.3s,3.6038142609471526,0.6107257691111798,3.5516885086321452,1.7414799437852848,2.0776281356811523,-1.2802557945251465,-5.291119575500488,0.9022595882415771,1.480861783027649,-0.16040077805519104,-0.4502091381931816,1.065243132464538,-0.9070759169509282,0.7877275347709656,0.4351538419723511,-0.43603476881980896
1727722782764,9i,10.12014254920261,0.7s : 0.3s,3.7489183380552675,0.6424460554228878,3.6934606768285265,1.750512715568727,2.0336973667144775,-1.376279592514038,-5.479544639587402,1.0438144207000732,1.3987963199615479,-0.13459226489067078,-0.4867264162243379,1.029307819640254,-0.9571209489354774,0.7574245929718018,0.4677349925041199,-0.45555663108825684
1727722782774,9i,10.12014254920261,0.7s : 0.3s,3.874341063966734,0.6736648595678789,3.8153236215191857,1.8338093655324088,1.9564701318740845,-1.4468156099319458,-5.612472057342529,1.2012388706207275,1.375956654548645,-0.16317245364189148,-0.5230227866853762,0.9895021334810075,-1.0101535491084044,0.7240235805511475,0.49950110912323,-0.475697785615921
1727722782784,9i,10.12014254920261,0.7s : 0.3s,3.9817151160560718,0.7042158108622432,3.9189456945919843,1.8496884332318515,1.8826475143432617,-1.5302242040634155,-5.714513778686523,1.32588791847229,1.284114122390747,-0.12008100748062134,-0.5588384582303221,0.9456899885400389,-1.0661893264658289,0.68753981590271,0.5302017331123352,-0.49616044759750366
1727722782794,9i,10.12014254920261,0.7s : 0.3s,4.083511100018853,0.7342345387122784,4.016959365756536,1.9179215694324048,1.843934416770935,-1.6344739198684692,-5.835020542144775,1.477247714996338,1.2184884548187256,-0.10699635744094849,-0.5936671461746023,0.8975415415304604,-1.1252608248706861,0.6480268836021423,0.5594044327735901,-0.5168439745903015
1727722782804,9i,10.12014254920261,0.7s : 0.3s,4.178426372866834,0.7643759835056808,4.10791629774863,1.9986368110561232,1.9808927774429321,-1.7122944593429565,-5.883683204650879,1.575204849243164,1.2173683643341064,-0.17689841985702515,-0.6260656023796265,0.8441585243346785,-1.1891215451943067,0.6056574583053589,0.585961103439331,-0.5383572578430176
1727722782814,9i,10.12014254920261,0.7s : 0.3s,4.262265115693366,0.7943486062895232,4.187590501486801,2.009370259646891,2.013679027557373,-1.796684980392456,-5.934453010559082,1.6679223775863647,1.107686996459961,-0.16921377182006836,-0.6554381494746778,0.7854204072349247,-1.2575736823334454,0.56059330701828,0.6095066666603088,-0.5605683326721191
1727722782824,9i,10.12014254920261,0.7s : 0.3s,4.323208040106693,0.824477816616734,4.243861930830227,2.117940842934237,1.9581693410873413,-1.9366263151168823,-5.914254665374756,1.8215429782867432,1.0600913763046265,-0.20942986011505127,-0.6814189724781764,0.7219187403059542,-1.3295903351293112,0.5132501125335693,0.6298957467079163,-0.5829285383224487
1727722782834,9i,10.12014254920261,0.7s : 0.3s,4.366573929898659,0.8540535859873156,4.282237774520797,2.0794275771888593,1.7931241989135742,-2.081664800643921,-5.916557788848877,1.8721625804901123,0.8740853667259216,-0.23452311754226685,-0.7045272015198026,0.6537828039657684,-1.4042652683718515,0.4633934795856476,0.6476736664772034,-0.6048018336296082
1727722782844,9i,10.12014254920261,0.7s : 0.3s,4.39133154111321,0.8826158055043681,4.301718498908268,2.0313629997881955,1.4702759981155396,-2.23345947265625,-5.92263126373291,1.893349289894104,0.7014855146408081,-0.2226705551147461,-0.7254933754718564,0.5821382918650518,-1.4802381959688535,0.4113534986972809,0.6635046601295471,-0.6249399185180664
1727722782854,9i,10.12014254920261,0.7s : 0.3s,4.396478693582427,0.9107123948974312,4.301119370222644,2.0474465079038975,1.2476258277893066,-2.3230113983154297,-5.867220401763916,1.9163532257080078,0.6511663198471069,-0.30920857191085815,-0.7445350969390366,0.5073389619605531,-1.5573913582986088,0.3572978377342224,0.6776300072669983,-0.6427719593048096
1727722782864,9i,10.12014254920261,0.7s : 0.3s,4.39950542293802,0.9390964675704977,4.298109560150563,2.0187420722751948,1.135088324546814,-2.407223701477051,-5.820979118347168,1.8964886665344238,0.6004185676574707,-0.34372639656066895,-0.7604171315754604,0.42983826329466823,-1.6356283784974028,0.30193665623664856,0.6892237663269043,-0.6586387157440186
1727722782874,9i,10.12014254920261,0.7s : 0.3s,4.402487653667502,0.9681951160123301,4.294705549630226,1.9877774604135103,1.0987221002578735,-2.471450090408325,-5.789342403411865,1.8772352933883667,0.5487567782402039,-0.35512375831604004,-0.7721649776713371,0.3496921069906996,-1.7155855688332482,0.24544541537761688,0.6976878643035889,-0.673043966293335
1727722782884,9i,10.12014254920261,0.7s : 0.3s,4.400069465758517,0.9979718783505668,4.285401198665287,1.983022411060188,1.1443485021591187,-2.5084407329559326,-5.7377729415893555,1.8632868528366089,0.5382339358329773,-0.41333305835723877,-0.7791670790158141,0.2674700638398349,-1.7968927042455902,0.1880437135696411,0.7026870250701904,-0.686199963092804
1727722782894,9i,10.12014254920261,0.7s : 0.3s,4.400569805125137,1.0282697288784388,4.278747009867649,1.9728080962649122,1.0799928903579712,-2.582155466079712,-5.7070536613464355,1.8741039037704468,0.4705132842063904,-0.39789897203445435,-0.7810376372803257,0.18430888008211926,-1.8784971877686591,0.13015329837799072,0.7040166854858398,-0.6981551051139832
1727722782904,9i,10.12014254920261,0.7s : 0.3s,4.379341460081779,1.0588884311240405,4.249398417943754,1.9689991047066242,0.9184592366218567,-2.6618776321411133,-5.584603309631348,1.9040961265563965,0.36892032623291016,-0.33951908349990845,-0.7792557964111749,0.10138939832003993,-1.958606722675801,0.07200862467288971,0.7027501463890076,-0.7077831625938416
1727722782914,9i,10.12014254920261,0.7s : 0.3s,4.355819710506691,1.0898106591590044,4.217283257930633,1.9858804140390374,0.7878532409667969,-2.7695367336273193,-5.4864654541015625,1.9248892068862915,0.33526819944381714,-0.355130672454834,-0.7740023681877742,0.019449450987474803,-2.03619830584845,0.013907790184020996,0.6990029811859131,-0.7149834632873535
1727722782924,9i,10.12014254920261,0.7s : 0.3s,4.343063416067767,1.1210874063990126,4.195874505177647,1.9896534842482467,0.7405930757522583,-2.9235317707061768,-5.416162014007568,1.9242104291915894,0.34334880113601685,-0.37181556224823,-0.7653212184407514,-0.061802605155141986,-2.1112762412820385,-0.04454118758440018,0.6927686929702759,-0.7197830080986023
1727722782934,9i,10.12014254920261,0.7s : 0.3s,4.3275758038795695,1.1523382618725995,4.171334183273781,2.019391843070808,0.7816717624664307,-3.0170629024505615,-5.297274589538574,1.9179104566574097,0.4217792749404907,-0.4708132743835449,-0.7523046731182597,-0.14133394982791375,-2.18306462882659,-0.10284698009490967,0.6833232641220093,-0.7228359580039978
1727722782944,9i,10.12014254920261,0.7s : 0.3s,4.311237035681984,1.1829361728846246,4.145772158321904,1.9438348966390941,0.6685763001441956,-3.109877824783325,-5.210490703582764,1.866331696510315,0.29075270891189575,-0.4590892791748047,-0.7357330564273789,-0.2183205879213074,-2.2508116791726995,-0.16056689620018005,0.6711307764053345,-0.7237415313720703
1727722782954,9i,10.12014254920261,0.7s : 0.3s,4.297783520938446,1.2130914776007178,4.123027074835014,1.8991703946354044,0.6462051868438721,-3.1853179931640625,-5.135324001312256,1.8291510343551636,0.2811669111251831,-0.4266144037246704,-0.71641343448246,-0.29287379036707406,-2.3149806168584335,-0.2177312970161438,0.6566840410232544,-0.7220519781112671
1727722782964,9i,10.12014254920261,0.7s : 0.3s,4.281680143178657,1.2440343798785911,4.096970015776353,1.9184696948395497,0.9811162948608398,-3.1831178665161133,-5.019518852233887,1.8235397338867188,0.4459664821624756,-0.3954019546508789,-0.692377295146843,-0.3634972817116168,-2.374114791064103,-0.27367398142814636,0.6383688449859619,-0.7194356918334961
1727722782974,9i,10.12014254920261,0.7s : 0.3s,4.274803055999502,1.2750478997574144,4.080219849580031,1.8224617149901692,1.146582841873169,-3.2561004161834717,-4.94955587387085,1.7520227432250977,0.3915436267852783,-0.3138098120689392,-0.6631632039456316,-0.42929780489333774,-2.4270798315197477,-0.32801148295402527,0.6156126856803894,-0.7165399193763733
1727722782984,9i,10.12014254920261,0.7s : 0.3s,4.253548671335063,1.3053448086706994,4.048302265134453,1.7497691866858966,1.1077139377593994,-3.301283359527588,-4.80176305770874,1.7055113315582275,0.2620728611946106,-0.2902432084083557,-0.6313149040384848,-0.4913792134255604,-2.474952758223977,-0.3808957636356354,0.5902067422866821,-0.7117404341697693
1727722782994,9i,10.12014254920261,0.7s : 0.3s,4.223540485340547,1.3346785624529895,4.007109602473968,1.6921510091680911,0.9436566233634949,-3.3154594898223877,-4.706628799438477,1.6543712615966797,0.18293774127960205,-0.3049008846282959,-0.5987725725154347,-0.5499659067186925,-2.518417618329129,-0.4317303001880646,0.5636290311813354,-0.7042238712310791
1727722783004,9i,10.12014254920261,0.7s : 0.3s,4.193912193379073,1.3625860703860062,3.9663911413983985,1.5954971063549674,0.8072388172149658,-3.404663324356079,-4.597838878631592,1.5531954765319824,0.07996946573257446,-0.3560894727706909,-0.5661043922519736,-0.6060499912482101,-2.5585168796819784,-0.48076197504997253,0.5363482236862183,-0.6936846971511841
1727722783014,9i,10.12014254920261,0.7s : 0.3s,4.173365648816965,1.389988783161352,3.935087295271996,1.6302224856283485,0.825978696346283,-3.4685490131378174,-4.52708101272583,1.572717308998108,0.12242114543914795,-0.411337673664093,-0.5326614223790501,-0.660047931345588,-2.5951517719543875,-0.5282073616981506,0.5078278183937073,-0.680520236492157
1727722783024,9i,10.12014254920261,0.7s : 0.3s,4.155553940313257,1.4174669049855815,3.9063302630632286,1.6055519236028588,0.9252554774284363,-3.4561307430267334,-4.469923973083496,1.5455546379089355,0.2107759416103363,-0.3803042769432068,-0.49737559471763715,-0.7113004319790037,-2.627911309147452,-0.5737223029136658,0.4771207571029663,-0.6657314896583557
1727722783034,9i,10.12014254920261,0.7s : 0.3s,4.135373174659639,1.4442936219143372,3.874961577537525,1.5166204670690746,0.9321624040603638,-3.480776786804199,-4.377140522003174,1.4816951751708984,0.12454518675804138,-0.29867297410964966,-0.46075319007876653,-0.7597523231537917,-2.6568733151035913,-0.6169183850288391,0.44462287425994873,-0.6494013667106628
1727722783044,9i,10.12014254920261,0.7s : 0.3s,4.101960973280195,1.4702724987460123,3.829410216436072,1.514100330894004,0.8860509395599365,-3.494375467300415,-4.224021911621094,1.4856513738632202,0.02487778663635254,-0.29106855392456055,-0.42399120646699173,-0.806117140952947,-2.6827305552021183,-0.6577094793319702,0.41140151023864746,-0.631004810333252
1727722783054,9i,10.12014254920261,0.7s : 0.3s,4.066979244090972,1.4956948089435802,3.78195944060298,1.4986707147516796,0.7626845240592957,-3.4945333003997803,-4.145716667175293,1.4713826179504395,0.024559050798416138,-0.2836264371871948,-0.3875837816645924,-0.8506168978642882,-2.7060521151079615,-0.6959310173988342,0.377952516078949,-0.6105996966362
1727722783064,9i,10.12014254920261,0.7s : 0.3s,4.013781807567695,1.5208403628666947,3.714497138165124,1.4940727701745313,0.8084424734115601,-3.4621028900146484,-3.9385204315185547,1.4554181098937988,0.0291498601436615,-0.33639538288116455,-0.35160021697701316,-0.8931468715378316,-2.72652836023309,-0.7313885688781738,0.344400554895401,-0.5886077284812927
1727722783074,9i,10.12014254920261,0.7s : 0.3s,3.9639031260738444,1.5452878234156107,3.65028951395659,1.451114544633169,0.7960326671600342,-3.4363276958465576,-3.8479087352752686,1.4312478303909302,-0.04892534017562866,-0.23424214124679565,-0.3158706007512408,-0.9336712689659867,-2.744054098306661,-0.7640419602394104,0.31064411997795105,-0.5654557347297668
1727722783084,9i,10.12014254920261,0.7s : 0.3s,3.905189048959789,1.5692142380912433,3.576040853106572,1.4623415739824077,0.7654352188110352,-3.407449960708618,-3.682422637939453,1.4548600912094116,-0.07410281896591187,-0.12780362367630005,-0.28065354618949045,-0.9726487012997803,-2.759222946194155,-0.7940477132797241,0.27698367834091187,-0.54108065366745
1727722783094,9i,10.12014254920261,0.7s : 0.3s,3.8373588373351453,1.592985039625673,3.491091736119653,1.5376163731004364,0.7637126445770264,-3.3699440956115723,-3.4917306900024414,1.531043529510498,-0.11754772067070007,-0.07970166206359863,-0.24646987324056865,-1.0101671620878463,-2.7717417145731567,-0.8213266134262085,0.24398204684257507,-0.5156505107879639
1727722783104,9i,10.12014254920261,0.7s : 0.3s,3.764977253378451,1.6164812094976915,3.4003003128838523,1.5771608348916375,0.7180172204971313,-3.299433469772339,-3.348722219467163,1.565542459487915,-0.1861640214920044,0.04308205842971802,-0.2134151449200547,-1.046172791550966,-2.7821631537654534,-0.845876932144165,0.2117988020181656,-0.489523708820343
1727722783114,9i,10.12014254920261,0.7s : 0.3s,3.68031616059576,1.6395081429539675,3.294956766200423,1.592228566263223,0.7108123302459717,-3.2274882793426514,-3.126593828201294,1.566685676574707,-0.2658420205116272,0.10007905960083008,-0.18161847126740432,-1.0807237383479409,-2.790795064767847,-0.86778724193573,0.1806216537952423,-0.46294835209846497
1727722783124,9i,10.12014254920261,0.7s : 0.3s,3.5859867044418636,1.6614449897651784,3.1778768368862256,1.640541666439051,0.7126913070678711,-3.110644817352295,-2.9318339824676514,1.5643532276153564,-0.4387461245059967,0.22732746601104736,-0.151421263846345,-1.1137147029926429,-2.7972920370932344,-0.8870766162872314,0.1508432924747467,-0.43628135323524475
1727722783134,9i,10.12014254920261,0.7s : 0.3s,3.4705167671997565,1.6817127797463436,3.035840700341913,1.6836323953654904,0.7290923595428467,-2.94596266746521,-2.6613147258758545,1.5179543495178223,-0.5852499008178711,0.43349185585975647,-0.12308180043125282,-1.144734758455679,-2.801455105499788,-0.90371173620224,0.12277127057313919,-0.4101611375808716
1727722783144,9i,10.12014254920261,0.7s : 0.3s,3.343771299053279,1.699893127401438,2.8794391564653368,1.7531101623349459,0.6907516121864319,-2.8061439990997314,-2.3973195552825928,1.4516985416412354,-0.712382972240448,0.6771093606948853,-0.09705677082268487,-1.1738365353080866,-2.8038737569370764,-0.9179002642631531,0.0969044640660286,-0.38479679822921753
1727722783154,9i,10.12014254920261,0.7s : 0.3s,3.1944390140129504,1.7162121831359798,2.694263601933498,1.830557002271082,0.6752397418022156,-2.601170778274536,-2.0544545650482178,1.414750337600708,-0.7779136300086975,0.8627113103866577,-0.07377214039250123,-1.2011035007907367,-2.804994512196528,-0.9299022555351257,0.07370524108409882,-0.360346257686615
1727722783164,9i,10.12014254920261,0.7s : 0.3s,3.044111827329403,1.731011833430557,2.504039706116926,1.8559185613582125,0.6898888945579529,-2.4342637062072754,-1.7670327425003052,1.3700312376022339,-0.8236888647079468,0.9428598880767822,-0.053313119263895356,-1.2263694813782755,-2.8042178154575956,-0.9399316906929016,0.053287867456674576,-0.33717745542526245
1727722783174,9i,10.12014254920261,0.7s : 0.3s,2.8867525580096114,1.7445820479192915,2.2999508275727907,1.869461287027801,0.6206035614013672,-2.209164619445801,-1.4851055145263672,1.3460016250610352,-0.9115238189697266,0.9231952428817749,-0.03579904841803465,-1.2495526844296112,-2.8020805523414,-0.9482354521751404,0.03579140082001686,-0.3155445158481598
1727722783184,9i,10.12014254920261,0.7s : 0.3s,2.716564761738231,1.7568704736063727,2.071987027876384,1.9582977033978923,0.5852269530296326,-1.9142330884933472,-1.1606907844543457,1.2983819246292114,-0.9990950226783752,1.0728203058242798,-0.02132869025126782,-1.2701804192124866,-2.800446089951707,-0.9549370408058167,0.021327072754502296,-0.29604119062423706
1727722783194,9i,10.12014254920261,0.7s : 0.3s,2.529749050215312,1.7680906665682965,1.8092776602443725,2.0807091758707856,0.5155171155929565,-1.5209782123565674,-0.8209882974624634,1.2674684524536133,-1.0482338666915894,1.2743940353393555,-0.010224440141941184,-1.287358652516489,-2.796844715843285,-0.9600495100021362,0.01022426225244999,-0.279643177986145
1727722783204,9i,10.12014254920261,0.7s : 0.3s,2.3361754934357366,1.7784195484663863,1.5149058867673342,2.234225833563584,0.5455077290534973,-1.0862979888916016,-0.4222967326641083,1.239020586013794,-1.1095092296600342,1.4918385744094849,-0.0030028987751567864,-1.300341860360395,-2.792328346263392,-0.9636452198028564,0.0030028943438082933,-0.26716819405555725
1727722783214,9i,10.12014254920261,0.7s : 0.3s,2.152931409142379,1.788589058119423,1.1983583911531908,2.3076019642813894,0.6532789468765259,-0.6002644896507263,0.0003118016757071018,1.2619574069976807,-1.1271358728408813,1.5690937042236328,0.0006106782292587182,-1.3088047488508734,-2.7859841974372856,-0.9658757448196411,-0.0006106781656853855,-0.2590045928955078
1727722783224,9i,10.12014254920261,0.7s : 0.3s,2.0019238590420527,1.79886293382594,0.8785165238679097,2.405872859858311,0.7270217537879944,-0.07883632183074951,0.4173358082771301,1.2664637565612793,-1.195001482963562,1.6602003574371338,0.000387364146827556,-1.3122034608462565,-2.7775340612814823,-0.9667506217956543,-0.0003873641253449023,-0.2557204067707062
1727722783234,9i,10.12014254920261,0.7s : 0.3s,1.9324696211196395,1.80964844588114,0.6779464129783844,2.498589625836567,0.8175697922706604,0.4551200270652771,0.8703004121780396,1.3043880462646484,-1.2751119136810303,1.7075161933898926,-0.0038564856126081857,-1.3102929037644069,-2.767213038718778,-0.9662532806396484,0.0038564761634916067,-0.25756511092185974
1727722783244,9i,10.12014254920261,0.7s : 0.3s,1.903603424454444,1.8215099881081225,0.5529985179157645,2.5991891319156064,0.9105737209320068,0.9927802681922913,1.3145980834960938,1.3813347816467285,-1.3564156293869019,1.7343111038208008,-0.012162342027500111,-1.3029871606372034,-2.7546976081445975,-0.9642815589904785,0.01216204185038805,-0.2645997405052185
1727722783254,9i,10.12014254920261,0.7s : 0.3s,1.9925871724628048,1.8351435130794094,0.7763065929553085,2.732223061627605,1.038834571838379,1.5535106658935547,1.8112642765045166,1.4993548393249512,-1.4354623556137085,1.7766332626342773,-0.024560919247120734,-1.2900234836209044,-2.7398876681295334,-0.9605516791343689,0.024558449164032936,-0.27701470255851746
1727722783264,9i,10.12014254920261,0.7s : 0.3s,2.1970958160735097,1.8514469021767095,1.182951560051377,2.8764247344414793,1.1834635734558105,2.1376030445098877,2.338831663131714,1.6805763244628906,-1.5241447687149048,1.768181324005127,-0.041292098119395514,-1.2710388118123195,-2.7221273070069576,-0.9545937776565552,0.041280366480350494,-0.29503685235977173
1727722783274,9i,10.12014254920261,0.7s : 0.3s,2.4995741071080397,1.8711087843955512,1.657354106364345,3.0239181739581684,1.3626834154129028,2.732570171356201,2.8715476989746094,1.8665552139282227,-1.6192128658294678,1.7430440187454224,-0.0621392742296132,-1.2456139686501484,-2.70088661076778,-0.9457635879516602,0.06209929287433624,-0.31886497139930725
1727722783284,9i,10.12014254920261,0.7s : 0.3s,2.881119593686773,1.8950159588460662,2.1701992140917756,3.197475085328498,1.6195963621139526,3.3273301124572754,3.4261255264282227,2.12227463722229,-1.7309011220932007,1.6503874063491821,-0.08681459587950402,-1.213477423672615,-2.675063033561914,-0.93330979347229,0.08670558780431747,-0.3484465181827545
1727722783294,9i,10.12014254920261,0.7s : 0.3s,3.3199844581914566,1.9240391221173851,2.7056182766965815,3.43999269094691,1.8686217069625854,3.9362261295318604,3.984909772872925,2.412919521331787,-1.8529202938079834,1.6056324243545532,-0.11486094320016656,-1.174129753043705,-2.6438577858134193,-0.9162763357162476,0.11460854858160019,-0.3838001787662506
1727722783304,9i,10.12014254920261,0.7s : 0.3s,3.810100785815739,1.9592795138409205,3.2677349624345298,3.7280088769006405,2.139470100402832,4.583434104919434,4.58831787109375,2.758016586303711,-1.9447154998779297,1.5841326713562012,-0.14582381455624704,-1.1268614464247078,-2.6066016473905638,-0.8934838771820068,0.14530755579471588,-0.42493775486946106
1727722783314,9i,10.12014254920261,0.7s : 0.3s,4.344616965887714,2.0017891243839916,3.855974180641948,4.109656758921001,2.3215866088867188,5.297054767608643,5.2283477783203125,3.128304958343506,-2.053657054901123,1.6986699104309082,-0.1794197924811279,-1.070588384542175,-2.562645222737559,-0.863396942615509,0.17845870554447174,-0.4719090461730957
1727722783324,9i,10.12014254920261,0.7s : 0.3s,4.915181875678701,2.052826994246335,4.465972929014903,4.53557888023768,2.3995940685272217,5.99965238571167,5.948465347290039,3.5384438037872314,-2.1146674156188965,1.8918437957763672,-0.21534207536855834,-1.0043660851893228,-2.5115885693916775,-0.8243324756622314,0.21368160843849182,-0.5242290496826172
1727722783334,9i,10.12014254920261,0.7s : 0.3s,5.523146245958968,2.1147977990932527,5.102232327442663,5.064807630185756,2.3540894985198975,6.7396769523620605,6.7545576095581055,4.149209499359131,-2.06461238861084,2.042966604232788,-0.2540427086548038,-0.9273875992155197,-2.4530726367113953,-0.7743770480155945,0.25131896138191223,-0.5806710124015808
1727722783344,9i,10.12014254920261,0.7s : 0.3s,6.1922278048197725,2.1901818339603203,5.791958970933178,5.707919492014057,2.280256748199463,7.5998053550720215,7.687038421630859,4.899958610534668,-2.0212032794952393,2.1178970336914062,-0.29505816353786873,-0.837749199484495,-2.3868114601703363,-0.7110243439674377,0.2907955050468445,-0.640220582485199
1727722783354,9i,10.12014254920261,0.7s : 0.3s,6.945922156025779,2.2819136765982524,6.560389056307839,6.578854931425413,2.2152252197265625,8.625055313110352,8.728219032287598,5.883624076843262,-2.078185796737671,2.0845727920532227,-0.3371943649868205,-0.7325922593822937,-2.3091695243299863,-0.6311367154121399,0.3308407664299011,-0.701577365398407
1727722783364,9i,10.12014254920261,0.7s : 0.3s,7.78313491409454,2.3922761551236005,7.406362392472061,7.517324431350586,2.20031476020813,9.743245124816895,9.805739402770996,6.9589104652404785,-2.1884357929229736,1.815070390701294,-0.37740014749974654,-0.6084150285727454,-2.217103883376349,-0.5313440561294556,0.3685048222541809,-0.7628090977668762
1727722783374,9i,10.12014254920261,0.7s : 0.3s,8.668264658727393,2.523598393429318,8.292783811388265,8.546477197996849,2.2866568565368652,10.826005935668945,10.785813331604004,8.163418769836426,-2.1310791969299316,1.36358642578125,-0.4108177618973889,-0.4637560839530883,-2.108510259023884,-0.41009193658828735,0.39935916662216187,-0.8199615478515625
1727722783384,9i,10.12014254920261,0.7s : 0.3s,9.543773672715599,2.679643836392095,9.159864891258234,9.85771559259278,1.9672250747680664,11.853740692138672,11.576991081237793,9.659749031066895,-1.7114664316177368,0.966792643070221,-0.4324794892219823,-0.2999865560917137,-1.9858694223865212,-0.26829981803894043,0.4191232919692993,-0.8673816323280334
1727722783394,9i,10.12014254920261,0.7s : 0.3s,10.353209987210183,2.8624576051843955,9.94963785762028,11.140199346163184,0.7415693998336792,12.720252990722656,12.212910652160645,11.063847541809082,-1.1154731512069702,0.6715941429138184,-0.4434141535290419,-0.12096207807406256,-1.854109968488403,-0.10899783670902252,0.42902594804763794,-0.8966917991638184
1727722783404,9i,10.12014254920261,0.7s : 0.3s,11.07182909407884,3.0745853113578026,10.636368019755311,12.676364162034403,-1.4163869619369507,13.284194946289062,12.74306583404541,12.673357009887695,-0.19910383224487305,0.19128024578094482,-0.4495012687670783,0.06917495540602982,-1.715653253810533,0.06225370988249779,0.43451640009880066,-0.8985098600387573
1727722783414,9i,10.12014254920261,0.7s : 0.3s,11.659621087562671,3.3164180206689937,11.17802019222179,14.255010231198003,-4.362854480743408,13.169339179992676,13.03139877319336,14.166512489318848,1.2472150325775146,-0.9796403646469116,-0.4560008998974101,0.26631723715483635,-1.568545174013621,0.23628872632980347,0.4403611719608307,-0.8661695718765259
1727722783424,9i,10.12014254920261,0.7s : 0.3s,12.118394791014685,3.5855182401990633,11.575817520162092,15.71044121439978,-8.004093170166016,12.14731216430664,13.077320098876953,15.157736778259277,3.494008779525757,-2.202925682067871,-0.46658495478550266,0.46538288959826957,-1.4081629943947231,0.40079638361930847,0.44983890652656555,-0.798127293586731
1727722783434,9i,10.12014254920261,0.7s : 0.3s,12.575888828376547,3.87377360623583,11.964399603461791,16.50113591956216,-11.853652000427246,10.080862998962402,13.51856803894043,14.932865142822266,6.411146640777588,-2.862555503845215,-0.4833220687550289,0.6614627411875313,-1.2288688921746334,0.5439106225967407,0.46472328901290894,-0.6987085342407227
1727722783444,9i,10.12014254920261,0.7s : 0.3s,13.083212100016777,4.172097545364316,12.400162939493596,17.028520293495667,-15.485267639160156,7.30855131149292,13.564591407775879,13.887907981872559,9.486292839050293,-2.665851354598999,-0.49707521488925077,0.8503580572285769,-1.018100648937497,0.66056889295578,0.4768567383289337,-0.579876184463501
1727722783454,9i,10.12014254920261,0.7s : 0.3s,13.824401660536203,4.465729622498554,13.083246547037746,16.509680718570372,-19.11155891418457,4.886332988739014,13.366466522216797,11.367208480834961,11.8287935256958,-1.8535836935043335,-0.49294699641647505,1.0293879337271024,-0.772138341946587,0.7549529671669006,0.47322407364845276,-0.453987717628479
1727722783464,9i,10.12014254920261,0.7s : 0.3s,14.698312768471684,4.742557308579258,13.912172670530625,15.800103963025121,-20.505565643310547,2.602175712585449,14.07925796508789,8.39472484588623,13.385492324829102,-0.021799683570861816,-0.4581747810026868,1.1927950846062811,-0.4987181952330409,0.8335466384887695,0.4423118829727173,-0.33099880814552307
1727722783474,9i,10.12014254920261,0.7s : 0.3s,15.06385121135212,4.9935050674648,14.212125824765206,15.315308109436698,-17.545690536499023,0.4302543103694916,14.875821113586426,5.373048782348633,14.311655044555664,0.9303435683250427,-0.37946940985114186,1.3099035791203837,-0.2525122706662695,0.8974286913871765,0.370427668094635,-0.23959344625473022
1727722783484,9i,10.12014254920261,0.7s : 0.3s,15.808740313738516,5.206903408187078,14.926634825205285,11.408951178123598,-20.72040367126465,-1.3905086517333984,14.835161209106445,2.3816139698028564,10.908108711242676,2.3463261127471924,-0.2756993123504092,1.3820041153103084,-0.0216927049479294,0.9451377391815186,0.2722198963165283,-0.18058526515960693
1727722783494,9i,10.12014254920261,0.7s : 0.3s,17.485610007947294,5.373667864257405,16.63941859064414,3.207952178247134,-27.619970321655273,-4.381229400634766,15.222698211669922,1.6739802360534668,0.5226820707321167,2.6861777305603027,-0.1615988557945143,1.412654915529666,0.24175726215231352,0.9746555685997009,0.160896435379982,-0.15543128550052643
1727722783504,9i,10.12014254920261,0.7s : 0.3s,15.523160014338197,5.5265974453182425,14.506040724751537,6.010228742133797,-7.392059803009033,-5.518885135650635,13.426000595092773,5.389962196350098,-0.9705770611763,2.4757094383239746,-0.08202764785611896,1.3371845404321316,0.45318199081628296,0.9695656895637512,0.08193568885326385,-0.2307143658399582
1727722783514,9i,10.12014254920261,0.7s : 0.3s,17.3203909628032,5.722659918179834,16.347694227786764,14.487962719164344,-32.0536994934082,-2.193509578704834,7.675225257873535,12.25694465637207,6.4567365646362305,-4.240156173706055,0.052479164703742684,1.3175211517050103,0.6153468219686357,0.9667642116546631,-0.052455078810453415,-0.2502310276031494
1727722783524,9i,10.12014254920261,0.7s : 0.3s,19.94538872943677,5.8127843176151055,19.07957206137578,25.771189231502625,-41.327735900878906,-10.8831205368042,-3.8893368244171143,-1.6109217405319214,-23.308298110961914,10.87576961517334,-0.04752722277640503,1.2548280313570639,0.9873795310380508,0.9494225382804871,0.0475093312561512,-0.310386061668396
1727722783534,9i,10.12014254920261,0.7s : 0.3s,17.894539871367456,6.018909717513884,16.851922235174733,29.763139945085257,-16.457355499267578,-9.209566116333008,-0.49086979031562805,14.80345630645752,19.213085174560547,17.249914169311523,-0.14783385019713058,1.162964231955272,1.2737317769117726,0.9079698920249939,0.14729595184326172,-0.3922940194606781
1727722783544,9i,10.12014254920261,0.7s : 0.3s,15.585505082705291,6.211942174758572,14.294045721925203,18.80778360318325,-11.063104629516602,-9.585906028747559,-5.543056964874268,1.419764757156372,18.536819458007812,2.846632480621338,-0.22881392406761275,1.0931525960953807,1.3700452713731306,0.8649337291717529,0.22682252526283264,-0.4477066397666931
1727722783554,9i,10.12014254920261,0.7s : 0.3s,14.41714077155096,6.380729569284651,12.928272823172225,5.358606731465678,-10.536554336547852,-12.746027946472168,-5.5418701171875,4.096772193908691,0.7833726406097412,3.3641419410705566,-0.33625525459257183,0.9963810115297987,1.4441199621626857,0.7924950122833252,0.3299543857574463,-0.5129151344299316
1727722783564,9i,10.12014254920261,0.7s : 0.3s,13.82114950582322,6.540547997728793,12.17560698904672,6.392832405889139,-9.716058731079102,-13.381274223327637,-5.734717845916748,4.886612892150879,4.012712478637695,0.9420505166053772,-0.4378173829568227,0.88770549844118,1.4990511522553749,0.7024677991867065,0.423963725566864,-0.5716586112976074
1727722783574,9i,10.12014254920261,0.7s : 0.3s,13.638367986191179,6.683730154290428,11.888348604890139,4.916346697587518,-9.1538667678833,-14.394078254699707,-5.8443145751953125,4.780243873596191,-0.33157116174697876,1.099906325340271,-0.545442581192806,0.7634039288884515,1.5318342336999942,0.5910632610321045,0.5187965035438538,-0.6176522970199585
1727722783584,9i,10.12014254920261,0.7s : 0.3s,13.334785876474228,6.814518596723594,11.462061362003121,6.506732586229928,-7.255825042724609,-13.564339637756348,-6.186541557312012,4.780449867248535,-1.9504611492156982,3.959869861602783,-0.6478343716720583,0.6266402731587939,1.5381817686480908,0.46761226654052734,0.603460967540741,-0.6458897590637207
1727722783594,9i,10.12014254920261,0.7s : 0.3s,12.953906638560278,6.934426173910521,10.94154608997836,5.9834032424722725,-5.606767177581787,-12.516048431396484,-6.827146530151367,3.7685563564300537,-0.4806576371192932,4.622560501098633,-0.7373840174723101,0.47675360570873476,1.508194330482807,0.3396894335746765,0.6723538041114807,-0.6576864123344421
1727722783604,9i,10.12014254920261,0.7s : 0.3s,12.603131011709596,7.041442553200195,10.452607237828163,5.067087466968148,-5.23465633392334,-11.331955909729004,-7.0964579582214355,3.06174373626709,-0.6793445348739624,3.979898452758789,-0.8162978754776902,0.3071321200064561,1.4355631291832491,0.2070702761411667,0.7286151647567749,-0.6528720259666443
1727722783614,9i,10.12014254920261,0.7s : 0.3s,12.324248828978387,7.132786194984041,10.050396524278046,4.370941457772925,-4.729708194732666,-10.148152351379395,-8.610430717468262,2.132312536239624,-1.0339913368225098,3.67276930809021,-0.8849846937840065,0.11272811221788376,1.3189898359401004,0.07123976200819016,0.7739052772521973,-0.629281759262085
1727722783624,9i,10.12014254920261,0.7s : 0.3s,12.072014225604741,7.212348463174875,9.680679578879896,3.322176395385646,-3.2077629566192627,-8.840106964111328,-10.438328742980957,1.8419368267059326,-0.0675048828125,2.763976812362671,-0.9264360947073829,-0.10830254281701987,1.1580807234375956,-0.06492884457111359,0.7994842529296875,-0.5971677303314209
1727722783634,9i,10.12014254920261,0.7s : 0.3s,11.790954874015396,7.287648776759585,9.269131143082504,3.1574430576271943,-0.7355958819389343,-7.998049736022949,-10.84066390991211,2.3289077281951904,0.981451690196991,1.8927197456359863,-0.9215641982307909,-0.33489294364649613,0.9799764055203433,-0.19870449602603912,0.7965482473373413,-0.570988118648529
1727722783644,9i,10.12014254920261,0.7s : 0.3s,11.644491313876532,7.3607873250080225,9.022914601997918,3.229443983767754,-0.2632766664028168,-7.538153648376465,-10.97439956665039,2.6780614852905273,0.46496015787124634,1.7438770532608032,-0.878665410275809,-0.5394805767751921,0.8180037287691494,-0.32782652974128723,0.7698878645896912,-0.5475422143936157
1727722783654,9i,10.12014254920261,0.7s : 0.3s,11.506225663004555,7.43401059380049,8.782295571161715,3.6915289981546984,0.981114387512207,-7.0286407470703125,-10.746075630187988,3.0315375328063965,-0.08614015579223633,2.104696273803711,-0.8129344293684677,-0.7103038027245075,0.6875944339079451,-0.44820937514305115,0.7263073325157166,-0.5211391448974609
1727722783664,9i,10.12014254920261,0.7s : 0.3s,11.368129883118952,7.51020355402691,8.534120904729653,3.8414124147170545,2.5733482837677,-6.41011381149292,-10.462750434875488,3.272158145904541,0.793897807598114,1.8490961790084839,-0.7252011759685217,-0.8384188300003141,0.6001701832449338,-0.5564751625061035,0.663286030292511,-0.5003870725631714
1727722783674,9i,10.12014254920261,0.7s : 0.3s,11.235219973669464,7.585475478898893,8.28798706657804,3.681531260673985,2.802431583404541,-6.039328098297119,-9.857819557189941,3.171229600906372,-0.3728034496307373,1.8324826955795288,-0.6287703069858824,-0.9350977677241661,0.5448012294994646,-0.6507675051689148,0.588150680065155,-0.4801878035068512
1727722783684,9i,10.12014254920261,0.7s : 0.3s,11.086946383767494,7.65727850561371,8.017884135107055,3.304166734313449,3.6923389434814453,-5.791446208953857,-9.076040267944336,2.815546989440918,-0.5506129860877991,1.639218807220459,-0.5328025004961531,-1.0119165957725358,0.512749870476601,-0.7303265929222107,0.5079493522644043,-0.4567389488220215
1727722783694,9i,10.12014254920261,0.7s : 0.3s,10.950766547470732,7.728228991630978,7.758464063854294,3.1944092602713305,5.144986152648926,-5.551070213317871,-8.22383975982666,2.8768842220306396,0.26265132427215576,1.363378882408142,-0.43567866838670494,-1.0713549482166096,0.5068089962190245,-0.7958447337150574,0.42202576994895935,-0.4341948926448822
1727722783704,9i,10.12014254920261,0.7s : 0.3s,10.831199608336098,7.797504790221522,7.517566361668679,3.0650274544925784,5.066380977630615,-5.366357326507568,-7.682218551635742,2.805896520614624,0.0488816499710083,1.2324563264846802,-0.341393624725211,-1.1219206762055844,0.5176342294937387,-0.8489417433738708,0.3348006010055542,-0.40890899300575256
1727722783714,9i,10.12014254920261,0.7s : 0.3s,10.717260811504165,7.863648602835252,7.281669448205549,2.777214298592775,5.652095317840576,-5.040552616119385,-7.014913558959961,2.499537467956543,0.035116374492645264,1.2099580764770508,-0.25275292034835606,-1.1689348040576404,0.5358676491156182,-0.8910933136940002,0.25007036328315735,-0.37870505452156067
1727722783724,9i,10.12014254920261,0.7s : 0.3s,10.647476802953411,7.928878133531409,7.106451562702619,2.8362519324548945,6.935214519500732,-4.509273052215576,-6.353798866271973,2.558609962463379,0.664130687713623,1.0279934406280518,-0.1671828691134701,-1.2096251607390505,0.5706236425670113,-0.9224406480789185,0.16640515625476837,-0.3484432101249695
1727722783734,9i,10.12014254920261,0.7s : 0.3s,10.575905971520811,7.991637569328485,6.927013503592083,2.658420488981709,6.972604274749756,-4.175483703613281,-5.829982757568359,2.352320671081543,0.21490070223808289,1.219673991203308,-0.08629278113722642,-1.2473604316916356,0.6165056044052649,-0.9446210265159607,0.08618572354316711,-0.3166435658931732
1727722783744,9i,10.12014254920261,0.7s : 0.3s,10.463553727097576,8.051138003116899,6.683197846437317,2.544799470876716,6.468470573425293,-3.8110249042510986,-5.419276714324951,2.174699306488037,-0.10250625014305115,1.3176417350769043,-0.012540764735254945,-1.284802563414656,0.6633567736541877,-0.9593063592910767,0.01254043634980917,-0.2820888161659241
1727722783754,9i,10.12014254920261,0.7s : 0.3s,10.38040094359949,8.108801162209902,6.480745903183097,2.531100382565471,6.747931003570557,-3.5248546600341797,-4.989801406860352,2.1500134468078613,0.19958218932151794,1.3206355571746826,0.05483427354174798,-1.3225359186362338,0.7129325562573688,-0.967884361743927,-0.054806798696517944,-0.2453487515449524
1727722783764,9i,10.12014254920261,0.7s : 0.3s,10.357800807381874,8.164680947424769,6.373540820623931,2.3474134908800774,7.140156269073486,-3.3405232429504395,-4.850621700286865,2.081648826599121,0.46789178252220154,0.9788593053817749,0.118452406094184,-1.3617448200590994,0.7699707053551714,-0.971373438835144,-0.11817560344934464,-0.20607790350914001
1727722783774,9i,10.12014254920261,0.7s : 0.3s,10.337559267365181,8.219062323261005,6.269939882697375,2.3048834957998405,6.964785575866699,-3.222257614135742,-4.789166450500488,2.0215349197387695,0.5546441674232483,0.9582558870315552,0.1791203382835213,-1.4035158035292354,0.8308991627961673,-0.97026526927948,-0.1781640499830246,-0.16383755207061768
1727722783784,9i,10.12014254920261,0.7s : 0.3s,10.307435177939617,8.271497889873215,6.150247361305887,2.2299586691379365,6.777741432189941,-3.048358201980591,-4.679477691650391,1.8747557401657104,0.39206674695014954,1.1420552730560303,0.23600253036715207,-1.4475433030847344,0.8934937270680634,-0.9649046659469604,-0.23381784558296204,-0.11953332275152206
1727722783794,9i,10.12014254920261,0.7s : 0.3s,10.273990436564894,8.32026903900414,6.027271572545577,1.9769970522157394,6.702626705169678,-3.014162063598633,-4.423041343688965,1.5301157236099243,0.21452006697654724,1.2333873510360718,0.28789262720214426,-1.4946348734490955,0.9582642780188554,-0.9560646414756775,-0.2839322090148926,-0.0729563906788826
1727722783804,9i,10.12014254920261,0.7s : 0.3s,10.229504895013882,8.364557243480926,5.888713995232214,1.6471939925446,6.5568461418151855,-2.9603216648101807,-4.160168170928955,1.2734193801879883,0.23699724674224854,1.0175870656967163,0.33420250402534596,-1.5452308400489847,1.025762131202281,-0.944363534450531,-0.32801589369773865,-0.024148374795913696
1727722783814,9i,10.12014254920261,0.7s : 0.3s,10.156220094819936,8.405669089605501,5.700309971437949,1.6754473402129455,6.20898962020874,-2.9286282062530518,-3.8096725940704346,1.2418574094772339,0.24038457870483398,1.0986943244934082,0.37416068383273254,-1.597962298574416,1.0939876555476782,-0.9304714202880859,-0.36549142003059387,0.02528337948024273
1727722783824,9i,10.12014254920261,0.7s : 0.3s,10.078164044414192,8.44351288860456,5.502406801218145,1.6349767602491052,6.111681938171387,-2.724179983139038,-3.4523916244506836,1.1162304878234863,-0.0014144480228424072,1.1946449279785156,0.4075395823958591,-1.6524037065734205,1.1624684790301334,-0.915043294429779,-0.3963516354560852,0.0748405009508133
1727722783834,9i,10.12014254920261,0.7s : 0.3s,9.985754778641528,8.479346983342628,5.274085061433914,1.6492477143570374,5.977634906768799,-2.470142364501953,-2.9285836219787598,1.1338080167770386,0.08093947172164917,1.1949670314788818,0.4323918336034055,-1.7070161088692302,1.232584680650805,-0.8995550870895386,-0.4190436899662018,0.12330079078674316
1727722783844,9i,10.12014254920261,0.7s : 0.3s,9.873525050117482,8.513223378290482,5.001152329876169,1.7133978475316733,5.646743297576904,-2.212440252304077,-2.4560022354125977,1.0546278953552246,-0.10898932814598083,1.3459619283676147,0.4492609174962983,-1.7586607790917437,1.300317108892746,-0.8849197030067444,-0.43429991602897644,0.16822873055934906
1727722783854,9i,10.12014254920261,0.7s : 0.3s,9.748443610081566,8.544680121273947,4.692610621396789,1.508127597727866,5.2373948097229,-1.959368109703064,-2.0547871589660645,0.9301371574401855,-0.11027896404266357,1.1820034980773926,0.4595772553109103,-1.8078443342977932,1.3650454560016656,-0.8711771965026855,-0.44356927275657654,0.2104678452014923
1727722783864,9i,10.12014254920261,0.7s : 0.3s,9.6246683947766,8.573604961247753,4.373504278936916,1.3372865842113557,4.843881607055664,-1.7460664510726929,-1.751802682876587,0.7962974309921265,-0.01629623770713806,1.0742347240447998,0.4651565203340526,-1.8529288190576658,1.4246578560555143,-0.8584158420562744,-0.44856271147727966,0.248824343085289
1727722783874,9i,10.12014254920261,0.7s : 0.3s,9.519837154043172,8.600865553373472,4.080736596779366,1.276751651557032,4.69591760635376,-1.4289406538009644,-1.4196271896362305,0.7764256596565247,0.18288719654083252,0.9969003200531006,0.46609048997492397,-1.8940677605406613,1.4808101269822391,-0.8470587134361267,-0.4493972361087799,0.28378504514694214
1727722783884,9i,10.12014254920261,0.7s : 0.3s,9.425303319154823,8.626432191745621,3.7975005331514735,1.261715199771581,4.490644454956055,-1.0234801769256592,-1.1205060482025146,0.6748045086860657,0.1779477894306183,1.051141619682312,0.46259705174423604,-1.9303814859318515,1.534233460350158,-0.8376616835594177,-0.44627371430397034,0.31490159034729004
1727722783894,9i,10.12014254920261,0.7s : 0.3s,9.337541850505259,8.649981095031535,3.516747768256096,1.2729588706375996,4.162505149841309,-0.7944389581680298,-0.8701010942459106,0.5520269870758057,0.03260186314582825,1.1465721130371094,0.4560702582633645,-1.9611433684603106,1.5829075565610748,-0.8302556276321411,-0.4404234290122986,0.34161752462387085
1727722783904,9i,10.12014254920261,0.7s : 0.3s,9.270903391803405,8.670984347438818,3.2808048016642006,0.9851751681630146,4.046558856964111,-0.5703378915786743,-0.6501115560531616,0.44494205713272095,0.04444938898086548,0.8778501749038696,0.4468189468528709,-1.9874950839400674,1.6280203930431945,-0.8246570825576782,-0.43209895491600037,0.36500871181488037
1727722783914,9i,10.12014254920261,0.7s : 0.3s,9.214193583746159,8.689484505079726,3.064999581521703,0.8809866387955275,3.82230806350708,-0.3633016049861908,-0.5371205806732178,0.3376951217651367,0.07973787188529968,0.8097785711288452,0.4357429405037881,-2.010282775184849,1.6704254462585255,-0.8204068541526794,-0.4220840334892273,0.3857170045375824
1727722783924,9i,10.12014254920261,0.7s : 0.3s,9.160224412946064,8.706113907144301,2.8483840912632705,0.8890512826478376,3.50697660446167,-0.21597988903522491,-0.42338383197784424,0.28858447074890137,0.1621064841747284,0.8251379728317261,0.424095070592971,-2.0292017224414987,1.7089337267194762,-0.8173169493675232,-0.41149619221687317,0.4033167362213135
1727722783934,9i,10.12014254920261,0.7s : 0.3s,9.113577379589497,8.72079802182887,2.6466912393082507,0.7583071986413877,3.258260488510132,-0.07354577630758286,-0.3778514862060547,0.22287660837173462,0.15606313943862915,0.7078136205673218,0.4124718648400008,-2.0447904103113794,1.7438570967621922,-0.8151311874389648,-0.40087512135505676,0.4181629717350006
1727722783944,9i,10.12014254920261,0.7s : 0.3s,9.072727522057928,8.733600549570076,2.45735755030819,0.696872798367585,3.0200459957122803,0.04310866817831993,-0.3127749562263489,0.15247094631195068,0.15515726804733276,0.6620502471923828,0.4009853185475341,-2.057596316540888,1.7759334491053733,-0.8137257695198059,-0.3903256952762604,0.4306926131248474
1727722783954,9i,10.12014254920261,0.7s : 0.3s,9.033034025882712,8.744383494872237,2.265272832874855,0.6384283512882352,2.7079222202301025,0.0956491157412529,-0.31817930936813354,0.0628553032875061,0.10826495289802551,0.6260340809822083,0.3902511969192655,-2.0679582031743395,1.804818718794673,-0.8128554224967957,-0.3804207444190979,0.44107407331466675
1727722783964,9i,10.12014254920261,0.7s : 0.3s,9.000802315868539,8.753217317409131,2.096575522978673,0.5587386131455071,2.528581380844116,0.1466800719499588,-0.3192545771598816,-0.0009402632713317871,0.112235426902771,0.547349214553833,0.3804571783546881,-2.0765722465120042,1.8312252815714711,-0.8122465014457703,-0.37134498357772827,0.44984328746795654
1727722783974,9i,10.12014254920261,0.7s : 0.3s,8.973631310191422,8.760401178859073,1.9445899507845814,0.49728528711460895,2.352783203125,0.13329368829727173,-0.31046828627586365,-0.02813166379928589,0.11514338850975037,0.48295265436172485,0.37131306399440966,-2.0841073256266522,1.8557778686378206,-0.8117579817771912,-0.36283931136131287,0.45759913325309753
1727722783984,9i,10.12014254920261,0.7s : 0.3s,8.948271699271752,8.766215645126,1.7958367596014724,0.5176069521170285,2.1371848583221436,0.15804670751094818,-0.30654004216194153,-0.06222987174987793,0.08483487367630005,0.506801187992096,0.362921557230163,-2.0907362816766693,1.8783422493192201,-0.8113206624984741,-0.35500699281692505,0.46446654200553894
1727722783994,9i,10.12014254920261,0.7s : 0.3s,8.922547306541102,8.771092693458874,1.6370043983496938,0.5695220770544186,1.8630412817001343,0.22881409525871277,-0.26985180377960205,-0.09430962800979614,0.01873040199279785,0.5613468289375305,0.35545291576844845,-2.095879221555888,1.8984725044978739,-0.8111925721168518,-0.3480150103569031,0.46994882822036743
1727722784004,9i,10.12014254920261,0.7s : 0.3s,8.896783943121436,8.775040263203497,1.466776366642484,0.6319135677221067,1.5801832675933838,0.24317526817321777,-0.1358185112476349,-0.08383643627166748,-0.1081225574016571,0.6169244050979614,0.3486671836610978,-2.0993125572381826,1.915385017150869,-0.81159508228302,-0.3416454792022705,0.4739111363887787
1727722784014,9i,10.12014254920261,0.7s : 0.3s,8.879398964742549,8.778683089603536,1.3335850881664715,0.5707345254173742,1.5426896810531616,0.04605421423912048,0.09196991473436356,-0.05150407552719116,-0.16396310925483704,0.5442438125610352,0.34139387654485764,-2.1020130104060457,1.9295335662585553,-0.8124331831932068,-0.3348008394241333,0.477347195148468
