timestamp,club,max_speed,tempo,speed,l.speed,t.spped,acc,rotation.x,rotation.y,rotation.z,userAcceleration.x,userAcceleration.y,userAcceleration.z,pitch,roll,yaw,gravity.x,gravity.y,gravity.z
1727724519858,7i,0.11892219590409803,0.1s : 1.8s,0.04672079252275575,0.0003920849288073878,0.046719147288483254,0.040652095224676346,0.02547096088528633,-0.022482872009277344,0.006812716368585825,-0.0002639293670654297,0.04051685333251953,-0.0033026933670043945,0.5485952656106744,0.3283011026867005,-0.09315218211927845,0.27512049674987793,-0.521489143371582,-0.8076866865158081
1727724519868,7i,0.11892219590409803,0.1s : 1.8s,0.033380132787621496,0.0007591209202858093,0.03337149982166861,0.03234798614172614,0.033795472234487534,-0.018333135172724724,0.0017540418775752187,-0.00555834174156189,0.03183203935623169,-0.001489400863647461,0.5488604864278552,0.3281669187080363,-0.09325032451581644,0.2749675214290619,-0.5217154026031494,-0.8075926303863525
1727724519878,7i,0.11892219590409803,0.1s : 1.8s,0.02668829079315002,0.001088111304175885,0.02666609981323592,0.015092111268528125,0.020850379019975662,-0.010475656017661095,-0.0008305560331791639,-0.007120400667190552,0.012971103191375732,0.0029702186584472656,0.5491275148916333,0.3281161761692203,-0.093381037156628,0.27488163113594055,-0.521943211555481,-0.807474672794342
1727724519888,7i,0.11892219590409803,0.1s : 1.8s,0.04507962122796902,0.0013637041352280283,0.045058989792145995,0.01072930634816418,-0.0047788191586732864,0.029539935290813446,-0.13151240348815918,-0.006369858980178833,-0.00573199987411499,0.006456553936004639,0.5491502868717595,0.32838189894631964,-0.09382462422291345,0.27509236335754395,-0.5219626426696777,-0.8073903322219849
1727724519898,7i,0.11892219590409803,0.1s : 1.8s,0.21829907721480896,0.0016081048972270825,0.21829315406461247,0.02112873117561097,-0.08633240312337875,0.12608009576797485,-0.9165971279144287,0.009484320878982544,-0.018521428108215332,0.003664374351501465,0.5490399973559507,0.32830188802394666,-0.09399953639192159,0.27504631876945496,-0.5218685865402222,-0.8074668645858765
1727724519908,7i,0.11892219590409803,0.1s : 1.8s,0.339986799832171,0.0013757872937462542,0.33998401619700164,0.06261576182272661,-0.12792111933231354,0.11886187642812729,-0.9135576486587524,-0.05714079737663269,-0.02510625123977661,0.0050337910652160645,0.5492449250989527,0.3276141250454678,-0.09274781046363587,0.2744565010070801,-0.5220433473587036,-0.8075545430183411
1727724519918,7i,0.11892219590409803,0.1s : 1.8s,0.26412127061512414,0.0013017915860307077,0.2641180624834549,0.03858762574584591,-0.05831834301352501,0.02028602920472622,-0.12119361758232117,0.038402676582336426,-0.0037730932235717773,5.53131103515625e-05,0.5489424164045241,0.32767330386034726,-0.09300088303071094,0.2745550870895386,-0.521785318851471,-0.8076877593994141
1727724519928,7i,0.11892219590409803,0.1s : 1.8s,0.1716424146685993,0.001292250773625768,0.17163755009089784,0.02482657405627074,0.0023223666939884424,-0.002527407603338361,0.06662368774414062,0.023941874504089355,0.0038712620735168457,-0.0053064823150634766,0.5485844184009698,0.32783882666010794,-0.09339060455855218,0.27474892139434814,-0.5214799046516418,-0.807819128036499
1727724519938,7i,0.11892219590409803,0.1s : 1.8s,0.11681493976678757,0.001280672961329251,0.11680791937828673,0.011413015135609396,0.02242683619260788,-0.02137663960456848,0.010635384358465672,-0.008560091257095337,0.005859434604644775,-0.004759073257446289,0.5485718305675273,0.32753495669737287,-0.09321338703824886,0.2745055556297302,-0.5214691758155823,-0.8079087734222412
1727724519948,7i,0.11892219590409803,0.1s : 1.8s,0.07832079476313883,0.0013057092990920343,0.07830991007245493,0.018418713591350472,0.03983059525489807,-0.0192120224237442,0.012132879346609116,0.012387841939926147,0.01358938217163086,-0.0010578632354736328,0.5487790710297827,0.3272976297392946,-0.09317253422368695,0.27427905797958374,-0.5216459631919861,-0.8078715801239014
1727724519958,7i,0.11892219590409803,0.1s : 1.8s,0.05151228013933611,0.001356229743163312,0.05149442344601211,0.013618529003102372,0.04715774953365326,-0.026729237288236618,0.018550632521510124,0.011618494987487793,0.007006943225860596,-0.0011737346649169922,0.5492194000663281,0.327038042171171,-0.09316410638731439,0.2739955186843872,-0.5220215916633606,-0.807725191116333
1727724519968,7i,0.11892219590409803,0.1s : 1.8s,0.043324514697783624,0.001412708129775978,0.04330147606650995,0.008910878223106294,0.042735837399959564,-0.024663425981998444,0.016528494656085968,0.008046627044677734,-0.0024619698524475098,0.0029315948486328125,0.5497462626281899,0.3267523319032695,-0.09313295625063205,0.27367642521858215,-0.5224708914756775,-0.8075428009033203
1727724519978,7i,0.11892219590409803,0.1s : 1.8s,0.035984346463710286,0.0014524482138680945,0.03595502168830343,0.01404156793348173,0.024757102131843567,-0.024250280112028122,0.018754763528704643,0.0007107257843017578,-0.012460768222808838,0.0064334869384765625,0.5501886589810175,0.3265374397927115,-0.09309210299034182,0.27342870831489563,-0.5228480696678162,-0.8073825836181641
1727724519988,7i,0.11892219590409803,0.1s : 1.8s,0.029512666753520548,0.0014844784413444666,0.029475308694932114,0.021266288636927318,-0.0025624032132327557,-0.022216157987713814,0.018929200246930122,0.0065836310386657715,-0.01613140106201172,0.012193799018859863,0.5505008982464966,0.32594290848045043,-0.09277285291017887,0.27289634943008423,-0.5231142044067383,-0.8073903322219849
1727724519998,7i,0.11892219590409803,0.1s : 1.8s,0.024920474451376382,0.001505702913280412,0.024874945339008126,0.020496608084217705,-0.03244413435459137,-0.022694727405905724,0.023103106766939163,0.0017421245574951172,-0.015053153038024902,0.013801395893096924,0.5503695723630366,0.3257700487169582,-0.09258433620454624,0.27277877926826477,-0.5230022668838501,-0.8075025677680969
1727724520008,7i,0.11892219590409803,0.1s : 1.8s,0.02103216830638678,0.0015270669605217274,0.02097665774536696,0.007607397134263867,-0.03432246297597885,-0.021318405866622925,0.023187793791294098,-0.0005052089691162109,0.0023535490036010742,0.007216513156890869,0.5500610702334667,0.3254658470043094,-0.09226135344195042,0.2725847065448761,-0.5227392911911011,-0.8077383637428284
1727724520018,7i,0.11892219590409803,0.1s : 1.8s,0.01786499854370329,0.0015497345126884775,0.017797654224832638,0.024534474514988323,-0.013821582309901714,-0.017085976898670197,0.024458423256874084,-0.001092463731765747,0.024209678173065186,0.0038260221481323242,0.549870627307052,0.32503901700628923,-0.09187256530274683,0.27227169275283813,-0.5225769281387329,-0.8079489469528198
1727724520028,7i,0.11892219590409803,0.1s : 1.8s,0.01563876104371926,0.0015583351353311526,0.01556092666226994,0.030709479101224627,0.01240895688533783,-0.012651014141738415,0.018385084345936775,-0.00449979305267334,0.030080020427703857,0.004244565963745117,0.5498477340130714,0.3248322765606161,-0.09166058575811664,0.2721084654331207,-0.5225574374198914,-0.8080165386199951
1727724520038,7i,0.11892219590409803,0.1s : 1.8s,0.03881398139472041,0.0014912063192798314,0.03878532525869857,0.04005975678315588,0.036250241100788116,0.03127334266901016,-0.14320437610149384,-0.022825270891189575,0.032898783683776855,-0.0012087821960449219,0.5499682065823702,0.32508336554672385,-0.09206779448308006,0.27229124307632446,-0.5226601362228394,-0.8078885674476624
1727724520048,7i,0.11892219590409803,0.1s : 1.8s,0.2568383734181839,0.0017563877078425048,0.25683236782445906,0.048795464059702566,-0.040305253118276596,0.1865694671869278,-1.130968689918518,0.04252535104751587,0.023881912231445312,-0.0014986991882324219,0.5503453212631783,0.32501361273419416,-0.0923782221187899,0.27217191457748413,-0.522981584072113,-0.8077206611633301
1727724520058,7i,0.11892219590409803,0.1s : 1.8s,0.40304712286608585,0.0029268297589141383,0.40303649576457967,0.1507161639373671,-0.12272902578115463,0.13042576611042023,-1.097316861152649,0.14856797456741333,0.02246415615081787,-0.011759281158447266,0.5514751523926902,0.3235917043843489,-0.09039523135826535,0.2708350718021393,-0.5239442586898804,-0.8075461387634277
1727724520068,7i,0.11892219590409803,0.1s : 1.8s,0.3298029214389971,0.004097841607807143,0.32977746236493266,0.055007361735518144,-0.07090631127357483,-0.0013128286227583885,-0.23354212939739227,0.05498075485229492,-0.0016131401062011719,-0.0005694031715393066,0.5516376424384879,0.32361263984724675,-0.09067691591462264,0.2708249092102051,-0.5240826606750488,-0.8074597716331482
1727724520078,7i,0.11892219590409803,0.1s : 1.8s,0.22304517924062298,0.005070382979021847,0.22298754045669836,0.03798655051699668,-0.037745557725429535,-0.0060465531423687935,0.04332538694143295,-0.033658236265182495,-0.01577579975128174,0.00782465934753418,0.5513480266302281,0.32379937519299484,-0.09108335984705165,0.2710239589214325,-0.5238359570503235,-0.8075530529022217
1727724520088,7i,0.11892219590409803,0.1s : 1.8s,0.1559707703487518,0.005991830735807915,0.15585563566203345,0.025033588741868833,-0.03850162774324417,-0.007701707072556019,0.006673100404441357,0.022999703884124756,-0.0025739669799804688,0.009543001651763916,0.5510291200401342,0.3235043690272726,-0.0908801964165577,0.27083882689476013,-0.5235642790794373,-0.8077912926673889
1727724520098,7i,0.11892219590409803,0.1s : 1.8s,0.11026760587018358,0.006739886821438475,0.1100614320730761,0.015199273859022677,-0.024127483367919922,-0.002971489680930972,-7.754703983664513e-05,-0.010626077651977539,0.010473012924194336,0.002901792526245117,0.550725531782812,0.3233417368666153,-0.09072147091637998,0.27075791358947754,-0.5233056545257568,-0.8079860210418701
1727724520108,7i,0.11892219590409803,0.1s : 1.8s,0.07859183582835107,0.007453935021468878,0.07823755819020815,0.022952120250231182,-0.008404179476201534,-0.010925819166004658,-0.004955126903951168,0.012386828660964966,0.019299089908599854,-0.0009546875953674316,0.5505540834120791,0.32324654418056653,-0.09067747835794111,0.2707095146179199,-0.5231595039367676,-0.8080968260765076
1727724520118,7i,0.11892219590409803,0.1s : 1.8s,0.06288169764869217,0.008137822154163121,0.062352896883535014,0.02079379788721325,0.00891835056245327,-0.01165383867919445,-0.04108550027012825,0.013938605785369873,0.014904797077178955,-0.003993034362792969,0.5505364313027848,0.32317308507423376,-0.0906505314850028,0.2706530690193176,-0.5231444835662842,-0.8081254363059998
1727724520128,7i,0.11892219590409803,0.1s : 1.8s,0.06109068148148769,0.00880427502075461,0.060452924703702296,0.024922475163102427,0.033981360495090485,-0.006572526879608631,-0.07112062722444534,0.0183943510055542,0.014557421207427979,-0.008417785167694092,0.550701850410877,0.32320688509727985,-0.09080217126711836,0.2706528902053833,-0.523285448551178,-0.8080342411994934
1727724520138,7i,0.11892219590409803,0.1s : 1.8s,0.06225520404957511,0.009476700106427868,0.061529688657972766,0.032785741376904744,0.04663243889808655,0.00035257916897535324,-0.1051577553153038,0.03088134527206421,0.00889652967453003,-0.006488382816314697,0.5510242890636021,0.3233233499047759,-0.09107506674756302,0.2706933915615082,-0.5235601663589478,-0.8078426718711853
1727724520148,7i,0.11892219590409803,0.1s : 1.8s,0.0719061746548744,0.010164248170306632,0.07118416967718116,0.04064341177627376,0.03998918458819389,0.006735909730195999,-0.13825686275959015,0.04045131802558899,-0.0035681724548339844,-0.0016869902610778809,0.551366651388983,0.32344717022811553,-0.09135336239792408,0.270736426115036,-0.5238518714904785,-0.8076391816139221
1727724520158,7i,0.11892219590409803,0.1s : 1.8s,0.08665621701712464,0.010884798211880441,0.08596988493423524,0.05167081410074972,0.024436190724372864,0.013306505978107452,-0.17758992314338684,0.05071413516998291,-0.00965118408203125,0.0021918416023254395,0.551605691253841,0.3235043623064322,-0.09155189766266955,0.270742803812027,-0.5240554213523865,-0.8075049519538879
1727724520168,7i,0.11892219590409803,0.1s : 1.8s,0.10417285635219097,0.011710376830313481,0.10351256481735088,0.061669819421369086,0.007775188889354467,0.023731982335448265,-0.2143940031528473,0.06139209866523743,-0.0036995410919189453,0.004526615142822266,0.551714012010903,0.3234739425705481,-0.09162351621861319,0.2707001864910126,-0.5241476893424988,-0.8074593544006348
1727724520178,7i,0.11892219590409803,0.1s : 1.8s,0.12604975372294205,0.012689496896445622,0.1254093979019493,0.07005328157075463,-0.011449371464550495,0.03630654141306877,-0.26171624660491943,0.06972813606262207,0.003993868827819824,0.005431234836578369,0.5516816980478084,0.3233480343907454,-0.09151105550515376,0.27060389518737793,-0.5241201519966125,-0.8075094819068909
1727724520188,7i,0.11892219590409803,0.1s : 1.8s,0.15325497718803857,0.013819653643150786,0.15263061686991103,0.07599806786119338,-0.019904375076293945,0.05332467332482338,-0.3181670010089874,0.07512429356575012,0.011483848094940186,-0.0004099607467651367,0.5515538296682327,0.32317726727904256,-0.09129640426108095,0.27048730850219727,-0.5240112543106079,-0.8076192736625671
1727724520198,7i,0.11892219590409803,0.1s : 1.8s,0.18554061331481955,0.015106122508444605,0.18492464479349222,0.08281411610045396,-0.019924482330679893,0.06769327074289322,-0.38181620836257935,0.08038097620010376,0.019521594047546387,-0.003997981548309326,0.5514062326521395,0.3230051566874296,-0.09106180743210132,0.27037283778190613,-0.5238855481147766,-0.8077390789985657
1727724520208,7i,0.11892219590409803,0.1s : 1.8s,0.21866369264363855,0.016487955185777066,0.21804118375743473,0.08395161723791085,-0.017243212088942528,0.08226022869348526,-0.4321826994419098,0.08009284734725952,0.0244290828704834,-0.006019115447998047,0.5513098119951945,0.3228130996669877,-0.09083868416920955,0.27023372054100037,-0.5238034129142761,-0.8078389167785645
1727724520218,7i,0.11892219590409803,0.1s : 1.8s,0.2465700064231661,0.017899818276474924,0.2459194269942685,0.07523291872970075,-0.003170536132529378,0.08968184143304825,-0.45484212040901184,0.07086169719696045,0.02344447374343872,-0.009432315826416016,0.5512645731317672,0.3228221203618365,-0.09084480334783668,0.27024853229522705,-0.5237649083137512,-0.807858943939209
1727724520228,7i,0.11892219590409803,0.1s : 1.8s,0.2708217085584948,0.019337459130400764,0.27013045089534493,0.07488302334209039,0.003261796897277236,0.09069596976041794,-0.4783322513103485,0.07140004634857178,0.019880235195159912,-0.010690033435821533,0.551361544282252,0.32295014277043893,-0.09099964087122918,0.2703358232975006,-0.5238475203514099,-0.807776153087616
1727724520238,7i,0.11892219590409803,0.1s : 1.8s,0.291194666547809,0.020792159863095374,0.2904514071477657,0.07242525477025048,0.0010875922162085772,0.09143606573343277,-0.49512696266174316,0.07153460383415222,0.009816944599151611,-0.005643188953399658,0.5515136495848212,0.32319269378336096,-0.09128736455730692,0.27050644159317017,-0.5239770412445068,-0.8076350092887878
1727724520248,7i,0.11892219590409803,0.1s : 1.8s,0.30769077819678675,0.022256183208819006,0.30688479482750475,0.06974153587252607,-0.003309553023427725,0.0960095077753067,-0.5053955912590027,0.06914055347442627,0.00839143991470337,-0.0036123991012573242,0.5516494505460623,0.3235021678109598,-0.09161341842666736,0.2707337439060211,-0.5240927338600159,-0.8074837923049927
1727724520258,7i,0.11892219590409803,0.1s : 1.8s,0.3195589382784618,0.023725877705259857,0.318676948900878,0.06922517567850482,-0.015258357860147953,0.0953194797039032,-0.5068514347076416,0.06910938024520874,0.0040010809898376465,-9.930133819580078e-05,0.5517618398347286,0.3236206489883472,-0.09178887103303378,0.27081066370010376,-0.5241883993148804,-0.807395875453949
1727724520268,7i,0.11892219590409803,0.1s : 1.8s,0.3261991461516807,0.025202258463612418,0.3252241213662031,0.07039256453230489,-0.033712200820446014,0.0925641730427742,-0.5021378993988037,0.07036817073822021,0.0016560554504394531,0.0008313655853271484,0.5518033685567908,0.3236576623801278,-0.09185108056455848,0.2708336412906647,-0.524223804473877,-0.8073651790618896
1727724520278,7i,0.11892219590409803,0.1s : 1.8s,0.32857538137316317,0.026674795000589686,0.3274908190410781,0.06615426612439147,-0.04834986478090286,0.09286054223775864,-0.4981454908847809,0.06614401936531067,-0.0005061030387878418,-0.0010485649108886719,0.5517370617026399,0.32362190339260244,-0.09177194592017843,0.27081581950187683,-0.5241672992706299,-0.8074078559875488
1727724520288,7i,0.11892219590409803,0.1s : 1.8s,0.32970620581208876,0.02814487540455302,0.32850273688276277,0.06650293267457312,-0.061538904905319214,0.08972440659999847,-0.4927917420864105,0.06647324562072754,-0.0007171630859375,-0.0018529295921325684,0.5515966744283829,0.3235253537478433,-0.09159701297211413,0.27076125144958496,-0.5240477919578552,-0.8075037598609924
1727724520298,7i,0.11892219590409803,0.1s : 1.8s,0.33020808210587477,0.02962104035242421,0.328876833262059,0.0692112618979002,-0.06527812033891678,0.08525841683149338,-0.48494791984558105,0.06909975409507751,0.0038535594940185547,-0.0007568597793579102,0.5514094489581937,0.3233709173595628,-0.09134188322031737,0.27066770195961,-0.5238882899284363,-0.8076385855674744
1727724520308,7i,0.11892219590409803,0.1s : 1.8s,0.33034099839077674,0.031102342465270064,0.3288735615871063,0.06841393823737243,-0.0643571987748146,0.08401978015899658,-0.47975954413414,0.06793078780174255,0.008110582828521729,0.0003057122230529785,0.5512301111504128,0.3232131953834339,-0.09108788447252504,0.27057015895843506,-0.523735523223877,-0.807770311832428
1727724520318,7i,0.11892219590409803,0.1s : 1.8s,0.3300132387478784,0.03257824236136256,0.32840127264294894,0.06420062465936087,-0.06254038214683533,0.0852336511015892,-0.4722929000854492,0.06371888518333435,0.006965577602386475,0.0036200284957885742,0.5510861779733504,0.3230708373531947,-0.09084129413438591,0.27047911286354065,-0.523612916469574,-0.8078802824020386
1727724520328,7i,0.11892219590409803,0.1s : 1.8s,0.32930429816503626,0.03404194356435743,0.3275400233075772,0.06063254682358212,-0.05590272322297096,0.08635351061820984,-0.4657875895500183,0.05957785248756409,0.010507047176361084,0.00404810905456543,0.5509982963471224,0.32300342980865127,-0.09064822443801301,0.2704392373561859,-0.5235380530357361,-0.8079421520233154
1727724520338,7i,0.11892219590409803,0.1s : 1.8s,0.32785504438805785,0.035481033994020486,0.3259294806509692,0.054418268642690566,-0.05032113566994667,0.08788388967514038,-0.455768883228302,0.05337563157081604,0.010266363620758057,0.002644181251525879,0.5509665416870753,0.3230057494365342,-0.09051194764109585,0.27044638991355896,-0.5235109925270081,-0.8079572916030884
1727724520348,7i,0.11892219590409803,0.1s : 1.8s,0.32524187526121023,0.03688319981624344,0.323143786873187,0.047932625727259974,-0.03600957617163658,0.09292871505022049,-0.44880151748657227,0.04547441005706787,0.0150565505027771,-0.001707315444946289,0.5510190118189383,0.3231452264757518,-0.0904858110559527,0.27055037021636963,-0.5235556960105896,-0.8078935146331787
1727724520358,7i,0.11892219590409803,0.1s : 1.8s,0.3199320071088259,0.03824270878637751,0.3176381343563177,0.044264934351929915,-0.02414492703974247,0.09639872610569,-0.4363921582698822,0.040876299142837524,0.016312062740325928,-0.0047359466552734375,0.5511851918871382,0.32343146192520755,-0.09058708211699461,0.2707539498806,-0.5236972570419312,-0.8077335357666016
1727724520368,7i,0.11892219590409803,0.1s : 1.8s,0.31170253864913283,0.03954074108760032,0.3091844148636175,0.03859114442160236,-0.02841823548078537,0.0971638560295105,-0.4194827079772949,0.03809535503387451,0.004572927951812744,-0.004136264324188232,0.5513761878139047,0.3237967570482267,-0.09075003600650094,0.2710171639919281,-0.523859977722168,-0.8075397610664368
1727724520378,7i,0.11892219590409803,0.1s : 1.8s,0.30245858508314455,0.04078851006137895,0.29969566753203253,0.03841559955881641,-0.04744226112961769,0.09582047164440155,-0.39999476075172424,0.037784069776535034,-0.006790518760681152,0.0014181733131408691,0.5514350617146805,0.32419447567211646,-0.09090525468720126,0.27132847905158997,-0.5239101052284241,-0.8074026703834534
1727724520388,7i,0.11892219590409803,0.1s : 1.8s,0.29181860398126575,0.041985360178991,0.28878249109011994,0.03840765507083975,-0.06466279178857803,0.0917716696858406,-0.3770851790904999,0.036287784576416016,-0.012202143669128418,0.003074467182159424,0.5512979368086304,0.32458303193887655,-0.09100642244855532,0.271665096282959,-0.5237933397293091,-0.8073652386665344
1727724520398,7i,0.11892219590409803,0.1s : 1.8s,0.27959265801160926,0.043132293548528024,0.27624565094719644,0.037167148935684936,-0.07514872401952744,0.08723266422748566,-0.351062148809433,0.03449717164039612,-0.012946724891662598,0.004870772361755371,0.5510149676595558,0.32494685215649866,-0.09105649930334536,0.2720061242580414,-0.5235522389411926,-0.8074067831039429
1727724520408,7i,0.11892219590409803,0.1s : 1.8s,0.26541339965152716,0.04423312238330023,0.261701554444763,0.03461476175073303,-0.08289266377687454,0.07986555993556976,-0.32104194164276123,0.03282049298286438,-0.007521092891693115,0.008026838302612305,0.5506133944586041,0.3252394371966989,-0.09103726021277501,0.2723095118999481,-0.5232100486755371,-0.8075263500213623
1727724520418,7i,0.11892219590409803,0.1s : 1.8s,0.24953338325155006,0.04527478320210872,0.24539173450417398,0.02818871392531571,-0.07827327400445938,0.07198753207921982,-0.2911682426929474,0.02728453278541565,-0.0019717812538146973,0.006802201271057129,0.550178009602382,0.3254857145784594,-0.09096791006859639,0.27258118987083435,-0.5228389501571655,-0.8076750040054321
1727724520428,7i,0.11892219590409803,0.1s : 1.8s,0.23162362029463482,0.046204266231665875,0.22696842789336694,0.019193605614112253,-0.056219641119241714,0.06453759968280792,-0.2605094015598297,0.01738026738166809,0.008081018924713135,0.0010089278221130371,0.5498526401689154,0.32572225839448193,-0.09094037553476511,0.2728266417980194,-0.5225616097450256,-0.807771623134613
1727724520438,7i,0.11892219590409803,0.1s : 1.8s,0.2120363033786136,0.04707862151575469,0.2067437963921621,0.02603654248125701,-0.021411458030343056,0.06044711917638779,-0.22995445132255554,0.012715697288513184,0.02226579189300537,-0.004521846771240234,0.5497740872369108,0.32600252384771156,-0.09099997060129726,0.2730661630630493,-0.5224946141242981,-0.8077340126037598
1727724520448,7i,0.11892219590409803,0.1s : 1.8s,0.1917447498839192,0.04790084568895337,0.18566517737672245,0.02679449221271187,0.010991223156452179,0.05569497495889664,-0.19943170249462128,0.011354625225067139,0.023894906044006348,-0.004248619079589844,0.5499846682254991,0.3263522309891583,-0.0912075671301651,0.27331334352493286,-0.5226741433143616,-0.8075342178344727
1727724520458,7i,0.11892219590409803,0.1s : 1.8s,0.17209254723375522,0.048668841909065876,0.1650672246105587,0.016928026491031728,0.022526703774929047,0.04656512662768364,-0.17089465260505676,0.010211676359176636,0.013390123844146729,0.0017275214195251465,0.5503706145112668,0.32673297182979355,-0.09150274329242254,0.27355602383613586,-0.5230031609535217,-0.8072389960289001
1727724520468,7i,0.11892219590409803,0.1s : 1.8s,0.15261191133214952,0.04932710368667532,0.14442033209467373,0.00884284187107286,0.015166793018579483,0.042201004922389984,-0.13810715079307556,0.003146052360534668,-0.0007790923118591309,0.00822746753692627,0.5507180463791784,0.32710877033111907,-0.09182249072184787,0.27380096912384033,-0.5232992172241211,-0.8069640398025513
1727724520478,7i,0.11892219590409803,0.1s : 1.8s,0.13332212999618456,0.04991533087370045,0.12362544273121347,0.018558551295320785,-0.007443178445100784,0.03942252695560455,-0.10501179099082947,0.0001652836799621582,-0.008974552154541016,0.016243457794189453,0.550877461997617,0.3274700964526821,-0.0920686714847861,0.27406570315361023,-0.5234350562095642,-0.806786060333252
1727724520488,7i,0.11892219590409803,0.1s : 1.8s,0.11360511320266824,0.050432121907982394,0.10179745981923843,0.02472159432144903,-0.03949325531721115,0.03653299808502197,-0.06519965827465057,-0.002941310405731201,-0.012572526931762695,0.02108168601989746,0.5507378262125299,0.32777366944412434,-0.09216476058044765,0.2743341326713562,-0.5233160853385925,-0.806771993637085
1727724520498,7i,0.11892219590409803,0.1s : 1.8s,0.09631936713463746,0.050875998289084005,0.08178663266883042,0.025431952208037956,-0.05848824977874756,0.03491876646876335,-0.03274790942668915,-0.007685422897338867,-0.008898556232452393,0.02255070209503174,0.5503041345001624,0.32804075036834107,-0.09212258398755821,0.27462267875671387,-0.5229464769363403,-0.8069134950637817
1727724520508,7i,0.11892219590409803,0.1s : 1.8s,0.08394079151928628,0.05125245918522029,0.06647737892209359,0.018224482789353666,-0.06050160154700279,0.03411662206053734,-0.015561199747025967,-0.011074364185333252,0.003095269203186035,0.014138936996459961,0.5496603057910573,0.32843759368699604,-0.09212728698324418,0.27505144476890564,-0.5223975777626038,-0.8071229457855225
1727724520518,7i,0.11892219590409803,0.1s : 1.8s,0.07676022526511593,0.05158390060442271,0.056843938825387366,0.0187923680060005,-0.040662650018930435,0.03140206262469292,-0.025576483458280563,-0.0068510472774505615,0.017296135425567627,0.0026570558547973633,0.5489924404533115,0.3288315948288415,-0.0921945419045782,0.27548202872276306,-0.5218279957771301,-0.8073445558547974
1727724520528,7i,0.11892219590409803,0.1s : 1.8s,0.0711361322222395,0.051884632144242986,0.04866553456807527,0.026246220482738808,-0.012781484983861446,0.028102140873670578,-0.032680463045835495,-0.004059255123138428,0.02584695816040039,-0.0020787715911865234,0.5485342990950814,0.32928470007115623,-0.09243744511316705,0.2759250998497009,-0.5214371085166931,-0.807445764541626
1727724520538,7i,0.11892219590409803,0.1s : 1.8s,0.06830136608022652,0.05215384954062206,0.044102750328287615,0.019534471739884804,0.006851071957498789,0.024032296612858772,-0.03566133975982666,-0.004524141550064087,0.01899731159210205,0.0004794597625732422,0.5483572907903632,0.32978570231297233,-0.09283733638544905,0.2763594686985016,-0.5212860703468323,-0.8073947429656982
1727724520548,7i,0.11892219590409803,0.1s : 1.8s,0.06617253435006298,0.05239275623721343,0.04042033394441713,0.011649773806989935,0.008357622660696507,0.018740862607955933,-0.03312893956899643,-0.0028979480266571045,0.005997419357299805,0.009557723999023438,0.5483579966758084,0.33022857539466277,-0.0932645000467956,0.2767169177532196,-0.52128666639328,-0.8072719573974609
1727724520558,7i,0.11892219590409803,0.1s : 1.8s,0.06484127308221722,0.052594662997860704,0.03792350351779395,0.02232442780938436,-0.004823027644306421,0.020677467808127403,-0.028478892520070076,-0.00446668267250061,-0.008706748485565186,0.02006542682647705,0.5483642358403286,0.3306232521999401,-0.09363222593537424,0.2770344316959381,-0.5212920308113098,-0.8071595430374146
1727724520568,7i,0.11892219590409803,0.1s : 1.8s,0.06437732012335663,0.05275468432619067,0.03689691894872947,0.03171912016021619,-0.024141596630215645,0.02619926631450653,-0.02537151798605919,-0.007144361734390259,-0.015502333641052246,0.026734590530395508,0.5482505878925289,0.3309866594941978,-0.09387793145847695,0.27734699845314026,-0.5211949944496155,-0.807114839553833
1727724520578,7i,0.11892219590409803,0.1s : 1.8s,0.06428493307787321,0.05286986524442759,0.036569522417755275,0.03278836616861321,-0.04338453337550163,0.03390379250049591,-0.022289376705884933,-0.009256929159164429,-0.013227343559265137,0.028538107872009277,0.5479483606943556,0.33134764790053556,-0.0939958241946821,0.2776895761489868,-0.5209370851516724,-0.8071635961532593
1727724520588,7i,0.11892219590409803,0.1s : 1.8s,0.0645316259850385,0.05295712640482407,0.036876462889170666,0.0229470922497111,-0.04594303295016289,0.039825864136219025,-0.02623884379863739,-0.007230907678604126,-0.005099236965179443,0.021172642707824707,0.5474779868916331,0.33172564937528964,-0.0940715508353222,0.2780744433403015,-0.5205354690551758,-0.8072901964187622
1727724520598,7i,0.11892219590409803,0.1s : 1.8s,0.06526663214393175,0.0530230951664754,0.03805633522001557,0.02011762289714299,-0.050475068390369415,0.044281285256147385,-0.03499715030193329,-0.006968379020690918,0.0015604496002197266,0.018807590007781982,0.5468785141750734,0.3321817469655242,-0.09420643956073162,0.2785443067550659,-0.5200235247612,-0.8074581027030945
1727724520608,7i,0.11892219590409803,0.1s : 1.8s,0.06745589492427836,0.05306939572591982,0.04164056912820726,0.01886152675740748,-0.059266429394483566,0.04619583487510681,-0.04299222677946091,-0.006176888942718506,-0.004208862781524658,0.01731729507446289,0.5461623393792491,0.3327139961660455,-0.09440526141957847,0.2790955901145935,-0.5194116830825806,-0.8076615333557129
1727724520618,7i,0.11892219590409803,0.1s : 1.8s,0.07070292893809349,0.053091184020901856,0.04669293672156243,0.016100443195160956,-0.05891835317015648,0.04975026845932007,-0.0557214692234993,-0.009125202894210815,-0.004933595657348633,0.01231318712234497,0.5454036879299459,0.3333332842980444,-0.09471101182534267,0.2797245681285858,-0.5187632441520691,-0.8078606724739075
1727724520628,7i,0.11892219590409803,0.1s : 1.8s,0.07363948150810362,0.053092494910084026,0.05102901352177049,0.013018224870929854,-0.059369757771492004,0.05331277847290039,-0.06112794950604439,-0.00894618034362793,-0.0019605159759521484,0.009251832962036133,0.5446692919552808,0.3340527376908372,-0.09512148565903476,0.28043055534362793,-0.5181352496147156,-0.8080189228057861
1727724520638,7i,0.11892219590409803,0.1s : 1.8s,0.07579435949084208,0.053066369740325595,0.0541178836726831,0.016505652850343583,-0.06052836775779724,0.053748246282339096,-0.06382889300584793,-0.012196511030197144,-0.006323099136352539,0.009148776531219482,0.5439753426811537,0.3348134006769654,-0.09557624376012651,0.28116318583488464,-0.5175415873527527,-0.808144748210907
1727724520648,7i,0.11892219590409803,0.1s : 1.8s,0.07852133013453422,0.0530029989167977,0.0579334220629375,0.021747211331444798,-0.07021162658929825,0.05797042325139046,-0.06198199465870857,-0.01740819215774536,-0.00908750295639038,0.009344160556793213,0.5432770381933871,0.3356019458936434,-0.09602659777945691,0.28191933035850525,-0.5169439911842346,-0.8082638382911682
1727724520658,7i,0.11892219590409803,0.1s : 1.8s,0.0812766135646217,0.05290290772450345,0.06170227116424094,0.02567950765036126,-0.08063630014657974,0.058946918696165085,-0.058880142867565155,-0.01872745156288147,-0.011139154434204102,0.013588190078735352,0.5424847404598995,0.3363686243407128,-0.09640027635952413,0.28267398476600647,-0.5162655711174011,-0.8084337711334229
1727724520668,7i,0.11892219590409803,0.1s : 1.8s,0.08501141797310359,0.05278120675215404,0.06664146906832177,0.024408394251202697,-0.0969441682100296,0.06040925905108452,-0.0521567277610302,-0.014312535524368286,-0.008872687816619873,0.017669081687927246,0.5415502069254485,0.33708997196962415,-0.09666095516880129,0.2834165394306183,-0.5154650211334229,-0.8086846470832825
1727724520678,7i,0.11892219590409803,0.1s : 1.8s,0.0912690364648245,0.052648534281794286,0.07455312773583811,0.02938461589775545,-0.12426672875881195,0.05758226662874222,-0.042966991662979126,-0.009431540966033936,-0.016539573669433594,0.02238178253173828,0.5404028970799709,0.33771819246056206,-0.09675058550509623,0.2841202914714813,-0.5144815444946289,-0.8090639114379883
1727724520688,7i,0.11892219590409803,0.1s : 1.8s,0.09892923353519961,0.052516863355884125,0.08383896654373466,0.032843604320473396,-0.1508892923593521,0.049566417932510376,-0.036409489810466766,-0.0040329694747924805,-0.021254003047943115,0.024712443351745605,0.53903389327934,0.3381878546293135,-0.09663178891566108,0.2847336530685425,-0.5133070945739746,-0.8095940947532654
1727724520698,7i,0.11892219590409803,0.1s : 1.8s,0.10268885414413019,0.05239741958956359,0.0883148412543988,0.017637789992003185,-0.14970098435878754,0.035716649144887924,-0.03561653196811676,-0.0006820857524871826,-0.009763062000274658,0.014673411846160889,0.5375422826703768,0.3384659943407829,-0.09641063935164,0.2852127254009247,-0.5120264291763306,-0.8102361559867859
1727724520708,7i,0.11892219590409803,0.1s : 1.8s,0.1023311885919145,0.052307684080086306,0.08795213666996304,0.01995699029992488,-0.12275592237710953,0.022011490538716316,-0.033588532358407974,0.003031224012374878,0.017842769622802734,0.008410036563873291,0.5361958739818845,0.3386289159146979,-0.09623661987974996,0.28557348251342773,-0.5108694434165955,-0.8108391761779785
1727724520718,7i,0.11892219590409803,0.1s : 1.8s,0.09474945229946162,0.052232675942870205,0.07905192138648535,0.034959452475256024,-0.08027704060077667,0.00991448201239109,-0.037455879151821136,-0.005082577466964722,0.03432983160018921,0.0042182207107543945,0.5351755347543777,0.33873066180648953,-0.09620139710546557,0.2858290374279022,-0.5099920630455017,-0.8113013505935669
1727724520728,7i,0.11892219590409803,0.1s : 1.8s,0.08295049579830682,0.05214043092832252,0.06451480617496845,0.04783991879683668,-0.03001759573817253,0.004469116218388081,-0.04558970406651497,-0.015386492013931274,0.0452042818069458,-0.002913177013397217,0.5346020121569357,0.3388605736633002,-0.09640378364635206,0.2860316336154938,-0.5094985961914062,-0.8115399479866028
1727724520738,7i,0.11892219590409803,0.1s : 1.8s,0.07370848329687597,0.05202219861504247,0.05221715581284486,0.03953045989925224,-0.00648284237831831,0.00028160586953163147,-0.05594271048903465,-0.020026326179504395,0.033962786197662354,-0.0028517842292785645,0.53437642722975,0.3390781514459075,-0.09686914036301875,0.2862464189529419,-0.5093045234680176,-0.8115860223770142
1727724520748,7i,0.11892219590409803,0.1s : 1.8s,0.07241292876622886,0.051872554175610125,0.050525937653855844,0.025481387215808036,-0.015867289155721664,-0.000912821851670742,-0.06588083505630493,-0.02321299910545349,0.010497868061065674,0.0005025267601013184,0.5341850640526495,0.339354858430385,-0.09748021298280621,0.286503404378891,-0.5091398358345032,-0.8115987181663513
1727724520758,7i,0.11892219590409803,0.1s : 1.8s,0.07270630202149796,0.051684060897971645,0.05113672068813209,0.026390980690632036,-0.04863269627094269,-0.0023024592082947493,-0.0753912478685379,-0.023793846368789673,-0.011014461517333984,0.003003060817718506,0.533780338173731,0.3396664018906221,-0.09812512033294829,0.28682488203048706,-0.508791446685791,-0.811703622341156
1727724520768,7i,0.11892219590409803,0.1s : 1.8s,0.07839841711499385,0.05146775205731941,0.059138670126262165,0.029783688323790535,-0.08660590648651123,-0.0037826441694051027,-0.07962460815906525,-0.018210947513580322,-0.022444963455200195,0.007187008857727051,0.5330341457568308,0.33994511523070875,-0.09871138068900477,0.28717759251594543,-0.5081489086151123,-0.8119813203811646
1727724520778,7i,0.11892219590409803,0.1s : 1.8s,0.08734492950807805,0.05123978497531672,0.07073627885642862,0.03085545842202327,-0.12619805335998535,-0.0036605822388082743,-0.07743528485298157,-0.011294573545455933,-0.02651315927505493,0.011024713516235352,0.5318366737787162,0.3401600738042015,-0.09917104298640231,0.28755494952201843,-0.5071172118186951,-0.8124926090240479
1727724520788,7i,0.11892219590409803,0.1s : 1.8s,0.0968960888755054,0.05101041561344696,0.08238197338200419,0.028890322876631964,-0.14416028559207916,-0.004995092749595642,-0.0797535702586174,-0.006859481334686279,-0.02625793218612671,0.009905517101287842,0.530256882244383,0.3403073364489281,-0.09951749819315384,0.2879416346549988,-0.5057549476623535,-0.8132044672966003
1727724520798,7i,0.11892219590409803,0.1s : 1.8s,0.10029882489403016,0.05079508198487969,0.08648533934299314,0.010051381925816475,-0.13213518261909485,-0.007311909459531307,-0.07720143347978592,-0.0030572712421417236,-0.008511662483215332,0.004385769367218018,0.5285953815918398,0.34039100881760054,-0.09982967472651047,0.2882898449897766,-0.5043209195137024,-0.8139713406562805
1727724520808,7i,0.11892219590409803,0.1s : 1.8s,0.10003077016190028,0.050599134364613434,0.08628952764232004,0.0026726625788113154,-0.09982704371213913,-0.00856279581785202,-0.07731141895055771,-0.0017703473567962646,0.0019748806953430176,0.0003299117088317871,0.5271160994090619,0.3404351814889118,-0.10018643245991544,0.28857457637786865,-0.503042995929718,-0.8146609663963318
1727724520818,7i,0.11892219590409803,0.1s : 1.8s,0.09610920274194994,0.05041807898980119,0.08182295620833682,0.006351295737412381,-0.06275317072868347,-0.005824001505970955,-0.07594714313745499,-0.0024024546146392822,0.0028221607208251953,-0.005157768726348877,0.5260133943728351,0.34053434643195035,-0.10065400131903827,0.2888404428958893,-0.5020896792411804,-0.8151546716690063
1727724520828,7i,0.11892219590409803,0.1s : 1.8s,0.08745943344400939,0.05024803831180874,0.07158412634210262,0.007633775801674577,-0.03206343576312065,-0.005866078659892082,-0.07235214114189148,-0.002127617597579956,-0.0017843246459960938,-0.0071108341217041016,0.5253450496526776,0.3406774612730332,-0.10123038125752942,0.28906914591789246,-0.5015115737915039,-0.8154294490814209
1727724520838,7i,0.11892219590409803,0.1s : 1.8s,0.08078775631777514,0.05008860863327451,0.06338606200138067,0.015464450853298378,-0.0192127525806427,-0.0066253021359443665,-0.06664402037858963,0.000980079174041748,-0.012390077114105225,-0.009201884269714355,0.5249912963844847,0.3408355208512043,-0.1018390059505564,0.28925731778144836,-0.5012054443359375,-0.8155509233474731
1727724520848,7i,0.11892219590409803,0.1s : 1.8s,0.07852513641451858,0.04993829806730802,0.06060002834206805,0.029065407434585296,-0.034769076853990555,-0.0092365313321352,-0.05883830040693283,0.003683716058731079,-0.02810579538345337,-0.006425917148590088,0.5246925558223028,0.3409577901309242,-0.10237313026843232,0.2894071042537689,-0.5009469389915466,-0.8156566023826599
1727724520858,7i,0.11892219590409803,0.1s : 1.8s,0.07816059973940331,0.04982920841157132,0.06021735082764272,0.04065227224811275,-0.06848350167274475,-0.011745717376470566,-0.05199088156223297,0.010132849216461182,-0.039369046688079834,0.00010377168655395508,0.5241787239705958,0.34100850292135365,-0.10274766413984908,0.2895345091819763,-0.5005021691322327,-0.8158844113349915
1727724520868,7i,0.11892219590409803,0.1s : 1.8s,0.07942326715387525,0.04975956007757958,0.06190348573611657,0.04164269889070574,-0.1055416539311409,-0.015565489418804646,-0.04408448562026024,0.011858463287353516,-0.03939446806907654,0.006447255611419678,0.523321174515624,0.3409432561443965,-0.1029180367103945,0.2896246910095215,-0.49975958466529846,-0.8163074851036072
1727724520878,7i,0.11892219590409803,0.1s : 1.8s,0.08533258403199756,0.049714817883887805,0.06935478916664513,0.03719981817296962,-0.13221466541290283,-0.01798173226416111,-0.038709063082933426,0.012452811002731323,-0.03325757384300232,0.01107645034790039,0.5221269413238518,0.34075618484001047,-0.10290033230646652,0.28967124223709106,-0.4987248182296753,-0.8169235587120056
1727724520888,7i,0.11892219590409803,0.1s : 1.8s,0.0914584035447469,0.049689672579439396,0.07678265440776243,0.025216403989511943,-0.13791276514530182,-0.016024308279156685,-0.039235834032297134,0.007142364978790283,-0.018866777420043945,0.015129387378692627,0.5207212130078565,0.3405264165778764,-0.10279317632795193,0.2897173762321472,-0.49750590324401855,-0.8176501393318176
1727724520898,7i,0.11892219590409803,0.1s : 1.8s,0.09211780890818505,0.049675842159965525,0.07757577858934507,0.010096014634789997,-0.11571572721004486,-0.013375305570662022,-0.04922405257821083,0.0007726848125457764,0.0020580291748046875,0.009853780269622803,0.5193554373518606,0.3403508989566291,-0.10276347136330344,0.28980040550231934,-0.4963206648826599,-0.8183407187461853
1727724520908,7i,0.11892219590409803,0.1s : 1.8s,0.08773916012484229,0.04965863874601133,0.07233380825938765,0.0263317898198152,-0.05601324513554573,-0.005470245145261288,-0.06263387203216553,-0.007764339447021484,0.025112569332122803,-0.0015611052513122559,0.5183697499141652,0.34036562694015526,-0.10302662744859581,0.289975643157959,-0.4954647123813629,-0.8187971711158752
1727724520918,7i,0.11892219590409803,0.1s : 1.8s,0.07990100889805485,0.04960766901324804,0.06263585553019188,0.04133851934084376,-0.001400066539645195,0.00465802289545536,-0.0752691701054573,-0.015591442584991455,0.0377236008644104,-0.00653529167175293,0.5179214371220141,0.34066560881699376,-0.10366537867330093,0.29029545187950134,-0.4950752556324005,-0.8189194202423096
1727724520928,7i,0.11892219590409803,0.1s : 1.8s,0.07689427985920227,0.049526393922238565,0.05882063056551307,0.03136744102230007,0.023924730718135834,0.008099626749753952,-0.08323415368795395,-0.014753639698028564,0.027007967233657837,-0.006067633628845215,0.5178641929857617,0.34119618004710034,-0.10458735962564367,0.29073938727378845,-0.49502551555633545,-0.8187920451164246
1727724520938,7i,0.11892219590409803,0.1s : 1.8s,0.07488737444909126,0.04943330856103711,0.056253594165952645,0.013886949792986948,0.017883483320474625,0.01113931369036436,-0.08585400879383087,-0.010356545448303223,0.00875478982925415,-0.0029904842376708984,0.5179126569559825,0.341817907082077,-0.10560834893017014,0.2912403345108032,-0.49506762623786926,-0.8185884952545166
1727724520948,7i,0.11892219590409803,0.1s : 1.8s,0.07431539215552535,0.049334129180736125,0.055578064100937866,0.010656317331591184,-0.014196688309311867,0.009376566857099533,-0.08427155762910843,-0.00614503026008606,-0.007977515459060669,0.0034863948822021484,0.5177797666315546,0.3424246724751958,-0.10656576021386989,0.29175907373428345,-0.49495214223861694,-0.8184735774993896
1727724520958,7i,0.11892219590409803,0.1s : 1.8s,0.07483772332296146,0.04923819483807945,0.056358539736684594,0.01725048051884335,-0.04563876613974571,0.0037688380107283592,-0.08413679152727127,-0.0016691386699676514,-0.014679104089736938,0.008906006813049316,0.5173198025704433,0.3429402522357443,-0.10738524453977955,0.29225754737854004,-0.4945524334907532,-0.8185374140739441
1727724520968,7i,0.11892219590409803,0.1s : 1.8s,0.075652571520618,0.04915507107143747,0.05750730880196145,0.011091773357356073,-0.06858722120523453,0.00630123820155859,-0.07506393641233444,0.0012462437152862549,-0.006145894527435303,0.009148895740509033,0.5166042549375259,0.34335291785102495,-0.10804867834077406,0.29271435737609863,-0.4939303994178772,-0.818749725818634
1727724520978,7i,0.11892219590409803,0.1s : 1.8s,0.07652034678318652,0.049085887172693896,0.05870212221281857,0.007847693073242875,-0.0818721354007721,0.002449330408126116,-0.06700415164232254,0.0009754002094268799,0.002608388662338257,0.007336974143981934,0.5156694980821458,0.34362436002653396,-0.10852907232793138,0.2930920124053955,-0.49311739206314087,-0.8191045522689819
1727724520988,7i,0.11892219590409803,0.1s : 1.8s,0.07730547338467811,0.04902521497689471,0.059771770190437175,0.01373136060204322,-0.08748181909322739,0.0033433535136282444,-0.06162696331739426,-0.0022651851177215576,0.013082355260848999,0.0035030245780944824,0.5145897321625135,0.3437849802488897,-0.10885882347871387,0.29340285062789917,-0.4921777546405792,-0.819558322429657
1727724520998,7i,0.11892219590409803,0.1s : 1.8s,0.07760789717572227,0.04896827647562356,0.06020875021991715,0.021929296557498836,-0.07990952581167221,-6.44708052277565e-07,-0.056834034621715546,-0.0045729875564575195,0.021184295415878296,-0.00334775447845459,0.5135027712856244,0.3438862196557721,-0.10914114603868781,0.2936660349369049,-0.4912312626838684,-0.8200317621231079
1727724521008,7i,0.11892219590409803,0.1s : 1.8s,0.07735277603858809,0.04891517835409764,0.0599229278946113,0.02522835544604887,-0.0680621862411499,-0.0014597908593714237,-0.05342013016343117,-0.004049122333526611,0.023341208696365356,-0.00867539644241333,0.5125632782035409,0.343969490903509,-0.10941748691339627,0.2938898205757141,-0.49041274189949036,-0.8204414248466492
1727724521018,7i,0.11892219590409803,0.1s : 1.8s,0.07697521201747788,0.04886496950797341,0.05947602895386091,0.01956847742234776,-0.058445777744054794,-0.00957390945404768,-0.05832487344741821,-0.0021224021911621094,0.014699429273605347,-0.012741565704345703,0.5117694732987271,0.34404636773013497,-0.10973866874457228,0.2940841019153595,-0.48972079157829285,-0.8207850456237793
1727724521028,7i,0.11892219590409803,0.1s : 1.8s,0.07618934402560391,0.04882972704935313,0.058484817682348096,0.02118246368064531,-0.040932297706604004,-0.01535083819180727,-0.06234411522746086,0.0044335126876831055,0.012674778699874878,-0.01638263463973999,0.5111799860700498,0.34412018950576057,-0.11018381686515424,0.2942420244216919,-0.4892067313194275,-0.8210349678993225
1727724521038,7i,0.11892219590409803,0.1s : 1.8s,0.07517814474670197,0.04881759892180188,0.05717163180342295,0.0210801931954909,-0.02857149951159954,-0.023525413125753403,-0.06379979848861694,0.009336680173873901,0.009722203016281128,-0.016207396984100342,0.5107514155351608,0.3441951099582674,-0.11074299299546105,0.2943742573261261,-0.48883289098739624,-0.8212102055549622
1727724521048,7i,0.11892219590409803,0.1s : 1.8s,0.07407064236868506,0.048825561079243456,0.05570031100637327,0.015115394414456957,-0.020829157903790474,-0.029132965952157974,-0.06266769021749496,0.009151577949523926,0.00474095344543457,-0.01105654239654541,0.5103762306079502,0.3442336867234178,-0.1113469409695583,0.2944678068161011,-0.4885055720806122,-0.8213714361190796
1727724521058,7i,0.11892219590409803,0.1s : 1.8s,0.07292274452898324,0.04885705535770089,0.05413607680109362,0.012140797039287747,-0.01994352415204048,-0.03167073428630829,-0.05661136284470558,0.01096084713935852,0.0030782222747802734,-0.004217028617858887,0.5100096041658608,0.34422377820794164,-0.11192017475316576,0.2945201098918915,-0.4881856143474579,-0.8215429186820984
1727724521068,7i,0.11892219590409803,0.1s : 1.8s,0.07197032765982701,0.048904889064408534,0.05280189285490395,0.009955887272050263,-0.025273840874433517,-0.03185795620083809,-0.05239398032426834,0.009371280670166016,-0.0033093690872192383,0.0005889534950256348,0.5095967312598616,0.3441442696828253,-0.11241220734776537,0.294522762298584,-0.4878252446651459,-0.8217559456825256
1727724521078,7i,0.11892219590409803,0.1s : 1.8s,0.07138514883554459,0.04895982121381307,0.05194973898860621,0.010770190046799268,-0.039968229830265045,-0.03130246326327324,-0.04705896973609924,0.007072538137435913,-0.008116155862808228,-0.0003228187561035156,0.5090546133912904,0.3439921794575803,-0.11280018579811663,0.2944869101047516,-0.4873519539833069,-0.822049617767334
1727724521088,7i,0.11892219590409803,0.1s : 1.8s,0.07097688319072186,0.049015023526025776,0.051334641483237374,0.013018823103243043,-0.04764825478196144,-0.03288118541240692,-0.04289644956588745,0.005472034215927124,-0.011103123426437378,-0.004033267498016357,0.5083950305575802,0.34378421277073956,-0.1130858864110137,0.29442423582077026,-0.4867759048938751,-0.8224132657051086
1727724521098,7i,0.11892219590409803,0.1s : 1.8s,0.07060982909021582,0.04906707415949483,0.05077568510198678,0.010085890163550212,-0.048132818192243576,-0.03226311132311821,-0.041698992252349854,0.00342753529548645,-0.00790145993232727,-0.00524824857711792,0.5077282633723108,0.3435583359454723,-0.11333985993629657,0.29434770345687866,-0.48619332909584045,-0.8227851986885071
1727724521108,7i,0.11892219590409803,0.1s : 1.8s,0.07013601932173942,0.04912496448293269,0.05005795711822454,0.00827981192671229,-0.04279451072216034,-0.029640164226293564,-0.041965045034885406,0.00593140721321106,-0.005475759506225586,0.001841127872467041,0.507081817557772,0.3433910043779513,-0.1136113031260882,0.29431578516960144,-0.4856283366680145,-0.823130190372467
1727724521118,7i,0.11892219590409803,0.1s : 1.8s,0.06947597204955525,0.04919196180725066,0.049061813926765625,0.00914922811643759,-0.03385627642273903,-0.026407040655612946,-0.04309924691915512,0.006943374872207642,-0.00364077091217041,0.004716217517852783,0.5065103301263945,0.3432716236046425,-0.11393342770782554,0.29431089758872986,-0.4851287007331848,-0.8234265446662903
1727724521128,7i,0.11892219590409803,0.1s : 1.8s,0.06841079837326511,0.04926935557845053,0.047461225594707696,0.007826816808583383,-0.019831005483865738,-0.023942284286022186,-0.04248512163758278,0.007249742746353149,0.0010804533958435059,0.002744615077972412,0.5060813579541824,0.3432222449996797,-0.11429090960998499,0.29434022307395935,-0.4847535192966461,-0.8236369490623474
1727724521138,7i,0.11892219590409803,0.1s : 1.8s,0.06624396287351034,0.049361934398408795,0.044177619329635716,0.010860974878287459,-0.0037154187448322773,-0.021264921873807907,-0.039895933121442795,0.009328305721282959,0.0055522620677948,0.00034040212631225586,0.5058208204550407,0.34324067420706983,-0.11471269942807139,0.29439789056777954,-0.4845256507396698,-0.8237504363059998
1727724521148,7i,0.11892219590409803,0.1s : 1.8s,0.0645972850505135,0.04946236495468711,0.04154857023998102,0.00808739700811469,0.002097995486110449,-0.020568236708641052,-0.0377797856926918,0.007536590099334717,0.0025207102298736572,-0.0015006065368652344,0.5057043453442462,0.34329949270010707,-0.11516461361821474,0.2944653630256653,-0.48442375659942627,-0.8237862586975098
1727724521158,7i,0.11892219590409803,0.1s : 1.8s,0.06342887718115446,0.049565973927074874,0.03957823504304493,0.008994398293296638,0.007464132271707058,-0.021610820665955544,-0.03588218241930008,0.006579339504241943,0.0013740360736846924,-0.00597691535949707,0.5056668963623971,0.34332421566471366,-0.1155908812275219,0.29449182748794556,-0.4843909740447998,-0.8237960934638977
1727724521168,7i,0.11892219590409803,0.1s : 1.8s,0.062336812601409615,0.04967350302645987,0.037661934395136196,0.015100352508189134,0.017052844166755676,-0.0227341428399086,-0.03613065555691719,0.005939453840255737,0.009316980838775635,-0.010292589664459229,0.5057113546843163,0.34335033667881754,-0.11605097402562459,0.29450610280036926,-0.48442986607551575,-0.8237680792808533
1727724521178,7i,0.11892219590409803,0.1s : 1.8s,0.06149379220888021,0.049787389310627886,0.03609296809436587,0.0158665675580018,0.023063598200678825,-0.02496533840894699,-0.037827689200639725,0.007265001535415649,0.009210169315338135,-0.010683655738830566,0.5057985725883924,0.3433514966685435,-0.1165253741443481,0.29449284076690674,-0.48450618982315063,-0.8237279653549194
1727724521188,7i,0.11892219590409803,0.1s : 1.8s,0.06082853137100149,0.049909115624292115,0.03477341522419034,0.01816089021092781,0.029125751927495003,-0.027884429320693016,-0.03670729696750641,0.007907509803771973,0.011198252439498901,-0.01191169023513794,0.5059431849778859,0.3433596354169559,-0.11704709020648786,0.2944759428501129,-0.484632670879364,-0.8236595988273621
1727724521198,7i,0.11892219590409803,0.1s : 1.8s,0.06039868592002937,0.05003512399306436,0.03383027679261625,0.011891103759908846,0.014665452763438225,-0.028714049607515335,-0.0332082062959671,0.00704348087310791,0.006177812814712524,-0.007322728633880615,0.506064942142534,0.34333973551680436,-0.11753535201300219,0.2944396734237671,-0.48473918437957764,-0.8236098885536194
1727724521208,7i,0.11892219590409803,0.1s : 1.8s,0.060073615965154106,0.05015822903283217,0.03306042037571164,0.006667048823632536,-0.006215061992406845,-0.028040800243616104,-0.028744744136929512,0.005319416522979736,-0.003558635711669922,-0.0018680095672607422,0.5059936339003974,0.3432697896695606,-0.11791227241323292,0.29439371824264526,-0.4846768081188202,-0.8236629962921143
1727724521218,7i,0.11892219590409803,0.1s : 1.8s,0.05982416913842933,0.05027607166302889,0.03242295222889772,0.00840888718534144,-0.028777629137039185,-0.026838738471269608,-0.023947525769472122,0.004566788673400879,-0.007029354572296143,0.000664830207824707,0.505706570770939,0.34314491709680517,-0.11815684311024541,0.294337660074234,-0.48442569375038147,-0.8238307237625122
1727724521228,7i,0.11892219590409803,0.1s : 1.8s,0.059640435309175135,0.050383480282747764,0.03191373432342056,0.003300535629112078,-0.03212602064013481,-0.024833112955093384,-0.02380717732012272,0.0012722015380859375,-0.0029067397117614746,-0.0009087920188903809,0.5053085935261772,0.3429905653274309,-0.11830846193133678,0.29427528381347656,-0.48407748341560364,-0.8240576386451721
1727724521238,7i,0.11892219590409803,0.1s : 1.8s,0.05928307568862146,0.05048660443517573,0.031073877062718046,0.010108182002025857,-0.022246092557907104,-0.023736290633678436,-0.02007472515106201,0.001722097396850586,0.008367300033569336,-0.0054035186767578125,0.504957327131987,0.3428381605666061,-0.11844617853834985,0.2942068576812744,-0.48377010226249695,-0.8242626190185547
1727724521248,7i,0.11892219590409803,0.1s : 1.8s,0.0588064383799382,0.05058865363247321,0.029983083873863333,0.013537552939545979,-0.013784697279334068,-0.022813770920038223,-0.017368420958518982,0.0026761889457702637,0.010887175798416138,-0.0075876712799072266,0.5046634453512375,0.3426779153256369,-0.11857543164764045,0.29412251710891724,-0.48351287841796875,-0.8244436383247375
1727724521258,7i,0.11892219590409803,0.1s : 1.8s,0.0582922505829314,0.05069129930229198,0.02878156793972002,0.012348469756183022,-0.00028326993924565613,-0.028667841106653214,-0.014363374561071396,0.003722935914993286,0.009086519479751587,-0.007487297058105469,0.504489007280809,0.34250295399398867,-0.1187148598170341,0.2940065860748291,-0.4833601713180542,-0.8245744705200195
1727724521268,7i,0.11892219590409803,0.1s : 1.8s,0.05776226241557728,0.05080105542359912,0.027490575243425207,0.015463260545982162,0.01808934472501278,-0.032720908522605896,-0.012684518471360207,0.006670773029327393,0.0102023184299469,-0.00951451063156128,0.5044737508571873,0.34231136367806136,-0.11891103999012437,0.2938510775566101,-0.4833468198776245,-0.8246377110481262
1727724521278,7i,0.11892219590409803,0.1s : 1.8s,0.057352263092160606,0.050917814097214124,0.026394285164670597,0.008554128450620035,0.020682865753769875,-0.03718893975019455,-0.0073724775575101376,0.007876098155975342,0.0022660791873931885,-0.0024505257606506348,0.5045938649770885,0.3420760934433159,-0.11911232810775085,0.29363757371902466,-0.4834519624710083,-0.8246521353721619
1727724521288,7i,0.11892219590409803,0.1s : 1.8s,0.05697762078526696,0.05103173033106703,0.025341897517094862,0.01131401982366959,0.01163024827837944,-0.03526853024959564,-0.001692754216492176,0.0055692195892333984,-0.009134799242019653,0.0036805272102355957,0.5047478213163678,0.34179523192630873,-0.1192378952626342,0.293381005525589,-0.48358672857284546,-0.8246644139289856
1727724521298,7i,0.11892219590409803,0.1s : 1.8s,0.05670862168324633,0.05113335846210909,0.024520347175336077,0.013469588964061125,0.005055302754044533,-0.035024188458919525,-0.00044942437671124935,0.002419412136077881,-0.013247460126876831,0.000284731388092041,0.5048606663325478,0.3414922345709858,-0.11929999936065344,0.2931128442287445,-0.4836854934692383,-0.8247018456459045
1727724521308,7i,0.11892219590409803,0.1s : 1.8s,0.05637396857257105,0.05121979940692947,0.02354902293801455,0.013191226187253052,-0.005148066207766533,-0.029316499829292297,0.002282179892063141,0.0005048811435699463,-0.013173401355743408,0.00046372413635253906,0.5048755500178929,0.3411708144021905,-0.11929323247861472,0.29284533858299255,-0.4836985170841217,-0.82478928565979
1727724521318,7i,0.11892219590409803,0.1s : 1.8s,0.055937978885412964,0.05129673734050684,0.02230924068640524,0.007422309967620819,-0.009693017229437828,-0.02361893281340599,0.0068789292126894,0.0012235939502716064,-0.0072980523109436035,-0.0005761384963989258,0.5047717629852161,0.3408710713146843,-0.11921891244396352,0.2926149070262909,-0.483607679605484,-0.8249243497848511
1727724521328,7i,0.11892219590409803,0.1s : 1.8s,0.05545791724089827,0.05137060053792498,0.02089598011750737,0.004107194694305216,-0.004728352185338736,-0.01975681632757187,0.010118132457137108,0.0018894672393798828,0.002151280641555786,-0.002944648265838623,0.5046544560068196,0.34059589566416315,-0.11909279572237591,0.29240682721138,-0.4835050106048584,-0.8250582814216614
1727724521338,7i,0.11892219590409803,0.1s : 1.8s,0.05495247081133762,0.05145572880627327,0.019289427707585634,0.014590883586470775,0.010214111767709255,-0.014169682748615742,0.008078083395957947,0.006520330905914307,0.011694848537445068,-0.005797386169433594,0.5046448124917068,0.3404000068105718,-0.11901373952459408,0.2922467589378357,-0.4834965467453003,-0.8251199722290039
1727724521348,7i,0.11892219590409803,0.1s : 1.8s,0.05451758852528535,0.05155605437342006,0.017724015235190908,0.02090969291583372,0.02580798603594303,-0.01102448906749487,0.006436245050281286,0.0072962939739227295,0.018689900636672974,-0.005887866020202637,0.5047743193821369,0.34029859886866354,-0.11901700676704446,0.29214218258857727,-0.4836099147796631,-0.8250905275344849
1727724521358,7i,0.11892219590409803,0.1s : 1.8s,0.054249921637649474,0.05167112793657993,0.01652720591790086,0.01490272212966447,0.030635232105851173,-0.009773513302206993,0.0044935354962944984,0.008996635675430298,0.011605829000473022,-0.0025409460067749023,0.5050486931634256,0.34027029094745276,-0.11909870690692337,0.2920745313167572,-0.48385006189346313,-0.8249737024307251
1727724521368,7i,0.11892219590409803,0.1s : 1.8s,0.05415751164878641,0.05180073841084029,0.015802517776611777,0.011877385133328084,0.022353066131472588,-0.01282203383743763,0.003820821177214384,0.01157715916633606,0.0003726780414581299,0.0026273131370544434,0.5053595013255641,0.3402180052854289,-0.11917294641446072,0.29198119044303894,-0.48412203788757324,-0.8248471617698669
1727724521378,7i,0.11892219590409803,0.1s : 1.8s,0.054097071884467815,0.05193759719695229,0.015132058150840302,0.015197639264894381,0.009769097901880741,-0.011901645921170712,-0.0016660892870277166,0.010009527206420898,-0.007103562355041504,0.008961975574493408,0.5055694233327511,0.34014324418847525,-0.11923019703636696,0.2918856143951416,-0.4843057096004486,-0.8247731328010559
1727724521388,7i,0.11892219590409803,0.1s : 1.8s,0.0540100965680071,0.052076629564937534,0.014321842913596243,0.014753938724957253,-0.0027046161703765392,-0.011665956117212772,-0.0009662106167525053,0.008228033781051636,-0.008035629987716675,0.009241580963134766,0.505655175981452,0.34004443678384044,-0.11925891617986754,0.29179027676582336,-0.48438072204589844,-0.8247628211975098
1727724521398,7i,0.11892219590409803,0.1s : 1.8s,0.05385865789422489,0.05220553183433622,0.013241505807923088,0.010105934217627194,-0.013270441442728043,-0.008003843016922474,3.753462806344032e-05,0.0018621385097503662,-0.0042459070682525635,0.0089796781539917,0.505591747460155,0.3399431376111749,-0.11923056937540685,0.29171696305274963,-0.48432523012161255,-0.824821412563324
1727724521408,7i,0.11892219590409803,0.1s : 1.8s,0.05368877026571231,0.05231844121485169,0.012052583187538749,0.006583121971210131,-0.013485890813171864,-0.004233606159687042,0.002482582814991474,-0.002520650625228882,0.0026878714561462402,0.005455195903778076,0.5054419826391215,0.33986261655517597,-0.11917039780823711,0.29167473316192627,-0.48419421911239624,-0.8249132037162781
1727724521418,7i,0.11892219590409803,0.1s : 1.8s,0.053603854755732594,0.05241508522493041,0.011226401272756882,0.011852067533336808,-0.0031363144516944885,-0.006030441261827946,-6.313296034932137e-05,-0.004735052585601807,0.010859042406082153,0.00036329030990600586,0.5052938273577825,0.33981737513476623,-0.11913989993786657,0.2916613221168518,-0.48406457901000977,-0.8249940276145935
1727724521428,7i,0.11892219590409803,0.1s : 1.8s,0.05355256499364583,0.05249654463004175,0.010582533690222554,0.018396665339466746,0.00604772986844182,-0.008021553047001362,0.0034310342743992805,-0.006110399961471558,0.01712605357170105,-0.0027925968170166016,0.5052191095468808,0.33976829678944553,-0.11913237691901793,0.29163289070129395,-0.48399919271469116,-0.8250424861907959
1727724521438,7i,0.11892219590409803,0.1s : 1.8s,0.05351774425925819,0.05255448009303521,0.010108193347484445,0.01992017056810419,0.008748574182391167,-0.009287486784160137,0.005238554906100035,-0.010367721319198608,0.01638096570968628,-0.0045812129974365234,0.5052569443804339,0.3397203485896127,-0.11913810376565813,0.2915872037410736,-0.4840323030948639,-0.8250391483306885
1727724521448,7i,0.11892219590409803,0.1s : 1.8s,0.053496541308842495,0.05258734125011704,0.009820971044272049,0.016545343989754484,0.01036884170025587,-0.010301086120307446,0.00490992097184062,-0.011520862579345703,0.011819005012512207,-0.0011529326438903809,0.5053620740613366,0.33967753175383253,-0.11915312796639367,0.2915349304676056,-0.4841242730617523,-0.8250036835670471
1727724521458,7i,0.11892219590409803,0.1s : 1.8s,0.05349995779509979,0.05259642428555166,0.00979089558986769,0.017198840874386685,0.018679369240999222,-0.009902099147439003,-0.0009870168287307024,-0.012457877397537231,0.010578453540802002,0.005357027053833008,0.5055486570906428,0.33966602542301205,-0.11922912518861462,0.29149535298347473,-0.4842875301837921,-0.8249218463897705
1727724521468,7i,0.11892219590409803,0.1s : 1.8s,0.053500261586610226,0.05259752963143722,0.009786616703734012,0.020284515753325384,0.02360781654715538,-0.006308696698397398,-0.0006610460113734007,-0.007735013961791992,0.013521432876586914,0.012992382049560547,0.505790585510798,0.33968531698650567,-0.11935435561417548,0.2914721965789795,-0.4844991862773895,-0.824805736541748
1727724521478,7i,0.11892219590409803,0.1s : 1.8s,0.05347802361275453,0.05259357217612514,0.009685823417812637,0.02150007774546261,0.021067824214696884,-0.0025632712058722973,-0.0045859795063734055,-0.006812542676925659,0.011809080839157104,0.016624927520751953,0.5060309512289959,0.3397239844287488,-0.11947532670115542,0.29146528244018555,-0.4847094416618347,-0.8246846199035645
1727724521488,7i,0.11892219590409803,0.1s : 1.8s,0.053532990288786185,0.05259082620650576,0.00999930238448583,0.019331865931519313,0.027036767452955246,-0.0022341045551002026,-0.007341285236179829,-0.004365742206573486,0.013520032167434692,0.013109922409057617,0.5062425571673381,0.33977740027086445,-0.11961676685202724,0.2914751470088959,-0.4848945140838623,-0.8245723247528076
1727724521498,7i,0.11892219590409803,0.1s : 1.8s,0.05360964000081643,0.05258882474763722,0.010411964880820307,0.017372433236753016,0.02460636757314205,-0.003692540107294917,-0.008014333434402943,-0.00449410080909729,0.015044599771499634,0.0074340105056762695,0.5064155289006428,0.3398189132167982,-0.11978667273599773,0.2914814054965973,-0.48504579067230225,-0.8244811296463013
1727724521508,7i,0.11892219590409803,0.1s : 1.8s,0.05361851534344756,0.052586611299276755,0.010468691403145857,0.014848108904019991,0.014782232232391834,-0.00483157392591238,-0.010593337938189507,-0.004280745983123779,0.014024227857589722,0.002337217330932617,0.5065050301812335,0.3398367855482539,-0.11995010200274059,0.2914816737174988,-0.48512405157089233,-0.8244349956512451
1727724521518,7i,0.11892219590409803,0.1s : 1.8s,0.05346029547197777,0.05258690575747753,0.009623956296936515,0.008194706793498102,-0.007169938180595636,-0.009512702003121376,-0.006799931637942791,-0.0015364587306976318,0.0072917640209198,0.0034092068672180176,0.5064488702829598,0.33975452672515216,-0.1200312947581124,0.29142293334007263,-0.4850749373435974,-0.824484646320343
1727724521528,7i,0.11892219590409803,0.1s : 1.8s,0.05312854065192217,0.052584326845324623,0.00758487982943822,0.008378153865490592,-0.03553153946995735,-0.010878637433052063,-0.0020094376523047686,-0.0018585026264190674,-0.002549290657043457,0.007761478424072266,0.5061881063834673,0.33957581840167944,-0.11997703244157211,0.2913177013397217,-0.48484688997268677,-0.8246559500694275
1727724521538,7i,0.11892219590409803,0.1s : 1.8s,0.054131580498242085,0.05257594532568523,0.012884020348797182,0.015013616447464767,-0.0628538429737091,-0.010329182259738445,0.0003934993874281645,-0.002135545015335083,-0.008769780397415161,0.011997461318969727,0.5056880809238882,0.3393329247005532,-0.11977604171562474,0.2911980450153351,-0.48440951108932495,-0.8249552249908447
1727724521548,7i,0.11892219590409803,0.1s : 1.8s,0.05762791931408897,0.052555623904232907,0.023640716581947586,0.015228463006934357,-0.0754026547074318,-0.007509693503379822,3.237486816942692e-05,-0.005485266447067261,-0.007704794406890869,0.011935412883758545,0.5050044015742285,0.33909822289176833,-0.11950225007276857,0.29111453890800476,-0.48381128907203674,-0.825335681438446
1727724521558,7i,0.11892219590409803,0.1s : 1.8s,0.059599016944307096,0.05253308980091211,0.028148131318030827,0.012355327556923134,-0.06694232672452927,-0.0028793441597372293,-0.002937582554295659,-0.004303187131881714,0.0031729936599731445,0.011138617992401123,0.504322575956968,0.33891979063555916,-0.11924216425784012,0.2910768687725067,-0.48321446776390076,-0.8256985545158386
1727724521568,7i,0.11892219590409803,0.1s : 1.8s,0.05969283813388552,0.05251989962777302,0.028370672666803383,0.01913920326334278,-0.04594836011528969,0.0008802403463050723,-0.004730955697596073,-0.002270936965942383,0.01467016339302063,0.012080490589141846,0.5037558826988119,0.3388246567325323,-0.11906003201913525,0.29108926653862,-0.48271825909614563,-0.8259843587875366
1727724521578,7i,0.11892219590409803,0.1s : 1.8s,0.0586618140658964,0.05251693718679702,0.02613770720663571,0.02084131492377365,-0.017633231356739998,0.0033890712074935436,-0.006138069089502096,-0.002293825149536133,0.01883995532989502,0.008611321449279785,0.5034121803253022,0.3388041422363037,-0.11899849888713966,0.291127473115921,-0.4824172258377075,-0.8261467218399048
1727724521588,7i,0.11892219590409803,0.1s : 1.8s,0.05662351211121384,0.0525251299928472,0.021150244514976286,0.016444212396333154,0.0017849409487098455,0.006599778309464455,-0.008236907422542572,-0.00026980042457580566,0.015091180801391602,0.006526529788970947,0.5032957700244354,0.33886191614467825,-0.11904635095271014,0.2911938428878784,-0.4823152422904968,-0.8261828422546387
1727724521598,7i,0.11892219590409803,0.1s : 1.8s,0.05556373159743266,0.052540951486633444,0.01807696561679441,0.008975995987718257,0.0006598885520361364,0.005029001273214817,-0.0050868201069533825,0.0012562870979309082,0.004689395427703857,0.0075498223304748535,0.5033011676480861,0.3389550283971796,-0.11912557139505679,0.2912699282169342,-0.48231998085975647,-0.8261533379554749
1727724521608,7i,0.11892219590409803,0.1s : 1.8s,0.05540080356148141,0.05256311590730628,0.017503367715183737,0.014962436350338641,-0.019073335453867912,0.0038963588885962963,0.001205164473503828,0.0044175684452056885,-0.009078294038772583,0.01104283332824707,0.5032440664330939,0.3389961214214478,-0.11910929372286493,0.2913130223751068,-0.48226994276046753,-0.8261673450469971
1727724521618,7i,0.11892219590409803,0.1s : 1.8s,0.05580549279356603,0.05258263315537162,0.018690096746147748,0.02254434033880398,-0.04459480941295624,0.0021896720863878727,0.0029712729156017303,0.0018160641193389893,-0.015828222036361694,0.015950441360473633,0.5030113152048336,0.33896004544439157,-0.11895747451732175,0.2913205325603485,-0.4820660352706909,-0.8262836933135986
1727724521628,7i,0.11892219590409803,0.1s : 1.8s,0.05712625249861759,0.052600553770498534,0.022284309896712182,0.02201297035180268,-0.05662723630666733,0.0029444119427353144,0.001584032317623496,0.0012483596801757812,-0.013340920209884644,0.017465174198150635,0.5025935066122518,0.33886437746628567,-0.11871225625035138,0.2913084030151367,-0.48169994354248047,-0.8265014290809631
1727724521638,7i,0.11892219590409803,0.1s : 1.8s,0.057697885583564486,0.05261519100861532,0.023678844480696768,0.016453087120223548,-0.052766185253858566,0.010738952085375786,0.00018427474424242973,-0.0032227635383605957,-0.00033339858055114746,0.016130924224853516,0.5020966479204256,0.33882389851270434,-0.11849672238725127,0.2913544774055481,-0.48126447200775146,-0.8267388343811035
1727724521648,7i,0.11892219590409803,0.1s : 1.8s,0.057881269798189756,0.052621407262496506,0.024108689121669667,0.01906767182750874,-0.04070819169282913,0.019227512180805206,-0.00301045342348516,-0.007901966571807861,0.0066848695278167725,0.0160139799118042,0.5016258430473427,0.3389110605558002,-0.11834815893006767,0.29150182008743286,-0.4808517098426819,-0.8269270658493042
1727724521658,7i,0.11892219590409803,0.1s : 1.8s,0.057915661953311284,0.052619506222753444,0.024195277728594894,0.017367254278228356,-0.034659888595342636,0.025558821856975555,-0.001897984417155385,-0.007906228303909302,0.0062444210052490234,0.014146387577056885,0.5012279559418431,0.33907915366530894,-0.11823697339890404,0.2917044460773468,-0.48050281405448914,-0.8270583748817444
1727724521668,7i,0.11892219590409803,0.1s : 1.8s,0.058261863177983715,0.05261378142958908,0.025024681909057753,0.013901076058674765,-0.0447990745306015,0.02599557861685753,-0.0005565502215176821,-0.005012989044189453,0.002159595489501953,0.012784600257873535,0.5008330033693172,0.33928675862546276,-0.11810989464298471,0.29193928837776184,-0.48015639185905457,-0.8271766901016235
1727724521678,7i,0.11892219590409803,0.1s : 1.8s,0.06015968690482969,0.05260213832426236,0.029192515688140096,0.015030854452232435,-0.06335172057151794,0.02425156533718109,0.007197310216724873,-0.0035334229469299316,-0.007241547107696533,0.012688636779785156,0.500344029254118,0.3394327661119214,-0.11787826976152146,0.2921381890773773,-0.4797274172306061,-0.8273553848266602
1727724521688,7i,0.11892219590409803,0.1s : 1.8s,0.06556714665627401,0.052584585514976245,0.03916518973353117,0.015229657265736113,-0.09097801893949509,0.01696568913757801,0.014812085777521133,-0.0034830868244171143,-0.008339881896972656,0.012257933616638184,0.49971841873328715,0.3394724984549237,-0.11747586912092699,0.2922709286212921,-0.47917839884757996,-0.8276265859603882
1727724521698,7i,0.11892219590409803,0.1s : 1.8s,0.07290766745985229,0.05258136589451413,0.05050473180904569,0.014401537421173843,-0.11356375366449356,0.0070401756092906,0.021517127752304077,0.0043495893478393555,-0.004114329814910889,0.013098001480102539,0.4989176091793998,0.33934921722499933,-0.11691223005221844,0.29229652881622314,-0.4784753620624542,-0.82802414894104
1727724521708,7i,0.11892219590409803,0.1s : 1.8s,0.08089320215895036,0.052600620282413406,0.06145636583328184,0.018356305308558085,-0.12866096198558807,-0.004339245148003101,0.024048728868365288,0.005581706762313843,0.004674404859542847,0.016850769519805908,0.49792696526960584,0.3390530439733375,-0.11621198580919515,0.29220879077911377,-0.47760525345802307,-0.8285573124885559
1727724521718,7i,0.11892219590409803,0.1s : 1.8s,0.08269033413214642,0.05263544076310308,0.0637746166947312,0.022964796777610725,-0.11440850794315338,-0.013758758082985878,0.01687217503786087,-0.00014165043830871582,0.017744779586791992,0.014576852321624756,0.4968779487572046,0.33863305203132127,-0.11551929870645028,0.2920270562171936,-0.4766833484172821,-0.8291520476341248
1727724521728,7i,0.11892219590409803,0.1s : 1.8s,0.08228569326000318,0.0526941722281551,0.0632001544971914,0.0358792402315905,-0.0866120308637619,-0.015386480838060379,0.008309844881296158,-0.0026905834674835205,0.031899720430374146,0.016201496124267578,0.49600434087226397,0.33822815668230977,-0.11500897084997243,0.291829377412796,-0.47591519355773926,-0.8296627998352051
1727724521738,7i,0.11892219590409803,0.1s : 1.8s,0.0805121585969888,0.0527576800807697,0.060818047275803214,0.03654200482053566,-0.06916885823011398,-0.013435715809464455,-0.0013387869112193584,-0.008584141731262207,0.028026580810546875,0.021820664405822754,0.49531344668622995,0.337917366950691,-0.11468254487848689,0.2916804552078247,-0.4753074645996094,-0.8300634622573853
1727724521748,7i,0.11892219590409803,0.1s : 1.8s,0.07952309619420009,0.05281404317021658,0.059452499294197034,0.03258793685883485,-0.07130923867225647,-0.009091300889849663,-0.0050030299462378025,-0.011175692081451416,0.013986289501190186,0.027229785919189453,0.49468668753052075,0.33770368998657857,-0.11446236179698803,0.2916017174720764,-0.4747559130191803,-0.830406665802002
1727724521758,7i,0.11892219590409803,0.1s : 1.8s,0.07986566583473803,0.05286535307372568,0.05986467258422418,0.03436436982278119,-0.09583495557308197,-0.005673266015946865,-0.006553689017891884,-0.006928086280822754,-0.003525465726852417,0.03347361087799072,0.49394738053632103,0.3375202461545316,-0.11422140298876897,0.29156553745269775,-0.4741051197052002,-0.8307911157608032
1727724521768,7i,0.11892219590409803,0.1s : 1.8s,0.08985476497652815,0.05292789071319735,0.07261210073836832,0.043109593270406595,-0.15218904614448547,-0.010997723788022995,0.006928830407559872,0.004881769418716431,-0.023602038621902466,0.03574281930923462,0.4928430956319855,0.33723902913812104,-0.1137637354441726,0.29150494933128357,-0.47313255071640015,-0.8313665986061096
1727724521778,7i,0.11892219590409803,0.1s : 1.8s,0.1097841462580586,0.05308785404677096,0.09609494535260191,0.05640608047065792,-0.22165293991565704,-0.03193589672446251,0.02703932300209999,0.025120317935943604,-0.03911969065666199,0.03194159269332886,0.4911817019840711,0.33664541373970336,-0.11289669064004716,0.2912706434726715,-0.47166821360588074,-0.8322803378105164
1727724521788,7i,0.11892219590409803,0.1s : 1.8s,0.14006017912002583,0.05342403613723002,0.12947094708057735,0.06598806755486866,-0.29851415753364563,-0.0661950632929802,0.05608722195029259,0.04279908537864685,-0.04414966702461243,0.02394723892211914,0.4888877937965945,0.3355292900913082,-0.11150322530352666,0.29069703817367554,-0.4696442484855652,-0.8336243629455566
1727724521798,7i,0.11892219590409803,0.1s : 1.8s,0.1793759715427043,0.05386822196866036,0.17109632909219358,0.06500859011056993,-0.3767911195755005,-0.11191169172525406,0.08552094548940659,0.047083258628845215,-0.041908442974090576,0.015904903411865234,0.4859325720331243,0.3337272803516896,-0.10951453099976705,0.2896477282047272,-0.46703317761421204,-0.8354544639587402
1727724521808,7i,0.11892219590409803,0.1s : 1.8s,0.22795610551881312,0.05441155033711113,0.22136704640306398,0.06808832899192106,-0.4652879536151886,-0.1592901200056076,0.12350694090127945,0.0506284236907959,-0.04142025113105774,0.018898308277130127,0.48226038082051625,0.33117585978618563,-0.10685904876657511,0.2880708873271942,-0.46378293633461,-0.8378069996833801
1727724521818,7i,0.11892219590409803,0.1s : 1.8s,0.28638810135552134,0.05502825015033824,0.2810516612358165,0.0743226033150086,-0.5702882409095764,-0.20666815340518951,0.16209962964057922,0.045360445976257324,-0.049577414989471436,0.03175467252731323,0.4778290692667811,0.32779143583311326,-0.10345650825706505,0.2858926057815552,-0.4598524868488312,-0.8407146334648132
1727724521828,7i,0.11892219590409803,0.1s : 1.8s,0.35377143219919105,0.055707473713420386,0.34935784464175895,0.08180358784633654,-0.6887310147285461,-0.24618734419345856,0.20167315006256104,0.039419710636138916,-0.05166563391685486,0.049684762954711914,0.47252915647324584,0.32363441197583337,-0.09926624376566508,0.28316637873649597,-0.45513975620269775,-0.8441946506500244
1727724521838,7i,0.11892219590409803,0.1s : 1.8s,0.42718870588600083,0.056484497396192046,0.42343794349403274,0.09595936873183182,-0.8151479363441467,-0.26893851161003113,0.22981786727905273,0.035605788230895996,-0.04824104905128479,0.07492148876190186,0.4662232966883874,0.3188906595457754,-0.09434333472165703,0.2800528109073639,-0.4495158791542053,-0.8482369184494019
1727724521848,7i,0.11892219590409803,0.1s : 1.8s,0.5071010933748082,0.05744277945070056,0.5038371224819626,0.11079556839304079,-0.9558203816413879,-0.2810383141040802,0.2639921009540558,0.0437181293964386,-0.042656540870666504,0.09243810176849365,0.4585679553389664,0.31355836175433344,-0.08862512852337087,0.2765791118144989,-0.4426644742488861,-0.8529666662216187
1727724521858,7i,0.11892219590409803,0.1s : 1.8s,0.5975611126976768,0.05870517462213897,0.5946704851269059,0.13551957298395373,-1.1272039413452148,-0.30112993717193604,0.2918330729007721,0.06402048468589783,-0.049356937408447266,0.10876959562301636,0.44946525604665805,0.30777138539358384,-0.08218296019509007,0.2728478014469147,-0.43448397517204285,-0.8583576083183289
1727724521868,7i,0.11892219590409803,0.1s : 1.8s,0.6931979776482927,0.06040568572899986,0.6905610685140686,0.15403994675515092,-1.2836934328079224,-0.34075164794921875,0.3062463700771332,0.09851640462875366,-0.05818668007850647,0.10313647985458374,0.4387237921425366,0.301386975611485,-0.07500268619975947,0.26873210072517395,-0.42478448152542114,-0.8644890189170837
1727724521878,7i,0.11892219590409803,0.1s : 1.8s,0.7845263084980227,0.06258599702781768,0.7820259085871571,0.16318678125688355,-1.4020185470581055,-0.3768152892589569,0.3072447180747986,0.11499980092048645,-0.02738770842552185,0.11249393224716187,0.4267302166818115,0.2945643061283615,-0.06733869842940207,0.26428794860839844,-0.41389647126197815,-0.8711151480674744
1727724521888,7i,0.11892219590409803,0.1s : 1.8s,0.8544639946066866,0.06529422464564488,0.8519655992510143,0.18170553194655434,-1.4193576574325562,-0.4175419509410858,0.31655433773994446,0.13670676946640015,0.02064836025238037,0.11790591478347778,0.4140123398629715,0.2874076668458524,-0.05960504788625628,0.25951820611953735,-0.4022859036922455,-0.8779614567756653
1727724521898,7i,0.11892219590409803,0.1s : 1.8s,0.8918016008706351,0.06860825870715447,0.8891585922390896,0.2195094741135781,-1.350786566734314,-0.4445040225982666,0.30848443508148193,0.167627215385437,0.0686679482460022,0.12397676706314087,0.4015296007311546,0.28007988481994833,-0.05209189758245783,0.2544461786746979,-0.3908267319202423,-0.8845968842506409
1727724521908,7i,0.11892219590409803,0.1s : 1.8s,0.8920631210561295,0.0724644111425885,0.8891150212802394,0.2549494845777306,-1.2122799158096313,-0.44638875126838684,0.3016238808631897,0.1725633144378662,0.12079232931137085,0.143632709980011,0.38998708000176824,0.2728927169868679,-0.0450996709130696,0.24928118288516998,-0.38017645478248596,-0.8906877636909485
1727724521918,7i,0.11892219590409803,0.1s : 1.8s,0.8569087725715957,0.07673330667624627,0.8534662525001723,0.2667886837605557,-1.0358980894088745,-0.4177462160587311,0.2780849039554596,0.16660575568675995,0.13544094562530518,0.15834921598434448,0.37991148592432683,0.2661869864725531,-0.03882415250384047,0.24429817497730255,-0.3708382546901703,-0.8959895968437195
1727724521928,7i,0.11892219590409803,0.1s : 1.8s,0.7987143339663199,0.08129774652216384,0.7945660851645254,0.2623035772269888,-0.8778069615364075,-0.36982235312461853,0.23661893606185913,0.1598619669675827,0.1205880343914032,0.1694279909133911,0.3713755938157856,0.2602677875936081,-0.03347230064306114,0.2397962510585785,-0.3628976047039032,-0.9004460573196411
1727724521938,7i,0.11892219590409803,0.1s : 1.8s,0.7355179145412002,0.08603662291518968,0.7304685497188675,0.2558001766832468,-0.7872645258903503,-0.3062984347343445,0.19053155183792114,0.15351398289203644,0.08918038010597229,0.18415766954421997,0.36389754571320454,0.255264387002822,-0.028999256081790256,0.23596662282943726,-0.3559192419052124,-0.9042351841926575
1727724521948,7i,0.11892219590409803,0.1s : 1.8s,0.6778975269245111,0.09079558836789083,0.6717895638838822,0.22979674189970628,-0.7524202466011047,-0.21655842661857605,0.15729929506778717,0.12755127251148224,0.04306045174598694,0.1862337589263916,0.3568937083441371,0.2512712943908807,-0.025152382682174436,0.23296815156936646,-0.34936538338661194,-0.9075624942779541
1727724521958,7i,0.11892219590409803,0.1s : 1.8s,0.6314019502290046,0.09509843648559904,0.6241992551509372,0.18018198693630189,-0.7535225749015808,-0.11322183161973953,0.13816401362419128,0.07398097217082977,-0.0028510093688964844,0.16426879167556763,0.34998380586926575,0.24840145195437885,-0.02217512650930155,0.23095065355300903,-0.34288260340690613,-0.9105456471443176
1727724521968,7i,0.11892219590409803,0.1s : 1.8s,0.6034948075699869,0.09885723918610699,0.5953429507640418,0.15157508083861962,-0.7934044599533081,-0.025507157668471336,0.13636505603790283,0.05454553663730621,-0.033977240324020386,0.13727831840515137,0.3428315261355024,0.24655653305303163,-0.01922487481974165,0.22986304759979248,-0.3361551761627197,-0.9133250713348389
1727724521978,7i,0.11892219590409803,0.1s : 1.8s,0.601312898434316,0.10220631816988915,0.5925631361716939,0.14326960343748202,-0.8615404963493347,0.04921568185091019,0.14295440912246704,0.06506060063838959,-0.05503600835800171,0.11517089605331421,0.335160630355191,0.24549169455996608,-0.016102161946112522,0.2295103222131729,-0.3289208710193634,-0.9160436987876892
1727724521988,7i,0.11892219590409803,0.1s : 1.8s,0.6132367529760964,0.10523703256966788,0.6041394559011988,0.132927257818759,-0.9511846303939819,0.11517924815416336,0.16054672002792358,0.06185564398765564,-0.06835433840751648,0.09576648473739624,0.32674124502475566,0.24506761506276725,-0.012671872412220703,0.22978559136390686,-0.3209584057331085,-0.9187950491905212
1727724521998,7i,0.11892219590409803,0.1s : 1.8s,0.6436749510635317,0.1080511836893823,0.6345410816723872,0.1263408389347747,-1.0442602634429932,0.16916951537132263,0.17974212765693665,0.05843774974346161,-0.07828459143638611,0.0801159143447876,0.3174790114465764,0.24514002377348157,-0.008875511587820547,0.23056373000144958,-0.3121725618839264,-0.9216228723526001
1727724522008,7i,0.11892219590409803,0.1s : 1.8s,0.6810841706672557,0.1106141866462055,0.6720417764143103,0.1137296204247668,-1.1082797050476074,0.21059951186180115,0.19866681098937988,0.06062714755535126,-0.07424631714820862,0.061206698417663574,0.30746737383794753,0.24559493996236698,-0.004685559722703851,0.23173125088214874,-0.302645742893219,-0.9245032072067261
1727724522018,7i,0.11892219590409803,0.1s : 1.8s,0.7132415651480335,0.11298654151345235,0.7042354518849824,0.10284779971034864,-1.1238082647323608,0.23837202787399292,0.2198203057050705,0.06824816763401031,-0.06096142530441284,0.04694211483001709,0.2971202071627963,0.246359460863348,-0.0001433784223317326,0.23318922519683838,-0.29276782274246216,-0.9273132085800171
1727724522028,7i,0.11892219590409803,0.1s : 1.8s,0.7315311304423715,0.11530107788000944,0.7223873311776736,0.1023923069241428,-1.0905661582946777,0.25042495131492615,0.24241481721401215,0.08292858302593231,-0.04899853467941284,0.03473007678985596,0.2869387198159798,0.247311947734852,0.004493436683867924,0.23478993773460388,-0.28301742672920227,-0.929932713508606
1727724522038,7i,0.11892219590409803,0.1s : 1.8s,0.7343193351167251,0.11761310278725663,0.7248393228702644,0.11366107355661437,-1.0404351949691772,0.24734900891780853,0.27025482058525085,0.09968867897987366,-0.043616145849227905,0.03284263610839844,0.27721194391050774,0.2483294019652943,0.009309586149840636,0.23640142381191254,-0.2736751139163971,-0.9323177337646484
1727724522048,7i,0.11892219590409803,0.1s : 1.8s,0.7311870697869095,0.11996832816472569,0.7212781233760854,0.1316845237151891,-0.9814482927322388,0.2372628152370453,0.30096375942230225,0.12112143635749817,-0.0359613299369812,0.03711056709289551,0.26811209486076654,0.2492912244265635,0.01427944842075023,0.23790262639522552,-0.2649114429950714,-0.934464693069458
1727724522058,7i,0.11892219590409803,0.1s : 1.8s,0.7149313071200079,0.12246698377431493,0.7043639767801478,0.1485353572468878,-0.9154750108718872,0.219711571931839,0.32824647426605225,0.13953585922718048,-0.027465134859085083,0.0428737998008728,0.25968440828320893,0.2501164561889018,0.019362542327687134,0.2392178177833557,-0.25677555799484253,-0.9363979697227478
1727724522068,7i,0.11892219590409803,0.1s : 1.8s,0.6945877257672963,0.1252414534172506,0.683203254626703,0.16289406440654322,-0.8581730723381042,0.2000182867050171,0.3582128882408142,0.1519940346479416,-0.02785670757293701,0.05153924226760864,0.251961400087277,0.2507643829513462,0.02454657393391347,0.24030941724777222,-0.2493039071559906,-0.9381358623504639
1727724522078,7i,0.11892219590409803,0.1s : 1.8s,0.6767103445755737,0.12824910171668785,0.6644464300185939,0.1711217477175764,-0.8269473910331726,0.1826450228691101,0.388256311416626,0.15271036326885223,-0.04054135084152222,0.06571602821350098,0.24474693227570105,0.2512387601651611,0.029931636090461306,0.24119529128074646,-0.2423108071088791,-0.939739465713501
1727724522088,7i,0.11892219590409803,0.1s : 1.8s,0.6681619024246823,0.1314160891327452,0.6551107840425351,0.17766684952751902,-0.8314111232757568,0.1725441813468933,0.42605000734329224,0.1506606936454773,-0.05771203339099884,0.07440555095672607,0.23774956836251246,0.25153197843508035,0.03562856913852559,0.2418869137763977,-0.23551610112190247,-0.9412878751754761
1727724522098,7i,0.11892219590409803,0.1s : 1.8s,0.6710686824363775,0.13465367762645947,0.6574203857871804,0.17903129423116773,-0.8714187145233154,0.1669684201478958,0.46715864539146423,0.13905222713947296,-0.07631877064704895,0.08301883935928345,0.2306211891702304,0.25169044324598416,0.041771048982706484,0.24244801700115204,-0.22858230769634247,-0.9428515434265137
1727724522108,7i,0.11892219590409803,0.1s : 1.8s,0.6914124640378027,0.13789420644029898,0.6775222382010984,0.16803651351395102,-0.940131425857544,0.1671266108751297,0.5125479698181152,0.11764310300350189,-0.08488421142101288,0.08480000495910645,0.2230833369235672,0.2517453615129477,0.04843622226814949,0.2429220974445343,-0.22123759984970093,-0.9444801807403564
1727724522118,7i,0.11892219590409803,0.1s : 1.8s,0.7261614244746355,0.14112429037007337,0.7123161861579274,0.15698634548922105,-1.0283743143081665,0.172479510307312,0.5624939799308777,0.10758113861083984,-0.07426896691322327,0.08692026138305664,0.2149027071442593,0.2517358266531444,0.05572083822653051,0.24335578083992004,-0.21325238049030304,-0.9462036490440369
1727724522128,7i,0.11892219590409803,0.1s : 1.8s,0.7679912254323821,0.1443247315126075,0.7543082222904279,0.14207416390140834,-1.0992014408111572,0.181483656167984,0.6128780245780945,0.09652242064476013,-0.05969555675983429,0.08546888828277588,0.20604140070851726,0.25171205258748985,0.06368191694538736,0.24379436671733856,-0.20458664000034332,-0.9480024576187134
1727724522138,7i,0.11892219590409803,0.1s : 1.8s,0.8063055371369123,0.14717761540854143,0.7927593384756184,0.09973938958617774,-1.1290110349655151,0.1974300891160965,0.6467780470848083,0.0705571174621582,-0.04015110433101654,0.05794417858123779,0.1968040946729125,0.25178428660060354,0.07219079974641539,0.2443232536315918,-0.19553612172603607,-0.9497745633125305
1727724522148,7i,0.11892219590409803,0.1s : 1.8s,0.8376010277053653,0.14951720044973713,0.8241480985737679,0.051987268698398474,-1.1312718391418457,0.2248057872056961,0.6792001724243164,0.037507787346839905,-0.010402411222457886,0.034462034702301025,0.18748663847406738,0.2520869077329913,0.0810310839406403,0.2450544685125351,-0.18639017641544342,-0.951423704624176
1727724522158,7i,0.11892219590409803,0.1s : 1.8s,0.8576060715577444,0.15120324304177757,0.8441716373264125,0.014407306594641199,-1.0958716869354248,0.2625584006309509,0.7068498134613037,0.0009022951126098633,0.009530529379844666,0.010766863822937012,0.17839824522393308,0.2527586247456161,0.09014708119850011,0.24610698223114014,-0.17745347321033478,-0.9528596997261047
1727724522168,7i,0.11892219590409803,0.1s : 1.8s,0.8580985261574803,0.15240164295529376,0.8444565233439595,0.04972908875884869,-1.0035377740859985,0.29845863580703735,0.7178372144699097,-0.02799871563911438,0.03362929821014404,-0.023624658584594727,0.1700060838169919,0.25388158236229963,0.09923887176564919,0.24754217267036438,-0.16918835043907166,-0.953990638256073
1727724522178,7i,0.11892219590409803,0.1s : 1.8s,0.844624584764735,0.15311310632185457,0.8306305230735705,0.08393469619914769,-0.9007834792137146,0.33142614364624023,0.7234784364700317,-0.04143086075782776,0.05290089547634125,-0.050299227237701416,0.16261008333725857,0.2554656045642368,0.10815510194428636,0.24936239421367645,-0.16189441084861755,-0.9547819495201111
1727724522188,7i,0.11892219590409803,0.1s : 1.8s,0.8218993516613656,0.15307474257200093,0.8075188341134149,0.09973490160120577,-0.8013812899589539,0.3576931655406952,0.7237207889556885,-0.051854223012924194,0.05293986201286316,-0.06674998998641968,0.15620491680545115,0.25745007093950184,0.11743521220282263,0.2515155076980591,-0.15557046234607697,-0.9552684426307678
1727724522198,7i,0.11892219590409803,0.1s : 1.8s,0.7954597110671553,0.15244276632072226,0.7807159246022383,0.10979005189629866,-0.716260552406311,0.38156408071517944,0.7214247584342957,-0.05525219440460205,0.04968060553073883,-0.0808262825012207,0.1507298063282719,0.2597764765544593,0.12585094665043411,0.25395214557647705,-0.15015970170497894,-0.9554895758628845
1727724522208,7i,0.11892219590409803,0.1s : 1.8s,0.7718990020146215,0.15139051446076876,0.756907511815329,0.10399201987144359,-0.6685732007026672,0.38927578926086426,0.7210372686386108,-0.054634690284729004,0.028911903500556946,-0.08362710475921631,0.14591469793381925,0.2623235012007724,0.13406314079277173,0.256569504737854,-0.14539746940135956,-0.9555268883705139
1727724522218,7i,0.11892219590409803,0.1s : 1.8s,0.7532957251120765,0.1500175131055523,0.7382067428801736,0.10272981681004609,-0.6428406834602356,0.3880823254585266,0.7244242429733276,-0.05920866131782532,0.0038785934448242188,-0.08386123180389404,0.14148084361865762,0.2649571511493429,0.14217436797251226,0.2592513859272003,-0.14100931584835052,-0.9554606676101685
1727724522228,7i,0.11892219590409803,0.1s : 1.8s,0.7404864657696871,0.14846889785391992,0.7254496483961684,0.10318568166764236,-0.6364365816116333,0.3896823525428772,0.726423978805542,-0.06391367316246033,-0.013634592294692993,-0.07985252141952515,0.13723212645860436,0.2676270281152336,0.15030137267047175,0.2619574964046478,-0.1368017941713333,-0.9553342461585999
1727724522238,7i,0.11892219590409803,0.1s : 1.8s,0.7355395555234374,0.1467245300079747,0.7207567897935855,0.11138580782927444,-0.6476582884788513,0.38959038257598877,0.7288709282875061,-0.07273173332214355,-0.025761157274246216,-0.08033215999603271,0.1329861751877373,0.2703255938528963,0.15847152254258032,0.26468729972839355,-0.1325945407152176,-0.9551750421524048
1727724522248,7i,0.11892219590409803,0.1s : 1.8s,0.73450697356445,0.1447517952714187,0.7201023621545126,0.12128538392193262,-0.6666761636734009,0.3930812478065491,0.7321335673332214,-0.08506762981414795,-0.03300519287586212,-0.0799018144607544,0.1286192459757733,0.2730643606613919,0.16667435557164273,0.26745593547821045,-0.128264918923378,-0.9549949765205383
1727724522258,7i,0.11892219590409803,0.1s : 1.8s,0.7343725159008239,0.14258665958476407,0.7203971381251902,0.1277086289001377,-0.6859275102615356,0.3948948383331299,0.7317236661911011,-0.09404605627059937,-0.03156093508005142,-0.08042848110198975,0.1240763789141583,0.27588063899912363,0.17501855881358439,0.27030032873153687,-0.12375826388597488,-0.9547888040542603
1727724522268,7i,0.11892219590409803,0.1s : 1.8s,0.7336387907780427,0.1402409342053355,0.7201099608445112,0.13507784127093686,-0.6814363598823547,0.39225244522094727,0.7250785231590271,-0.09784483909606934,-0.027078777551651,-0.08910191059112549,0.11947599906217335,0.2787245714028868,0.1834091447039074,0.27316832542419434,-0.1191919595003128,-0.954553484916687
1727724522278,7i,0.11892219590409803,0.1s : 1.8s,0.7271164267968508,0.13770713481261387,0.7139573118468083,0.14398652689489905,-0.6511929035186768,0.38893792033195496,0.708014965057373,-0.10009291768074036,-0.016395218670368195,-0.10219943523406982,0.11503813482542381,0.2816170853721425,0.19159110146326722,0.27607253193855286,-0.11478456854820251,-0.9542580842971802
1727724522288,7i,0.11892219590409803,0.1s : 1.8s,0.7125129985246138,0.13494282835795748,0.6996179001006843,0.1564906668397548,-0.6014626026153564,0.3844483494758606,0.6914184093475342,-0.10385340452194214,-0.002854682505130768,-0.11702841520309448,0.11097463068164169,0.2845128374643392,0.1994857130697503,0.27896326780319214,-0.11074698716402054,-0.9538944363594055
1727724522298,7i,0.11892219590409803,0.1s : 1.8s,0.6930753558884324,0.13190721843740724,0.680407182989703,0.17409050854071495,-0.5430353879928589,0.37406161427497864,0.682871401309967,-0.11288857460021973,0.012376651167869568,-0.1319488286972046,0.10741645851835298,0.28740819611674434,0.2072031277452787,0.2818338871002197,-0.10721001029014587,-0.9534546136856079
1727724522308,7i,0.11892219590409803,0.1s : 1.8s,0.6719453866243714,0.12865446876886677,0.6595139348577683,0.18110443853118052,-0.48865920305252075,0.3632553219795227,0.6810348629951477,-0.11544656753540039,0.01824338734149933,-0.13834047317504883,0.1044162827371372,0.2902531233985653,0.21469641588653332,0.2846360206604004,-0.10422664880752563,-0.9529528617858887
1727724522318,7i,0.11892219590409803,0.1s : 1.8s,0.6517632822204972,0.12528644859020713,0.639608225283641,0.18344460894279735,-0.44211286306381226,0.3530890941619873,0.6848359107971191,-0.11921253800392151,0.01870003342628479,-0.13816875219345093,0.10191467472019607,0.29302322323399566,0.2220880788030362,0.287349134683609,-0.101738341152668,-0.9524073600769043
1727724522328,7i,0.11892219590409803,0.1s : 1.8s,0.6344975375488144,0.12179993627939102,0.6226972785213097,0.1893226988359837,-0.4056975841522217,0.3453507721424103,0.6927865147590637,-0.1271132528781891,0.021120883524417877,-0.13870549201965332,0.09985422893438145,0.29572904478961565,0.2293948154007269,0.2899855971336365,-0.09968837350606918,-0.9518248438835144
1727724522338,7i,0.11892219590409803,0.1s : 1.8s,0.6211034063147386,0.11824034771587344,0.6097447511113159,0.19045637132340668,-0.3934987187385559,0.32440444827079773,0.7013552188873291,-0.13046303391456604,0.02054477483034134,-0.13722586631774902,0.09807925125613372,0.29829746291292236,0.23675921666135302,0.29248085618019104,-0.09792207926511765,-0.9512445330619812
1727724522348,7i,0.11892219590409803,0.1s : 1.8s,0.6121428919036495,0.11465300241029766,0.6013099110662216,0.18704725755441762,-0.40750429034233093,0.2984202802181244,0.7066724896430969,-0.12973913550376892,0.018405020236968994,-0.1334754228591919,0.09632795769505015,0.3006284313991887,0.244208069970876,0.2947477102279663,-0.0961790531873703,-0.9507225751876831
1727724522358,7i,0.11892219590409803,0.1s : 1.8s,0.6032035285378783,0.11104230235925655,0.5928946819860187,0.18838801927218202,-0.4106343388557434,0.2741602957248688,0.6988371014595032,-0.13160356879234314,0.02955658733844757,-0.13151788711547852,0.09448591712089682,0.3027277257208976,0.25166617300637845,0.29679521918296814,-0.09434539079666138,-0.9502691626548767
1727724522368,7i,0.11892219590409803,0.1s : 1.8s,0.5887888424658279,0.10741196774736773,0.5789084298892941,0.1938304124019029,-0.3932153880596161,0.24296721816062927,0.6718044281005859,-0.1255776584148407,0.04219287633895874,-0.14149290323257446,0.0926794867111552,0.3045871861226521,0.2589130384849435,0.2986123263835907,-0.09254686534404755,-0.9498767256736755
1727724522378,7i,0.11892219590409803,0.1s : 1.8s,0.5673157276070946,0.10377473251786218,0.5577436146485348,0.19645545714367574,-0.3720654845237732,0.2077503353357315,0.6280608773231506,-0.12195196747779846,0.0532819926738739,-0.14451122283935547,0.09095923482732432,0.3061501391147673,0.26586099775723454,0.30014410614967346,-0.09083385765552521,-0.949559211730957
1727724522388,7i,0.11892219590409803,0.1s : 1.8s,0.5412945763121546,0.10014169499542033,0.5319506173211939,0.19651587641149026,-0.3585062623023987,0.17219100892543793,0.5817911028862,-0.12449803948402405,0.058709897100925446,-0.14025646448135376,0.08926968954339663,0.3074012926205039,0.2722995640320936,0.30137792229652405,-0.08915117383003235,-0.9493278861045837
1727724522398,7i,0.11892219590409803,0.1s : 1.8s,0.5114153348465934,0.0965212312588521,0.5022243489044795,0.18981105187255565,-0.34642642736434937,0.1348210871219635,0.5301539897918701,-0.12849938869476318,0.05298890918493271,-0.12926065921783447,0.08755506260383292,0.30835333617361965,0.27824406284952974,0.30232754349708557,-0.08744323998689651,-0.949184775352478
1727724522408,7i,0.11892219590409803,0.1s : 1.8s,0.47751478395533764,0.09291754690378551,0.468387337972853,0.1849181422290018,-0.3319162130355835,0.10328926146030426,0.46853727102279663,-0.13489031791687012,0.05093467980623245,-0.11577987670898438,0.08579942095285505,0.3090094103150059,0.28364424793599774,0.302996426820755,-0.08569419384002686,-0.9491310119628906
1727724522418,7i,0.11892219590409803,0.1s : 1.8s,0.43962458523121817,0.08932298653152469,0.4304546201596745,0.18325113546231458,-0.30793496966362,0.07815336436033249,0.4025827944278717,-0.14562052488327026,0.04299227148294449,-0.10260266065597534,0.08404575987736346,0.3094474560128863,0.288379795999998,0.30345746874809265,-0.0839468464255333,-0.9491398930549622
1727724522428,7i,0.11892219590409803,0.1s : 1.8s,0.4020600364948642,0.08572466342859551,0.3928149119194759,0.18198218536279975,-0.30273541808128357,0.057496558874845505,0.3408973515033722,-0.1582571566104889,0.023202039301395416,-0.08679777383804321,0.08225470609263469,0.30972369420832674,0.2924119555070691,0.3037649691104889,-0.08216198533773422,-0.9491977095603943
1727724522438,7i,0.11892219590409803,0.1s : 1.8s,0.3682942355127529,0.08210898124229606,0.35902473328626733,0.18465410489988338,-0.30707475543022156,0.0481342151761055,0.28939148783683777,-0.1710430085659027,0.007820479571819305,-0.06913948059082031,0.0802791056189043,0.30991224683751933,0.29591533883631155,0.3039928376674652,-0.08019290119409561,-0.9492931365966797
1727724522448,7i,0.11892219590409803,0.1s : 1.8s,0.3404579024729255,0.07845809029709212,0.33129429729954213,0.19195416944726992,-0.3173002302646637,0.0477035827934742,0.24917082488536835,-0.18344062566757202,-0.002943381667137146,-0.05645596981048584,0.07809911543875127,0.3100897398580624,0.29898746776801927,0.3042139708995819,-0.07801974564790726,-0.9494034051895142
1727724522458,7i,0.11892219590409803,0.1s : 1.8s,0.31766676398499344,0.07476151053225545,0.3087440517380585,0.19718291813538819,-0.31877338886260986,0.04786758869886398,0.2197936624288559,-0.19094398617744446,-0.011800616979598999,-0.04777282476425171,0.07575042636093365,0.3103006989796652,0.3017152043377537,0.30446934700012207,-0.07567800581455231,-0.9495110511779785
1727724522468,7i,0.11892219590409803,0.1s : 1.8s,0.2992721579630368,0.0710214029967475,0.2907228660567078,0.19753228729708705,-0.31784552335739136,0.050471093505620956,0.19757305085659027,-0.19304761290550232,-0.015243031084537506,-0.038977861404418945,0.07332360972049047,0.31054568376641,0.30420330065332374,0.30475717782974243,-0.0732579231262207,-0.9496085047721863
1727724522478,7i,0.11892219590409803,0.1s : 1.8s,0.28313707915354464,0.06721175013791165,0.27504397145729176,0.20073465892284006,-0.30791792273521423,0.057378582656383514,0.1783744841814041,-0.19713115692138672,-0.019630655646324158,-0.032378196716308594,0.07088277333402211,0.3108686076448893,0.3065132663518906,0.3051176071166992,-0.07082343101501465,-0.9496774673461914
1727724522488,7i,0.11892219590409803,0.1s : 1.8s,0.26541116133556775,0.06329900576367184,0.25775244020343513,0.2050468669723471,-0.27703723311424255,0.06999397277832031,0.15911982953548431,-0.20257845520973206,-0.0102882981300354,-0.03000563383102417,0.06856178080248819,0.3112984391689904,0.30856853750522584,0.30557531118392944,-0.068508081138134,-0.9497001767158508
1727724522498,7i,0.11892219590409803,0.1s : 1.8s,0.2433388401569521,0.05930562630875097,0.23600134282892854,0.20600505028143995,-0.22704583406448364,0.08498130738735199,0.13781264424324036,-0.20376604795455933,0.00010925531387329102,-0.03028970956802368,0.06657993361975263,0.311895212772264,0.3102792717547532,0.3061830699443817,-0.0665307566523552,-0.9496449828147888
1727724522508,7i,0.11892219590409803,0.1s : 1.8s,0.21697764757814444,0.05528814404198989,0.2098154443241432,0.20027753047063712,-0.1692667007446289,0.0965050756931305,0.1155901625752449,-0.19787856936454773,0.006922207772731781,-0.030120491981506348,0.06504299659586736,0.3126524042255255,0.3116368272137447,0.30693313479423523,-0.06499714404344559,-0.9495090246200562
1727724522518,7i,0.11892219590409803,0.1s : 1.8s,0.18660639702292608,0.051285542615726265,0.1794205688556595,0.18594734714943237,-0.10323309153318405,0.1110495775938034,0.08778795599937439,-0.1826658844947815,0.013832241296768188,-0.03191018104553223,0.06403161456071152,0.3135637741662554,0.3125819773862261,0.3078184723854065,-0.0639878660440445,-0.9492909908294678
1727724522528,7i,0.11892219590409803,0.1s : 1.8s,0.15546941954981702,0.047345441057729844,0.1480849405787302,0.16586809973869196,-0.04496019333600998,0.12354033440351486,0.05462521314620972,-0.16204425692558289,0.015423610806465149,-0.03187471628189087,0.0635162171637683,0.3146388758329045,0.3130175010573769,0.308849036693573,-0.06347351521253586,-0.9489907026290894
1727724522538,7i,0.11892219590409803,0.1s : 1.8s,0.1289041364096416,0.0436701956588761,0.12128145115651846,0.14256369307332994,-0.006422388833016157,0.13350482285022736,0.023266423493623734,-0.1386909782886505,0.003960251808166504,-0.03276485204696655,0.06337458977903843,0.31586653347157767,0.31298720933104446,0.3100166320800781,-0.06333217769861221,-0.9486193656921387
1727724522548,7i,0.11892219590409803,0.1s : 1.8s,0.11056584439243429,0.040289479328945464,0.10296389562178807,0.12363635739210077,0.0008336597820743918,0.13872142136096954,-0.014329420402646065,-0.11930763721466064,-0.01326865702867508,-0.029590189456939697,0.06334227245757569,0.31719630218154266,0.31256070245583467,0.31127846240997314,-0.06329992413520813,-0.948208212852478
1727724522558,7i,0.11892219590409803,0.1s : 1.8s,0.10668507510749323,0.037200546945288585,0.09998912219668123,0.1093587201921171,-0.02011662907898426,0.14595580101013184,-0.04616997390985489,-0.10258960723876953,-0.0276140496134758,-0.025926172733306885,0.06314138165770636,0.31859839612857743,0.31185435388916366,0.3126116096973419,-0.0630994364619255,-0.9477829337120056
1727724522568,7i,0.11892219590409803,0.1s : 1.8s,0.10426845082053444,0.03432811989742244,0.09845552305900568,0.10425126467984591,-0.05190305411815643,0.15459856390953064,-0.07330252230167389,-0.09254106879234314,-0.04202535003423691,-0.02320230007171631,0.06258396661176198,0.320091765639417,0.31096759486176145,0.31403765082359314,-0.062543123960495,-0.9473482370376587
1727724522578,7i,0.11892219590409803,0.1s : 1.8s,0.11056483773087473,0.03157238981840012,0.10596116054295389,0.10296073696046205,-0.08836466073989868,0.1655089110136032,-0.09304294735193253,-0.0835304856300354,-0.05601915344595909,-0.02203238010406494,0.06163460076087503,0.3216909846785512,0.3099537557922306,0.3155708909034729,-0.06159558519721031,-0.9469007253646851
1727724522588,7i,0.11892219590409803,0.1s : 1.8s,0.12493506408086782,0.028937953793279035,0.12153750477588635,0.097923649400739,-0.13934315741062164,0.1774502545595169,-0.09791812300682068,-0.07347002625465393,-0.06287726014852524,-0.015415787696838379,0.060221246777630806,0.323413859620073,0.3089579757905055,0.31722918152809143,-0.06018485501408577,-0.9464372396469116
1727724522598,7i,0.11892219590409803,0.1s : 1.8s,0.1433797219944278,0.026489022827282695,0.14091159054121524,0.08873208732366336,-0.18820896744728088,0.1892865002155304,-0.09337922930717468,-0.05868285894393921,-0.06612452864646912,-0.007566511631011963,0.05834398295120632,0.32516490695005235,0.3081261365946906,0.3189214766025543,-0.05831088870763779,-0.9459856748580933
1727724522608,7i,0.11892219590409803,0.1s : 1.8s,0.16303221317091654,0.024329702387025316,0.1612066007121481,0.07532292774575472,-0.2262580692768097,0.20192000269889832,-0.08237504959106445,-0.041724592447280884,-0.06242833286523819,-0.005941808223724365,0.05608555602009182,0.32705124166888466,0.307470825879971,0.32074683904647827,-0.05605615675449371,-0.9455047249794006
1727724522618,7i,0.11892219590409803,0.1s : 1.8s,0.17985800945418087,0.022457876881682857,0.17845040580168872,0.06708012253745224,-0.24864967167377472,0.20093055069446564,-0.07656882703304291,-0.02310118079185486,-0.06292673945426941,-0.0025107264518737793,0.0535692108993382,0.3289816142464566,0.3070515607901011,0.32261598110198975,-0.05354359373450279,-0.9450142979621887
1727724522628,7i,0.11892219590409803,0.1s : 1.8s,0.19088318775106242,0.020945779399664,0.18973050806696312,0.05106398815340292,-0.241307333111763,0.20299556851387024,-0.06922276318073273,-0.017568856477737427,-0.04794609174132347,-0.00019609928131103516,0.05099872340245746,0.3309452494685307,0.30674393257645455,0.3245146572589874,-0.05097661912441254,-0.944506049156189
1727724522638,7i,0.11892219590409803,0.1s : 1.8s,0.19249041812188925,0.019645968830365724,0.19148523958116473,0.04618720406343624,-0.21001067757606506,0.20986953377723694,-0.06848007440567017,-0.017377406358718872,-0.04277751222252846,-0.0011696219444274902,0.048641794907026636,0.3329643781517963,0.3064388123813141,0.32645943760871887,-0.04862261563539505,-0.9439597725868225
1727724522648,7i,0.11892219590409803,0.1s : 1.8s,0.19187502051347696,0.018465967669742497,0.19098437510714647,0.04740491427644519,-0.1674829125404358,0.21538840234279633,-0.06535805016756058,-0.01884394884109497,-0.04343791678547859,-0.0022975802421569824,0.04665161723380023,0.33505150327703526,0.3060427850064755,0.32846006751060486,-0.046634696424007416,-0.9433658719062805
1727724522658,7i,0.11892219590409803,0.1s : 1.8s,0.18946464704954546,0.017368222749339617,0.18866689513568127,0.06002752998996557,-0.12380706518888474,0.2249097377061844,-0.05875147879123688,-0.030444413423538208,-0.051640670746564865,-0.0031117796897888184,0.045115330479389364,0.33721519320602944,0.30550048529194923,0.3305237591266632,-0.045100025832653046,-0.9427194595336914
1727724522668,7i,0.11892219590409803,0.1s : 1.8s,0.18349966593666628,0.016359054990851035,0.18276900371418134,0.0695820038175568,-0.09868653863668442,0.22698567807674408,-0.04055143892765045,-0.03272262215614319,-0.06133539602160454,0.002975642681121826,0.04394912609583397,0.3394363049885827,0.30496608167224554,0.3326341211795807,-0.04393497854471207,-0.942031979560852
1727724522678,7i,0.11892219590409803,0.1s : 1.8s,0.17736804703453485,0.01549348247519341,0.17669005662355716,0.07736973246785796,-0.09628862887620926,0.22111491858959198,-0.006254183128476143,-0.01828208565711975,-0.07339300215244293,0.016288280487060547,0.04299902407681612,0.3416355179580646,0.3046884566208506,0.33471885323524475,-0.04298577457666397,-0.9413370490074158
1727724522688,7i,0.11892219590409803,0.1s : 1.8s,0.17435506795988076,0.014887504266571119,0.1737183120457008,0.09082205160925048,-0.1157829612493515,0.20822575688362122,0.03799770027399063,-0.005383580923080444,-0.08606617897748947,0.02850043773651123,0.042120090079212504,0.34372504412840443,0.3047915683367103,0.33669766783714294,-0.04210763797163963,-0.9406708478927612
1727724522698,7i,0.11892219590409803,0.1s : 1.8s,0.17217249330917872,0.014811299851532282,0.17153423229491888,0.11229502817889266,-0.15055705606937408,0.1866278350353241,0.08956219255924225,0.0041390061378479,-0.1046849936246872,0.0404239296913147,0.041170139795999455,0.34562436382796535,0.3054635072268357,0.3384971022605896,-0.04115850850939751,-0.9400668740272522
1727724522708,7i,0.11892219590409803,0.1s : 1.8s,0.1715321486325004,0.01531727228131037,0.17084688813186621,0.13043331307924777,-0.20608901977539062,0.15600892901420593,0.14714930951595306,0.008803486824035645,-0.11934477835893631,0.051886141300201416,0.03996760076576799,0.3472353349165228,0.30681314628420636,0.34002768993377686,-0.0399569608271122,-0.9395661950111389
1727724522718,7i,0.11892219590409803,0.1s : 1.8s,0.18313575649764546,0.016385746958046267,0.18240124068819208,0.13634245430974626,-0.2613983750343323,0.12790796160697937,0.20325006544589996,0.010405689477920532,-0.12350286543369293,0.0568157434463501,0.03834122772167339,0.34852794805122955,0.30881751527735585,0.34126365184783936,-0.038331832736730576,-0.9391856789588928
1727724522728,7i,0.11892219590409803,0.1s : 1.8s,0.20307990812580054,0.01778719355257101,0.2022994434740416,0.12775407815384063,-0.2930242121219635,0.10159220546483994,0.25912001729011536,0.009135186672210693,-0.11656200885772705,0.05148738622665405,0.036491739006272145,0.3495307246520335,0.31160641138347567,0.3422289490699768,-0.03648364171385765,-0.938908040523529
1727724522738,7i,0.11892219590409803,0.1s : 1.8s,0.2247700368391926,0.019411076673345178,0.2239303006809787,0.10896328629208689,-0.2967694103717804,0.07595404237508774,0.30627933144569397,0.01365804672241211,-0.09939801692962646,0.04250282049179077,0.0346573630412801,0.350280353786801,0.3152925265816976,0.342955082654953,-0.03465042635798454,-0.938712477684021
1727724522748,7i,0.11892219590409803,0.1s : 1.8s,0.24138691417719593,0.0211623812164707,0.24045747224246894,0.08415782875322186,-0.263294517993927,0.05273953080177307,0.3431127071380615,0.019012659788131714,-0.07722403109073639,0.02752286195755005,0.033118315217100264,0.35076655941765383,0.3189501986589812,0.3434293568134308,-0.033112261444330215,-0.9385946393013
1727724522758,7i,0.11892219590409803,0.1s : 1.8s,0.25113523550565614,0.022842098686842786,0.2500942723055886,0.06057038902538598,-0.2049221694469452,0.03046960011124611,0.3741160035133362,0.023998409509658813,-0.05323418602347374,0.016092538833618164,0.032144261645218185,0.35103543699138184,0.32275490235846127,0.3436926603317261,-0.032138727605342865,-0.9385321140289307
1727724522768,7i,0.11892219590409803,0.1s : 1.8s,0.25893614671600185,0.024469225153698045,0.25777739446372805,0.057963545092579456,-0.1575741022825241,0.0050718337297439575,0.4041178524494171,0.028261452913284302,-0.04910939186811447,0.01222008466720581,0.031782787751237995,0.3510574692092726,0.3266621581272757,0.3437173068523407,-0.03177743777632713,-0.9385353326797485
1727724522778,7i,0.11892219590409803,0.1s : 1.8s,0.26902865083750793,0.026092667973919202,0.26776031754061796,0.06165943457026644,-0.13076604902744293,-0.02545398473739624,0.43438270688056946,0.03145712614059448,-0.051273927092552185,0.013539552688598633,0.031861338681047215,0.3508075285837415,0.3307066159418687,0.3434818387031555,-0.03185594826936722,-0.9386188983917236
1727724522788,7i,0.11892219590409803,0.1s : 1.8s,0.2855399309199431,0.027742767636659754,0.28418900575783046,0.07839490951800261,-0.1360367089509964,-0.05943059176206589,0.4719915986061096,0.03785243630409241,-0.06642727553844452,0.017331242561340332,0.032180558512243496,0.35022409679278216,0.3349981699431703,0.3429306745529175,-0.03217500448226929,-0.9388095140457153
1727724522798,7i,0.11892219590409803,0.1s : 1.8s,0.3108339495954626,0.02956144233508487,0.309425056109204,0.10929230907420422,-0.18429477512836456,-0.09921804070472717,0.5156834721565247,0.04718366265296936,-0.09423033893108368,0.02896815538406372,0.03237748221022214,0.3492427347494845,0.33978942487715086,0.34200701117515564,-0.032371826469898224,-0.9391396641731262
1727724522808,7i,0.11892219590409803,0.1s : 1.8s,0.3462879069956103,0.031692976003731756,0.34483455424801523,0.12877779265814812,-0.2622537612915039,-0.1384464055299759,0.569983184337616,0.04740390181541443,-0.11397784948348999,0.036682963371276855,0.03213056980499077,0.3478521179467937,0.3452612048297144,0.34070342779159546,-0.032125040888786316,-0.9396218061447144
1727724522818,7i,0.11892219590409803,0.1s : 1.8s,0.38988641714787,0.034121065139234415,0.3883904880274065,0.14024497884982115,-0.34748515486717224,-0.17021822929382324,0.6255547404289246,0.04959705471992493,-0.12268860638141632,0.0464358925819397,0.03129292581752564,0.34607737838713787,0.3514930774796436,0.3390443027019501,-0.031287819147109985,-0.9402499794960022
1727724522828,7i,0.11892219590409803,0.1s : 1.8s,0.4382274686955426,0.036747527193702126,0.4366840202760468,0.14505004859150789,-0.42644813656806946,-0.19863522052764893,0.6762608289718628,0.05067583918571472,-0.12635762989521027,0.0500522255897522,0.02983574650238139,0.34398983291040564,0.35851827297556754,0.3370957672595978,-0.02983132004737854,-0.9409976601600647
1727724522838,7i,0.11892219590409803,0.1s : 1.8s,0.4870716479302722,0.03942779861812708,0.4854732113244144,0.1394185084022439,-0.48981595039367676,-0.22372014820575714,0.7177597880363464,0.05059713125228882,-0.11940854042768478,0.05117666721343994,0.02784235492631955,0.34162170493231914,0.3662027216045436,0.33488568663597107,-0.027838757261633873,-0.9418474435806274
1727724522848,7i,0.11892219590409803,0.1s : 1.8s,0.5318949068014609,0.04212874497811354,0.5302238779307321,0.12911015919992233,-0.5306371450424194,-0.23589026927947998,0.7496535778045654,0.04075703024864197,-0.11213957518339157,0.04932558536529541,0.025466923436515545,0.33907122856786903,0.37443430486594814,0.3325034976005554,-0.025464171543717384,-0.9427582025527954
1727724522858,7i,0.11892219590409803,0.1s : 1.8s,0.5682023066013776,0.04481075588482697,0.5664325709068613,0.117665320333044,-0.5411949753761292,-0.22855272889137268,0.7728107571601868,0.014659613370895386,-0.1067304015159607,0.04731643199920654,0.022910261123693352,0.33651482342981,0.383022746359901,0.3301127552986145,-0.022908257320523262,-0.943663477897644
1727724522868,7i,0.11892219590409803,0.1s : 1.8s,0.5941140240579329,0.04743700663023222,0.5922171932528415,0.1076095401691698,-0.5249497294425964,-0.21106001734733582,0.7906131744384766,-0.006854653358459473,-0.09836270660161972,0.043099939823150635,0.02042837214486131,0.3340871754626863,0.3917453301652408,0.3278385400772095,-0.020426951348781586,-0.9445129036903381
1727724522878,7i,0.11892219590409803,0.1s : 1.8s,0.6077667942544505,0.04999187969291885,0.6057072627623845,0.1062306040535662,-0.48802459239959717,-0.17427054047584534,0.7966753244400024,-0.02320536971092224,-0.09499628096818924,0.04149889945983887,0.018224937128099524,0.3319660147844039,0.40051064113012586,0.32584822177886963,-0.018223928287625313,-0.9452464580535889
1727724522888,7i,0.11892219590409803,0.1s : 1.8s,0.6088200952617836,0.05247584147258288,0.6065543623256794,0.10351126601698717,-0.43217676877975464,-0.1303129345178604,0.8012295961380005,-0.025844544172286987,-0.09240089356899261,0.038842201232910156,0.016456035381349047,0.3302765070788986,0.4091943261095038,0.3242606818675995,-0.01645529270172119,-0.9458246231079102
1727724522898,7i,0.11892219590409803,0.1s : 1.8s,0.6084353858298328,0.0549082968175153,0.6059527190057794,0.10880510449521517,-0.39040878415107727,-0.08241048455238342,0.8129258155822754,-0.026799261569976807,-0.09955212473869324,0.03478109836578369,0.015194551437753277,0.32906914987367736,0.41776007515500835,0.3231249451637268,-0.015193967148661613,-0.9462343454360962
1727724522908,7i,0.11892219590409803,0.1s : 1.8s,0.6083832221795916,0.05733231261536226,0.6056757803972326,0.1278404370075027,-0.38250985741615295,-0.03924516215920448,0.8292092084884644,-0.0302925705909729,-0.11844868957996368,0.037355661392211914,0.014196431277503552,0.3283214603379731,0.4264039078701938,0.3224221169948578,-0.01419595442712307,-0.9464895129203796
1727724522918,7i,0.11892219590409803,0.1s : 1.8s,0.6143085482615306,0.059770701753173436,0.6113938629714257,0.1409226867366774,-0.40157637000083923,0.01154828630387783,0.8567217588424683,-0.038398295640945435,-0.130552276968956,0.03661799430847168,0.013201151962009683,0.3280462505541746,0.435235231570518,0.32216599583625793,-0.013200768269598484,-0.9465911388397217
1727724522928,7i,0.11892219590409803,0.1s : 1.8s,0.6278776119950364,0.0622486738461094,0.6247842813715709,0.14881102224017886,-0.4329864978790283,0.062119316309690475,0.8879933953285217,-0.04572734236717224,-0.13555249571800232,0.04097867012023926,0.012061321611200314,0.32828824627462205,0.4444566132546816,0.32239970564842224,-0.012061028741300106,-0.9465267658233643
1727724522938,7i,0.11892219590409803,0.1s : 1.8s,0.6440631442105245,0.06474213887222713,0.6408008966789888,0.14743445203154731,-0.4477687478065491,0.11434785276651382,0.9110212922096252,-0.05322396755218506,-0.1318831443786621,0.03887110948562622,0.010786720635530924,0.3290458756194996,0.45402650882589113,0.32312142848968506,-0.0107865110039711,-0.9462960362434387
1727724522948,7i,0.11892219590409803,0.1s : 1.8s,0.6567307750039926,0.06721223020744974,0.6532823485659822,0.13364209666713678,-0.4346316456794739,0.1626189947128296,0.9161542654037476,-0.061858803033828735,-0.11387905478477478,0.0326383113861084,0.009564692426985367,0.33033010500927673,0.46374888149769905,0.32434046268463135,-0.00956454686820507,-0.9458920359611511
1727724522958,7i,0.11892219590409803,0.1s : 1.8s,0.6616500295845059,0.06964119676774269,0.6579748212218565,0.12927921765606346,-0.40730124711990356,0.20716513693332672,0.900734543800354,-0.06923633813858032,-0.10548414289951324,0.028152108192443848,0.008529619637160535,0.3320937869513863,0.47331626461557724,0.3260112702846527,-0.00852951593697071,-0.9453274011611938
1727724522968,7i,0.11892219590409803,0.1s : 1.8s,0.6597668755571069,0.07201274174946704,0.655825049161826,0.1299886345184203,-0.3551000952720642,0.25249722599983215,0.8594257235527039,-0.08151406049728394,-0.09869099408388138,0.022640466690063477,0.007784905972196666,0.33431405957478955,0.48250334418375374,0.32811135053634644,-0.007784827146679163,-0.9446069598197937
1727724522978,7i,0.11892219590409803,0.1s : 1.8s,0.643679290027587,0.07434097862275277,0.6393719162645712,0.13335696424164467,-0.30800312757492065,0.2973158061504364,0.8078300952911377,-0.0843576192855835,-0.10095775872468948,0.021803736686706543,0.007410228583449037,0.33700156064233244,0.4910675641251967,0.330649733543396,-0.007410160731524229,-0.9437244534492493
1727724522988,7i,0.11892219590409803,0.1s : 1.8s,0.6271277869314251,0.07665284154924115,0.6224255803097539,0.15496620477571882,-0.2855913043022156,0.3397689759731293,0.7664411664009094,-0.09296560287475586,-0.12070930004119873,0.028305232524871826,0.007235705382077607,0.34012551113286654,0.4990966391426009,0.33359667658805847,-0.007235642056912184,-0.9426881074905396
1727724522998,7i,0.11892219590409803,0.1s : 1.8s,0.6145211732660747,0.07908661053012243,0.6094108469884416,0.17276888152488198,-0.2843436300754547,0.3770240247249603,0.7390583753585815,-0.09582149982452393,-0.13919469714164734,0.035946667194366455,0.007091369519917002,0.3436425109361389,0.5067384462826107,0.3369103968143463,-0.007091309875249863,-0.941510021686554
1727724523008,7i,0.11892219590409803,0.1s : 1.8s,0.6128739513636557,0.0817679924953224,0.6073948268329139,0.18943016212366884,-0.31000879406929016,0.4083116352558136,0.729009211063385,-0.09616556763648987,-0.1553758978843689,0.049942970275878906,0.006794554137125962,0.34751053335399334,0.5142695375015206,0.34055036306381226,-0.006794502027332783,-0.9402016997337341
1727724523018,7i,0.11892219590409803,0.1s : 1.8s,0.6134541289873802,0.08472871660745823,0.607574697427171,0.204801356393425,-0.3525126874446869,0.4364512860774994,0.7318822145462036,-0.1045820415019989,-0.16543368995189667,0.06031489372253418,0.006181935347164773,0.3516763648019668,0.5219094738357258,0.3444654643535614,-0.006181896198540926,-0.9387786388397217
1727724523028,7i,0.11892219590409803,0.1s : 1.8s,0.6235433525280794,0.08792096219964105,0.6173137102704312,0.2134906067449129,-0.39977261424064636,0.4604032337665558,0.7480665445327759,-0.11674392223358154,-0.16537679731845856,0.06782042980194092,0.005216492158196094,0.3560996302290692,0.5297776652746362,0.34861648082733154,-0.005216468591243029,-0.9372509717941284
1727724523038,7i,0.11892219590409803,0.1s : 1.8s,0.6405846611019183,0.0912550194019622,0.634051440715189,0.22293925753691146,-0.44077080488204956,0.4882645308971405,0.7670494914054871,-0.14000928401947021,-0.15921108424663544,0.0689285397529602,0.003935886022947201,0.3607856972849211,0.5380052959753518,0.3530067205429077,-0.003935875836759806,-0.9356124997138977
1727724523048,7i,0.11892219590409803,0.1s : 1.8s,0.6576581847150599,0.09459358416301214,0.6508197459803313,0.2247228517303198,-0.44801539182662964,0.5178514719009399,0.7735670804977417,-0.16761723160743713,-0.13895225524902344,0.05565154552459717,0.002496717621332141,0.3657843160043449,0.5464791973826844,0.35768070816993713,-0.002496714936569333,-0.9338406324386597
