timestamp,club,max_speed,tempo,speed,l.speed,t.spped,acc,rotation.x,rotation.y,rotation.z,userAcceleration.x,userAcceleration.y,userAcceleration.z,pitch,roll,yaw,gravity.x,gravity.y,gravity.z
1727724466436,7i,10.89534997292762,1.0s : 0.2s,0.06817976352063713,0.0007517720941435451,0.06817561875368988,0.04517381660455876,0.11422733217477798,0.11233117431402206,0.011032594367861748,0.008415281772613525,0.01587386429309845,-0.04144728183746338,-0.1491993324281531,1.8472862528203118,3.028749704304959,0.9513320922851562,0.14864641427993774,0.26994791626930237
1727724466446,7i,10.89534997292762,1.0s : 0.2s,0.07341981408280218,0.0014455987221558774,0.07340558115216947,0.027937091019974377,0.08399512618780136,0.10518724471330643,0.015654245391488075,-0.0029708147048950195,-0.004377469420433044,-0.027431607246398926,-0.14935658950601347,1.848038354949767,3.0277537179823644,0.9511061906814575,0.14880192279815674,0.27065691351890564
1727724466456,7i,10.89534997292762,1.0s : 0.2s,0.07801131375986817,0.0021203676689260753,0.07798249236520444,0.03543697161538785,0.10449281334877014,0.09261592477560043,0.023252010345458984,-0.0073822736740112305,0.006176412105560303,-0.034104734659194946,-0.14942354730231674,1.8485600385463432,3.0267602537203477,0.9509551525115967,0.148868128657341,0.27115029096603394
1727724466466,7i,10.89534997292762,1.0s : 0.2s,0.09176706784557209,0.0029485340131807877,0.09171968648085835,0.06699757451892258,0.15995526313781738,0.09390276670455933,0.03845040500164032,-0.023214757442474365,0.023494333028793335,-0.05829036235809326,-0.14954783710011454,1.8487422337098438,3.025331532453493,0.9508880972862244,0.14899103343486786,0.2713185250759125
1727724466476,7i,10.89534997292762,1.0s : 0.2s,0.11753307231041613,0.00405786047758026,0.11746300206903448,0.08999955970915292,0.22334089875221252,0.1466471254825592,0.014548067934811115,-0.05144697427749634,0.021229103207588196,-0.07072803378105164,-0.14981719902851084,1.8490927881816317,3.023312308997495,0.9507544040679932,0.1492573767900467,0.2716408371925354
1727724466486,7i,10.89534997292762,1.0s : 0.2s,0.19371195485091613,0.005225678608973936,0.19364145665440313,0.06904553482539508,0.2529861629009247,0.3651301860809326,-0.5292094945907593,-0.036469459533691406,0.017248153686523438,-0.05603361129760742,-0.15058719113087501,1.849559212919549,3.020925309141962,0.9505167603492737,0.15001870691776276,0.272052526473999
1727724466496,7i,10.89534997292762,1.0s : 0.2s,0.2949767483307819,0.0066738376060351,0.2949012410069,0.11306853704132776,0.2146732360124588,0.3578997552394867,-0.741553783416748,-0.10078996419906616,0.018194183707237244,-0.04790458083152771,-0.15003164708179886,1.8495553260501412,3.017095653580734,0.950597882270813,0.14946942031383514,0.2720717489719391
1727724466506,7i,10.89534997292762,1.0s : 0.2s,0.27445964559218494,0.008109136079636092,0.27433982388750944,0.050064635112834065,0.1840093433856964,0.17220471799373627,-0.22784756124019623,-0.0431445837020874,0.014506518840789795,-0.020846426486968994,-0.15028893304899874,1.8500274002219024,3.013889482943551,0.9504320621490479,0.1497238129377365,0.27250978350639343
1727724466516,7i,10.89534997292762,1.0s : 0.2s,0.21156750808031505,0.00933532768021962,0.2113614490213792,0.04534038950991383,0.1627330780029297,0.08164339512586594,0.04815798997879028,-0.01410001516342163,-0.008732497692108154,0.04219815135002136,-0.15076726668707294,1.8506955229510025,3.011751617227642,0.9501808881759644,0.15019674599170685,0.27312493324279785
1727724466526,7i,10.89534997292762,1.0s : 0.2s,0.16829365266130306,0.010324208945426053,0.16797667765417468,0.08205515262338292,0.11972622573375702,0.07497750967741013,0.02901572361588478,-0.048014283180236816,-0.028332456946372986,0.0602075457572937,-0.15082130637797705,1.851191569186881,3.010260587442072,0.95003741979599,0.1502501666545868,0.2735939621925354
1727724466536,7i,10.89534997292762,1.0s : 0.2s,0.13374235297075,0.010901259539823134,0.13329733500186,0.08173316750603053,0.07253634929656982,0.06381583958864212,0.017393821850419044,-0.011116445064544678,-0.006431713700294495,0.08071783185005188,-0.15081692454605494,1.8517027035278013,3.009194220243844,0.949898362159729,0.15024583041667938,0.2740797698497772
1727724466546,7i,10.89534997292762,1.0s : 0.2s,0.0993169442875855,0.010994616743599143,0.09870650345992775,0.10043911187071491,-0.0023216535337269306,0.053980253636837006,0.017499282956123352,-0.01597505807876587,-0.02427704632282257,0.09614279866218567,-0.15077851105961257,1.8522008350480983,3.008829760063819,0.9497672915458679,0.15020786225795746,0.2745545506477356
1727724466556,7i,10.89534997292762,1.0s : 0.2s,0.07778764755221418,0.010910641735113497,0.0770186731165598,0.0902653837603442,0.024876145645976067,0.04219354689121246,0.020300263538956642,-0.017897963523864746,-0.01568812131881714,0.08707115054130554,-0.15064137408899486,1.8526047622769395,3.0087367971530896,0.9496758580207825,0.15007227659225464,0.2749437987804413
1727724466566,7i,10.89534997292762,1.0s : 0.2s,0.07725056691797216,0.010993254664812019,0.07646436059382622,0.07207628269836884,0.120689757168293,0.04481596499681473,0.019722890108823776,-0.03753077983856201,0.008156612515449524,0.060990989208221436,-0.15067703761598175,1.8528825489743155,3.0079835302892564,0.9495941996574402,0.15010753273963928,0.2752060890197754
1727724466576,7i,10.89534997292762,1.0s : 0.2s,0.09221954271173954,0.01124551123833433,0.0915313199672705,0.05577798671302654,0.2127549797296524,0.03954903036355972,0.026570409536361694,-0.03389453887939453,0.005790159106254578,0.04391831159591675,-0.15097163849438042,1.8530220854026325,3.006259767636672,0.94951331615448,0.15039879083633423,0.2753262519836426
1727724466586,7i,10.89534997292762,1.0s : 0.2s,0.1120849954249096,0.01161940127288427,0.11148110025229255,0.033578346117533645,0.24507057666778564,0.030872182920575142,0.031573157757520676,-0.022642195224761963,-0.007450506091117859,0.02365007996559143,-0.15135354556228509,1.853011576062034,3.0038958678557193,0.9494612216949463,0.15077634155750275,0.27530035376548767
1727724466596,7i,10.89534997292762,1.0s : 0.2s,0.11682560222039814,0.01206016227188371,0.11620143639445481,0.03621177225768224,0.19716642796993256,0.021623291075229645,0.028269238770008087,-0.017479896545410156,-0.03171178698539734,-0.00032898783683776855,-0.15167749944091485,1.852969606630144,3.001623651254727,0.9494258761405945,0.15109658241271973,0.27524688839912415
1727724466616,7i,10.89534997292762,1.0s : 0.2s,0.08474657831207882,0.012498970592715021,0.08381979640710036,0.03647431219421872,0.022585026919841766,-0.04709496349096298,0.00863748136907816,0.0027483701705932617,-0.029122307896614075,-0.021787911653518677,-0.15188271520915342,1.8525661131227333,2.99918434992471,0.9495068192481995,0.15129944682121277,0.2748550772666931
1727724466606,7i,10.89534997292762,1.0s : 0.2s,0.08502450152289615,0.012936129499895591,0.08403465007232969,0.04485710976228575,0.12922438979148865,-0.00866750255227089,0.02449713833630085,-0.010677576065063477,-0.04179397225379944,-0.012305021286010742,-0.15185880063341003,1.852862877994813,2.99996658181074,0.9494287967681885,0.15127579867839813,0.27513790130615234
1727724466626,7i,10.89534997292762,1.0s : 0.2s,0.07092363156006606,0.013360162300612124,0.06965391286187232,0.04721739997589719,-0.07939646393060684,-0.06838294118642807,-0.04687158390879631,-0.009239733219146729,-0.030535846948623657,-0.03480908274650574,-0.1518617004327935,1.8520407059017612,2.999508552081138,0.9496542811393738,0.15127867460250854,0.2743571102619171
1727724466636,7i,10.89534997292762,1.0s : 0.2s,0.08652821922906141,0.014062678754132358,0.08537782961173579,0.1084758760178389,-0.21849402785301208,0.0774344876408577,-0.42304277420043945,-0.07895416021347046,-0.059073567390441895,-0.04520586133003235,-0.15181918885532455,1.8509040678976327,3.0010120705256194,0.9499715566635132,0.1512366384267807,0.27327924966812134
1727724466646,7i,10.89534997292762,1.0s : 0.2s,0.13173159913992455,0.014317003827246835,0.13095127954079858,0.08071401457909105,-0.3062848746776581,-0.07362399995326996,-0.29336974024772644,0.050843238830566406,-0.03828434646129608,-0.049638956785202026,-0.15125671417907657,1.8487042485039644,3.002856622935994,0.9506522417068481,0.15068061649799347,0.2712121605873108
1727724466656,7i,10.89534997292762,1.0s : 0.2s,0.17188760946312737,0.014094434093275455,0.17130877740074765,0.09049902600204264,-0.4394981861114502,-0.22486887872219086,-0.10093382000923157,0.058482229709625244,-0.06804925203323364,0.011798381805419922,-0.150572546123106,1.8467914713371767,3.005933277185727,0.9512681365013123,0.15000422298908234,0.2694212794303894
1727724466666,7i,10.89534997292762,1.0s : 0.2s,0.2593144959873623,0.014123790817936967,0.25892957799778477,0.1296236157286382,-0.7232366800308228,-0.2455347329378128,0.01964292861521244,-0.010317504405975342,-0.07209545373916626,0.107229083776474,-0.14881601110702788,1.8452391166440116,3.0112302977298104,0.9519373774528503,0.14826732873916626,0.2680152356624603
1727724466686,7i,10.89534997292762,1.0s : 0.2s,0.25881111536318036,0.01464093349968492,0.25839666503612474,0.1351594068369154,-0.3612213432788849,-0.1134447306394577,-0.046688858419656754,-0.057918548583984375,0.1117863655090332,0.049166202545166016,-0.14522381562579006,1.8436191901739627,3.0255860214232917,0.9528771042823792,0.144713893532753,0.2666146159172058
1727724466696,7i,10.89534997292762,1.0s : 0.2s,0.17986230752805063,0.015219621182305748,0.17921722238775542,0.12238584835210614,0.04054751992225647,-0.010663365013897419,-0.08363552391529083,-0.02329796552658081,0.11901955306529999,0.01642701029777527,-0.14522327202183588,1.8432124699992325,3.0269060486629096,0.952985405921936,0.14471335709095,0.26622703671455383
1727724466706,7i,10.89534997292762,1.0s : 0.2s,0.12795818287494187,0.01585866363159582,0.12697164782925743,0.13950401491192618,0.16918885707855225,0.023631226271390915,-0.16025866568088531,0.010143458843231201,-0.005352377891540527,0.1390317678451538,-0.14554465566360356,1.84279284372124,3.0257694546616762,0.9530524015426636,0.14503134787082672,0.2658146619796753
1727724466716,7i,10.89534997292762,1.0s : 0.2s,0.10471872852790587,0.016607229896594484,0.10339348151437258,0.082583844978621,0.4792194068431854,0.1130775734782219,-0.2403516322374344,-0.0017867088317871094,0.01510167121887207,0.0811716616153717,-0.1462159029645156,1.842274730433277,3.0222622882411865,0.9530960321426392,0.14569546282291412,0.2652947008609772
1727724466726,7i,10.89534997292762,1.0s : 0.2s,0.20809294143716017,0.017473254763406314,0.2073580421491833,0.05450208702510029,0.660395622253418,0.20551589131355286,-0.32361429929733276,-0.027993440628051758,0.004246130585670471,0.046570539474487305,-0.14745648689853494,1.84204751255383,3.015864990837394,0.9529812335968018,0.14692269265651703,0.2650294601917267
1727724466736,7i,10.89534997292762,1.0s : 0.2s,0.2932727755792678,0.01837156575350687,0.2926967824690462,0.11120130431845883,0.5707116723060608,0.23513899743556976,-0.40542206168174744,0.002372443675994873,-0.06233040988445282,0.09205988049507141,-0.14864690316220358,1.8420458365710868,3.008847407601549,0.952812671661377,0.1481000930070877,0.26498082280158997
1727724466746,7i,10.89534997292762,1.0s : 0.2s,0.33163696580205093,0.01929822599417286,0.33107499990163636,0.0805908219908269,0.33813273906707764,0.24910300970077515,-0.4917857050895691,0.008636057376861572,-0.05993548035621643,0.0531792938709259,-0.1492493641279457,1.8421522250905782,3.0031575856559996,0.952698290348053,0.14869588613510132,0.2650582492351532
1727724466756,7i,10.89534997292762,1.0s : 0.2s,0.32907130407327057,0.02017741241302375,0.32845212009179914,0.09419212354500259,-0.07867554575204849,0.25567173957824707,-0.5709173083305359,0.016491591930389404,-0.08469381928443909,0.03777751326560974,-0.14885684242469419,1.8425261882913917,3.0004403763252294,0.9526550769805908,0.1483077108860016,0.2654300630092621
1727724466766,7i,10.89534997292762,1.0s : 0.2s,0.34754779631746363,0.020903008501287137,0.34691862873117707,0.11873052506341059,-0.43108364939689636,0.2691555917263031,-0.6359221339225769,0.03250640630722046,-0.09866176545619965,0.057498931884765625,-0.14713520559646742,1.8432479993359092,3.001453555879017,0.952707827091217,0.14660489559173584,0.266185998916626
1727724466776,7i,10.89534997292762,1.0s : 0.2s,0.40991067191178554,0.021580082878203382,0.40934222720132524,0.05127828321971827,-0.521579921245575,0.3026065230369568,-0.7081663012504578,0.028535187244415283,-0.037945836782455444,0.019373148679733276,-0.14458924716911162,1.8442261299234488,3.0044907997605956,0.9528032541275024,0.14408597350120544,0.26721763610839844
1727724466786,7i,10.89534997292762,1.0s : 0.2s,0.4757388832408312,0.02218228336792167,0.47522145504156105,0.05704493440264867,-0.43252110481262207,0.37182021141052246,-0.7635241150856018,0.055242717266082764,0.014172613620758057,-0.001226276159286499,-0.14181992125158893,1.8453790355273347,3.0071022984573155,0.9528750777244568,0.14134499430656433,0.2684231698513031
1727724466796,7i,10.89534997292762,1.0s : 0.2s,0.5150580021789236,0.02274893632313468,0.5145553726322466,0.11589282404663534,-0.26347827911376953,0.403446227312088,-0.7658066749572754,0.06964504718780518,0.04223164916038513,0.08244514465332031,-0.1392019827167377,1.8467399210129243,3.008443239119588,0.9528616666793823,0.13875286281108856,0.26981955766677856
1727724466806,7i,10.89534997292762,1.0s : 0.2s,0.5198774954564487,0.02319367334576712,0.5193598596337607,0.14186607030952775,0.14928743243217468,0.4013093113899231,-0.7474856972694397,0.07923680543899536,0.0984327644109726,0.06448644399642944,-0.1375504792915523,1.8479227743734419,3.0070683181529065,0.9527607560157776,0.1371171474456787,0.2710087299346924
1727724466816,7i,10.89534997292762,1.0s : 0.2s,0.536333467576339,0.023366393481757574,0.5358242250011804,0.18476714042314896,0.6222065091133118,0.4098421633243561,-0.754021942615509,0.07874119281768799,0.16655035316944122,0.014131546020507812,-0.13748652158499078,1.8487701493081978,3.001517166538442,0.952539324760437,0.13705378770828247,0.2718184292316437
1727724466826,7i,10.89534997292762,1.0s : 0.2s,0.587828279921797,0.023356711525541227,0.5873640699792004,0.17708586495524015,0.9196293950080872,0.3994736969470978,-0.7295248508453369,0.09583371877670288,0.14885391294956207,-0.004220724105834961,-0.13879219654568614,1.8493784994513227,2.9923381868141647,0.9522009491920471,0.13834702968597412,0.27234840393066406
1727724466836,7i,10.89534997292762,1.0s : 0.2s,0.6577248593622488,0.023516728713740633,0.6573043085920662,0.13494887170877962,1.0481704473495483,0.39585840702056885,-0.7074908018112183,0.09821522235870361,0.09128366410732269,-0.015240103006362915,-0.14079419142292388,1.8497984030257837,2.981230510228897,0.9518182277679443,0.1403294950723648,0.2726713716983795
1727724466846,7i,10.89534997292762,1.0s : 0.2s,0.7033539662692738,0.02375487955088898,0.7029527064918675,0.0857891808484162,0.9412024617195129,0.4084000289440155,-0.6861593723297119,0.04704618453979492,0.0681484043598175,-0.022410601377487183,-0.14300135256385654,1.8504648993359043,2.970141911517657,0.9513365030288696,0.14251446723937988,0.27321958541870117
1727724466856,7i,10.89534997292762,1.0s : 0.2s,0.6935648475459011,0.02371310745419339,0.6931593512939395,0.07061440130160755,0.7023018598556519,0.3654139041900635,-0.6131830215454102,0.05116146802902222,-0.029375717043876648,-0.038806766271591187,-0.14462550011614794,1.8513594345195548,2.9609203737199956,0.9508680701255798,0.14412185549736023,0.27400603890419006
1727724466866,7i,10.89534997292762,1.0s : 0.2s,0.6261161823899155,0.02272711557776499,0.6257035656507295,0.20002249611737538,0.4311593472957611,0.27600011229515076,-0.47547951340675354,0.09010249376296997,-0.15196362137794495,-0.09379550814628601,-0.14487099731886746,1.8520717602764747,2.9540647443974817,0.9506385922431946,0.14436477422714233,0.2746734619140625
1727724466876,7i,10.89534997292762,1.0s : 0.2s,0.5254229591604136,0.020621099347333846,0.5250181485192612,0.3071985166709844,0.23322135210037231,0.1892705112695694,-0.31611669063568115,0.11565196514129639,-0.24884599447250366,-0.1380985975265503,-0.14331806847193038,1.8523187730608315,2.949339195414218,0.9507848024368286,0.14282794296741486,0.2749701738357544
1727724466886,7i,10.89534997292762,1.0s : 0.2s,0.4523379161007214,0.018088599486290404,0.45197609772085057,0.22704867040022328,0.2741911709308624,0.17481514811515808,-0.26587963104248047,0.08455139398574829,-0.15139372646808624,-0.14656773209571838,-0.14081124948337537,1.8522156529631986,2.9453724894669615,0.9511541724205017,0.14034637808799744,0.2749707102775574
1727724466896,7i,10.89534997292762,1.0s : 0.2s,0.452362415814129,0.01583677548601662,0.45208511564018616,0.14880349394890283,0.6142237186431885,0.22743818163871765,-0.2730865180492401,0.015319526195526123,0.05455459654331207,-0.1375921070575714,-0.1390849278952471,1.8522699865029122,2.9396033663155383,0.9513704776763916,0.13863693177700043,0.2750892639160156
1727724466906,7i,10.89534997292762,1.0s : 0.2s,0.5055182576075132,0.01395294558516356,0.5053256614145314,0.1542819395163678,0.9218962788581848,0.2701078951358795,-0.2511764168739319,0.040201008319854736,0.1100490540266037,-0.10037928819656372,-0.13859365875076596,1.852542418813017,2.930590120424274,0.9513607025146484,0.1381503939628601,0.2753673195838928
1727724466916,7i,10.89534997292762,1.0s : 0.2s,0.5384948957861719,0.01288993236598702,0.5383406007643864,0.08971265757653864,0.8469932079315186,0.2800251245498657,-0.2671888470649719,0.07584941387176514,0.042732998728752136,-0.021659135818481445,-0.13883442496339501,1.8530493181972174,2.920589438721075,0.9511892199516296,0.13838884234428406,0.27584031224250793
1727724466926,7i,10.89534997292762,1.0s : 0.2s,0.5095526213876991,0.012377957991254277,0.5094022576697541,0.10444624629228581,0.5708857178688049,0.23593328893184662,-0.23129555583000183,0.09892457723617554,-0.03334209322929382,-0.003354281187057495,-0.1388291565355719,1.8537289276245534,2.9126521676948305,0.951002299785614,0.1383836269378662,0.27648690342903137
1727724466936,7i,10.89534997292762,1.0s : 0.2s,0.43705939112132647,0.012362904766182143,0.43688450413477353,0.10004658681861518,0.2896074056625366,0.16113413870334625,-0.23959636688232422,0.08434140682220459,-0.037666723132133484,-0.03843259811401367,-0.1382809772473753,1.8542825556284137,2.90761561089027,0.9509217143058777,0.13784070312976837,0.2770345211029053
1727724466946,7i,10.89534997292762,1.0s : 0.2s,0.34771333945057065,0.012729739475250834,0.34748024427981516,0.08525975439733223,0.07762697339057922,0.10062658041715622,-0.22816208004951477,0.04661935567855835,-0.031542450189590454,-0.06403854489326477,-0.13738191305941655,1.8545368043557,2.9051196427137427,0.9509696960449219,0.13695016503334045,0.2773108184337616
1727724466956,7i,10.89534997292762,1.0s : 0.2s,0.27349306601992557,0.013336245323116915,0.2731677172025659,0.08707575402308457,-0.016607781872153282,0.06262581050395966,-0.23846715688705444,0.023880958557128906,0.011788547039031982,-0.08290305733680725,-0.13640013686608504,1.8545503774065686,2.9043407206043828,0.9510945081710815,0.1359775811433792,0.2773612141609192
1727724466966,7i,10.89534997292762,1.0s : 0.2s,0.22440058016411,0.01406313788340214,0.22395947966286575,0.10864478429931823,-0.018953492864966393,0.044203922152519226,-0.2280251681804657,0.01112508773803711,0.0631430596113205,-0.08770903944969177,-0.13569834179716347,1.8544415961258376,2.9041226719451947,0.9512163400650024,0.1352822631597519,0.2772844731807709
1727724466976,7i,10.89534997292762,1.0s : 0.2s,0.18847480202550576,0.014885978958367244,0.18788602563523618,0.07135997299671896,-0.02542790398001671,0.026283778250217438,-0.19913333654403687,0.017418503761291504,0.03235532343387604,-0.06117168068885803,-0.13510858963367967,1.8541911895836674,2.903978216087779,0.9513620138168335,0.13469791412353516,0.27706849575042725
1727724466986,7i,10.89534997292762,1.0s : 0.2s,0.1610598295218299,0.015729472533842253,0.16028990105246185,0.06185960782042275,-0.06513483822345734,0.02155480347573757,-0.18134580552577972,0.0187833309173584,0.035331740975379944,-0.0471748411655426,-0.13458408777273959,1.853909094708282,2.904149720445823,0.9515077471733093,0.13417817652225494,0.27681976556777954
1727724466996,7i,10.89534997292762,1.0s : 0.2s,0.1392835804563783,0.01658247356900697,0.13829294036602732,0.054530803770972955,-0.1147918701171875,0.003300876123830676,-0.15582126379013062,0.01986074447631836,0.0291263610124588,-0.04160305857658386,-0.1340248145053032,1.8535961192064518,2.904820264544381,0.9516664743423462,0.13362392783164978,0.27654293179512024
1727724467006,7i,10.89534997292762,1.0s : 0.2s,0.13066717522783416,0.017337737184976533,0.12951182784335258,0.02943018564723314,-0.1944720596075058,-0.0124938003718853,-0.12648122012615204,0.01531440019607544,0.007660090923309326,-0.023935914039611816,-0.13334448247313754,1.85325154626764,2.9061551234323737,0.9518486857414246,0.13294968008995056,0.2762402296066284
1727724467016,7i,10.89534997292762,1.0s : 0.2s,0.12226152042279592,0.01805860229996475,0.12092049561205682,0.030342231671149574,-0.24964956939220428,-0.055154621601104736,-0.08183418959379196,0.007386147975921631,-0.029256075620651245,-0.003190279006958008,-0.13237984555925889,1.8527239232701909,2.908177671243258,0.9521170854568481,0.13199353218078613,0.2757735550403595
1727724467026,7i,10.89534997292762,1.0s : 0.2s,0.13174708281041586,0.018786862593688784,0.13040071941113068,0.052310869245510545,-0.30085867643356323,-0.0981186032295227,-0.029088690876960754,0.005778253078460693,-0.050260886549949646,-0.013299703598022461,-0.13106490290140607,1.851864860211378,2.9105557945597713,0.9525194764137268,0.13068999350070953,0.2750034034252167
1727724467036,7i,10.89534997292762,1.0s : 0.2s,0.17049206242486553,0.019494469333605387,0.16937387347311086,0.06253598424196208,-0.411868691444397,-0.15691182017326355,0.003324008546769619,-0.005990743637084961,-0.06217674911022186,-0.002985328435897827,-0.129340077506874,1.8506313739981397,2.9137526127505162,0.9530733823776245,0.12897975742816925,0.2738901674747467
1727724467046,7i,10.89534997292762,1.0s : 0.2s,0.21413830834371478,0.02013509955931656,0.21318957025624938,0.03413977798777646,-0.4556947350502014,-0.1794394999742508,0.02183271013200283,-0.017655789852142334,-0.027270838618278503,-0.010492801666259766,-0.12736160630457324,1.8491499288631958,2.9177571551214574,0.9537214636802673,0.1270175576210022,0.27254751324653625
1727724467056,7i,10.89534997292762,1.0s : 0.2s,0.24887762093274907,0.02068261497997265,0.24801673257813747,0.02341180060128503,-0.4672083854675293,-0.17262430489063263,0.04364553093910217,-0.020818650722503662,0.007846616208553314,-0.007288813591003418,-0.1253242281180183,1.8476850816057941,2.9219664262819096,0.9543666243553162,0.12499642372131348,0.271220326423645
1727724467066,7i,10.89534997292762,1.0s : 0.2s,0.2724424232215243,0.021106757811681337,0.2716235975490627,0.053258841462344324,-0.4652133882045746,-0.14892269670963287,0.052435826510190964,-0.02091437578201294,0.028130605816841125,0.04009690880775452,-0.12325856824295431,1.8464376481203972,2.9263069191332036,0.954950749874115,0.12294670194387436,0.27009934186935425
1727724467076,7i,10.89534997292762,1.0s : 0.2s,0.2712656571668581,0.020987964493668555,0.27045251358525013,0.08970053634139,-0.36513209342956543,-0.12855875492095947,0.04274964705109596,-0.03519397974014282,0.05557706952095032,0.0609816312789917,-0.12151008132539994,1.845455129428487,2.930246207365589,0.9554210901260376,0.12121129035949707,0.2692188322544098
1727724467086,7i,10.89534997292762,1.0s : 0.2s,0.23430634538778236,0.020656830875235507,0.23339399912416486,0.05996664802722573,-0.1980394870042801,-0.09299223870038986,0.04593371972441673,-0.018804609775543213,0.05029534548521042,0.026697635650634766,-0.12028259188324865,1.8446281530877613,2.932745438240119,0.9557858109474182,0.11999276280403137,0.26846861839294434
1727724467096,7i,10.89534997292762,1.0s : 0.2s,0.20390263514975193,0.02018972257247186,0.20290061538462487,0.07490050799665622,-0.179810032248497,-0.07986804842948914,0.004066397901624441,-0.013522863388061523,0.054253414273262024,0.049837589263916016,-0.119538786420258,1.8439884746711763,2.9344454260243036,0.9560430645942688,0.11925429850816727,0.2678811848163605
1727724467106,7i,10.89534997292762,1.0s : 0.2s,0.19205249111616868,0.019776449868858972,0.19103154549579127,0.04805514791016239,-0.22388720512390137,-0.0969434380531311,-0.0070943767204880714,0.004096508026123047,0.02309814840555191,0.04194033145904541,-0.11901307380095193,1.8433412878517552,2.9363787858894184,0.9562764167785645,0.11873231828212738,0.2672792375087738
1727724467116,7i,10.89534997292762,1.0s : 0.2s,0.19812485316408465,0.01945358030686789,0.1971674812298781,0.029119713608824975,-0.30273208022117615,-0.10375362634658813,-0.023113057017326355,0.013795673847198486,0.0015928521752357483,0.02559491991996765,-0.11846555443162428,1.8426404615547474,2.9389481376102213,0.956525981426239,0.11818865686655045,0.26662638783454895
1727724467126,7i,10.89534997292762,1.0s : 0.2s,0.2230249477133994,0.01919979218451357,0.22219697406273564,0.027964051635309753,-0.3990308940410614,-0.12364504486322403,-0.041301384568214417,0.007471263408660889,-0.0015533342957496643,0.026902705430984497,-0.11783843743679724,1.8419062914142,2.942414826513838,0.9567925930023193,0.11756591498851776,0.26594382524490356
1727724467136,7i,10.89534997292762,1.0s : 0.2s,0.2666972624190532,0.01903673272083098,0.2660169780091733,0.031286843737644364,-0.5227642059326172,-0.16120551526546478,-0.05156317725777626,0.018774449825286865,-0.010375432670116425,0.022775799036026,-0.11707277288737367,1.841011971935299,2.9469933866773674,0.9571167826652527,0.11680552363395691,0.2651120722293854
1727724467146,7i,10.89534997292762,1.0s : 0.2s,0.3164399840219995,0.018978504320247985,0.31587035293235366,0.03244265983511514,-0.610945999622345,-0.19859656691551208,-0.045935384929180145,0.02772819995880127,-0.01683834195137024,-0.00037860870361328125,-0.11600583850371828,1.8398369189825798,2.9526785015597725,0.957547128200531,0.11574582755565643,0.264020174741745
1727724467156,7i,10.89534997292762,1.0s : 0.2s,0.36263404088528217,0.019003187269519058,0.3621357845924483,0.052374023264734844,-0.6636226773262024,-0.21881434321403503,-0.04921403527259827,0.014579832553863525,-0.01984982192516327,-0.046221762895584106,-0.1147671338678972,1.8384652391668321,2.959003191841017,0.9580458998680115,0.11451535671949387,0.2627441883087158
1727724467166,7i,10.89534997292762,1.0s : 0.2s,0.4026888133423371,0.01913836098958404,0.4022337672668619,0.10301742695069126,-0.6980269551277161,-0.2348574995994568,-0.05909303203225136,0.008185029029846191,-0.04222353547811508,-0.09360966086387634,-0.113496743281718,1.8369543879002106,2.9657832955615286,0.9585814476013184,0.11325322836637497,0.26133450865745544
1727724467176,7i,10.89534997292762,1.0s : 0.2s,0.42588514806926336,0.019460743203967547,0.4254402881955676,0.1470157638462228,-0.6584305167198181,-0.27625977993011475,-0.05334086716175079,0.012081384658813477,-0.0639440268278122,-0.13182881474494934,-0.11222939887458658,1.8351606219906271,2.972563437933565,0.9591862559318542,0.1119939535856247,0.25965186953544617
1727724467186,7i,10.89534997292762,1.0s : 0.2s,0.4205240188288932,0.019915822095273848,0.4200521520505195,0.1478306157810492,-0.5384529829025269,-0.25717344880104065,-0.07450287789106369,-0.0009858012199401855,0.002915896475315094,-0.1477985680103302,-0.11126617927035336,1.833121352297229,2.978510385129772,0.9598175287246704,0.1110367402434349,0.2577231526374817
1727724467196,7i,10.89534997292762,1.0s : 0.2s,0.4073187503677424,0.0204263877069945,0.40680625251633334,0.08328326493817455,-0.49112287163734436,-0.25811654329299927,-0.10762777924537659,-0.027818143367767334,0.04977266490459442,-0.060703665018081665,-0.11085463856392716,1.8311248029799114,2.9837256310687508,0.9603742361068726,0.11062773317098618,0.25581806898117065
1727724467206,7i,10.89534997292762,1.0s : 0.2s,0.42168897553045276,0.02046734437673117,0.4211919751112159,0.13065032802528148,-0.6374510526657104,-0.21475626528263092,-0.09291967004537582,-0.013874530792236328,0.03391426056623459,0.1254066526889801,-0.11046003946915102,1.8293034763527698,2.9892330921782415,0.9608808755874634,0.1102355495095253,0.254079669713974
1727724467216,7i,10.89534997292762,1.0s : 0.2s,0.4576258899024908,0.019524706449101318,0.45720918729518445,0.3123999540047042,-0.7846181988716125,-0.15888811647891998,-0.15688739717006683,-0.05815887451171875,0.018045008182525635,0.3064076602458954,-0.10975395061181484,1.8282020253529345,2.9967683786772965,0.9612350463867188,0.10953373461961746,0.2530408501625061
1727724467226,7i,10.89534997292762,1.0s : 0.2s,0.44539923465259695,0.01818357579982789,0.4450279045186391,0.21845640911338535,-0.6061307191848755,-0.06958327442407608,-0.16700901091098785,-0.07742756605148315,0.06363652646541595,0.19410967826843262,-0.10955614623493896,1.8279352919194145,3.0040605949540633,0.9613234996795654,0.10933712124824524,0.2527899742126465
1727724467236,7i,10.89534997292762,1.0s : 0.2s,0.3692820206528771,0.017444218413301613,0.3688697737975029,0.03308065783594638,-0.2876738905906677,0.02887219376862049,-0.08500082790851593,0.0023931264877319336,0.012751489877700806,0.03043028712272644,-0.10969124089877377,1.8281280090817582,3.0086978912388456,0.9612603783607483,0.1094714030623436,0.25297144055366516
1727724467246,7i,10.89534997292762,1.0s : 0.2s,0.29909700572194636,0.016999480635825577,0.29861352362199906,0.09514375089855504,-0.2034572958946228,0.11675704270601273,-0.09500152617692947,0.006163418292999268,0.06150898337364197,0.07232558727264404,-0.10986977242017323,1.8292024134022407,3.0112048127628945,0.9609692096710205,0.10964886099100113,0.25399911403656006
1727724467256,7i,10.89534997292762,1.0s : 0.2s,0.21384529197130386,0.016797422531006426,0.2131845573549056,0.09820505389060528,-0.004972430877387524,0.152579665184021,-0.06908038258552551,-0.022705435752868652,0.05425793677568436,0.0786433219909668,-0.11042558427136054,1.830711019963199,3.0125620442002305,0.9605259299278259,0.11020130664110184,0.2554328441619873
1727724467266,7i,10.89534997292762,1.0s : 0.2s,0.11764189281987157,0.016878802631727568,0.11642474379598754,0.021580244678413043,0.19464346766471863,0.1343708336353302,0.016232915222644806,0.009927690029144287,-0.01896768808364868,0.0027156472206115723,-0.11099232979931148,1.8320627953790247,3.0116246358304744,0.960119366645813,0.11076457798480988,0.2567148804664612
1727724467276,7i,10.89534997292762,1.0s : 0.2s,0.06034804336854802,0.01731249694239881,0.05781145031939248,0.16047395928184477,0.17487123608589172,0.0974428653717041,0.12394510209560394,0.042864441871643066,-0.15451370179653168,0.006328284740447998,-0.11077956300270027,1.8330136674974113,3.009511846639625,0.9598972797393799,0.11055311560630798,0.2576337456703186
1727724467286,7i,10.89534997292762,1.0s : 0.2s,0.051430020170068466,0.017987665918630946,0.04818185186865872,0.14411691275621152,0.08995048701763153,0.034590400755405426,0.15543778240680695,0.02124011516571045,-0.13803401589393616,0.03556898236274719,-0.10975082757506782,1.8334866734482829,3.00786818889271,0.9598848819732666,0.10953062772750854,0.2581172287464142
1727724467296,7i,10.89534997292762,1.0s : 0.2s,0.0667535842340036,0.01852908457529363,0.06413044544432721,0.12510962622588523,-0.06985022872686386,-0.004631704185158014,0.17594148218631744,-0.01370847225189209,-0.11878329515457153,-0.03681066632270813,-0.1082063669182942,1.833559984858001,3.007259806137619,0.9600280523300171,0.10799533128738403,0.25823119282722473
1727724467306,7i,10.89534997292762,1.0s : 0.2s,0.10104186045194623,0.018990327596947448,0.09924124657294059,0.1231928645646496,-0.24957285821437836,-0.027506127953529358,0.17934687435626984,-0.018085360527038574,-0.10779554396867752,-0.05682888627052307,-0.10602568910802257,1.833495605465414,3.0083803064983616,0.9602697491645813,0.10582715272903442,0.25822991132736206
1727724467316,7i,10.89534997292762,1.0s : 0.2s,0.13345457444701245,0.019421984806599398,0.13203374548578636,0.074579832008757,-0.31213730573654175,-0.005513343960046768,0.11798734217882156,-0.040482521057128906,0.03760072588920593,-0.050094932317733765,-0.10379037227552193,1.8335543772812366,3.010745827473772,0.960480809211731,0.10360412299633026,0.25834718346595764
1727724467326,7i,10.89534997292762,1.0s : 0.2s,0.16229989100433803,0.01908436524257371,0.16117394833938906,0.12226006740632997,-0.36782240867614746,0.027107451111078262,0.03132887929677963,-0.06998401880264282,0.09874223172664642,-0.01731279492378235,-0.10222611642540676,1.8340126481206358,3.013891051280067,0.9605173468589783,0.10204816609621048,0.25882911682128906
1727724467336,7i,10.89534997292762,1.0s : 0.2s,0.20095023161207906,0.01875772073915061,0.20007284547789153,0.03835332254800493,-0.4446817636489868,0.05088113248348236,0.017591428011655807,-0.012087404727935791,0.03447552025318146,0.011675208806991577,-0.1009497599575546,1.8348074575487967,3.0176940290528655,0.9604364037513733,0.10077838599681854,0.25962626934051514
1727724467346,7i,10.89534997292762,1.0s : 0.2s,0.24280827642094843,0.018611605100941123,0.24209392238153837,0.05783405575863142,-0.515190839767456,0.02633584290742874,-0.008275855332612991,0.009694337844848633,-0.00665949285030365,0.05662551522254944,-0.0996282012833544,1.8356792778972497,3.0224114431482567,0.9603375792503357,0.09946347028017044,0.26049816608428955
1727724467356,7i,10.89534997292762,1.0s : 0.2s,0.2522714520507035,0.018613797188598295,0.25158380725712876,0.05666645531392707,-0.4119196832180023,0.01494661346077919,-0.027046779170632362,0.012509286403656006,0.014389000833034515,0.05336254835128784,-0.09856349083843659,1.8363316026449992,3.027044294075896,0.9602690935134888,0.09840398281812668,0.2611522078514099
1727724467366,7i,10.89534997292762,1.0s : 0.2s,0.2109485650057275,0.018590997368517784,0.21012775136763687,0.07315305219292514,-0.16844764351844788,0.03174130618572235,-0.0268531683832407,0.023161888122558594,0.06436564773321152,0.025922179222106934,-0.09805336639954151,1.8368154196492443,3.0299390726483737,0.9601907730102539,0.09789632260799408,0.2616299092769623
1727724467376,7i,10.89534997292762,1.0s : 0.2s,0.12421829131433623,0.018515905063340804,0.12283055465452661,0.10047826584284565,0.13146783411502838,0.06860677897930145,-0.022793812677264214,0.02751106023788452,0.0922505259513855,0.028789997100830078,-0.0982455865319678,1.8373300519834124,3.030238898812751,0.9600377678871155,0.0980876162648201,0.2621190547943115
1727724467386,7i,10.89534997292762,1.0s : 0.2s,0.03884616681076666,0.01851085390701123,0.03415220290879046,0.0972834283786566,0.43238508701324463,0.07807804644107819,-0.016104483976960182,0.02787601947784424,0.08629526197910309,0.0352153480052948,-0.09918527036254056,1.837799072575492,3.027536430012529,0.9598252773284912,0.09902272373437881,0.26254481077194214
1727724467396,7i,10.89534997292762,1.0s : 0.2s,0.15661960837109437,0.018621587930763368,0.1555086434551206,0.10031158112610285,0.7268707752227783,0.11231537908315659,-0.0014248071238398552,0.027810096740722656,0.09037192165851593,0.033495187759399414,-0.10080825881860545,1.8381732494105392,3.0219026048634907,0.9595709443092346,0.10063760727643967,0.2628611922264099
1727724467406,7i,10.89534997292762,1.0s : 0.2s,0.2815943179923842,0.018866298967072082,0.2809616035846911,0.07454157349828867,0.8448421359062195,0.14792689681053162,0.0026620798744261265,0.006837368011474609,0.059889815747737885,0.04385095834732056,-0.1029046150269749,1.838698417090247,3.014210061999959,0.9592269062995911,0.10272309184074402,0.2633086144924164
1727724467416,7i,10.89534997292762,1.0s : 0.2s,0.39091218522211507,0.019153738610561206,0.3904426601338121,0.02055917538173038,0.9494795799255371,0.16166694462299347,0.02085326798260212,-0.0039261579513549805,0.006419971585273743,0.019132405519485474,-0.10513225641691931,1.8393343942472462,3.0055172239320203,0.9588366150856018,0.10493869334459305,0.26385730504989624
1727724467426,7i,10.89534997292762,1.0s : 0.2s,0.4932704353365666,0.019375160545708175,0.49288977016261354,0.05019567251360946,1.075974464416504,0.17828240990638733,0.03237117454409599,-0.03863835334777832,0.028530098497867584,-0.01458480954170227,-0.10758737910979205,1.840006586506304,2.9956031701214205,0.9584075808525085,0.10737994313240051,0.2644324004650116
1727724467436,7i,10.89534997292762,1.0s : 0.2s,0.6026942649573358,0.019516156404048777,0.6023782006776772,0.05786912862238632,1.2655199766159058,0.17678886651992798,0.06280847638845444,-0.05755072832107544,-0.0041981711983680725,-0.004373222589492798,-0.110241038942576,1.8405448932747508,2.984212906058679,0.9579871296882629,0.11001788079738617,0.26487141847610474
1727724467446,7i,10.89534997292762,1.0s : 0.2s,0.7336364527158984,0.019215221735311382,0.7333847694131842,0.07923745481309726,1.5367250442504883,0.17717662453651428,0.0946793258190155,-0.05277472734451294,0.01523251086473465,-0.05710843205451965,-0.11324425009182701,1.8407664746367367,2.9703891554885224,0.9576056599617004,0.11300235986709595,0.26499438285827637
1727724467456,7i,10.89534997292762,1.0s : 0.2s,0.8402375615389451,0.018502657836156382,0.8400338156728637,0.15511335891472677,1.609877586364746,0.14837981760501862,0.17114855349063873,0.0016424059867858887,-0.06555316597223282,-0.14057111740112305,-0.11626047021371091,1.840620565873172,2.9544957103204554,0.9573114514350891,0.11599874496459961,0.26476261019706726
1727724467466,7i,10.89534997292762,1.0s : 0.2s,0.8559836583866467,0.018219453076565317,0.8557897375842843,0.2495471472213749,1.3119598627090454,0.10526963323354721,0.22796709835529327,0.08717924356460571,-0.2022036463022232,-0.11741909384727478,-0.11817373249560413,1.8401362462657043,2.9397196413589413,0.9572240114212036,0.11789887398481369,0.2642394006252289
1727724467476,7i,10.89534997292762,1.0s : 0.2s,0.8345473413373098,0.018267581117945724,0.8343473859330246,0.14811654928227935,1.1478029489517212,0.12685814499855042,0.19053474068641663,0.042226970195770264,-0.10527683049440384,-0.0952480137348175,-0.11936931821990568,1.8397930421620627,2.9273696484426455,0.9571778178215027,0.11908603459596634,0.2638731598854065
1727724467486,7i,10.89534997292762,1.0s : 0.2s,0.7988570441052619,0.018553404901292165,0.7986415642096053,0.10523136513535582,1.0455093383789062,0.15613481402397156,0.14194297790527344,0.01505136489868164,-0.02505023032426834,-0.10109195113182068,-0.12071063435195095,1.8399011967641372,2.916162655336621,0.9569946527481079,0.12041769921779633,0.26393404603004456
1727724467496,7i,10.89534997292762,1.0s : 0.2s,0.7318659751586424,0.019219596569723635,0.7316135678776109,0.11636879341955025,0.8398082256317139,0.1233367770910263,0.12164805829524994,0.05817568302154541,-0.086127869784832,-0.052338093519210815,-0.12198317255138444,1.8401013383125684,2.906694621144076,0.9567933082580566,0.12168087810277939,0.2640845775604248
1727724467506,7i,10.89534997292762,1.0s : 0.2s,0.6455119505931762,0.02021626401415607,0.6451953045612756,0.1165326424900496,0.646285355091095,0.10143601149320602,0.09648731350898743,0.057205140590667725,-0.08282281458377838,-0.05871805548667908,-0.122865642459967,1.8403086207106851,2.899198345132454,0.9566347599029541,0.12255674600601196,0.26425421237945557
1727724467516,7i,10.89534997292762,1.0s : 0.2s,0.5666281028812613,0.02134064841379036,0.5662260888550582,0.08199124937687122,0.5619916319847107,0.06424660980701447,0.06454172730445862,0.01544123888015747,-0.03963203728199005,-0.07009589672088623,-0.12359517610681839,1.8401526921363762,2.893402885358754,0.9565894603729248,0.12328074872493744,0.2640811800956726
1727724467526,7i,10.89534997292762,1.0s : 0.2s,0.4724430593694823,0.022658711761323336,0.47189938241929646,0.12296203430010885,0.3725335896015167,0.0037624905817210674,0.06153048947453499,0.008906185626983643,-0.12014489620923996,-0.024607837200164795,-0.12403326224758866,1.8400547029092706,2.888796516588824,0.9565632343292236,0.12371548265218735,0.26397305727005005
1727724467536,7i,10.89534997292762,1.0s : 0.2s,0.4033915869123593,0.024055222181544267,0.4026737124241761,0.08242943356324954,0.3528834283351898,-0.0009934711270034313,0.08330941945314407,-0.00686568021774292,-0.0821012482047081,0.0026189684867858887,-0.12426038682649129,1.8396261772888287,2.8851108401740775,0.9566488265991211,0.1239408552646637,0.2635555863380432
1727724467546,7i,10.89534997292762,1.0s : 0.2s,0.36415255369201555,0.025005103016985854,0.36329303211529695,0.01839044858618721,0.40006425976753235,-0.015824614092707634,0.0738631933927536,-0.018160760402679443,-0.0005904734134674072,-0.002836674451828003,-0.1245389165258577,1.8390223661709963,2.881307628413538,0.9567748308181763,0.12421723455190659,0.26296883821487427
1727724467556,7i,10.89534997292762,1.0s : 0.2s,0.3526699096910771,0.02582708566683494,0.3517229404623339,0.019563660197031846,0.4734439551830292,0.0029781009070575237,0.10528089851140976,0.01849818229675293,-0.005835928022861481,-0.002548724412918091,-0.12485823510643781,1.8383816045725847,2.8768453504857963,0.9569045901298523,0.12453407049179077,0.2623451352119446
1727724467566,7i,10.89534997292762,1.0s : 0.2s,0.35234199948716144,0.026639472204128385,0.35133349274342796,0.05214945085579802,0.5045954585075378,0.009727083146572113,0.12274111807346344,0.02207636833190918,-0.02273961901664734,0.04141387343406677,-0.1250550824426625,1.8377962426002796,2.871736720832879,0.9570342898368835,0.12472938746213913,0.26177847385406494
1727724467576,7i,10.89534997292762,1.0s : 0.2s,0.34303297202029676,0.027460168102484587,0.34193209714921613,0.06339143289459054,0.4564608335494995,0.0019919767510145903,0.14898259937763214,0.02909904718399048,-0.033554576337337494,0.04523062705993652,-0.12503616130811482,1.837235448962756,2.866710508849256,0.957183301448822,0.12471061199903488,0.2612423896789551
1727724467586,7i,10.89534997292762,1.0s : 0.2s,0.3256559679566194,0.028356269153874163,0.3244190676662452,0.0718576523331188,0.393623024225235,-0.00370345963165164,0.16841861605644226,0.024713516235351562,-0.06242404133081436,0.025612562894821167,-0.12462076920220798,1.8366424308325748,2.8621218523174345,0.9573878049850464,0.12429845333099365,0.26068824529647827
1727724467596,7i,10.89534997292762,1.0s : 0.2s,0.2967144438099577,0.02922227226532246,0.29527194240073656,0.04628890507589888,0.30037921667099,-0.018239568918943405,0.17546990513801575,-0.0016071796417236328,-0.043672218918800354,0.015258342027664185,-0.12383779655277156,1.8360672523894344,2.858325286363997,0.9576314687728882,0.12352151423692703,0.2601630389690399
1727724467606,7i,10.89534997292762,1.0s : 0.2s,0.2737373234554701,0.029943633522862733,0.27209465460389537,0.014610984316013832,0.2796076536178589,-0.03243448585271835,0.17843852937221527,-0.0052672624588012695,-0.012063577771186829,-0.006340891122817993,-0.12286135827022633,1.8354055823173683,2.8543351964496066,0.957919180393219,0.12255249172449112,0.2595607340335846
1727724467616,7i,10.89534997292762,1.0s : 0.2s,0.2532906338446651,0.0305427574041581,0.2514424092383442,0.037264326706942325,0.2570836842060089,-0.03796214237809181,0.16530568897724152,-0.017418324947357178,0.024433955550193787,-0.022095561027526855,-0.12189432738724565,1.8346487323375598,2.8504602832480366,0.9582294821739197,0.1215926930308342,0.25886648893356323
1727724467626,7i,10.89534997292762,1.0s : 0.2s,0.21845662286621284,0.03101074100131396,0.21624437568792435,0.03670231188651337,0.1494741439819336,-0.059638142585754395,0.13953827321529388,-0.026334106922149658,0.02414621412754059,-0.008398503065109253,-0.12095446367252644,1.8338750312537757,2.8473184129844125,0.9585394263267517,0.12065975368022919,0.25815463066101074
1727724467636,7i,10.89534997292762,1.0s : 0.2s,0.17862339068863262,0.031388529835775114,0.1758438963849827,0.026457122508265242,0.06086171045899391,-0.07564134150743484,0.11779675632715225,-0.019205093383789062,0.01374683529138565,-0.011923432350158691,-0.11996358527518343,1.833031201701752,2.845323475642151,0.9588718414306641,0.11967605352401733,0.2573765516281128
1727724467646,7i,10.89534997292762,1.0s : 0.2s,0.1345770444919085,0.03125287667336454,0.13089781741425863,0.06531442053141638,-0.03150976449251175,-0.07476755976676941,0.07956840842962265,-0.036869943141937256,0.052915073931217194,-0.010323554277420044,-0.1190579241919,1.8322089554622012,2.844255770998617,0.959187388420105,0.1187768504023552,0.25661593675613403
1727724467656,7i,10.89534997292762,1.0s : 0.2s,0.09831671275883833,0.030848232818340024,0.09335182129819114,0.05125104437479266,-0.09798706322908401,-0.08958059549331665,0.052598048001527786,-0.02404630184173584,0.043997034430503845,0.010616302490234375,-0.11825044915484735,1.8314624091215395,2.844251581423989,0.9594711661338806,0.11797505617141724,0.25592443346977234
1727724467666,7i,10.89534997292762,1.0s : 0.2s,0.08976205977216377,0.030049112393574735,0.08458296648202765,0.0927452834545079,-0.0988808199763298,-0.0856657475233078,0.016128987073898315,-0.020317494869232178,0.08886639773845673,0.017077773809432983,-0.1176579495152147,1.8306732178463185,2.844610631414538,0.9597399830818176,0.11738667637109756,0.25518500804901123
1727724467676,7i,10.89534997292762,1.0s : 0.2s,0.08334148994013786,0.02899111191019511,0.07813654315141312,0.0947643761572127,-0.06103849783539772,-0.08887419104576111,0.005757005885243416,-0.016075074672698975,0.09156658500432968,0.01836952567100525,-0.1173666579212742,1.82990644333773,2.8454137499390635,0.9599684476852417,0.1170973926782608,0.2544578015804291
1727724467686,7i,10.89534997292762,1.0s : 0.2s,0.07188572821881085,0.027933821076699797,0.06623639152009762,0.07875082652555247,-0.01722230575978756,-0.07807081192731857,0.00452050007879734,-0.00024771690368652344,0.0776282474398613,0.013247132301330566,-0.11722012855858384,1.8290865733936734,2.8457262771325404,0.960193395614624,0.11695186793804169,0.25367504358291626
1727724467696,7i,10.89534997292762,1.0s : 0.2s,0.06539534619106935,0.0267944650352269,0.059654068988844434,0.08681490682386821,0.013926692306995392,-0.06653386354446411,-0.00511924410238862,-0.023262441158294678,0.07785030454397202,0.030578047037124634,-0.11722700874260092,1.8283431448703351,2.8457803757728524,0.9603810906410217,0.11695870012044907,0.2529609799385071
1727724467706,7i,10.89534997292762,1.0s : 0.2s,0.06348106497453734,0.02567170444156434,0.058058670337567994,0.07409577239359405,0.05977380648255348,-0.05923360586166382,0.0013967121485620737,-0.012358307838439941,0.06712404638528824,0.028841257095336914,-0.1173492339789571,1.8276610680939755,2.8453893309145624,0.9605394601821899,0.11708008497953415,0.2523021996021271
1727724467716,7i,10.89534997292762,1.0s : 0.2s,0.06179869957991288,0.024578389363518898,0.05670081168787256,0.05895520942157182,0.06355377286672592,-0.05282626673579216,0.005004796199500561,-0.022111117839813232,0.04974130541086197,0.02264106273651123,-0.11750588830309797,1.827035818756529,2.844755851166028,0.9606792330741882,0.11723566055297852,0.251696914434433
1727724467726,7i,10.89534997292762,1.0s : 0.2s,0.060525113212134905,0.02352366598016018,0.05576671469788768,0.04702143289527598,0.05569504201412201,-0.053462494164705276,0.01420575100928545,-0.0302085280418396,0.034104086458683014,0.011634916067123413,-0.11765646151710255,1.826441719190698,2.8441307326073972,0.9608115553855896,0.11738519370555878,0.2511216700077057
1727724467736,7i,10.89534997292762,1.0s : 0.2s,0.057863703217897605,0.022559235505175593,0.05328497952998536,0.03212526259043683,0.015780918300151825,-0.04968879371881485,0.026377063244581223,-0.02869546413421631,0.013531088829040527,0.005050987005233765,-0.11764526856751484,1.8259090920231076,2.8437045342147496,0.9609463214874268,0.11737407743930817,0.25061020255088806
1727724467746,7i,10.89534997292762,1.0s : 0.2s,0.0536667007262483,0.02164333971941543,0.04910886490879904,0.036168140499848414,-0.019426604732871056,-0.03941432014107704,0.030920948833227158,-0.02980649471282959,0.0024063587188720703,0.020344942808151245,-0.11758490461505719,1.8255212910925158,2.8436932067578717,0.9610503911972046,0.11731413006782532,0.2502393126487732
1727724467756,7i,10.89534997292762,1.0s : 0.2s,0.051780998300094486,0.02077144470689706,0.04743225558354469,0.038464228176444876,0.00633095670491457,-0.036572106182575226,0.037000611424446106,-0.027433156967163086,0.0008140876889228821,0.026949137449264526,-0.11751345890599565,1.8252204882089427,2.843728789003947,0.961133599281311,0.11724317818880081,0.2499523013830185
1727724467766,7i,10.89534997292762,1.0s : 0.2s,0.04937993919288352,0.019959725797222782,0.04516622345063348,0.025125354280484128,0.025039929896593094,-0.029941365122795105,0.02674557827413082,-0.016824066638946533,0.018629558384418488,-0.0010834038257598877,-0.11753567699087224,1.8249217355993128,2.843420582422566,0.9612057209014893,0.1172652468085289,0.24966450035572052
1727724467776,7i,10.89534997292762,1.0s : 0.2s,0.047821025876449555,0.01934097435985718,0.04373530869546259,0.007640099551367764,0.02257264405488968,-0.0317876897752285,0.026564981788396835,-0.006804406642913818,0.0006311386823654175,-0.0034165531396865845,-0.11757476445052585,1.824699210293285,2.8431565048185257,0.9612569212913513,0.11730406433343887,0.2494494765996933
1727724467786,7i,10.89534997292762,1.0s : 0.2s,0.040423580601048864,0.01875807943505559,0.0358078249062637,0.015285419279834017,-0.01075761578977108,-0.026101309806108475,0.004890313372015953,-0.013696372509002686,0.006767928600311279,0.0004985630512237549,-0.11764884504503684,1.824501758380618,2.8430215456517978,0.9612978100776672,0.1173776313662529,0.24925750494003296
1727724467796,7i,10.89534997292762,1.0s : 0.2s,0.03768337459053834,0.018225042910223057,0.03298309463121007,0.042370416441648434,-0.06285104155540466,-0.027268705889582634,-0.0018274772446602583,-0.009518921375274658,-0.020192094147205353,0.03601279854774475,-0.11767730096815084,1.8243525510687633,2.843395739752775,0.961331844329834,0.11740589141845703,0.24911324679851532
1727724467806,7i,10.89534997292762,1.0s : 0.2s,0.03841942507941736,0.01774412350366589,0.03407635990712059,0.047407967565545675,-0.10418543964624405,-0.03683504834771156,-0.01519947499036789,-0.004560649394989014,-0.020279347896575928,0.04260826110839844,-0.11762686766811008,1.8241884817031082,2.844260599600921,0.961378276348114,0.11735580861568451,0.24895697832107544
1727724467816,7i,10.89534997292762,1.0s : 0.2s,0.04442668605205299,0.01730330040386971,0.04091853160489904,0.026006499377481312,-0.08952686190605164,-0.03697273135185242,-0.017621353268623352,-0.0060386061668396,-0.0073515549302101135,0.02420388162136078,-0.11759250689674368,1.823967528608728,2.8452461638038486,0.9614371061325073,0.1173216849565506,0.24874554574489594
1727724467826,7i,10.89534997292762,1.0s : 0.2s,0.04649850593676468,0.016911525945559107,0.04331410098967796,0.0188788951893982,-0.08318135142326355,-0.026086794212460518,-0.015555806457996368,-0.0011236071586608887,-0.007462345063686371,0.01730501651763916,-0.11755041275824567,1.8238095710203721,2.8461463548733623,0.9614812731742859,0.11727987974882126,0.24859493970870972
1727724467836,7i,10.89534997292762,1.0s : 0.2s,0.04833055994515154,0.016565707788164026,0.0454028672011917,0.02282526757975803,-0.09108813852071762,-0.009914172813296318,-0.005822251550853252,-0.004197180271148682,-0.017205238342285156,0.014399871230125427,-0.11745070162192918,1.8238285916675596,2.8470565213505017,0.9614878296852112,0.11718085408210754,0.24861612915992737
1727724467846,7i,10.89534997292762,1.0s : 0.2s,0.05373322347101823,0.016266607331354013,0.05121188134128568,0.03887547807093648,-0.10651769489049911,0.002326514106243849,0.003021839540451765,-0.006248950958251953,-0.03176479786634445,0.021523267030715942,-0.1172843992207084,1.8239371283968295,2.8480152261896854,0.9614797830581665,0.11701569706201553,0.24872539937496185
1727724467856,7i,10.89534997292762,1.0s : 0.2s,0.06000113880952312,0.016010773808764932,0.05782552879554348,0.026058449916227022,-0.11393753439188004,-0.0011113604996353388,0.012170996516942978,-0.002017498016357422,-0.01861201971769333,0.018126368522644043,-0.11691595299766122,1.8240626623430465,2.8490952918193186,0.9614901542663574,0.11664977669715881,0.24885687232017517
1727724467866,7i,10.89534997292762,1.0s : 0.2s,0.060997484653843706,0.015784503018399194,0.05891979801864603,0.005797007655020858,-0.10262469202280045,-0.00452500069513917,0.01814340054988861,-0.0028796792030334473,-0.005030490458011627,-8.313357830047607e-05,-0.11657672162520578,1.8241853317296257,2.850109030999302,0.9614976644515991,0.11631285399198532,0.24898464977741241
1727724467876,7i,10.89534997292762,1.0s : 0.2s,0.061937854795327346,0.015581818327487368,0.05994584884924254,0.02068563502041627,-0.1011773943901062,-0.013226745650172234,0.021021978929638863,-0.00689697265625,-0.013449512422084808,-0.014122247695922852,-0.11597374632342146,1.8245014261727577,2.851081741296096,0.9614868760108948,0.1157139465212822,0.24930618703365326
1727724467886,7i,10.89534997292762,1.0s : 0.2s,0.061682598273555406,0.015381134135708314,0.059734107865407754,0.02573612457338557,-0.08409774303436279,-0.006586153991520405,0.028603732585906982,-0.012839138507843018,-0.007151223719120026,-0.02112734317779541,-0.11534754182150203,1.8248171884704742,2.8519539065084993,0.9614781141281128,0.11509192734956741,0.249627947807312
1727724467896,7i,10.89534997292762,1.0s : 0.2s,0.06223388153783904,0.01518972878854776,0.06035170379199038,0.02885218087903888,-0.09545279294252396,-0.010690217837691307,0.026322968304157257,-0.013260900974273682,-0.020051777362823486,-0.015953779220581055,-0.11483222345595868,1.825007234611989,2.8527242847382173,0.961487889289856,0.11458002030849457,0.24982553720474243
1727724467906,7i,10.89534997292762,1.0s : 0.2s,0.07031029294150962,0.015028124519281748,0.06868546255907329,0.029362960470545384,-0.1290975660085678,-0.012923545204102993,0.021733809262514114,-0.006578803062438965,-0.028579697012901306,-0.0014504194259643555,-0.11427752250065076,1.8251256642605085,2.8537927241687973,0.9615196585655212,0.11402895301580429,0.24995535612106323
1727724467916,7i,10.89534997292762,1.0s : 0.2s,0.07540641434673902,0.014940724768655801,0.07391144747614785,0.03387117810768356,-0.13359858095645905,-0.018138103187084198,0.015478109940886497,0.008191704750061035,-0.032862238585948944,0.00047534704208374023,-0.11365799283513074,1.8252149770677715,2.855037861899026,0.9615656137466431,0.11341344565153122,0.25005900859832764
1727724467926,7i,10.89534997292762,1.0s : 0.2s,0.07562427911987563,0.014894322715860287,0.07414304244658877,0.017436250206326828,-0.1136656254529953,-0.008504651486873627,0.005445449613034725,0.01450645923614502,0.0025781989097595215,0.009324073791503906,-0.11303408602065267,1.8253566594265498,2.8562682917026807,0.96159827709198,0.11279354244470596,0.25021296739578247
1727724467936,7i,10.89534997292762,1.0s : 0.2s,0.06816377842339419,0.01487195098767015,0.06652161876242878,0.02278772458289013,-0.07132229208946228,0.005553777329623699,0.007423012983053923,0.01428157091140747,0.015647150576114655,0.008395463228225708,-0.11265808072128133,1.8255971762194576,2.8571524461232074,0.9615791440010071,0.11241992563009262,0.25045493245124817
1727724467946,7i,10.89534997292762,1.0s : 0.2s,0.059106016944995496,0.014902249938378727,0.05719653998168234,0.02899897337350274,-0.050827134400606155,-0.00969574972987175,0.013223910704255104,0.01862424612045288,-0.0035845935344696045,0.021936923265457153,-0.11238737455342779,1.825629549013489,2.8577328155186525,0.9616005420684814,0.11215092986822128,0.25049373507499695
1727724467956,7i,10.89534997292762,1.0s : 0.2s,0.04334923148031028,0.014922066069101375,0.04069997314695548,0.029700578825819585,0.0007942450465634465,-0.014781855046749115,0.011746588163077831,0.00830763578414917,0.028488144278526306,0.0012382268905639648,-0.11214291012879804,1.8254241719976056,2.857927601730244,0.9616783857345581,0.11190800368785858,0.25030311942100525
1727724467966,7i,10.89534997292762,1.0s : 0.2s,0.03575928549444953,0.014928861909188495,0.03249393145142536,0.015350548396286684,0.0130751458927989,-0.012890744023025036,0.025649620220065117,-4.845857620239258e-05,0.01187238097190857,-0.009730547666549683,-0.11198830625982426,1.8251475973807143,2.8577855115169712,0.9617642760276794,0.11175437271595001,0.25004148483276367
1727724467976,7i,10.89534997292762,1.0s : 0.2s,0.03225725128338271,0.014911865976987045,0.028603610147036884,0.017635974966994997,0.026625709608197212,-0.006091116927564144,0.037550054490566254,-0.012732326984405518,-0.004744336009025574,-0.011243075132369995,-0.11160433882996293,1.8249321456084917,2.8575139758027683,0.9618596434593201,0.11137279868125916,0.24984504282474518
1727724467986,7i,10.89534997292762,1.0s : 0.2s,0.028353133335713456,0.014697230720116281,0.024246475601876986,0.04248538534957204,0.04578235745429993,-0.006852780468761921,0.04381141439080238,-0.033061087131500244,-0.0022541582584381104,-0.02658742666244507,-0.11112530415507492,1.8248167889077622,2.85705143170472,0.9619396328926086,0.11089673638343811,0.2497473806142807
1727724467996,7i,10.89534997292762,1.0s : 0.2s,0.02768856165957348,0.014470393882229758,0.023606442927072476,0.03834344043176447,0.001926354831084609,-0.007471122313290834,0.04369919374585152,-0.023192763328552246,-0.0220310240983963,-0.0211411714553833,-0.11052806181593633,1.8246897525241461,2.8566501997902005,0.9620355367660522,0.11030315607786179,0.24964182078838348
1727724468006,7i,10.89534997292762,1.0s : 0.2s,0.038227106150500685,0.014257500233814753,0.03546879377318066,0.048953472513874434,-0.08849355578422546,-0.004322200547903776,0.04009513929486275,-0.028487563133239746,-0.03964664041996002,0.0036118030548095703,-0.11002846603234172,1.8247196024943095,2.856952947878429,0.9620813131332397,0.1098065972328186,0.24968434870243073
1727724468016,7i,10.89534997292762,1.0s : 0.2s,0.060529135407658835,0.014200096519193607,0.05883989711109533,0.06075850578755193,-0.1703352928161621,-0.008139442652463913,0.034304194152355194,-0.015893518924713135,-0.05421694368124008,0.022349834442138672,-0.10942791446172817,1.8248132473653433,2.858143932596225,0.9621215462684631,0.10920965671539307,0.2497909665107727
1727724468026,7i,10.89534997292762,1.0s : 0.2s,0.07789738114751987,0.014180648269301826,0.07659576492407613,0.03079439660206378,-0.1777162402868271,0.003955303691327572,0.021006766706705093,-0.008256316184997559,-0.015110187232494354,0.025530576705932617,-0.10870799244478709,1.825086863427843,2.8598235522027697,0.9621289968490601,0.10849401354789734,0.2500739097595215
1727724468036,7i,10.89534997292762,1.0s : 0.2s,0.08437156501723134,0.014205011903182602,0.0831671727323187,0.025433390199350196,-0.14989326894283295,0.00966312363743782,0.01857593096792698,0.014356672763824463,0.010357275605201721,0.01826116442680359,-0.10829301624126458,1.8253194429223285,2.8613917107765623,0.9621142745018005,0.10808147490024567,0.2503089904785156
1727724468046,7i,10.89534997292762,1.0s : 0.2s,0.07493316462777849,0.014258191795725544,0.07356414294919814,0.03657617843738165,-0.07313483953475952,0.014992374926805496,0.021393556147813797,0.02292490005493164,0.024311646819114685,0.014873117208480835,-0.10790142383666095,1.8255152238002508,2.8624414029668226,0.9621062278747559,0.1076921671628952,0.25050801038742065
1727724468056,7i,10.89534997292762,1.0s : 0.2s,0.05469950569541348,0.014307147329116011,0.052795278753175835,0.039113600037212815,0.0025604532565921545,0.004243679344654083,0.03171996399760246,0.019532978534698486,0.03388702869415283,-7.578730583190918e-05,-0.10755562917374446,1.8255798855957137,2.8627232000811245,0.9621260762214661,0.10734837502241135,0.2505796253681183
1727724468066,7i,10.89534997292762,1.0s : 0.2s,0.04758061396724896,0.014330058039896572,0.045371403571782556,0.03474501727464398,0.051404427736997604,0.00038742227479815483,0.04224983602762222,0.008659780025482178,0.02635309100151062,-0.020922213792800903,-0.10730611875925594,1.8254648203628552,2.862324437233643,0.9621806144714355,0.10710030794143677,0.25047558546066284
1727724468076,7i,10.89534997292762,1.0s : 0.2s,0.042406582716862824,0.01433874133993085,0.03990888064715279,0.008378182830412605,0.042105596512556076,-0.0019607311114668846,0.051562145352363586,-0.006862044334411621,0.0009087920188903809,-0.004720211029052734,-0.10689971281279792,1.8253137107330608,2.8617450604294095,0.9622606039047241,0.1066962257027626,0.25034117698669434
1727724468086,7i,10.89534997292762,1.0s : 0.2s,0.03783920143579182,0.014317765395730772,0.03502580133803143,0.02561696864275609,0.043484050780534744,-0.0033271992579102516,0.04160352051258087,-0.02027493715286255,-0.005637519061565399,-0.014607340097427368,-0.10637822263039533,1.825282724011928,2.86122243933767,0.9623220562934875,0.10617770254611969,0.2503253221511841
1727724468096,7i,10.89534997292762,1.0s : 0.2s,0.03379764943627605,0.014142328410572407,0.030696508833170707,0.04353154185460083,0.042311061173677444,-0.0035737634170800447,0.03146876022219658,-0.023761987686157227,0.011852465569972992,-0.03449466824531555,-0.10586841232433826,1.825337407041524,2.860710970762466,0.9623606204986572,0.1056707575917244,0.25039154291152954
1727724468106,7i,10.89534997292762,1.0s : 0.2s,0.03057757242103597,0.013967163068361014,0.02720121855699689,0.03715231495808221,0.033837415277957916,-0.0031889367382973433,0.023943733423948288,-0.005526840686798096,0.0023874714970588684,-0.03666126728057861,-0.10562747090198447,1.825378171829806,2.860287194899789,0.9623749852180481,0.10543116182088852,0.2504371702671051
1727724468116,7i,10.89534997292762,1.0s : 0.2s,0.02704196926454416,0.013787540969168559,0.02326309987357767,0.02487052406669006,0.04515665024518967,0.011149966157972813,0.011159228160977364,-0.0041498541831970215,0.011966384947299957,-0.021403908729553223,-0.10561575737207539,1.8254585889546042,2.8598793283792263,0.9623560309410095,0.10541951656341553,0.2505148649215698
1727724468126,7i,10.89534997292762,1.0s : 0.2s,0.024079894897562414,0.013610749775152088,0.019864260087802156,0.015791311648041817,0.031417135149240494,0.018050482496619225,-0.001588258659467101,-0.0002918839454650879,0.0133218914270401,-0.00847393274307251,-0.10580239915633476,1.8256162755554435,2.859502168703688,0.9622973799705505,0.1056051179766655,0.25066161155700684
1727724468136,7i,10.89534997292762,1.0s : 0.2s,0.02222879455334199,0.013473613088988645,0.017679962036806534,0.029233969953973135,0.0017448603175580502,0.020504185929894447,-0.006576325744390488,0.019704341888427734,0.01157061755657196,0.018234163522720337,-0.10607513759377965,1.825777010896794,2.8593265289605965,0.9622294306755066,0.10587632656097412,0.25080907344818115
1727724468146,7i,10.89534997292762,1.0s : 0.2s,0.021165113539773593,0.013490125045773089,0.01630884905199975,0.05326077783390901,-0.013582163490355015,0.01239672489464283,-0.004665241576731205,0.03170037269592285,0.012833617627620697,0.04083007574081421,-0.10626279718760365,1.825832252704012,2.859400523930284,0.9621963500976562,0.10606292635202408,0.25085723400115967
1727724468156,7i,10.89534997292762,1.0s : 0.2s,0.019406778951276404,0.013439634506613616,0.013999974771132469,0.05280238978966025,0.022670915350317955,0.004988965578377247,-0.0005385405384004116,0.02387845516204834,0.045131027698516846,0.013457417488098145,-0.10631428194341787,1.8258954731788348,2.8593734508147914,0.9621750712394714,0.10611411929130554,0.25091663002967834
1727724468166,7i,10.89534997292762,1.0s : 0.2s,0.018254427449618353,0.013345846927952919,0.012454416537478972,0.05026735564993906,0.028641989454627037,0.0009020782308652997,0.009312491863965988,0.015381991863250732,0.04748355597257614,-0.005959302186965942,-0.10632693168082227,1.8258402159991471,2.859067845788474,0.9621875882148743,0.10612670332193375,0.25086313486099243
1727724468176,7i,10.89534997292762,1.0s : 0.2s,0.017973965453715605,0.013255247238477881,0.012139269120428398,0.02508894941516848,0.029365967959165573,-0.0028063294012099504,0.021958813071250916,0.0014870762825012207,0.023768998682498932,-0.007891684770584106,-0.10634468354874853,1.8256130027359467,2.8586904631559222,0.9622427225112915,0.10614435374736786,0.2506440281867981
1727724468186,7i,10.89534997292762,1.0s : 0.2s,0.018197775963521956,0.01316134365712036,0.012567341928893125,0.020595343866883005,-0.0068793874233961105,-0.017877424135804176,0.027915239334106445,-0.01351076364517212,0.004514291882514954,-0.014874428510665894,-0.10615867894858491,1.825268812148293,2.858496602017647,0.9623481631278992,0.10595939308404922,0.2503178119659424
1727724468196,7i,10.89534997292762,1.0s : 0.2s,0.02297001033509121,0.013093138712372693,0.01887302555110771,0.020553521209217013,-0.039480872452259064,-0.021060388535261154,0.037893135100603104,-0.004071593284606934,-0.00957123190164566,-0.017727404832839966,-0.10585342895398861,1.8249428311497329,2.858607328773725,0.9624608755111694,0.10565585643053055,0.25001218914985657
1727724468206,7i,10.89534997292762,1.0s : 0.2s,0.03273158326357168,0.013050530869409256,0.030017331443130013,0.029387809183508022,-0.08024907857179642,-0.020461443811655045,0.03704145923256874,-0.009932875633239746,-0.026213757693767548,-0.008821576833724976,-0.10541896265638216,1.8247461774648908,2.8591173534481973,0.9625545144081116,0.10522381216287613,0.24983444809913635
1727724468216,7i,10.89534997292762,1.0s : 0.2s,0.03635821913819354,0.013022141168565657,0.03394619180831409,0.021035441088783257,-0.06866472214460373,-0.01481248065829277,0.027563035488128662,-0.003837883472442627,-0.012854762375354767,-0.016202330589294434,-0.10496638700788719,1.8247131725697001,2.8597827752828064,0.9626086950302124,0.10477373749017715,0.24981461465358734
1727724468226,7i,10.89534997292762,1.0s : 0.2s,0.03868671394523093,0.013002655174768347,0.03643614680898895,0.011759495267318624,-0.07713783532381058,-0.0011155770625919104,0.012793144211173058,-0.0008130073547363281,-0.004536665976047516,-0.010818660259246826,-0.10465748581509106,1.8249136729925746,2.8604477079736297,0.9625899791717529,0.10446653515100479,0.2500157654285431
1727724468236,7i,10.89534997292762,1.0s : 0.2s,0.03728227295047683,0.012999473205820452,0.03494254674068581,0.014852745792303678,-0.041051872074604034,0.014283575117588043,-0.004853660240769386,0.00503915548324585,0.0014126822352409363,0.013900190591812134,-0.10475111994544584,1.8250909261199004,2.861059859114364,0.9625360369682312,0.10455965250730515,0.2501838803291321
1727724468246,7i,10.89534997292762,1.0s : 0.2s,0.031101595148595385,0.013010548476848006,0.028249510599631985,0.01691935579068835,-0.009628435596823692,0.013803672976791859,-0.014481786638498306,0.009884655475616455,0.01116294413805008,0.007996678352355957,-0.1051040990607456,1.8252257154336637,2.8612972682802713,0.9624664783477783,0.10491069406270981,0.25030431151390076
1727724468256,7i,10.89534997292762,1.0s : 0.2s,0.027136280271560665,0.013062790410247755,0.02378531508461958,0.02209055051074956,-0.00024025989114306867,0.009726018644869328,-0.01516635250300169,0.020311415195465088,0.004165418446063995,0.007621556520462036,-0.10540470493533335,1.8253066759717491,2.8613555515025832,0.9624157547950745,0.10520963370800018,0.25037428736686707
1727724468266,7i,10.89534997292762,1.0s : 0.2s,0.025047763770308755,0.01315135123043032,0.021317420826803855,0.01871269671692195,-0.009530165232717991,0.005421285051852465,-0.005548079498112202,0.01370227336883545,-0.01045120507478714,0.007292807102203369,-0.10554150355852518,1.825303237188391,2.8614238561145795,0.9624027013778687,0.10534567385911942,0.2503673732280731
1727724468276,7i,10.89534997292762,1.0s : 0.2s,0.023783147946595043,0.01326655264061712,0.019739217494200798,0.014895049306687298,-0.009877307340502739,-0.00645246310159564,-0.0052551645785570145,0.01296311616897583,-0.0071661993861198425,0.0015702545642852783,-0.10552175883196359,1.8252239056350614,2.861507965742225,0.962424635887146,0.10532604157924652,0.2502915561199188
1727724468286,7i,10.89534997292762,1.0s : 0.2s,0.022508012613647935,0.013413039432703777,0.018074872198521018,0.02548146257223005,-0.0021879628766328096,-0.01994270458817482,0.005378037691116333,0.019935965538024902,-0.0019055157899856567,-0.01575535535812378,-0.10534120088202681,1.8250516951107156,2.8615786091717226,0.9624857306480408,0.10514648258686066,0.2501305043697357
1727724468296,7i,10.89534997292762,1.0s : 0.2s,0.021024812124107624,0.013578113942154062,0.016052337730932037,0.0324882822536697,0.011612537316977978,-0.025926562026143074,0.013446018099784851,0.014374375343322754,-0.00202728807926178,-0.029064685106277466,-0.10518748346256653,1.8247184587073833,2.8614853201490655,0.9625847339630127,0.10499361902475357,0.24981382489204407
1727724468306,7i,10.89534997292762,1.0s : 0.2s,0.020838192249534135,0.013774782827552939,0.015636035759817674,0.030939993301519836,-0.003310485277324915,-0.029118893668055534,0.02030685357749462,0.014847338199615479,-0.021700985729694366,-0.01630665361881256,-0.10500850469128578,1.824363046695894,2.86137764018636,0.9626916646957397,0.10481562465429306,0.24947641789913177
1727724468316,7i,10.89534997292762,1.0s : 0.2s,0.02617819621500703,0.014023528117143812,0.022105171707523227,0.03749563526027073,-0.04455406218767166,-0.036182042211294174,0.01892354153096676,0.01247859001159668,-0.033986903727054596,-0.009751811623573303,-0.10476562977119382,1.8241411832519,2.861585193079612,0.9627716541290283,0.10457408428192139,0.24926920235157013
1727724468326,7i,10.89534997292762,1.0s : 0.2s,0.03151715925257289,0.014349710788764215,0.0280609537904695,0.041654399359422126,-0.049342427402734756,-0.041489988565444946,0.022875672206282616,0.020276367664337158,-0.030999280512332916,-0.019052624702453613,-0.10449258773745444,1.8238254396314058,2.8619979812747385,0.9628779292106628,0.1043025404214859,0.2489723563194275
1727724468336,7i,10.89534997292762,1.0s : 0.2s,0.032680168671494515,0.014667212823865421,0.029203874612399802,0.03090781797714364,-0.0453341007232666,-0.03224091976881027,0.019272349774837494,0.0012461543083190918,-0.02339882403612137,-0.020155280828475952,-0.10419950891627408,1.8235047518553156,2.8623966720839342,0.9629873633384705,0.10401105135679245,0.24867120385169983
1727724468346,7i,10.89534997292762,1.0s : 0.2s,0.03319449995228931,0.014971102101849291,0.029626692845110793,0.038416672982319516,-0.0423809215426445,-0.0234274510294199,0.01304854080080986,-0.007918179035186768,-0.037564001977443695,0.0014453232288360596,-0.10386704390723589,1.8232958099156393,2.862790948954146,0.9630727171897888,0.10368038713932037,0.24847862124443054
1727724468356,7i,10.89534997292762,1.0s : 0.2s,0.03352148420515862,0.015235698452229987,0.02985905885973997,0.028813739198996977,-0.05027706176042557,-0.01613922417163849,-0.0028730006888508797,-0.014505445957183838,-0.020156092941761017,0.014613538980484009,-0.1036699892191416,1.8231481277640937,2.8632117937227464,0.9631292819976807,0.1034843921661377,0.24834150075912476
1727724468366,7i,10.89534997292762,1.0s : 0.2s,0.03354501908711091,0.015468427591863152,0.029765685837721295,0.020647680547034874,-0.04505753517150879,-0.013754095882177353,-0.003287122119218111,-0.006768584251403809,-0.00607888400554657,0.018535375595092773,-0.10358461852868986,1.8229394823868659,2.8636693454956696,0.9631895422935486,0.10339947789907455,0.24814271926879883
1727724468376,7i,10.89534997292762,1.0s : 0.2s,0.03303798579613596,0.015683662786628163,0.02907801965507652,0.024968603468070852,-0.028096526861190796,-0.0198321845382452,0.0037685567513108253,-0.00031238794326782227,-0.005112290382385254,0.024437636137008667,-0.10347189599162938,1.8226226754546897,2.864040987293875,0.9632791876792908,0.10328736156225204,0.24784041941165924
1727724468386,7i,10.89534997292762,1.0s : 0.2s,0.03136908771555794,0.015850356723433223,0.027070017655078903,0.01743798083466399,0.0011548369657248259,-0.023660210892558098,0.008889548480510712,-0.007143557071685791,0.01590675860643387,0.00016672909259796143,-0.10326473258851093,1.8222942758951595,2.8641278975261013,0.9633811712265015,0.10308130085468292,0.24752937257289886
1727724468396,7i,10.89534997292762,1.0s : 0.2s,0.03007289879472319,0.01599540451376845,0.0254661790686899,0.009422417397358255,0.0061904750764369965,-0.027795257046818733,0.02044011279940605,-0.0009153485298156738,0.005259677767753601,-0.00776401162147522,-0.10292366806937471,1.821948633320049,2.864053662116209,0.9635007381439209,0.10274204611778259,0.24720510840415955
1727724468406,7i,10.89534997292762,1.0s : 0.2s,0.02860039959039489,0.016112798781849902,0.023629654507543625,0.011741023958098892,0.024530068039894104,-0.02922138012945652,0.02926396206021309,-0.004525959491729736,0.005838744342327118,-0.009125590324401855,-0.10252562213179783,1.8215142905859032,2.863825703609228,0.9636476635932922,0.10234609991312027,0.24679675698280334
1727724468416,7i,10.89534997292762,1.0s : 0.2s,0.02733087716412063,0.016207447908616394,0.02200671440378451,0.017263170796491624,0.03286043554544449,-0.025219803676009178,0.040634192526340485,-0.007565736770629883,-0.002236790955066681,-0.015354916453361511,-0.10214581205337454,1.8210968424061433,2.863438586436539,0.9637883901596069,0.10196827352046967,0.24640411138534546
1727724468426,7i,10.89534997292762,1.0s : 0.2s,0.02772851438132181,0.016307773691853662,0.022426034580604215,0.017822224864091962,-0.0011787578696385026,-0.02137473225593567,0.04314875602722168,-0.0017428398132324219,-0.017289966344833374,-0.00395616888999939,-0.10155565388780831,1.820874467608769,2.8631712440848442,0.9639009833335876,0.10138117522001266,0.24620455503463745
1727724468436,7i,10.89534997292762,1.0s : 0.2s,0.02792334918198007,0.016407636240575396,0.02259431128704179,0.015602221829851303,0.0027760362718254328,-0.014295960776507854,0.04450589790940285,-0.00303041934967041,-0.01450202614068985,0.004892557859420776,-0.10102327371503396,1.8208149007120664,2.8630890961769513,0.9639678597450256,0.10085152834653854,0.24616047739982605
1727724468446,7i,10.89534997292762,1.0s : 0.2s,0.028305858860400646,0.016502945680972818,0.022997270048329268,0.014389735966786995,-0.013927842490375042,-0.014881855808198452,0.037216562777757645,-0.005073964595794678,-0.013308309018611908,-0.002051413059234619,-0.10059029184739339,1.8208049788146419,2.8630492628959985,0.9640123248100281,0.100420743227005,0.24616165459156036
1727724468456,7i,10.89534997292762,1.0s : 0.2s,0.028872126672817872,0.01659362494862845,0.023627342416689536,0.01400260685792384,-0.022517336532473564,-0.018684139475226402,0.034069303423166275,-0.005161702632904053,-0.0121120885014534,-0.004767298698425293,-0.10018551770997493,1.8207944130637077,2.863169554608498,0.964054524898529,0.10001800954341888,0.2461615800857544
1727724468466,7i,10.89534997292762,1.0s : 0.2s,0.029421018024753245,0.016679235563027906,0.024236324033274522,0.007984003455935392,-0.02719198167324066,-0.020306004211306572,0.030419709160923958,-0.00302731990814209,-0.007382616400718689,-0.00027680397033691406,-0.09992556685158765,1.8206407118006396,2.863338500695044,0.9641174077987671,0.09975935518741608,0.24601979553699493
1727724468476,7i,10.89534997292762,1.0s : 0.2s,0.029347353167520077,0.01675175188880334,0.02409659616201269,0.007838899806918199,-0.0018240418285131454,-0.017049580812454224,0.0330868624150753,0.00010657310485839844,0.006468392908573151,-0.004426836967468262,-0.09962286103720565,1.8204110428419193,2.863412552467791,0.9642031192779541,0.09945815801620483,0.2458057999610901
1727724468486,7i,10.89534997292762,1.0s : 0.2s,0.028353284466076056,0.016794473513286456,0.022844132713363174,0.0216099931652175,0.020320409908890724,-0.013556578196585178,0.022331155836582184,0.00011283159255981445,0.021609678864479065,2.9206275939941406e-05,-0.09943424647661052,1.8202000919621621,2.863245366879251,0.96427321434021,0.09927047044038773,0.24560704827308655
1727724468496,7i,10.89534997292762,1.0s : 0.2s,0.027495486213497785,0.016806673307277892,0.02176091667322587,0.020798934687843072,0.01741117238998413,-0.012986661866307259,0.019715797156095505,-0.00280839204788208,0.017826072871685028,0.010341167449951172,-0.09929566422837784,1.819978068283761,2.862992573606139,0.9643410444259644,0.09913257509469986,0.24539634585380554
1727724468506,7i,10.89534997292762,1.0s : 0.2s,0.026681554248781297,0.016804181133131015,0.02072498090651914,0.013800873502393904,0.031207943335175514,-0.01431531272828579,0.017985543236136436,2.6285648345947266e-05,0.01119513064622879,0.00807046890258789,-0.09908965300894385,1.819795861297307,2.862715240900726,0.9644054770469666,0.0989275798201561,0.24522565305233002
1727724468516,7i,10.89534997292762,1.0s : 0.2s,0.02600000494123442,0.01676314498271267,0.019874537157699275,0.023311177826322978,0.04346727207303047,-0.014788024127483368,0.014076754450798035,-0.008766651153564453,0.015338018536567688,-0.015208616852760315,-0.09895918395200914,1.8196442079363946,2.862331193969063,0.9644550681114197,0.0987977460026741,0.2450825423002243
1727724468526,7i,10.89534997292762,1.0s : 0.2s,0.02564619270691145,0.016718952298708054,0.019447463443687526,0.012831295470814633,0.02685394138097763,-0.015179775655269623,0.015072244219481945,-0.007297158241271973,-0.004672840237617493,-0.009463518857955933,-0.09884315585525895,1.819459142360168,2.8619507670130035,0.9645116329193115,0.09868228435516357,0.24490690231323242
1727724468536,7i,10.89534997292762,1.0s : 0.2s,0.025474073799706228,0.016686061003789658,0.01924847537158955,0.015152631729159361,0.006601667031645775,-0.016751041635870934,0.01909581385552883,-0.0049664974212646484,-0.013965286314487457,-0.003147527575492859,-0.09865896863239036,1.8192658758181917,2.861741456948933,0.9645763039588928,0.09849899262189865,0.24472489953041077
1727724468546,7i,10.89534997292762,1.0s : 0.2s,0.025233898147478475,0.016664154775801153,0.018948761472071494,0.00970532446083142,-0.009160784073174,-0.01618245616555214,0.01956213265657425,-0.0016692876815795898,-0.008747629821300507,-0.003858208656311035,-0.09842984389920496,1.8191110278124938,2.861713694355432,0.9646362066268921,0.09827098250389099,0.24458111822605133
1727724468556,7i,10.89534997292762,1.0s : 0.2s,0.02507661645393785,0.016656937618268954,0.018745215975256278,0.009971465073521096,-0.02156112901866436,-0.015958083793520927,0.020809326320886612,0.001676321029663086,-0.008550792932510376,0.004848092794418335,-0.09823203305304036,1.8189545697285403,2.8617996116703117,0.9646932482719421,0.09807413071393967,0.24443493783473969
1727724468566,7i,10.89534997292762,1.0s : 0.2s,0.02461926873844805,0.016651878016069467,0.018133487026875658,0.00301864117022029,-0.013451003469526768,-0.017693664878606796,0.009384896606206894,0.0018013715744018555,0.00222981721162796,-0.0009461343288421631,-0.09816279163711891,1.818806272593452,2.8619483548760343,0.96473628282547,0.09800522029399872,0.24429360032081604
1727724468576,7i,10.89534997292762,1.0s : 0.2s,0.02393573223674681,0.016639527952161563,0.01720596952335074,0.009080523055437495,-0.00716221472248435,-0.016154980286955833,0.00272952439263463,0.0007126331329345703,0.008646555244922638,-0.0026805102825164795,-0.09820069685093828,1.8187070183230902,2.862032810091477,0.9647568464279175,0.09804294258356094,0.24419692158699036
1727724468586,7i,10.89534997292762,1.0s : 0.2s,0.022654876514103018,0.016608731229066993,0.01540757855179948,0.010446638922837854,-0.006400284357368946,-0.006713541690260172,-0.008952965028584003,-0.006100058555603027,0.006127446889877319,0.005863100290298462,-0.09827877272556598,1.8186470432758228,2.86210106870826,0.9647641181945801,0.09812064468860626,0.24413718283176422
1727724468596,7i,10.89534997292762,1.0s : 0.2s,0.021375535540257683,0.016557572825306975,0.013518886853860244,0.01525444187891081,-0.007840655744075775,-0.006590193137526512,-0.01657170243561268,-0.014166116714477539,-0.003729298710823059,0.004255756735801697,-0.09847764524432247,1.8185307876872434,2.8622048876912936,0.9647733569145203,0.09831855446100235,0.24402019381523132
1727724468606,7i,10.89534997292762,1.0s : 0.2s,0.020098660408154636,0.016509544147741136,0.011462595789615417,0.003559470304773513,-1.1494412319734693e-05,-0.000748815480619669,-0.018590645864605904,-0.0025080442428588867,-0.0024094954133033752,0.0007575452327728271,-0.09862339453175732,1.8184753297233538,2.8622679886784193,0.9647729992866516,0.09846359491348267,0.24396316707134247
1727724468616,7i,10.89534997292762,1.0s : 0.2s,0.01909252769324245,0.01644779452025004,0.009695084792659769,0.01315868665531135,0.00955191720277071,-0.001065021613612771,-0.017282500863075256,-0.0016914010047912598,0.01283213496208191,0.0023720264434814453,-0.0987326525638685,1.8184652855725756,2.862281531700597,0.964765191078186,0.09857232123613358,0.24395088851451874
1727724468626,7i,10.89534997292762,1.0s : 0.2s,0.018492826800271495,0.016385011750182737,0.008574149112956524,0.013464150584233241,0.0312683992087841,0.0012742991093546152,-0.004263104405254126,0.0036391019821166992,0.012645229697227478,-0.002852797508239746,-0.0988438042909247,1.8184429754326756,2.8620838390593932,0.9647599458694458,0.0986829325556755,0.24392665922641754
1727724468636,7i,10.89534997292762,1.0s : 0.2s,0.018627392285018356,0.016324793130266392,0.008971113230473048,0.007004625905096699,0.03706303983926773,-0.0005568459164351225,0.006556819658726454,0.002131640911102295,0.0063065215945243835,0.0021791458129882812,-0.09886547226937316,1.8184470519358107,2.861730483546225,0.9647567868232727,0.098704494535923,0.24393004179000854
1727724468646,7i,10.89534997292762,1.0s : 0.2s,0.019004535449286944,0.01628720316612256,0.009792822916230607,0.00965570362442478,0.02597896009683609,-0.0061984858475625515,0.014093832112848759,0.008947789669036865,-0.0002714693546295166,0.0036188364028930664,-0.09883626802465474,1.8183775835155285,2.8613970953135435,0.9647765755653381,0.0986754298210144,0.24386374652385712
1727724468656,7i,10.89534997292762,1.0s : 0.2s,0.019102888212452533,0.016280738447567236,0.009992892156896516,0.012234365674322135,-0.0007493231678381562,-0.011245177127420902,0.021363794803619385,0.010542809963226318,-0.005947142839431763,-0.001777738332748413,-0.09874368205600552,1.8182593445871291,2.861194793408388,0.9648143649101257,0.09858329594135284,0.24375194311141968
1727724468666,7i,10.89534997292762,1.0s : 0.2s,0.01876101723251285,0.01630080262139026,0.009287604723346093,0.018394940295525762,-0.03256158158183098,-0.01134744193404913,0.01784522831439972,0.002480447292327881,-0.018220551311969757,-0.000482410192489624,-0.09853438792814809,1.8181925302496516,2.861326456654669,0.964850664138794,0.09837502241134644,0.2436925172805786
1727724468676,7i,10.89534997292762,1.0s : 0.2s,0.018793119325110873,0.016308970403904586,0.009338030752381364,0.015763053826156337,-0.03389742225408554,-0.013626397587358952,0.0061584110371768475,-0.01151353120803833,-0.009424522519111633,-0.005204886198043823,-0.09831272455964074,1.8181473282143765,2.86163866145709,0.9648827910423279,0.09815442562103271,0.24365423619747162
1727724468686,7i,10.89534997292762,1.0s : 0.2s,0.01899729710431456,0.016311960727324906,0.009737414158790226,0.010016407025036886,-0.03429822623729706,-0.010943529196083546,0.00027096085250377655,-0.006448328495025635,-0.005762577056884766,-0.005053728818893433,-0.09819022363979313,1.818066689454344,2.861973530111762,0.964914083480835,0.09803251922130585,0.24357937276363373
1727724468696,7i,10.89534997292762,1.0s : 0.2s,0.019326689140781124,0.016332040763839723,0.010333700093996565,0.00953465571334571,-0.02550620213150978,-0.013939717784523964,0.0023247571662068367,0.0035572052001953125,-0.008819058537483215,-0.0006929337978363037,-0.09817963256431475,1.8179907414530012,2.8622801402843976,0.9649335741996765,0.0980219766497612,0.2435063272714615
1727724468706,7i,10.89534997292762,1.0s : 0.2s,0.019568810085440154,0.016370322503144442,0.010721514319491771,0.015290781774662308,-0.009950145147740841,-0.015335481613874435,0.010787750594317913,0.010461926460266113,0.0018783807754516602,-0.010992169380187988,-0.09814792449773498,1.817847142834259,2.862421681719957,0.9649714231491089,0.09799042344093323,0.2433685064315796
1727724468716,7i,10.89534997292762,1.0s : 0.2s,0.01989559331284513,0.016428164560891325,0.011222746652687228,0.016308655079914157,0.0048615578562021255,-0.017573336139321327,0.02517095021903515,0.0134810209274292,0.003540739417076111,-0.008467435836791992,-0.09799545799445608,1.8177095879160499,2.8624024619808828,0.9650194048881531,0.09783869236707687,0.2432394176721573
1727724468726,7i,10.89534997292762,1.0s : 0.2s,0.020671925066901794,0.016485263251842044,0.01247255312632779,0.018396243468682252,0.037841878831386566,-0.014482470229268074,0.027512134984135628,0.009679436683654785,0.013125918805599213,-0.008511200547218323,-0.09779345781813839,1.8175285993909802,2.862123263473832,0.9650824666023254,0.09763765335083008,0.24306955933570862
1727724468736,7i,10.89534997292762,1.0s : 0.2s,0.02310370511313395,0.016531344694664468,0.016139883287708146,0.01887920096221198,0.04884246364235878,-0.013872917741537094,0.01706918142735958,0.0071555376052856445,0.017114318907260895,-0.0035103559494018555,-0.09764958591852102,1.8173078448691038,2.861647573383994,0.9651498198509216,0.0974944680929184,0.24285995960235596
1727724468746,7i,10.89534997292762,1.0s : 0.2s,0.023734973471983004,0.016569754546604785,0.016993887135702854,0.013725517617753352,0.041649531573057175,-0.010380182415246964,0.008367037400603294,0.004981815814971924,0.012127324938774109,-0.00406193733215332,-0.09753962632577723,1.8171336280225439,2.8611549536667815,0.9652025103569031,0.09738503396511078,0.2426944226026535
1727724468756,7i,10.89534997292762,1.0s : 0.2s,0.023167705935558797,0.016600595995603876,0.01616053250692151,0.011330279130882828,0.013923361897468567,-0.005456529092043638,0.0012004037853330374,-0.004799485206604004,-0.006071045994758606,0.008275419473648071,-0.09751891949470769,1.8170138724934333,2.8608675520063342,0.965233564376831,0.09736442565917969,0.24257934093475342
1727724468766,7i,10.89534997292762,1.0s : 0.2s,0.022251270995899183,0.016633722328526862,0.014779659753540036,0.015533159089609233,0.0002751949359662831,-0.008447526022791862,-0.001882471377030015,-0.004593312740325928,-0.013530567288398743,0.006091326475143433,-0.09751686033654763,1.816921185256694,2.8608262045927413,0.9652560353279114,0.09736237674951553,0.24248987436294556
1727724468776,7i,10.89534997292762,1.0s : 0.2s,0.021230938080649756,0.016673835193478932,0.01314290499566543,0.014035786179566122,-0.012353913858532906,-0.007504988461732864,0.003337557427585125,-0.0029236674308776855,-0.012413151562213898,-0.005862519145011902,-0.09745198367666959,1.8168469929617408,2.860854135068965,0.9652800559997559,0.09729781001806259,0.2424197793006897
1727724468786,7i,10.89534997292762,1.0s : 0.2s,0.02062979475675001,0.016721710120841626,0.012081922129370513,0.009668068399054791,-0.01322609931230545,-0.007593938149511814,0.012838118709623814,0.00023829936981201172,-0.009637430310249329,-0.0007312297821044922,-0.09734606017658386,1.8167134334078296,2.8609690426737675,0.9653226137161255,0.09719238430261612,0.24229340255260468
1727724468796,7i,10.89534997292762,1.0s : 0.2s,0.020415511325795492,0.016770354965774333,0.011642521076451275,0.010328497341360158,-0.0132207740098238,-0.00657554529607296,0.022108448669314384,0.0029813647270202637,-0.0021962150931358337,0.009641885757446289,-0.09715185745694432,1.8165851966829107,2.861031865722283,0.9653719663619995,0.09699910134077072,0.2421741932630539
1727724468806,7i,10.89534997292762,1.0s : 0.2s,0.020445669884954467,0.016807097334396993,0.011642460918407227,0.02302763484177299,-0.012535275891423225,-0.003234077012166381,0.027832647785544395,0.0007271170616149902,0.0012005940079689026,0.022984817624092102,-0.09694314301434526,1.8164939867419851,2.861094879833617,0.965413510799408,0.09679137170314789,0.24209101498126984
1727724468816,7i,10.89534997292762,1.0s : 0.2s,0.020900424683903455,0.01684233250488062,0.012375927753609529,0.025845324208597992,-0.001822976628318429,-0.014834894798696041,0.02634960040450096,0.01125633716583252,0.011878952383995056,0.02000415325164795,-0.09674666659650306,1.8163840341063084,2.861132365921152,0.9654587507247925,0.09659581631422043,0.24198955297470093
1727724468826,7i,10.89534997292762,1.0s : 0.2s,0.021534337875086386,0.016849042310453657,0.013410349769447574,0.02831846049473918,0.0250544436275959,-0.016807233914732933,0.02188081480562687,0.005502760410308838,0.026795044541358948,-0.007326692342758179,-0.09661574574570105,1.8161778484024385,2.860936298318886,0.9655209183692932,0.09646550565958023,0.24179355800151825
1727724468836,7i,10.89534997292762,1.0s : 0.2s,0.023558594420904046,0.016839122620145225,0.016475779813786194,0.024877638235484834,0.04331427440047264,-0.01763276942074299,0.018099559471011162,-0.0007286667823791504,0.01749143749475479,-0.017675280570983887,-0.09647347963569358,1.8160195224872313,2.86055351644075,0.9655724763870239,0.0963238999247551,0.2416440099477768
1727724468846,7i,10.89534997292762,1.0s : 0.2s,0.02483484716131928,0.016812298850216467,0.018278846815297144,0.022234956569263654,0.047423798590898514,-0.011240383610129356,0.01023098360747099,-0.005226433277130127,0.011891104280948639,-0.018046587705612183,-0.09638187657071168,1.8158804438158167,2.860071759491687,0.9656147360801697,0.09623271971940994,0.24151188135147095
1727724468856,7i,10.89534997292762,1.0s : 0.2s,0.024876079215457758,0.016763643633667568,0.018379324504919275,0.014528400250931427,0.03597380220890045,-0.008238201960921288,-0.0025991948787122965,-0.010406196117401123,0.006665408611297607,-0.0076392292976379395,-0.09638911219906664,1.8157217117318025,2.859634306024597,0.9656524062156677,0.09623992443084717,0.2413584440946579
1727724468866,7i,10.89534997292762,1.0s : 0.2s,0.023540382400163557,0.016709856742454416,0.016581022018940232,0.01137332188764619,0.00616637384518981,-0.004757982213050127,-0.013707240112125874,-0.007459521293640137,-0.0050475820899009705,0.006944775581359863,-0.09647527242020225,1.8156324853313544,2.85943821099267,0.9656657576560974,0.09632568806409836,0.24127022922039032
1727724468876,7i,10.89534997292762,1.0s : 0.2s,0.02110876699439901,0.016663686654563237,0.012957684635086628,0.0252438097370028,-0.02859746664762497,-0.0012193515431135893,-0.018721306696534157,-0.002661287784576416,-0.011671438813209534,0.022224873304367065,-0.09659946237472422,1.8156765701143671,2.8595832797245735,0.9656434059143066,0.09644929319620132,0.24130986630916595
1727724468886,7i,10.89534997292762,1.0s : 0.2s,0.017990532778257892,0.016630739665846647,0.006861324056798846,0.03248940440652078,-0.060462456196546555,0.001991888042539358,-0.02175784297287464,-0.003340482711791992,-0.01475977897644043,0.02874980866909027,-0.09669753201412812,1.815858893132631,2.8600879925216742,0.9655901789665222,0.09654691070318222,0.2414836287498474
1727724468896,7i,10.89534997292762,1.0s : 0.2s,0.025027390380021778,0.016599834338351455,0.018730076592830436,0.026021392926563847,-0.07103946059942245,-0.00033180881291627884,-0.017803315073251724,-0.00010526180267333984,-0.003216192126274109,0.025821655988693237,-0.09678152317698455,1.8160173019180124,2.860788367085108,0.9655439853668213,0.0966305062174797,0.24163460731506348
1727724468906,7i,10.89534997292762,1.0s : 0.2s,0.02700326716943189,0.016559185277844595,0.02133002158362089,0.017947091380487324,-0.05305087938904762,-0.0010655098594725132,-0.0064854128286242485,0.0018782615661621094,0.015319891273975372,0.009158119559288025,-0.09689222078304428,1.8160367756810982,2.861433292281945,0.9655289649963379,0.09674068540334702,0.24165081977844238
1727724468916,7i,10.89534997292762,1.0s : 0.2s,0.027189284512618542,0.016518613807166176,0.021596124425410625,0.016446654772230597,-0.036899205297231674,-0.00817965716123581,0.007901815697550774,0.005058228969573975,0.013294748961925507,0.008255690336227417,-0.09687257751423094,1.8159437406151588,2.8618579862425775,0.9655532240867615,0.09672113507986069,0.24156144261360168
1727724468926,7i,10.89534997292762,1.0s : 0.2s,0.02662301030460118,0.01647678087246153,0.020911728043368074,0.007464265987488761,-0.021558864042162895,-0.01780884899199009,0.01774192973971367,0.00025540590286254883,0.006849959492683411,0.002954334020614624,-0.0967402054206243,1.8157576403866285,2.862113247528308,0.9656106233596802,0.09658938646316528,0.2413848489522934
1727724468936,7i,10.89534997292762,1.0s : 0.2s,0.024984447145836704,0.016433836893913544,0.018818916125201094,0.01961624706998412,0.0053511797450482845,-0.02619580738246441,0.02581913210451603,-0.00019085407257080078,0.008277922868728638,-0.017783045768737793,-0.09654732552009239,1.815500863077041,2.862144837014905,0.9656907916069031,0.09639739990234375,0.2411414533853531
1727724468946,7i,10.89534997292762,1.0s : 0.2s,0.023188406449644934,0.016396137604909107,0.016397221268093575,0.02152886902980889,0.020757831633090973,-0.027022719383239746,0.0306295994669199,0.001740872859954834,0.005425982177257538,-0.020761027932167053,-0.09628524756051063,1.815260191254596,2.861935982981699,0.9657731056213379,0.09613654017448425,0.24091510474681854
1727724468956,7i,10.89534997292762,1.0s : 0.2s,0.020813206231490182,0.016377820477733285,0.01284354117966233,0.012271758484638483,0.036567822098731995,-0.03010670468211174,0.028020666912198067,0.00610804557800293,-0.00188368558883667,-0.01047566533088684,-0.09601001545707037,1.8150629993933107,2.8616000486114634,0.9658462405204773,0.09586258232593536,0.24073103070259094
1727724468966,7i,10.89534997292762,1.0s : 0.2s,0.02142583153858381,0.01639642886638052,0.013792149127293261,0.016524255302670175,0.030003929510712624,-0.03183509409427643,0.020482854917645454,0.015974879264831543,-0.002794601023197174,-0.0031692981719970703,-0.09579079813252402,1.814870874897933,2.861217004106569,0.9659129977226257,0.09564436972141266,0.24055057764053345
1727724468976,7i,10.89534997292762,1.0s : 0.2s,0.02229888706567445,0.016454526455157086,0.015049548946870097,0.02052141534798744,0.026357395574450493,-0.03390778973698616,0.010691643692553043,0.020487070083618164,-0.0003556087613105774,-0.0011322498321533203,-0.09568591591452251,1.8146392611072397,2.860933256969539,0.9659783840179443,0.09553997218608856,0.24032928049564362
1727724468986,7i,10.89534997292762,1.0s : 0.2s,0.022429013853218972,0.0165257498577208,0.015164440446911634,0.0163404121415551,0.017835812643170357,-0.027977462857961655,-0.00622528837993741,0.013775944709777832,0.008361674845218658,0.0027045905590057373,-0.09580398998795597,1.814350657540924,2.8606980925896948,0.9660366177558899,0.09565750509500504,0.24004772305488586
1727724468996,7i,10.89534997292762,1.0s : 0.2s,0.022505126771609634,0.016620360210296694,0.015173804977203541,0.02382365085383381,-0.016590870916843414,-0.03214237838983536,-0.016706891357898712,0.011307895183563232,-0.009065814316272736,0.018907904624938965,-0.09598991663132982,1.8141038912147067,2.8607338697241405,0.9660786390304565,0.09584257751703262,0.23980505764484406
1727724469006,7i,10.89534997292762,1.0s : 0.2s,0.02256645454466517,0.016721302269203236,0.015153973773844863,0.02050806673080045,-0.027865363284945488,-0.02685360796749592,-0.01862782984972,0.0016047358512878418,-0.013209588825702667,0.015604883432388306,-0.09613658790047075,1.8138620902149958,2.8609985090416163,0.9661230444908142,0.09598857164382935,0.2395680993795395
1727724469016,7i,10.89534997292762,1.0s : 0.2s,0.024079050429036377,0.01681550819621195,0.01723482966748455,0.016540508859243186,-0.04188424348831177,-0.029628979042172432,-0.01259963121265173,-0.003313302993774414,-0.010213539004325867,0.012581497430801392,-0.09626919629018126,1.8135358094132144,2.8613842364517206,0.9661888480186462,0.09612056612968445,0.2392498105764389
1727724469026,7i,10.89534997292762,1.0s : 0.2s,0.027222074117347957,0.016915429797701054,0.021328608815612726,0.012980226949128947,-0.03653794899582863,-0.04301189258694649,0.004200654570013285,0.0029016733169555664,-0.009091705083847046,0.008798152208328247,-0.09623056642167109,1.8131234092082695,2.8617730264587293,0.9662910103797913,0.09608211368322372,0.23885220289230347
1727724469036,7i,10.89534997292762,1.0s : 0.2s,0.031550388473667285,0.016998246971646157,0.02657981588969795,0.010965925382781695,-0.04028607904911041,-0.049745429307222366,0.01493925228714943,-0.0054863691329956055,-0.003406427800655365,0.008862704038619995,-0.09603752388813301,1.8126415774698017,2.862119614057816,0.966423749923706,0.09588996320962906,0.2383909821510315
1727724469046,7i,10.89534997292762,1.0s : 0.2s,0.03657900184870874,0.01706075995512557,0.03235666617563406,0.01404435648406963,-0.03213094547390938,-0.0637427344918251,0.022419806569814682,-0.006457269191741943,-0.0002425163984298706,0.012469515204429626,-0.09574091402599667,1.8120760621589638,2.8624498958059155,0.9665859937667847,0.09559471905231476,0.23785120248794556
1727724469056,7i,10.89534997292762,1.0s : 0.2s,0.03849262185068937,0.017069980259981014,0.03450069145486837,0.022725119547809182,-0.008487536571919918,-0.06936347484588623,0.023725055158138275,-0.016451716423034668,0.015108376741409302,-0.0041843801736831665,-0.09546444737724886,1.811413273926751,2.862567891858327,0.9667690396308899,0.09531950950622559,0.2372168004512787
1727724469066,7i,10.89534997292762,1.0s : 0.2s,0.04226467478122481,0.017046935351732875,0.038674342004441926,0.014708979005738854,-0.02399725466966629,-0.0734812542796135,0.028000492602586746,-0.014029264450073242,0.0039496272802352905,-0.0019834935665130615,-0.09520847801110317,1.8107249693340624,2.8626376521008794,0.9669560194015503,0.09506470710039139,0.23655715584754944
1727724469076,7i,10.89534997292762,1.0s : 0.2s,0.04332795792256482,0.01699508830302988,0.039855726204797284,0.01455216269130294,-0.022320395335555077,-0.06840798258781433,0.02314651571214199,-0.011960327625274658,0.007780313491821289,0.002860546112060547,-0.09485517952968671,1.8101256846545013,2.8628186542953364,0.9671300649642944,0.0947130024433136,0.23598554730415344
1727724469086,7i,10.89534997292762,1.0s : 0.2s,0.043709665690314,0.016900370049450972,0.04031020177263609,0.02380072385546096,-0.025365721434354782,-0.0574173778295517,0.02127564512193203,-0.015026688575744629,0.018432162702083588,-0.0009635686874389648,-0.09453209359800718,1.8096073361787246,2.8629936931156634,0.9672819375991821,0.0943913608789444,0.23549143970012665
1727724469096,7i,10.89534997292762,1.0s : 0.2s,0.04294352046151713,0.016784126518105055,0.039527699738954994,0.026103445644783126,-0.013772580772638321,-0.04395869001746178,0.01568104326725006,-0.00989842414855957,0.012251138687133789,0.02081635594367981,-0.09425743592136616,1.8092007964058048,2.863165113379391,0.9674028158187866,0.09411792457103729,0.23510430753231049
1727724469106,7i,10.89534997292762,1.0s : 0.2s,0.04125931256674142,0.016581666595310334,0.037780672392137706,0.0453483482612501,0.006405658554285765,-0.03836898133158684,0.0025681701954454184,-0.009957551956176758,0.026676088571548462,0.035294562578201294,-0.09412940697403926,1.8088691488826123,2.8631728177671394,0.9674925208091736,0.09399046748876572,0.23478631675243378
1727724469116,7i,10.89534997292762,1.0s : 0.2s,0.039208481596170026,0.0163587203827778,0.03563281207700697,0.04824247974140142,0.04325035959482193,-0.040872931480407715,-0.004449359141290188,-0.0007890462875366211,0.03749292343854904,0.030347898602485657,-0.09419232916220785,1.8085107748981606,2.8629696098342245,0.9675705432891846,0.09405311197042465,0.23443810641765594
1727724469126,7i,10.89534997292762,1.0s : 0.2s,0.037823972561230865,0.016109368314982473,0.0342219396411861,0.04776733616264983,0.08603323996067047,-0.04270172491669655,-0.011740295216441154,-0.005953371524810791,0.04451247304677963,0.016276225447654724,-0.09443706049702924,1.808125228571542,2.862373446301601,0.9676385521888733,0.09429675340652466,0.2340596616268158
1727724469136,7i,10.89534997292762,1.0s : 0.2s,0.051481054520986336,0.01583758524500027,0.048984383921818565,0.049850610352922715,0.1499411165714264,-0.04097404330968857,-0.018289074301719666,-0.007190823554992676,0.048131540417671204,0.010804176330566406,-0.09494013318774615,1.8075946121003592,2.861275390909791,0.96771639585495,0.09479757398366928,0.2335350215435028
1727724469146,7i,10.89534997292762,1.0s : 0.2s,0.0704659002729063,0.015517743882280334,0.06873603658980584,0.05837022143784025,0.17766942083835602,-0.031937405467033386,-0.02812359668314457,-0.008283078670501709,0.05760621279478073,0.004471868276596069,-0.09558494374230075,1.807104900579798,2.859718461480045,0.9677709341049194,0.09543945640325546,0.23304671049118042
1727724469156,7i,10.89534997292762,1.0s : 0.2s,0.0903587875285437,0.015221814613593726,0.08906742863414151,0.054567487989620245,0.20011813938617706,-0.04138368368148804,-0.02623092196881771,0.0006269216537475586,0.05436045676469803,0.004707276821136475,-0.09631640020686467,1.8066105197135987,2.8579565207780933,0.9678182005882263,0.09616754949092865,0.2325519323348999
1727724469166,7i,10.89534997292762,1.0s : 0.2s,0.11842032921982698,0.014934846360042225,0.11747478340790478,0.07725957755780244,0.2673720121383667,-0.055452898144721985,-0.030751636251807213,0.006088852882385254,0.07635796070098877,-0.010071247816085815,-0.0971805915270856,1.805929513186458,2.85575372217104,0.9678950905799866,0.09702770411968231,0.23187333345413208
1727724469176,7i,10.89534997292762,1.0s : 0.2s,0.15278542372412574,0.014623783569071727,0.15208395923530396,0.09095677157572706,0.3426056206226349,-0.05313856527209282,-0.03185261785984039,-0.0033305883407592773,0.08762074261903763,-0.024179473519325256,-0.09820600089131228,1.8051589840809885,2.8528719297683582,0.9679759740829468,0.09804821759462357,0.23110419511795044
1727724469186,7i,10.89534997292762,1.0s : 0.2s,0.19128180045917162,0.014305968123332244,0.1907460784995502,0.08148578745122309,0.4175557792186737,-0.02539428509771824,-0.05108383670449257,-0.0401911735534668,0.0676499754190445,-0.021167993545532227,-0.0995063754886573,1.804506211855972,2.84928134797959,0.9680018424987793,0.09934224933385849,0.2304425686597824
1727724469196,7i,10.89534997292762,1.0s : 0.2s,0.2689962976213601,0.013621475949401557,0.2686511930495736,0.13201725648864207,0.6714538335800171,0.03514096513390541,-0.08517536520957947,-0.07966989278793335,0.10215268284082413,-0.025418370962142944,-0.10146681602457563,1.8041205071632633,2.844251725664007,0.9678994417190552,0.10129279643297195,0.23002374172210693
1727724469206,7i,10.89534997292762,1.0s : 0.2s,0.37980811427038735,0.012831426822483057,0.3795913041039361,0.22817277407887346,0.9429237246513367,0.11440382897853851,-0.1237856075167656,-0.10345745086669922,0.20185598731040955,-0.024769559502601624,-0.10440970017070479,1.804105764105191,2.836501708231951,0.9676084518432617,0.10422009974718094,0.2299395203590393
1727724469216,7i,10.89534997292762,1.0s : 0.2s,0.4980302194616261,0.012679630550653562,0.4978687843861015,0.2130887048198798,1.1345595121383667,0.17015880346298218,-0.14869602024555206,-0.08682221174240112,0.19459865987300873,-0.0002474784851074219,-0.10814808672143765,1.8044990149965119,2.826698815556669,0.9671322703361511,0.10793739557266235,0.2302282154560089
1727724469226,7i,10.89534997292762,1.0s : 0.2s,0.6270253403207411,0.013903889265509306,0.6268711664031403,0.2624282357741961,1.3489638566970825,0.26192519068717957,-0.1853368580341339,-0.07490003108978271,0.25069522857666016,0.020259976387023926,-0.1126410020850566,1.805344130910816,2.8148615226449096,0.9664558172225952,0.11240295320749283,0.2309304028749466
1727724469236,7i,10.89534997292762,1.0s : 0.2s,0.7249559668820096,0.016319370835360295,0.7247722621992148,0.2589039270493059,1.3757596015930176,0.2823319733142853,-0.22724972665309906,-0.09504741430282593,0.20704558491706848,0.12300145626068115,-0.11788857918394578,1.8066070089982815,2.8019138259568375,0.9655765891075134,0.117615707218647,0.23200973868370056
1727724469246,7i,10.89534997292762,1.0s : 0.2s,0.7869362195604752,0.01963673405675466,0.7866911797724165,0.2909475360600763,1.3383632898330688,0.27659764885902405,-0.24794833362102509,-0.062239229679107666,0.16251063346862793,0.23316740989685059,-0.12333961102041095,1.8078755859225986,2.7892385300792233,0.9646440744400024,0.12302713096141815,0.2330804318189621
1727724469256,7i,10.89534997292762,1.0s : 0.2s,0.8555508486335833,0.02403452369334384,0.8552131876137544,0.3490986367469019,1.458094835281372,0.3109093904495239,-0.25955456495285034,-0.10339683294296265,0.22834861278533936,0.2429729700088501,-0.12912667085975055,1.809135685278898,2.7762012087002654,0.9636415839195251,0.12876813113689423,0.23412378132343292
1727724469266,7i,10.89534997292762,1.0s : 0.2s,0.9254089516770684,0.02929104262141902,0.9249452754980702,0.3800308361802687,1.5656965970993042,0.37371551990509033,-0.20352888107299805,-0.16771435737609863,0.2197427600622177,0.2607842981815338,-0.13500665334566744,1.810668396361563,2.761839865438832,0.9625295400619507,0.13459689915180206,0.23541656136512756
1727724469276,7i,10.89534997292762,1.0s : 0.2s,1.0148662307591465,0.035452102116643326,1.0142468214348952,0.4133058411484751,1.7615277767181396,0.4394811689853668,-0.17849604785442352,-0.21545201539993286,0.24330894649028778,0.2553485929965973,-0.1407614638854518,1.8125496493438307,2.7461374569722046,0.9613170623779297,0.1402970850467682,0.2370375394821167
1727724469286,7i,10.89534997292762,1.0s : 0.2s,1.1378938447174445,0.043027806356126234,1.1370800366403533,0.49638462200659444,2.0452821254730225,0.5482885837554932,-0.1705065667629242,-0.244543194770813,0.3792286813259125,0.20683792233467102,-0.14705769473896763,1.8148597016946044,2.72779036831315,0.959890604019165,0.1465282291173935,0.2390393763780594
1727724469296,7i,10.89534997292762,1.0s : 0.2s,1.2503786984724865,0.051606581631183944,1.2493132714920199,0.510849312495525,2.156007766723633,0.6267595291137695,-0.19715017080307007,-0.2743583917617798,0.33367854356765747,0.2726776897907257,-0.15395905866150297,1.8177333083958715,2.7075862365557457,0.9581964015960693,0.1533515602350235,0.24154381453990936
1727724469306,7i,10.89534997292762,1.0s : 0.2s,1.3512987264582383,0.061399969843889846,1.3499030675684924,0.5742975942406495,2.247567892074585,0.6788733005523682,-0.2634735107421875,-0.2932601571083069,0.398701012134552,0.2912966012954712,-0.16157141976066705,1.8209543814263536,2.686517537929764,0.9562546014785767,0.16086935997009277,0.24433287978172302
1727724469316,7i,10.89534997292762,1.0s : 0.2s,1.4261334469247824,0.07242336679863035,1.424293321047007,0.6283516373220805,2.239215135574341,0.7377253174781799,-0.3581755757331848,-0.3113884925842285,0.4287357032299042,0.3377109467983246,-0.1701988889381571,1.8245243601738717,2.663721018349618,0.9539970755577087,0.1693783700466156,0.24738748371601105
1727724469326,7i,10.89534997292762,1.0s : 0.2s,1.4570048192327094,0.08452401676253656,1.4545510420255685,0.677444573507831,2.103769302368164,0.7616831064224243,-0.4372967481613159,-0.3229234218597412,0.3862156271934509,0.4533090591430664,-0.1795517181143485,1.8284985290225104,2.6418547154665464,0.9514329433441162,0.17858850955963135,0.2507621645927429
1727724469336,7i,10.89534997292762,1.0s : 0.2s,1.465569186777594,0.0978584084270052,1.4622984555596272,0.7483564802895906,2.003697395324707,0.8015736937522888,-0.5028089284896851,-0.3235645890235901,0.4152722954750061,0.5318762063980103,-0.18937324834909194,1.8328410420037438,2.6213199583926268,0.9485949873924255,0.18824338912963867,0.25442472100257874
1727724469346,7i,10.89534997292762,1.0s : 0.2s,1.482905244073467,0.11235416775513529,1.478642791173257,0.7839324037994073,2.019524097442627,0.8796306848526001,-0.5471692085266113,-0.3249790668487549,0.44851750135421753,0.554770827293396,-0.19968814721602682,1.8376704023955657,2.6013344593975996,0.9454320669174194,0.19836369156837463,0.25847703218460083
1727724469356,7i,10.89534997292762,1.0s : 0.2s,1.5316412386819986,0.12776614836191888,1.52630295006073,0.8007862193490796,2.173579692840576,0.9729203581809998,-0.5534061193466187,-0.3406184911727905,0.4405937194824219,0.5754257440567017,-0.21057147874144666,1.8430558115098195,2.5805827370628553,0.9418911933898926,0.2090187966823578,0.26296868920326233
1727724469366,7i,10.89534997292762,1.0s : 0.2s,1.6294171025487942,0.14383115960206802,1.6230565891570239,0.7974477316221346,2.4705100059509277,1.094076156616211,-0.5461024045944214,-0.32958197593688965,0.44413650035858154,0.5744922757148743,-0.22211414734408946,1.8488073354058339,2.5575113369989766,0.9379806518554688,0.220292329788208,0.267701655626297
1727724469376,7i,10.89534997292762,1.0s : 0.2s,1.7704584311161788,0.1606572533004194,1.7631540781430097,0.8301718414429504,2.784482955932617,1.2631604671478271,-0.5996186137199402,-0.32056766748428345,0.5245607495307922,0.5579047203063965,-0.2348555963020283,1.8550780143795924,2.5314272643948836,0.933513343334198,0.23270255327224731,0.27276867628097534
1727724469386,7i,10.89534997292762,1.0s : 0.2s,1.9499138768224866,0.17825642791102733,1.9417488954376412,0.8657293437847768,3.1254262924194336,1.4553850889205933,-0.6880323886871338,-0.314194917678833,0.570988655090332,0.5698603391647339,-0.24943042721556194,1.862167459209826,2.5039357202399235,0.9282087087631226,0.2468520551919937,0.2783759534358978
1727724469396,7i,10.89534997292762,1.0s : 0.2s,2.115283176652632,0.19630626748579785,2.106154497366099,0.8580054567347594,3.2491166591644287,1.6033543348312378,-0.8110594749450684,-0.31830501556396484,0.5228999853134155,0.6011912226676941,-0.26584982151254194,1.8699936991993162,2.472717360325524,0.9220035672187805,0.26272931694984436,0.28439849615097046
1727724469406,7i,10.89534997292762,1.0s : 0.2s,2.2879765717682115,0.21539704536640752,2.2778149410800776,0.9622916035698955,3.4436235427856445,1.7433342933654785,-1.0386276245117188,-0.3225882053375244,0.6463589668273926,0.635737419128418,-0.2846548739740519,1.8785186305053,2.4404624589642805,0.9146751165390015,0.28082624077796936,0.29070013761520386
1727724469416,7i,10.89534997292762,1.0s : 0.2s,2.422332338002079,0.23531449942993185,2.4108755758206724,0.9848623008698845,3.423257827758789,1.8066707849502563,-1.248969554901123,-0.24631404876708984,0.6987459659576416,0.6488738059997559,-0.30616767043291615,1.887404459079208,2.4078933963785834,0.9061039686203003,0.30140674114227295,0.29686617851257324
1727724469426,7i,10.89534997292762,1.0s : 0.2s,2.520402919750238,0.2557917474224495,2.5073893714052655,0.9960581379132212,3.36049485206604,1.8193596601486206,-1.4580717086791992,-0.16492599248886108,0.7221386432647705,0.6659181714057922,-0.3297329826996126,1.8964005065390521,2.376570333080181,0.8964169025421143,0.32379040122032166,0.3026488721370697
1727724469436,7i,10.89534997292762,1.0s : 0.2s,2.581263732540294,0.27655754362024637,2.5664057321465337,0.9953897796023303,3.239060640335083,1.8247144222259521,-1.6083918809890747,-0.09139609336853027,0.7402105331420898,0.6591933965682983,-0.35498188012420856,1.9052663690086413,2.346748057983558,0.8856923580169678,0.3475733697414398,0.3078020215034485
1727724469446,7i,10.89534997292762,1.0s : 0.2s,2.6206914979851796,0.2973069540673883,2.603772744053324,0.9555249814301128,3.1516597270965576,1.8250877857208252,-1.7253555059432983,-0.038694679737091064,0.6980095505714417,0.6513934135437012,-0.38137417262197293,1.9140610162366847,2.3183694535018784,0.8740065097808838,0.3721962571144104,0.31238245964050293
1727724469456,7i,10.89534997292762,1.0s : 0.2s,2.6553385786727075,0.3174592719539763,2.636293340665649,0.8924671848830873,3.1304821968078613,1.8455356359481812,-1.8016427755355835,0.010389864444732666,0.627160906791687,0.6348692178726196,-0.408621664988933,1.922641695238224,2.2909711350596047,0.8614515066146851,0.3973448574542999,0.3162570595741272
1727724469466,7i,10.89534997292762,1.0s : 0.2s,2.712720436960903,0.3375372948210857,2.691639044097521,0.9032117668151834,3.2426764965057373,1.9050260782241821,-1.8960039615631104,0.017393648624420166,0.6219892501831055,0.6546894907951355,-0.4371003205424067,1.9309074738635785,2.2632719805688577,0.8478710651397705,0.4233141839504242,0.31924867630004883
1727724469476,7i,10.89534997292762,1.0s : 0.2s,2.7974378272988947,0.3575269416199001,2.7744968703566206,0.9027275814947995,3.4313089847564697,1.9696942567825317,-1.9838380813598633,0.0466923713684082,0.5989434123039246,0.6737979650497437,-0.46714904757078174,1.9384940515135294,2.2341991813488815,0.8331752419471741,0.4503426253795624,0.3209531903266907
1727724469486,7i,10.89534997292762,1.0s : 0.2s,2.889326217768437,0.3766547417776475,2.8646705217494866,0.8429762322582266,3.559589147567749,2.0195767879486084,-2.065274238586426,0.09129726886749268,0.5057510733604431,0.6681987643241882,-0.4987392868924451,1.945160007701841,2.2035620059127465,0.817363440990448,0.4783187806606293,0.32113543152809143
1727724469496,7i,10.89534997292762,1.0s : 0.2s,3.006137511422248,0.39564519249401026,2.979987855551818,0.8663999783516059,3.7477879524230957,2.1466448307037354,-2.1902174949645996,0.10708147287368774,0.4764447808265686,0.7156695127487183,-0.5318771695383614,1.9512792026619545,2.171581931371252,0.8002212643623352,0.5071520805358887,0.3200666904449463
1727724469506,7i,10.89534997292762,1.0s : 0.2s,3.14908505676588,0.41460041853915863,3.1216731391504333,0.8918219240264175,3.9866507053375244,2.221769094467163,-2.37692928314209,0.13310331106185913,0.5619168281555176,0.6796170473098755,-0.5675895034727712,1.9563677345538026,2.1373993703761913,0.7812947630882263,0.537601113319397,0.31711769104003906
1727724469516,7i,10.89534997292762,1.0s : 0.2s,3.2933952721034445,0.43353500766059744,3.2647357956572907,0.9941589245125602,4.149533271789551,2.2580533027648926,-2.5418503284454346,0.27191251516342163,0.5599287748336792,0.7751743793487549,-0.6057446039537401,1.9598784034180696,2.1011740584970284,0.7606344223022461,0.5693743824958801,0.31184667348861694
1727724469526,7i,10.89534997292762,1.0s : 0.2s,3.4097231912491215,0.45267788035397366,3.3795406459429254,1.0720252138909594,4.164834976196289,2.2107315063476562,-2.7138352394104004,0.37217873334884644,0.5691929459571838,0.8286980390548706,-0.6459022937286716,1.9616762221520898,2.063956942225031,0.7383253574371338,0.6019192337989807,0.30425193905830383
1727724469536,7i,10.89534997292762,1.0s : 0.2s,3.4800391109919047,0.47177485929197405,3.4479125128363344,1.0997648087508725,4.035645008087158,2.1486077308654785,-2.844067096710205,0.4849834442138672,0.5340796113014221,0.8300799131393433,-0.6872622611497953,1.9619523926278457,2.0270956377932485,0.714601457118988,0.6344233155250549,0.2947066128253937
1727724469546,7i,10.89534997292762,1.0s : 0.2s,3.531867661540861,0.49067011885969497,3.4976180484861867,1.0733615166493704,3.9814534187316895,2.102829933166504,-2.971967935562134,0.5269104242324829,0.5462184548377991,0.7590228915214539,-0.729387537265394,1.9610113338270092,1.991007736283735,0.6895356178283691,0.6664131283760071,0.28361034393310547
1727724469556,7i,10.89534997292762,1.0s : 0.2s,3.5733087588539325,0.5092988286574605,3.5368277013773755,1.0381296601461198,3.9565694332122803,2.0568692684173584,-3.074491024017334,0.5582687854766846,0.533023476600647,0.6942154765129089,-0.7724445244784786,1.9582377669062843,1.9544302395066673,0.6631211042404175,0.6978881359100342,0.2705979645252228
1727724469566,7i,10.89534997292762,1.0s : 0.2s,3.6206407206223967,0.5275476216668431,3.5820012192491957,1.0517938035843477,3.9965710639953613,2.0475716590881348,-3.179654836654663,0.6137866973876953,0.5192273259162903,0.6781880855560303,-0.8163068976278741,1.9532413600221459,1.9167476360974254,0.6354350447654724,0.7286213636398315,0.2556041181087494
1727724469576,7i,10.89534997292762,1.0s : 0.2s,3.7117278321882865,0.5462502834242321,3.6713123168834465,1.1374797233086187,4.261630535125732,2.027230739593506,-3.3499393463134766,0.643094003200531,0.643528938293457,0.6827596426010132,-0.8618199220817077,1.9444783402229857,1.8756536947591402,0.6061277389526367,0.7590286731719971,0.2376658320426941
1727724469586,7i,10.89534997292762,1.0s : 0.2s,3.8143730133813163,0.5656208983037797,3.7722028689631326,1.2227676013217248,4.4317803382873535,1.9866365194320679,-3.48542857170105,0.7333808541297913,0.6434257626533508,0.7371000051498413,-0.9093673211057851,1.9297761067507133,1.8287590109279663,0.575090765953064,0.7891152501106262,0.21579621732234955
1727724469596,7i,10.89534997292762,1.0s : 0.2s,3.9184276132903246,0.5853379668927216,3.874461823932455,1.2400991938210244,4.56612491607666,1.9023125171661377,-3.6320602893829346,0.8047581315040588,0.5752359628677368,0.7478729486465454,-0.9581617314342136,1.9086577784841758,1.776488471058492,0.5425165891647339,0.8181359171867371,0.19060373306274414
1727724469606,7i,10.89534997292762,1.0s : 0.2s,4.009198870932593,0.6049491967062133,3.963295605438949,1.222095771470943,4.630908012390137,1.7926744222640991,-3.7522401809692383,0.8658568859100342,0.5572722554206848,0.658223032951355,-1.0078131436199238,1.8792827129882108,1.7172141232766487,0.5085173845291138,0.8456667065620422,0.16204383969306946
1727724469616,7i,10.89534997292762,1.0s : 0.2s,4.087414032769943,0.6245009216972919,4.0394247206853455,1.2450068809574266,4.653883934020996,1.6809529066085815,-3.89119815826416,0.920299232006073,0.5207713842391968,0.6571823358535767,-1.0576653517103065,1.8403637183307275,1.6499323012537257,0.47317904233932495,0.8712117671966553,0.13073578476905823
1727724469626,7i,10.89534997292762,1.0s : 0.2s,4.141204313891702,0.6441129175363997,4.090805754232043,1.2890961416911328,4.563176155090332,1.5641149282455444,-4.033542156219482,0.9935194253921509,0.5230336785316467,0.6333433389663696,-1.1073633883198866,1.7902003190288849,1.57308139410385,0.43630531430244446,0.8945232033729553,0.09729333221912384
1727724469636,7i,10.89534997292762,1.0s : 0.2s,4.147586426151005,0.6635090873399013,4.0941701055781055,1.3015625746126094,4.29713249206543,1.4364376068115234,-4.134106159210205,1.0560179948806763,0.4013518691062927,0.6463805437088013,-1.1558322661347107,1.7288954778936327,1.4887604020901302,0.39812928438186646,0.9151307940483093,0.06347363442182541
1727724469646,7i,10.89534997292762,1.0s : 0.2s,4.1263644167771405,0.6826368310323545,4.069507372761801,1.2788621850555624,4.066300392150879,1.2819846868515015,-4.227578163146973,1.0640246868133545,0.3663577437400818,0.6075540781021118,-1.2024616077493027,1.6541805061018195,1.3932320708184645,0.35881152749061584,0.9329282641410828,0.029988739639520645
1727724469656,7i,10.89534997292762,1.0s : 0.2s,4.092817462106021,0.7017667760634436,4.0322051250070965,1.2782915039935376,3.9074199199676514,1.1208558082580566,-4.283756732940674,1.0804132223129272,0.38694149255752563,0.5630388259887695,-1.24652162448132,1.5603890830117075,1.2807930429724723,0.3186039328575134,0.9478820562362671,-0.003315908368676901
1727724469666,7i,10.89534997292762,1.0s : 0.2s,4.073623237776798,0.7212528753550579,4.009264343136678,1.2582920176870445,3.9315505027770996,0.9727352857589722,-4.310229778289795,1.0770570039749146,0.4122108817100525,0.503318190574646,-1.2866641673323702,1.436518588658945,1.1400376531150094,0.2778012156486511,0.9599052667617798,-0.03752834349870682
1727724469676,7i,10.89534997292762,1.0s : 0.2s,4.075298374045692,0.7409430727829287,4.007375724884611,1.285396324413254,4.0113701820373535,0.8485885262489319,-4.332517623901367,1.0938961505889893,0.43957972526550293,0.5122544169425964,-1.3204304500138582,1.2696546027892672,0.9576827364967331,0.23660913109779358,0.9688218235969543,-0.07348787784576416
1727724469686,7i,10.89534997292762,1.0s : 0.2s,4.095706217199199,0.7609284105502265,4.0244002499281395,1.2964772533998616,4.153676509857178,0.7647261619567871,-4.362315654754639,1.1049985885620117,0.4388695955276489,0.5169379711151123,-1.344169981215444,1.0518683170908023,0.7253373618242307,0.19511114060878754,0.9744299650192261,-0.11143563687801361
