timestamp,club,max_speed,tempo,speed,l.speed,t.spped,acc,rotation.x,rotation.y,rotation.z,userAcceleration.x,userAcceleration.y,userAcceleration.z,pitch,roll,yaw,gravity.x,gravity.y,gravity.z
1727729748212,6i,42.47764919661722,0.0s : 0.0s,2.0083873950835023,0.0277356197669403,2.008195872948264,4.074728633421507,-3.0111892223358154,6.096843719482422,7.494594097137451,3.8882243633270264,-0.22407689690589905,1.1978790760040283,0.05848819192158046,-0.6386438429423025,0.01934327161194661,-0.5950878262519836,-0.05845485255122185,-0.8015320301055908
1727729748222,6i,42.47764919661722,0.0s : 0.0s,3.563409640726983,0.07661639564526339,3.5625858860586557,4.395748111682567,-3.2242186069488525,6.297630310058594,8.049763679504395,4.224838733673096,0.03865136206150055,1.2131962776184082,-0.011535044397933621,-0.5777053533567863,0.06533371896061983,-0.5460667610168457,0.011534788645803928,-0.8376622200012207
1727729748232,6i,42.47764919661722,0.0s : 0.0s,4.772462034835442,0.14174819704876668,4.77035651944161,4.620459025902247,-3.564971446990967,6.503955841064453,8.540576934814453,4.438798904418945,0.3019888699054718,1.246799349784851,-0.0834840537473831,-0.5111825597644135,0.11889973879893309,-0.487505167722702,0.0833871141076088,-0.8691290616989136
1727729748242,6i,42.47764919661722,0.0s : 0.0s,5.750268123469963,0.21979575019307238,5.746065899377752,4.856527072262144,-4.073777198791504,6.994719982147217,8.805076599121094,4.648197174072266,0.5234044790267944,1.3062028884887695,-0.15706538072281612,-0.43652768779032747,0.17947400669387156,-0.4175909459590912,0.15642039477825165,-0.8950700759887695
1727729748252,6i,42.47764919661722,0.0s : 0.0s,6.517564046941721,0.3091745557076943,6.510226739529914,5.218221056011261,-4.55949068069458,7.673016548156738,8.581087112426758,4.937849998474121,0.8663720488548279,1.4480565786361694,-0.232738812635226,-0.35077957893277306,0.2498890861215114,-0.33436518907546997,0.2306433618068695,-0.9137852787971497
1727729748262,6i,42.47764919661722,0.0s : 0.0s,7.246598455188337,0.40833595553710783,7.235084720869106,5.523460356700157,-5.052655220031738,8.031852722167969,9.335273742675781,5.122169017791748,1.2451629638671875,1.6497175693511963,-0.3086972122366351,-0.25233184801748004,0.33451766981558156,-0.23786112666130066,0.3038176894187927,-0.9225599765777588
1727729748272,6i,42.47764919661722,0.0s : 0.0s,8.006955539712715,0.5176136567906676,7.990207326298856,6.042201897906829,-5.762928009033203,8.271018981933594,10.485595703125,5.503041744232178,1.6793853044509888,1.8451017141342163,-0.3824685119447392,-0.13885410364431652,0.4318887646092141,-0.1284078061580658,0.3732117712497711,-0.918816864490509
1727729748282,6i,42.47764919661722,0.0s : 0.0s,8.64206221390381,0.637529213612701,8.618514710248766,6.614498166533635,-6.471219539642334,8.417372703552246,10.666787147521973,5.906327724456787,2.2056424617767334,2.000504970550537,-0.4510360512102588,-0.010157291550500722,0.5426286329738914,-0.009141364134848118,0.43589821457862854,-0.8999495506286621
1727729748292,6i,42.47764919661722,0.0s : 0.0s,9.137687641274889,0.7690970971575941,9.105263592266379,7.3688451671657305,-7.695991039276123,8.10498332977295,10.507964134216309,6.318450927734375,3.114887237548828,2.162067174911499,-0.5131421784082548,0.13338328356026263,0.6674228571091294,0.11586009711027145,0.4909171462059021,-0.8634679317474365
1727729748302,6i,42.47764919661722,0.0s : 0.0s,9.570556357650053,0.9137219975443162,9.526838988151288,8.222521624584708,-9.683764457702637,7.463979244232178,10.170757293701172,6.603080749511719,3.9554758071899414,2.891953945159912,-0.5770593379726378,0.28312710223070736,0.8064722293800825,0.2341230809688568,0.5455617904663086,-0.8047041296958923
1727729748312,6i,42.47764919661722,0.0s : 0.0s,10.060763272091869,1.0702690166901034,10.003673417749395,8.639714202437045,-12.22225284576416,6.357072353363037,10.050661087036133,6.639298439025879,4.296075820922852,3.479671001434326,-0.6430776126106947,0.4460219861313567,0.9696490510128445,0.3452136814594269,0.5996611714363098,-0.7219653725624084
1727729748322,6i,42.47764919661722,0.0s : 0.0s,10.72216913435517,1.2385240973664218,10.65039759849187,9.246530617864392,-15.29052734375,5.012997150421143,9.865364074707031,6.651572227478027,4.889841556549072,4.164656639099121,-0.7099955452253813,0.62860513971818,1.1694891154231724,0.44593146443367004,0.6518303751945496,-0.613402247428894
1727729748332,6i,42.47764919661722,0.0s : 0.0s,11.75644849152672,1.4220115287864163,11.670131290860418,10.425108402661845,-19.242246627807617,3.1142373085021973,10.064535140991211,7.074844837188721,5.957847595214844,4.809730529785156,-0.7713946443961361,0.8428957528988531,1.4263697032313112,0.5352472066879272,0.6971358060836792,-0.4769822359085083
1727729748342,6i,42.47764919661722,0.0s : 0.0s,13.177713905714356,1.6237067917979406,13.077297887374392,11.6006854963912,-22.806196212768555,1.3006093502044678,10.784143447875977,7.531546115875244,6.945008754730225,5.442294597625732,-0.8039780118042601,1.100757808888459,1.757102302897065,0.6186004877090454,0.7201219201087952,-0.3142579197883606
1727729748352,6i,42.47764919661722,0.0s : 0.0s,14.800911399298403,1.8389023800457573,14.686232201846172,11.782400774869608,-26.24439239501953,-0.508802056312561,10.4808349609375,7.053807258605957,7.2331953048706055,6.062149524688721,-0.7817876372186876,1.3770380289985362,2.138061934704803,0.6963759064674377,0.7045491337776184,-0.13664285838603973
1727729748362,6i,42.47764919661722,0.0s : 0.0s,16.39735912438778,2.060824183290336,16.26734120683859,11.528154485485274,-29.12259292602539,-2.6438119411468506,8.857720375061035,6.099592208862305,6.930804252624512,6.9034247398376465,-0.7021038516139361,1.6239465557729313,2.5237736010311167,0.7624071836471558,0.6458253860473633,0.040560316294431686
1727729748372,6i,42.47764919661722,0.0s : 0.0s,17.911248674201076,2.2848420908526035,17.764918398037697,11.39397256309396,-32.05357360839844,-4.359370231628418,5.025583267211914,5.239407062530518,5.99560546875,8.1500883102417,-0.5854039579863545,1.8091503658713766,2.890673621877879,0.8099246025085449,0.552536129951477,0.1967897117137909
1727729748382,6i,42.47764919661722,0.0s : 0.0s,18.890397562490566,2.51752562623051,18.721890523935404,13.450533169613209,-31.990407943725586,-7.65805721282959,-0.3530309796333313,4.596556663513184,6.4588823318481445,10.866064071655273,-0.46668843390253417,1.924482935402818,-3.0432725418808593,0.8377845883369446,0.4499313235282898,0.3093200922012329
1727729748392,6i,42.47764919661722,0.0s : 0.0s,19.025370263334317,2.7733724308525862,18.822144378809565,16.762843873314928,-27.891454696655273,-11.40269947052002,-3.4382240772247314,4.095856666564941,10.40360164642334,12.489274024963379,-0.37632072674573297,1.9598998709671887,-2.728824991352246,0.8605034351348877,0.3675011694431305,0.3528127372264862
1727729748402,6i,42.47764919661722,0.0s : 0.0s,16.507458913849362,3.03636446845708,16.225803234574126,15.854779202189027,-11.321828842163086,-16.48224449157715,-3.78834867477417,3.229633331298828,14.36386775970459,5.884113788604736,-0.3170132861056554,1.9011770938315102,-2.485405150568854,0.8987845778465271,0.3117300570011139,0.30823850631713867
1727729748412,6i,42.47764919661722,0.0s : 0.0s,14.86638345033703,3.270082503901372,14.502272832564312,12.831219719410678,-15.114516258239746,-4.289456844329834,-2.235865354537964,2.007770299911499,12.535096168518066,-1.865588903427124,-0.2977920295654558,1.8772928660025576,-2.355547385243152,0.9114344120025635,0.29341012239456177,0.28844061493873596
1727729748422,6i,42.47764919661722,0.0s : 0.0s,12.897662674071928,3.445328692774968,12.42897472251391,4.233624843572991,-2.6877822875976562,-18.59026336669922,-5.047563552856445,1.0526235103607178,-2.238482713699341,3.435805320739746,-0.3061389228116041,1.7795471802755327,-2.2502324134259815,0.93280428647995,0.30137935280799866,0.19760237634181976
1727729748432,6i,42.47764919661722,0.0s : 0.0s,12.630049726277733,3.5734792914085918,12.113975476371172,5.728594251166139,-13.7123384475708,-8.983980178833008,-5.731054306030273,3.597754716873169,-4.3238911628723145,1.0848586559295654,-0.3413782045903833,1.6901925349697076,-2.16618477876327,0.9355857968330383,0.3347860872745514,0.11223924160003662
1727729748442,6i,42.47764919661722,0.0s : 0.0s,13.22429943074321,3.698086932308011,12.696702267716917,9.655929897636574,-11.380941390991211,-16.74677848815918,-9.689358711242676,3.349388599395752,-2.7513606548309326,8.6283597946167,-0.41412843316647713,1.609355164596458,-2.014403830743316,0.9147871732711792,0.40239217877388,0.03529062122106552
1727729748452,6i,42.47764919661722,0.0s : 0.0s,12.598678904767189,3.8135937730830087,12.007631435021992,4.312368139806051,-8.346597671508789,-11.141682624816895,-8.137967109680176,3.4190380573272705,1.081110954284668,2.395390748977661,-0.5003944194131671,1.5299626112882159,-1.9043350987084129,0.8766621351242065,0.4797716438770294,-0.035817280411720276
1727729748462,6i,42.47764919661722,0.0s : 0.0s,12.584800488267927,3.9293865043947096,11.955631519438418,5.9524030109267,-5.896337985992432,-15.484694480895996,-8.874017715454102,2.4216928482055664,1.4492366313934326,5.2408223152160645,-0.5932933460799703,1.4235203396106901,-1.8334864305389016,0.8201285600662231,0.5590945482254028,-0.12166617065668106
1727729748472,6i,42.47764919661722,0.0s : 0.0s,12.059011639438166,4.040236556564024,11.362053084152917,4.56943664480782,-3.7872886657714844,-12.510448455810547,-8.708948135375977,3.0988049507141113,1.1875838041305542,3.1411468982696533,-0.6863335556344844,1.3155697430676134,-1.7946373535969222,0.7485156059265137,0.633705198764801,-0.19530026614665985
1727729748482,6i,42.47764919661722,0.0s : 0.0s,11.719439056373453,4.144816949051732,10.962013695252573,4.896171552828006,-2.997347831726074,-11.953481674194336,-9.613838195800781,2.5905213356018066,-0.07061398029327393,4.154119491577148,-0.7839060490659443,1.189591332737605,-1.7910611309634548,0.6573271155357361,0.7060509324073792,-0.26346367597579956
1727729748492,6i,42.47764919661722,0.0s : 0.0s,11.302889439934663,4.241135560473754,10.477026240736038,4.39448523095583,-0.885154128074646,-10.96635913848877,-9.825767517089844,2.4905264377593994,-0.5488850474357605,3.5787572860717773,-0.875857421596279,1.04967694800898,-1.8278409697304607,0.5553416013717651,0.7680928111076355,-0.318793386220932
1727729748502,6i,42.47764919661722,0.0s : 0.0s,10.937837663037238,4.331413984650816,10.043661963473642,4.396932528123893,0.020726192742586136,-10.078360557556152,-9.884590148925781,2.1694564819335938,-0.5113493204116821,3.7901182174682617,-0.9583324829936909,0.8741631995604904,-1.9125618620977562,0.4409409463405609,0.8182340860366821,-0.36886876821517944
1727729748512,6i,42.47764919661722,0.0s : 0.0s,10.572929663189893,4.415111645252747,9.606957417554963,3.6742003375466026,2.4217731952667236,-9.628658294677734,-9.417094230651855,2.415494680404663,-0.4114189147949219,2.737858295440674,-1.0118034652395496,0.6596990818740975,-2.05070537938835,0.32502973079681396,0.8477896451950073,-0.41905641555786133
1727729748522,6i,42.47764919661722,0.0s : 0.0s,10.30817518260878,4.4958129336918375,9.276105953502295,4.218386634527297,3.134532928466797,-9.228389739990234,-9.058863639831543,2.3617019653320312,-0.7082815766334534,3.4227893352508545,-1.0316025829500928,0.41410792522466267,-2.2246299551999207,0.20659635961055756,0.8581229448318481,-0.470045804977417
1727729748532,6i,42.47764919661722,0.0s : 0.0s,10.116997092929699,4.574934985611685,9.023502648959226,4.496405897952981,3.4101204872131348,-8.911206245422363,-8.765419006347656,2.2108776569366455,-0.8981982469558716,3.8108956813812256,-1.0221486931670183,0.17217941794580605,-2.3983951047004823,0.08935436606407166,0.8532305955886841,-0.5138223171234131
1727729748542,6i,42.47764919661722,0.0s : 0.0s,9.936379737276901,4.651461469804132,8.780407079304158,4.309821375408223,3.5723533630371094,-8.513273239135742,-8.392816543579102,1.7793914079666138,-0.871178925037384,3.8274500370025635,-0.9908845078490253,-0.04819933134272126,-2.551931170340006,-0.0264006108045578,0.836510956287384,-0.5473138689994812
1727729748552,6i,42.47764919661722,0.0s : 0.0s,9.756215485098572,4.7233888636327945,8.536588208095015,3.7314312640979126,3.9598276615142822,-8.182024955749512,-7.925408363342285,1.5084856748580933,-0.7972560524940491,3.3184986114501953,-0.9412907298052354,-0.2335904363297402,-2.6719458936736142,-0.13627800345420837,0.8083186745643616,-0.5727558732032776
1727729748562,6i,42.47764919661722,0.0s : 0.0s,9.585234008455314,4.7895924912036865,8.30280162144403,3.2600494788437793,4.385705471038818,-7.88089656829834,-7.488931179046631,1.2075464725494385,-0.7231393456459045,2.9405481815338135,-0.8792702206131588,-0.3855151623367189,-2.758953686286346,-0.23980355262756348,0.7702736854553223,-0.5909083485603333
1727729748572,6i,42.47764919661722,0.0s : 0.0s,9.421952769224728,4.849478848625946,8.078103049740767,2.6817560176856423,4.93153715133667,-7.4820451736450195,-7.090317249298096,1.122992753982544,-0.598477840423584,2.3606200218200684,-0.8078549111515682,-0.5076371601436406,-2.813013082856477,-0.33592918515205383,0.722806453704834,-0.6039060354232788
1727729748582,6i,42.47764919661722,0.0s : 0.0s,9.263266702774965,4.904126771825641,7.858603604496311,2.3265545178878457,5.5223917961120605,-7.083251953125,-6.587318420410156,1.2160722017288208,-0.42054152488708496,1.9383418560028076,-0.7305456679758091,-0.6056017004772819,-2.8461691666082927,-0.4239884614944458,0.66727614402771,-0.6123531460762024
1727729748592,6i,42.47764919661722,0.0s : 0.0s,9.110262268849185,4.955113592189474,7.6448497627956185,2.2227440299363437,5.902492523193359,-6.824763298034668,-5.990063667297363,1.3083934783935547,-0.3087630867958069,1.7701307535171509,-0.6505866830856398,-0.6844477752178707,-2.8583458232067507,-0.5030956268310547,0.6056533455848694,-0.6165053248405457
1727729748602,6i,42.47764919661722,0.0s : 0.0s,8.94006536804492,5.004212029599075,7.4082812276351975,2.2780993164396657,5.860358238220215,-6.53147029876709,-5.4753594398498535,1.2633821964263916,-0.1663416028022766,1.8883676528930664,-0.5730303811149132,-0.7517869564896589,-2.8569234629473286,-0.5738527774810791,0.5421808362007141,-0.6137858033180237
1727729748612,6i,42.47764919661722,0.0s : 0.0s,8.74515064575483,5.052368459320557,7.138013222753859,2.1966456518824318,5.648924350738525,-6.17782735824585,-5.047858715057373,1.2135818004608154,0.16776970028877258,1.8232730627059937,-0.49946825518801824,-0.8113140423986297,-2.84650824345979,-0.6366011500358582,0.4789588153362274,-0.6044315099716187
1727729748622,6i,42.47764919661722,0.0s : 0.0s,8.500712006399183,5.101166311334181,6.800015211736548,2.314430244551228,5.168503761291504,-5.562756538391113,-4.814313888549805,1.1858696937561035,0.6104735136032104,1.8914604187011719,-0.43189709023802514,-0.8652657721237412,-2.833375102543736,-0.6913629174232483,0.41859444975852966,-0.5888938903808594
1727729748632,6i,42.47764919661722,0.0s : 0.0s,8.321902175868322,5.150256394533074,6.536735798186514,2.2305970786480196,5.720440864562988,-5.017192363739014,-4.6317243576049805,1.3193219900131226,0.7779735326766968,1.6216380596160889,-0.36628580806635525,-0.9126794597745116,-2.815433281785971,-0.7386640310287476,0.35815009474754333,-0.5710551738739014
1727729748642,6i,42.47764919661722,0.0s : 0.0s,8.199247581134637,5.199307079817415,6.339942175327998,2.190686396133806,6.275463581085205,-4.62741756439209,-4.276705265045166,1.5156772136688232,0.6628361344337463,1.4361329078674316,-0.29960323735367306,-0.9535808574723718,-2.7877831290271153,-0.7791659832000732,0.2951411306858063,-0.5529847145080566
1727729748652,6i,42.47764919661722,0.0s : 0.0s,8.057055686523489,5.248255936405432,6.113260665285394,2.2227992971218424,5.990306854248047,-4.324225902557373,-3.987593412399292,1.5208463668823242,0.4022047519683838,1.5703803300857544,-0.2358083066319794,-0.9915076106487496,-2.7551489773639033,-0.813693106174469,0.2336290031671524,-0.5322792530059814
1727729748662,6i,42.47764919661722,0.0s : 0.0s,7.8710253631456215,5.29630286849273,5.822560965114692,2.182617113200179,5.399157524108887,-4.05774450302124,-3.680906057357788,1.4460691213607788,0.0991373062133789,1.6318312883377075,-0.17786097057834588,-1.0282850770329581,-2.7230981350975685,-0.8429044485092163,0.1769246906042099,-0.5081436038017273
1727729748672,6i,42.47764919661722,0.0s : 0.0s,7.651457873215843,5.342099946351565,5.477844078539232,2.033158297284897,4.850960731506348,-3.872810125350952,-3.185633420944214,1.511668086051941,-0.17799685895442963,1.3479278087615967,-0.12740741439503378,-1.0646887484244398,-2.6926855278694544,-0.8675488829612732,0.12706300616264343,-0.48084720969200134
1727729748682,6i,42.47764919661722,0.0s : 0.0s,7.4435790052216895,5.3844861178533545,5.139472507332015,1.8691718334538443,4.758729457855225,-3.617259979248047,-2.595853567123413,1.5071167945861816,-0.37784165143966675,1.0390563011169434,-0.08422473695448474,-1.0996718794679028,-2.66079735399657,-0.8878998160362244,0.08412519097328186,-0.45227956771850586
1727729748692,6i,42.47764919661722,0.0s : 0.0s,7.245230444703402,5.423567262703907,4.803986089049752,1.6699089932560405,4.205729007720947,-3.487776756286621,-2.4831621646881104,1.2357447147369385,-0.3307447135448456,1.0733773708343506,-0.04667350719532501,-1.1340541988363626,-2.628795261437809,-0.9051477909088135,0.04665656387805939,-0.42252904176712036
1727729748702,6i,42.47764919661722,0.0s : 0.0s,7.076972712442087,5.45995323968811,4.502494130264828,1.4881688323478928,4.072420597076416,-3.066774845123291,-2.4717743396759033,1.0178334712982178,-0.1096363216638565,1.0801117420196533,-0.011751419171909482,-1.1666334916034096,-2.5990479433003797,-0.9193683862686157,0.011751148849725723,-0.39322200417518616
1727729748712,6i,42.47764919661722,0.0s : 0.0s,6.950127118561443,5.4947979172053545,4.2557564325556605,1.4364122320706487,4.109750270843506,-2.7563133239746094,-2.3939616680145264,1.130378007888794,0.21756283938884735,0.8591810464859009,0.0219011615296936,-1.1968948770289236,-2.5682728767692393,-0.9306862354278564,-0.02189941145479679,-0.36516252160072327
1727729748722,6i,42.47764919661722,0.0s : 0.0s,6.8695639370902635,5.529138667132499,4.076706303548409,1.5123962493710585,4.324615955352783,-2.353036642074585,-2.434007406234741,1.2150400876998901,0.5064913630485535,0.7446385025978088,0.05514912364090999,-1.22481749993379,-2.5354973798788336,-0.9393137693405151,-0.05512117221951485,-0.33860212564468384
1727729748732,6i,42.47764919661722,0.0s : 0.0s,6.868839182287378,5.562359234317194,4.030026235712689,1.4461599478797664,4.99542236328125,-2.0677242279052734,-2.4346749782562256,1.2060776948928833,0.5972186923027039,0.5292305946350098,0.08961768514724286,-1.2504097808011534,-2.4979370990697034,-0.9453049898147583,-0.08949777483940125,-0.3136696219444275
1727729748742,6i,42.47764919661722,0.0s : 0.0s,6.908544257847322,5.59430180389461,4.053612103985372,1.3491703190156636,5.374034404754639,-2.0657970905303955,-2.282484531402588,1.1271693706512451,0.48799920082092285,0.5582172870635986,0.12425932350445379,-1.2764662627071846,-2.4536018272432774,-0.9496180415153503,-0.12393980473279953,-0.28786206245422363
1727729748752,6i,42.47764919661722,0.0s : 0.0s,6.938226780394879,5.625916110213304,4.060549073343541,1.3926377321765229,5.290180206298828,-2.1319305896759033,-2.178344488143921,1.0037449598312378,0.31114381551742554,0.9138519763946533,0.1571264892667678,-1.3047530306084343,-2.406712259996051,-0.9529331922531128,-0.15648074448108673,-0.25967714190483093
1727729748762,6i,42.47764919661722,0.0s : 0.0s,6.925188483017741,5.658032400508948,3.9931071711278308,1.5280211933319892,4.973727703094482,-1.982647180557251,-2.0435667037963867,0.9413291215896606,0.2600840628147125,1.1752040386199951,0.187278614007459,-1.334112944154124,-2.3605114514390593,-0.9551230072975159,-0.1861857920885086,-0.23037977516651154
1727729748772,6i,42.47764919661722,0.0s : 0.0s,6.901183608759105,5.691209701979927,3.903391772535124,1.621132111797974,4.918370246887207,-1.8094171285629272,-1.757330298423767,0.9740688800811768,0.3770476281642914,1.2397960424423218,0.21395778584926406,-1.3630444437958575,-2.3149164978607573,-0.9561857581138611,-0.21232908964157104,-0.20155756175518036
1727729748782,6i,42.47764919661722,0.0s : 0.0s,6.873814937124172,5.724390684523781,3.8053492718499236,1.507797089158805,4.888100624084473,-1.6176742315292358,-1.4941051006317139,0.8567414879798889,0.4213440418243408,1.1670112609863281,0.23672015211779843,-1.3914413325663613,-2.267944732133369,-0.9565187692642212,-0.23451551795005798,-0.17341995239257812
1727729748792,6i,42.47764919661722,0.0s : 0.0s,6.8452903304824915,5.756151739500849,3.7046884970856127,1.3452677448346995,4.835059642791748,-1.3975532054901123,-1.3259741067886353,0.6201187372207642,0.2879772484302521,1.1585625410079956,0.25639931454826126,-1.4185284063867065,-2.220427980515339,-0.9561172723770142,-0.25359922647476196,-0.14672169089317322
1727729748802,6i,42.47764919661722,0.0s : 0.0s,6.791086929279373,5.786023112737951,3.5553900235967637,1.2956873493363108,4.494962692260742,-1.2132949829101562,-1.178202748298645,0.48019111156463623,0.10061261057853699,1.1992077827453613,0.27331428735958885,-1.4442488639363031,-2.173708931601244,-0.955181896686554,-0.26992419362068176,-0.12152525037527084
1727729748812,6i,42.47764919661722,0.0s : 0.0s,6.719993735833056,5.81446201605918,3.369027645098884,1.3460544938062822,4.127532958984375,-1.0780402421951294,-1.0275977849960327,0.3543584942817688,-0.06036195158958435,1.2971696853637695,0.28734112025461034,-1.4676795245541783,-2.130493456285283,-0.9539068341255188,-0.2834033668041229,-0.0987139493227005
1727729748822,6i,42.47764919661722,0.0s : 0.0s,6.645902195252986,5.840619101322261,3.1709910914630473,1.2961984890712883,3.8932955265045166,-0.8034930229187012,-0.8353779911994934,0.2680850028991699,-0.19315367937088013,1.2533764839172363,0.2990142365766766,-1.4893163855320033,-2.0894859200291114,-0.9524569511413574,-0.29457831382751465,-0.07777833938598633
1727729748832,6i,42.47764919661722,0.0s : 0.0s,6.5671028740376025,5.866086937784479,2.9522642491056357,1.3063027062093413,3.5942161083221436,-0.49667662382125854,-0.613038182258606,0.19699549674987793,-0.29790130257606506,1.2565326690673828,0.3080206381640489,-1.5076955576196727,-2.050722055476955,-0.95103919506073,-0.3031730353832245,-0.060091082006692886
1727729748842,6i,42.47764919661722,0.0s : 0.0s,6.474765769979451,5.8894749927645975,2.6901070769948987,1.359211173936173,3.112586736679077,-0.21258924901485443,-0.4181278645992279,0.15973055362701416,-0.3771662712097168,1.2960273027420044,0.31443676668096804,-1.5221521911499627,-2.015615882429273,-0.9498459100723267,-0.3092809021472931,-0.0462409108877182
1727729748852,6i,42.47764919661722,0.0s : 0.0s,6.3863219577432435,5.911072208748584,2.417505634101738,1.3828863872258996,2.7167768478393555,0.030020684003829956,-0.19561630487442017,0.09306937456130981,-0.4333183467388153,1.3099420070648193,0.31846717878890257,-1.532671156597703,-1.9852285759309773,-0.9490264654159546,-0.31311118602752686,-0.036199335008859634
1727729748862,6i,42.47764919661722,0.0s : 0.0s,6.309347368922826,5.932023896337718,2.1491758222657515,1.317829936188896,2.3567776679992676,0.3474729359149933,-0.01017028745263815,-0.005865752696990967,-0.4629524052143097,1.2338218688964844,0.32031387404575307,-1.5392047580951476,-1.9584541125468669,-0.9486631751060486,-0.31486448645591736,-0.029979731887578964
1727729748872,6i,42.47764919661722,0.0s : 0.0s,6.230905306812474,5.951072548229633,1.8463251252613941,1.411536143797471,1.7603936195373535,0.6570602655410767,0.1724270135164261,-0.06813603639602661,-0.518196702003479,1.3112070560455322,0.32012917123029255,-1.5409031829365556,-1.936855382467435,-0.9487708806991577,-0.31468915939331055,-0.028370195999741554
1727729748882,6i,42.47764919661722,0.0s : 0.0s,6.17076692120558,5.968498899412542,1.5669669056991185,1.403575667581075,1.3292672634124756,0.9327626824378967,0.2586100995540619,-0.10599231719970703,-0.5462892055511475,1.2885489463806152,0.3182959165448876,-1.5380107157645606,-1.9206771890009418,-0.949259877204895,-0.3129485249519348,-0.031133221462368965
1727729748892,6i,42.47764919661722,0.0s : 0.0s,6.12985271549639,5.98424822830215,1.3281067185061037,1.2212163651609265,0.9432117342948914,1.1457568407058716,0.3389052748680115,-0.11863011121749878,-0.45754384994506836,1.126032829284668,0.31511686102449077,-1.53131046528101,-1.9068249143480445,-0.9500192999839783,-0.3099275827407837,-0.037531837821006775
1727729748902,6i,42.47764919661722,0.0s : 0.0s,6.1112512529035286,5.998144240115725,1.1703236949158555,1.0723482704190104,0.7041930556297302,1.4042699337005615,0.39825916290283203,-0.1984032392501831,-0.35085099935531616,0.9937155246734619,0.3113832339398146,-1.5211138646545006,-1.896373229938969,-0.9507361650466919,-0.306375652551651,-0.04727381840348244
1727729748912,6i,42.47764919661722,0.0s : 0.0s,6.109645317991963,6.010792417325881,1.0945960110829984,1.0073781887337212,0.45890381932258606,1.6620286703109741,0.4710938632488251,-0.2139112949371338,-0.2326379120349884,0.9565209746360779,0.3069655459290124,-1.5076777906233816,-1.888370798749844,-0.9513565897941589,-0.3021674156188965,-0.0601281076669693
1727729748922,6i,42.47764919661722,0.0s : 0.0s,6.122938043983755,6.022651339555411,1.1036490078892942,0.9645510314992902,0.2801324725151062,1.9075263738632202,0.5157688856124878,-0.2022222876548767,-0.16759392619132996,0.928104043006897,0.3020347889102458,-1.4909725362667718,-1.8842205602801247,-0.951693058013916,-0.2974635064601898,-0.07612951099872589
1727729748932,6i,42.47764919661722,0.0s : 0.0s,6.146672887402958,6.033481548770771,1.1741754491460268,0.8775505046934167,0.11660292744636536,2.1365766525268555,0.5437043905258179,-0.18637514114379883,-0.2174137532711029,0.8295121788978577,0.2968129994244836,-1.471352596064334,-1.8817088733933576,-0.951549232006073,-0.29247406125068665,-0.09493876248598099
1727729748942,6i,42.47764919661722,0.0s : 0.0s,6.1727621626334805,6.043055331694192,1.258759299676457,0.8229743993618046,-0.0696505680680275,2.2377896308898926,0.5661242008209229,-0.16307121515274048,-0.32396364212036133,0.7387436628341675,0.29134676690860517,-1.4496334539453057,-1.8808077874399338,-0.950835645198822,-0.28724250197410583,-0.11577306687831879
1727729748952,6i,42.47764919661722,0.0s : 0.0s,6.197646617315762,6.051854971971974,1.3363663387498221,0.7963068636802868,-0.3962515890598297,2.2851929664611816,0.5943671464920044,-0.1348956823348999,-0.30493247509002686,0.7231348156929016,0.2853023350523473,-1.42652435255741,-1.8823763461464145,-0.9496074318885803,-0.2814475893974304,-0.1379602551460266
1727729748962,6i,42.47764919661722,0.0s : 0.0s,6.224206983587728,6.0605901855699,1.4177443976669597,0.7513799011797706,-0.7185502648353577,2.327267646789551,0.6510924696922302,-0.11614066362380981,-0.14107027649879456,0.7288225293159485,0.2782790016309014,-1.4021306590293412,-1.8871239150277512,-0.9478851556777954,-0.2747012674808502,-0.1614091843366623
1727729748972,6i,42.47764919661722,0.0s : 0.0s,6.2542338974315355,6.069569009758961,1.508566763373527,0.7173358038327883,-1.0321071147918701,2.379112482070923,0.6640762686729431,-0.12606197595596313,0.06147274374961853,0.7034913897514343,0.2701135476616208,-1.3765100762760973,-1.8947913861648435,-0.9456086158752441,-0.2668408751487732,-0.18606580793857574
1727729748982,6i,42.47764919661722,0.0s : 0.0s,6.285552009593865,6.078495239546097,1.600018652430314,0.6910706195348422,-1.2003017663955688,2.4454598426818848,0.5433847308158875,-0.17873942852020264,0.2125929296016693,0.6327993869781494,0.2617919910695105,-1.3497028863576837,-1.9050083103939042,-0.9424155354499817,-0.258811891078949,-0.2118246853351593
1727729748992,6i,42.47764919661722,0.0s : 0.0s,6.315560674232992,6.086844405331977,1.6842303331780675,0.6232151863464586,-1.2557469606399536,2.52121901512146,0.4048668146133423,-0.20900726318359375,0.3125911355018616,0.4969908595085144,0.25427188346358626,-1.3220448936486202,-1.9144535972263381,-0.9380569458007812,-0.25154078006744385,-0.23827806115150452
1727729749002,6i,42.47764919661722,0.0s : 0.0s,6.343322500930941,6.0948384424527156,1.7580343316378444,0.6474001402971955,-1.3910349607467651,2.5544686317443848,0.2326204925775528,-0.2179444432258606,0.35626059770584106,0.49467721581459045,0.24770198741019603,-1.29356776513587,-1.9250960930870622,-0.9324615597724915,-0.24517673254013062,-0.26533764600753784
1727729749012,6i,42.47764919661722,0.0s : 0.0s,6.369018436234074,6.102446537072772,1.823332691325989,0.6095381542159264,-1.4528101682662964,2.599231243133545,0.07022571563720703,-0.2055882215499878,0.34751346707344055,0.4566230773925781,0.24206733870881272,-1.2644281779999813,-1.937010220969434,-0.925637423992157,-0.23971019685268402,-0.29280468821525574
1727729749022,6i,42.47764919661722,0.0s : 0.0s,6.392610332791592,6.10948038251345,1.8814133842930785,0.5574618490323394,-1.4749394655227661,2.651855230331421,-0.10774508118629456,-0.2124205231666565,0.3014037013053894,0.418087363243103,0.23762421317312393,-1.2348485380443592,-1.949753071234908,-0.917569100856781,-0.23539426922798157,-0.32040056586265564
1727729749032,6i,42.47764919661722,0.0s : 0.0s,6.414371569112389,6.115903150846058,1.93387985048415,0.5110623921430703,-1.522095799446106,2.6791625022888184,-0.23302923142910004,-0.20885568857192993,0.2546060085296631,0.3908194601535797,0.23404717316010737,-1.20464568951844,-1.9631980506802895,-0.9082554578781128,-0.23191624879837036,-0.34826263785362244
1727729749042,6i,42.47764919661722,0.0s : 0.0s,6.435429415695889,6.121738555317439,1.98470875060899,0.46243561077654555,-1.6019434928894043,2.6984992027282715,-0.3418828547000885,-0.19425612688064575,0.21072490513324738,0.362913578748703,0.23092998800707315,-1.1741897352533737,-1.9774166247838527,-0.897891640663147,-0.22888292372226715,-0.3760360777378082
1727729749052,6i,42.47764919661722,0.0s : 0.0s,6.456356672392813,6.12725851152451,2.0350048191838845,0.4410533525573338,-1.8152202367782593,2.6431257724761963,-0.4159424602985382,-0.16266018152236938,0.18594104051589966,0.36537057161331177,0.22752624359630239,-1.1433280262029013,-1.9934509342997697,-0.8865647912025452,-0.22556822001934052,-0.40388378500938416
1727729749062,6i,42.47764919661722,0.0s : 0.0s,6.474698839583589,6.132706658115103,2.0764474731655898,0.40483566039448443,-1.9566905498504639,2.574432134628296,-0.42163604497909546,-0.09838664531707764,0.2331545352935791,0.31599199771881104,0.22317710797241766,-1.1130156800680955,-2.011102827131886,-0.8747884035110474,-0.22132904827594757,-0.43099746108055115
1727729749072,6i,42.47764919661722,0.0s : 0.0s,6.490111208841679,6.138345270951679,2.1076671553443975,0.4420930868676291,-2.0535552501678467,2.500251293182373,-0.48053011298179626,-0.06441301107406616,0.31326577067375183,0.30522421002388,0.21790987945999496,-1.08321030986093,-2.0299141811232184,-0.8625736236572266,-0.2161893993616104,-0.4574153423309326
1727729749082,6i,42.47764919661722,0.0s : 0.0s,6.503999593096987,6.144436371795429,2.132583498942818,0.518474332286569,-2.0702836513519287,2.4854342937469482,-0.5312585234642029,-0.06652605533599854,0.39443159103393555,0.3298691213130951,0.21229154358969882,-1.0539628325286359,-2.0492218812246,-0.8498709797859192,-0.21070055663585663,-0.4830368161201477
1727729749092,6i,42.47764919661722,0.0s : 0.0s,6.531816260128488,6.151398941343324,2.196568851759294,0.6361704494590144,-2.300082206726074,2.5833938121795654,-0.592484712600708,-0.06628537178039551,0.4878867566585541,0.4028468728065491,0.2060158310923969,-1.0242759008774527,-2.0694250762244972,-0.8362720012664795,-0.20456162095069885,-0.5087275505065918
1727729749102,6i,42.47764919661722,0.0s : 0.0s,6.574385288112124,6.159268246998382,2.299120827199521,0.6969254749104667,-2.5487756729125977,2.7289955615997314,-0.6753383278846741,-0.05971324443817139,0.5431395173072815,0.43259555101394653,0.1981974595406175,-0.99274144023393,-2.092397984475859,-0.8211308121681213,-0.19690239429473877,-0.5356991291046143
1727729749112,6i,42.47764919661722,0.0s : 0.0s,6.597049699182876,6.167003119296452,2.342890791325263,0.5422237059724555,-2.3187503814697266,2.7216718196868896,-0.7159091830253601,0.003398716449737549,0.4990914762020111,0.21190255880355835,0.1902549464200222,-0.9606212145964498,-2.1152086472620453,-0.8047598004341125,-0.18910925090312958,-0.5626716017723083
1727729749122,6i,42.47764919661722,0.0s : 0.0s,6.610452787188015,6.174627001140365,2.360522706611848,0.4734189804050393,-2.3058011531829834,2.635146379470825,-0.7561274170875549,0.08952295780181885,0.4266698360443115,0.18456441164016724,0.18281343272527067,-0.9295963608083079,-2.136714195529685,-0.7880244851112366,-0.1817968338727951,-0.5881898999214172
1727729749132,6i,42.47764919661722,0.0s : 0.0s,6.627205974562331,6.182488985529003,2.3867737582534323,0.5266080238356677,-2.509366750717163,2.5391578674316406,-0.7929677963256836,0.150032639503479,0.40297335386276245,0.304004430770874,0.1742704382149462,-0.8994767421393621,-2.1590727018901847,-0.7711416482925415,-0.17338967323303223,-0.6125982403755188
1727729749142,6i,42.47764919661722,0.0s : 0.0s,6.6518735514855125,6.191364323916823,2.4319600230025293,0.5775842392057846,-2.7776527404785156,2.466498851776123,-0.7959684133529663,0.18099522590637207,0.4213718771934509,0.3511267900466919,0.16367896733398618,-0.8701231774888657,-2.1831032706742293,-0.7541916370391846,-0.1629491001367569,-0.6361151933670044
1727729749152,6i,42.47764919661722,0.0s : 0.0s,6.681344680364478,6.201219276973242,2.4870155240227527,0.6288335832285753,-2.9587063789367676,2.4519760608673096,-0.7468708157539368,0.20639443397521973,0.47115951776504517,0.3617205023765564,0.15063793668148853,-0.8413415655065195,-2.2083435781267986,-0.7370951175689697,-0.15006887912750244,-0.6589159369468689
1727729749162,6i,42.47764919661722,0.0s : 0.0s,6.709416356632009,6.211790166452465,2.535730816669152,0.655523081083599,-3.0171899795532227,2.4658827781677246,-0.6947306394577026,0.23716241121292114,0.5236383676528931,0.31506723165512085,0.1356414871246984,-0.8128807898428803,-2.2335866211783793,-0.7195995450019836,-0.13522593677043915,-0.6810950636863708
1727729749172,6i,42.47764919661722,0.0s : 0.0s,6.733494164706795,6.222800473165396,2.5722942944602933,0.6623305507157594,-3.0352725982666016,2.4599764347076416,-0.6808024048805237,0.27336984872817993,0.5449528694152832,0.2587992548942566,0.11947095831605793,-0.784853680556857,-2.2582558189541673,-0.7016840577125549,-0.11918695271015167,-0.7024485468864441
1727729749182,6i,42.47764919661722,0.0s : 0.0s,6.754079241986275,6.234140269645028,2.598669179680268,0.6596869600864183,-3.0920512676239014,2.4111316204071045,-0.6231780052185059,0.32170867919921875,0.5291985273361206,0.22724288702011108,0.10203787585288022,-0.7575518319398348,-2.2845066029400702,-0.6835708022117615,-0.1018609032034874,-0.7227415442466736
1727729749192,6i,42.47764919661722,0.0s : 0.0s,6.766299185560204,6.24571173623582,2.602669701740659,0.6470861954734103,-3.0886900424957275,2.3324759006500244,-0.5229406356811523,0.38670551776885986,0.47159671783447266,0.21627742052078247,0.08320395566892744,-0.7314877098056692,-2.30974160205313,-0.6656666994094849,-0.08310798555612564,-0.7416070103645325
1727729749202,6i,42.47764919661722,0.0s : 0.0s,6.778290744886015,6.257503665633006,2.6055466406873036,0.642827053036597,-3.1791224479675293,2.227654218673706,-0.4716010093688965,0.4141334295272827,0.41877707839012146,0.25757694244384766,0.06286148572707453,-0.7069284080295078,-2.33414225756606,-0.6482185125350952,-0.06282009184360504,-0.7588586807250977
1727729749212,6i,42.47764919661722,0.0s : 0.0s,6.792785196148814,6.269416341658302,2.6146413627811973,0.6386064043029626,-3.2101621627807617,2.2243213653564453,-0.48457953333854675,0.4151318669319153,0.4152407944202423,0.25111502408981323,0.041335996088115626,-0.6834753837424279,-2.358319331803406,-0.6309521794319153,-0.041324224323034286,-0.7747203707695007
1727729749222,6i,42.47764919661722,0.0s : 0.0s,6.803654143439295,6.281362036594266,2.614230416159031,0.6211534258773683,-3.157055139541626,2.2217657566070557,-0.5040805339813232,0.41414254903793335,0.4159514904022217,0.2032286524772644,0.019453127926178097,-0.6604564485753472,-2.3820719620514184,-0.6133612990379333,-0.01945190131664276,-0.7895628809928894
1727729749232,6i,42.47764919661722,0.0s : 0.0s,6.80940785728103,6.293320790685912,2.600413196459569,0.6076284373437422,-3.093827724456787,2.2028188705444336,-0.4835493862628937,0.4259045720100403,0.38632193207740784,0.19640004634857178,-0.0023804271778332673,-0.6381254124118453,-2.4048608336954205,-0.5956891179084778,0.002380424877628684,-0.8032115697860718
1727729749242,6i,42.47764919661722,0.0s : 0.0s,6.821899659622679,6.305369894590382,2.6039634134052854,0.6263169856849241,-3.2190468311309814,2.163213014602661,-0.4577718675136566,0.43861669301986694,0.3776276111602783,0.23934441804885864,-0.025100211052086933,-0.6165994625982313,-2.427152041867212,-0.5780820250511169,0.025097575038671494,-0.8155925869941711
1727729749252,6i,42.47764919661722,0.0s : 0.0s,6.84397112519338,6.317997086958195,2.631131614280915,0.6804343767207377,-3.3879082202911377,2.1276168823242188,-0.4240947365760803,0.4628230929374695,0.4184039831161499,0.27152132987976074,-0.04975614057407111,-0.5960063651495467,-2.4496403181701116,-0.560647189617157,0.04973561316728592,-0.8265597820281982
1727729749262,6i,42.47764919661722,0.0s : 0.0s,6.869574840491359,6.331243669331639,2.665785454356733,0.7396186352069966,-3.48370623588562,2.131415843963623,-0.36044254899024963,0.5003355741500854,0.4833378493785858,0.2511664032936096,-0.07624524582817001,-0.5761269866674401,-2.471985319048673,-0.543197512626648,0.0761713907122612,-0.8361425995826721
1727729749272,6i,42.47764919661722,0.0s : 0.0s,6.892915575140923,6.344943430314384,2.6933209968606886,0.7748758750519636,-3.4819140434265137,2.1616032123565674,-0.3385544717311859,0.5206483006477356,0.5334962606430054,0.21151763200759888,-0.10386685138060356,-0.5566536567348925,-2.493734246176662,-0.5255005955696106,0.10368019342422485,-0.8444522023200989
1727729749282,6i,42.47764919661722,0.0s : 0.0s,6.903716940028975,6.358356668925624,2.689350861968753,0.7344511748074447,-3.278712272644043,2.231471538543701,-0.37621554732322693,0.49821388721466064,0.5299831032752991,0.10158425569534302,-0.13102067918758553,-0.5371371182965538,-2.5145687578557148,-0.5072928071022034,0.13064613938331604,-0.8518131375312805
1727729749292,6i,42.47764919661722,0.0s : 0.0s,6.893613129401894,6.370662649168839,2.6337348743461737,0.6600898555773076,-2.895972967147827,2.333362340927124,-0.42612218856811523,0.45788148045539856,0.47465991973876953,-0.02758854627609253,-0.15569860087143056,-0.5170850898430833,-2.5337797500511066,-0.48836851119995117,0.15507028996944427,-0.858748733997345
1727729749302,6i,42.47764919661722,0.0s : 0.0s,6.881678919600328,6.38179294405042,2.574922051585214,0.5915943417947698,-2.6863837242126465,2.4298036098480225,-0.4761989414691925,0.4212479591369629,0.4123191833496094,-0.05026841163635254,-0.17777277215233148,-0.49617839895545723,-2.5514557742282613,-0.468565434217453,0.17683789134025574,-0.865548849105835
1727729749312,6i,42.47764919661722,0.0s : 0.0s,6.879024278955609,6.392347364585822,2.541430738960522,0.5502587071456224,-2.658742904663086,2.50624418258667,-0.4918738901615143,0.4165090322494507,0.35802996158599854,0.03345769643783569,-0.19908390114069902,-0.47468854847557895,-2.568495890680842,-0.4480336606502533,0.19777141511440277,-0.8718671202659607
1727729749322,6i,42.47764919661722,0.0s : 0.0s,6.889359480838612,6.402967914456589,2.5426906895374275,0.5688639145760008,-2.7545619010925293,2.5855424404144287,-0.49765744805336,0.44739606976509094,0.33026689291000366,0.11986112594604492,-0.22101222394715114,-0.4527637437728448,-2.585361538719839,-0.42681190371513367,0.21921734511852264,-0.8773684501647949
1727729749332,6i,42.47764919661722,0.0s : 0.0s,6.919023310841646,6.413793880295638,2.5954058713527455,0.6227081302855294,-3.005608320236206,2.668992042541504,-0.5179508328437805,0.49126777052879333,0.3311017155647278,0.19181513786315918,-0.24480724698134632,-0.43045423556125345,-2.6026641153317627,-0.40484195947647095,0.24236932396888733,-0.8816803097724915
1727729749342,6i,42.47764919661722,0.0s : 0.0s,6.964489684082901,6.425643810609194,2.6861158163558216,0.6872164055617355,-3.3089118003845215,2.7209994792938232,-0.5429070591926575,0.539695143699646,0.3420208990573883,0.25301629304885864,-0.2715013030195771,-0.4081719552630493,-2.6209758888352925,-0.3823922574520111,0.2681780457496643,-0.8842266201972961
1727729749352,6i,42.47764919661722,0.0s : 0.0s,7.006217568264779,6.438101169561682,2.7636819542687143,0.7099659000029271,-3.3403780460357666,2.7952558994293213,-0.5315681099891663,0.5852421522140503,0.3601008355617523,0.17852336168289185,-0.30045072900817227,-0.3859370024697812,-2.6397438965636595,-0.3595646321773529,0.2959507703781128,-0.8849443197250366
1727729749362,6i,42.47764919661722,0.0s : 0.0s,7.024671191817458,6.450066792097294,2.782560642759441,0.7038362514592111,-2.9777157306671143,2.940967559814453,-0.5562247037887573,0.6015275716781616,0.36360329389572144,-0.03664278984069824,-0.32791058103001613,-0.3626565949910565,-2.6571783686086268,-0.33585676550865173,0.32206565141677856,-0.8851406574249268
1727729749372,6i,42.47764919661722,0.0s : 0.0s,7.029635973552962,6.461734417621116,2.7679902884223786,0.6785183614258032,-2.627150535583496,3.094730854034424,-0.6066559553146362,0.5689536929130554,0.34979718923568726,-0.11966949701309204,-0.3522350573324531,-0.3378344898964952,-2.673204121550475,-0.31109538674354553,0.34499651193618774,-0.885549008846283
1727729749382,6i,42.47764919661722,0.0s : 0.0s,7.032430701353084,6.473025020117306,2.748641238552019,0.6369382687524171,-2.3544087409973145,3.2720484733581543,-0.5998068451881409,0.5438807010650635,0.29790008068084717,-0.1453949213027954,-0.37383244036525876,-0.3111915153504976,-2.687822968234834,-0.2850458025932312,0.36518585681915283,-0.8862212896347046
1727729749392,6i,42.47764919661722,0.0s : 0.0s,7.048837201126355,6.48342793829711,2.7660925611575813,0.5794725201313207,-2.407869338989258,3.3966877460479736,-0.6154966354370117,0.5212610363960266,0.24430519342422485,-0.06625938415527344,-0.394610288236561,-0.2828911368356356,-2.701484019622103,-0.2576806843280792,0.38444846868515015,-0.8864536285400391
1727729749402,6i,42.47764919661722,0.0s : 0.0s,7.075468293057448,6.493651890082891,2.8097574088316204,0.5757853748800384,-2.559894323348999,3.4504528045654297,-0.6589010953903198,0.5185956358909607,0.24847820401191711,0.029085159301757812,-0.41687290334141125,-0.2542457719760425,-2.7153479965536667,-0.2299756109714508,0.4049031436443329,-0.8849658966064453
1727729749412,6i,42.47764919661722,0.0s : 0.0s,7.116281900407657,6.504029174992794,2.8877452409989637,0.6525369929614968,-2.8718273639678955,3.493002414703369,-0.6901266574859619,0.5649652481079102,0.3264816105365753,0.0053435564041137695,-0.44160839831704846,-0.2253942448601407,-2.7296365476794233,-0.20205017924308777,0.4273941218852997,-0.8811980485916138
1727729749422,6i,42.47764919661722,0.0s : 0.0s,7.152780584875486,6.514600402106964,2.9533458477190706,0.7644597840653724,-3.046966552734375,3.4261584281921387,-0.6532166004180908,0.6407020092010498,0.40728992223739624,-0.08952438831329346,-0.46939240103067736,-0.19721202709091426,-2.7439657381939293,-0.1747443526983261,0.45234447717666626,-0.8745564222335815
1727729749432,6i,42.47764919661722,0.0s : 0.0s,7.1511218774125185,6.52405204887397,2.928359433059967,0.9320778279399405,-2.534608840942383,3.39028000831604,-0.6450527310371399,0.6954435110092163,0.4425763487815857,-0.43503284454345703,-0.49598241849093727,-0.16912122943705946,-2.7569533457317186,-0.14803434908390045,0.4758959114551544,-0.8669537901878357
1727729749442,6i,42.47764919661722,0.0s : 0.0s,7.105218628654741,6.531520215862572,2.7970297514972766,1.0824861204964376,-1.8659522533416748,3.1949450969696045,-0.5682636499404907,0.7001693844795227,0.4343980848789215,-0.7020237445831299,-0.5170090906357626,-0.14137304584416813,-2.767883227044173,-0.12248682975769043,0.4942823648452759,-0.8606288433074951
1727729749452,6i,42.47764919661722,0.0s : 0.0s,7.027916331155013,6.535980597616091,2.583130965572853,1.2950149044575818,-0.8601828813552856,3.1090474128723145,-0.5352717041969299,0.6886136531829834,0.38511544466018677,-1.0269181728363037,-0.5297779118542876,-0.11389274268797968,-2.776016146676731,-0.09806790947914124,0.5053417086601257,-0.8573286533355713
1727729749462,6i,42.47764919661722,0.0s : 0.0s,6.946934762388246,6.537571474603058,2.3494811783316396,1.261535544639782,0.04207688570022583,2.9731767177581787,-0.6105430722236633,0.5802708864212036,0.327788770198822,-1.0711265802383423,-0.5336541338319569,-0.08708848974344541,-2.783257375235828,-0.07488444447517395,0.5086827874183655,-0.85769122838974
1727729749472,6i,42.47764919661722,0.0s : 0.0s,6.867725022550176,6.536760679693426,2.1062779497909943,1.2109022299728203,0.982761561870575,2.6015002727508545,-0.8073681592941284,0.4941593110561371,0.2933037281036377,-1.0658628940582275,-0.5275508548214826,-0.06298493970045842,-2.790727731379264,-0.05438569560647011,0.5034186840057373,-0.8623293042182922
1727729749482,6i,42.47764919661722,0.0s : 0.0s,6.824890304479344,6.534485664486215,1.9696763106663775,1.1142071725039777,1.4147915840148926,2.4326353073120117,-1.0975357294082642,0.32148095965385437,0.4722033739089966,-0.9566251039505005,-0.5150862125387515,-0.04315655447611635,-2.801129947281212,-0.037545345723629,0.4926098883152008,-0.869439959526062
1727729749492,6i,42.47764919661722,0.0s : 0.0s,6.80202708068375,6.532012998783029,1.897466360725438,1.060940310319686,2.0585219860076904,2.1003642082214355,-1.2206571102142334,0.17147311568260193,0.6226701736450195,-0.8417084813117981,-0.49765516178168734,-0.02633995694398968,-2.8137935408691748,-0.023142358288168907,0.47736644744873047,-0.8783994913101196
1727729749502,6i,42.47764919661722,0.0s : 0.0s,6.837763240037904,6.526979292342791,2.0380253786795817,1.3481547900437416,3.373830556869507,2.2316172122955322,-1.1383224725723267,0.11031001806259155,0.6111083030700684,-1.1966201066970825,-0.47025761273785577,-0.01150741741522218,-2.826718513061454,-0.010258079506456852,0.45311594009399414,-0.8913925886154175
1727729749512,6i,42.47764919661722,0.0s : 0.0s,6.940667414247574,6.521021394955415,2.376792822635544,0.9935251994470782,4.167268753051758,2.730665922164917,-0.887509822845459,0.02805480919778347,0.49237319827079773,-0.8624812364578247,-0.4321294032247725,0.008677471267625329,-2.837935966462375,0.007879704236984253,0.41880542039871216,-0.9080418348312378
1727729749522,6i,42.47764919661722,0.0s : 0.0s,7.041805195376286,6.514905491150757,2.672644168422383,0.40627828654566683,4.242588043212891,2.7615482807159424,-0.8915711641311646,-0.029409248381853104,-0.029690802097320557,-0.4041232466697693,-0.3901944961483009,0.03230011084566522,-2.8483442403050994,0.029867082834243774,0.38036829233169556,-0.9243527054786682
1727729749532,6i,42.47764919661722,0.0s : 0.0s,7.07924512949838,6.508471456372868,2.7848717932978877,0.6121413710792777,3.6922900676727295,2.4416000843048096,-1.1674730777740479,0.040249284356832504,-0.5743472576141357,-0.20789968967437744,-0.3506055344032331,0.05379157815184689,-2.8610570569607985,0.05049480125308037,0.343466579914093,-0.9378064870834351
1727729749542,6i,42.47764919661722,0.0s : 0.0s,7.0191481336161905,6.503394783618598,2.6408893975420606,0.6837849221330745,2.5221359729766846,1.8381024599075317,-1.5973402261734009,0.21110855042934418,-0.6498581171035767,0.026065826416015625,-0.3205252079836584,0.0699270197395752,-2.877756335853085,0.06631156802177429,0.31506505608558655,-0.9467506408691406
1727729749552,6i,42.47764919661722,0.0s : 0.0s,6.91299459665944,6.500231938260998,2.352972384507369,0.5294726700098488,1.5804470777511597,1.2546666860580444,-1.7655229568481445,0.3631482720375061,-0.3807615637779236,-0.059036195278167725,-0.30174748370538357,0.07916728637073205,-2.8972093905229115,0.07551146298646927,0.2971891760826111,-0.9518280625343323
1727729749562,6i,42.47764919661722,0.0s : 0.0s,6.810549896354128,6.497579547295336,2.0408453927964625,0.41606278448577744,0.9436501264572144,1.0592399835586548,-1.6015331745147705,0.33714383840560913,-0.12081262469291687,-0.21177011728286743,-0.29121695781112183,0.08510164487207228,-2.916008103905448,0.08142009377479553,0.28711816668510437,-0.9544286131858826
1727729749572,6i,42.47764919661722,0.0s : 0.0s,6.733639424797882,6.49457092805135,1.778327406217028,0.4572619279054496,0.8779973387718201,0.9130924344062805,-1.2909832000732422,0.1511904001235962,-0.16166293621063232,-0.40011876821517944,-0.28375696014623597,0.0904925045295767,-2.931780171447873,0.08675523102283478,0.2799643278121948,-0.9560823440551758
1727729749582,6i,42.47764919661722,0.0s : 0.0s,6.682241745297684,6.489173823559438,1.5946716998272787,0.6374474162682724,0.9650267362594604,0.8083183169364929,-1.2505385875701904,-0.017974071204662323,-0.30248087644577026,-0.5608221292495728,-0.2757815025133751,0.09521189142363465,-2.945601744424573,0.09147573262453079,0.27229899168014526,-0.9578546285629272
1727729749592,6i,42.47764919661722,0.0s : 0.0s,6.6465861992113515,6.481851890916887,1.470613534469195,0.6546709911010582,0.9317379593849182,0.6817414164543152,-1.4011390209197998,-0.06551115959882736,-0.24722325801849365,-0.6026467084884644,-0.2675706983992362,0.09876733793428472,-2.960291966050457,0.09509801119565964,0.26438936591148376,-0.9597159028053284
1727729749602,6i,42.47764919661722,0.0s : 0.0s,6.617356583158199,6.473919218803276,1.370320435911516,0.5920197492793582,0.9166796207427979,0.5384241938591003,-1.3772361278533936,-0.000359855592250824,-0.10273897647857666,-0.5830368399620056,-0.2598590186382518,0.10081831967878081,-2.9756809417371577,0.0972684919834137,0.25694429874420166,-0.9615188241004944
1727729749612,6i,42.47764919661722,0.0s : 0.0s,6.592869953044836,6.465735471424754,1.2884871094897024,0.571735814165581,0.9762338995933533,0.4305691421031952,-1.2793378829956055,-0.0030036568641662598,-0.053895846009254456,-0.5691819190979004,-0.25184698156762253,0.10194101988608371,-2.9903023106057023,0.09855426847934723,0.24919310212135315,-0.9634261131286621
1727729749622,6i,42.47764919661722,0.0s : 0.0s,6.573840237804517,6.457412624538268,1.2317457808458485,0.5340667909791365,1.0650842189788818,0.317649245262146,-1.2462915182113647,-0.09911604225635529,-0.07776202261447906,-0.5189955830574036,-0.2430036284283134,0.10227884098025232,-3.004290667663316,0.09910085797309875,0.24061909317970276,-0.9655472636222839
1727729749632,6i,42.47764919661722,0.0s : 0.0s,6.560108468335236,6.448804049222433,1.2033077125390788,0.5112729598346211,1.201341152191162,0.1921750158071518,-1.2363289594650269,-0.1860579401254654,-0.10069707036018372,-0.465448796749115,-0.2330342622650629,0.10150788486544812,-3.0181892968622726,0.09859462082386017,0.23093083500862122,-0.9679617881774902
1727729749642,6i,42.47764919661722,0.0s : 0.0s,6.5522379191310245,6.4397631147956815,1.2088311603427033,0.4914837368163858,1.393638253211975,0.11200027912855148,-1.2316734790802002,-0.2346610426902771,-0.08956179022789001,-0.4224560856819153,-0.22140157989065828,0.09983920101823798,-3.0321262514563716,0.09724045544862747,0.2195972055196762,-0.9707323908805847
1727729749652,6i,42.47764919661722,0.0s : 0.0s,6.54948279762722,6.4304970968499,1.2427517868906377,0.4725262060307553,1.561356544494629,0.09510429948568344,-1.248443365097046,-0.26173681020736694,-0.05506691336631775,-0.3895413875579834,-0.2078979524081473,0.09785913830156796,-3.046245005201192,0.09559918195009232,0.20640356838703156,-0.9737855792045593
1727729749662,6i,42.47764919661722,0.0s : 0.0s,6.549417273882916,6.421249130791522,1.2893510878519692,0.436860245408824,1.6791911125183105,0.0942278504371643,-1.2630162239074707,-0.26807284355163574,-0.029186397790908813,-0.34370332956314087,-0.19296408275940696,0.09590970979510471,-3.0606181415957776,0.09398539364337921,0.1917688101530075,-0.9769296050071716
1727729749672,6i,42.47764919661722,0.0s : 0.0s,6.549251541316715,6.412256930915095,1.3325377305617687,0.3947773145913602,1.7273743152618408,0.18164248764514923,-1.2563161849975586,-0.26345524191856384,-0.028911978006362915,-0.29258257150650024,-0.17711436315548898,0.09460291043234041,-3.075039116472668,0.09298411756753922,0.17618981003761292,-0.9799546599388123
1727729749682,6i,42.47764919661722,0.0s : 0.0s,6.543495830262891,6.40397706280176,1.344029560603785,0.31074726272930697,1.6079164743423462,0.14167509973049164,-1.2551289796829224,-0.25692638754844666,-0.040197670459747314,-0.17010831832885742,-0.16162802222841544,0.09391909044847548,-3.089307773387071,0.09255879372358322,0.1609252244234085,-0.9826169013977051
1727729749692,6i,42.47764919661722,0.0s : 0.0s,6.5333320318394765,6.396705616358561,1.3291292999202824,0.24191888527549335,1.4675366878509521,0.05158873647451401,-1.2566041946411133,-0.22108995914459229,-0.039533212780952454,-0.08989495038986206,-0.14753553054557073,0.09271194357383368,-3.103417327874738,0.09157343953847885,0.14700087904930115,-0.9848883152008057
1727729749702,6i,42.47764919661722,0.0s : 0.0s,6.523063689119617,6.390382748553043,1.308956920340195,0.20189987687357625,1.4228464365005493,-0.053914785385131836,-1.2404147386550903,-0.18425512313842773,-0.032337725162506104,-0.07594656944274902,-0.1343805970333707,0.09077567973673045,-3.117305388841713,0.08983379602432251,0.1339765191078186,-0.9869043231010437
1727729749712,6i,42.47764919661722,0.0s : 0.0s,6.516888842512964,6.384723383098109,1.3058129678442492,0.19941653172845036,1.4704689979553223,-0.10874172300100327,-1.2396233081817627,-0.17707906663417816,-0.023013398051261902,-0.0887712836265564,-0.12113352692169617,0.08813173298107578,-3.131049903910054,0.08737272024154663,0.12083750218153,-0.9888196587562561
1727729749722,6i,42.47764919661722,0.0s : 0.0s,6.514704884109262,6.37924213789109,1.3216086687033313,0.22978804042797374,1.6081674098968506,-0.11802550405263901,-1.235499620437622,-0.20081984996795654,-0.02800721675157547,-0.10811811685562134,-0.10688493321764558,0.08542866363108848,3.1383595896076146,0.08483786135911942,0.10668153315782547,-0.9906672239303589
1727729749732,6i,42.47764919661722,0.0s : 0.0s,6.5127825372282055,6.373792792948757,1.3383205183285325,0.2426782687174201,1.6498600244522095,-0.14945439994335175,-1.2214874029159546,-0.20903001725673676,-0.05508972704410553,-0.11029195785522461,-0.09159470682772174,0.08276208415965482,3.124688620843987,0.08232110738754272,0.09146668761968613,-0.9923996329307556
1727729749742,6i,42.47764919661722,0.0s : 0.0s,6.507738993161885,6.368466400130548,1.3391424545312287,0.22440884244580633,1.5966663360595703,-0.23302225768566132,-1.2065424919128418,-0.1955091953277588,-0.06388504803180695,-0.08974510431289673,-0.07636465298795105,0.079721660837255,3.1111959008550816,0.07940515130758286,0.07629045099020004,-0.993918776512146
1727729749752,6i,42.47764919661722,0.0s : 0.0s,6.50010899065448,6.363530101170897,1.3254816263830738,0.18255907272298663,1.5231105089187622,-0.31350165605545044,-1.159757375717163,-0.14216628670692444,-0.05385308340191841,-0.10107624530792236,-0.061765896077960465,0.07606992639764988,3.0981305459091257,0.07585166394710541,0.06172662973403931,-0.9952067136764526
1727729749762,6i,42.47764919661722,0.0s : 0.0s,6.4884007804105615,6.359132958721986,1.2887097037456265,0.14156922800594451,1.4240100383758545,-0.3281005620956421,-1.0533992052078247,-0.0828327164053917,-0.046253979206085205,-0.10507690906524658,-0.047859176004885026,0.07214415014373488,3.0859440650154504,0.07199905067682266,0.0478409081697464,-0.9962567090988159
1727729749772,6i,42.47764919661722,0.0s : 0.0s,6.4727369377965704,6.355443702492088,1.2266453482444704,0.09864087440826705,1.2766019105911255,-0.3580998480319977,-0.9330260753631592,-0.041590362787246704,-0.0666944831609726,-0.05959957838058472,-0.03507021176479654,0.06828149498548085,3.075104610873657,0.06818649172782898,0.03506302461028099,-0.997056245803833
1727729749782,6i,42.47764919661722,0.0s : 0.0s,6.455712872750914,6.352610936991966,1.1491575081823762,0.07482081721023164,1.0869922637939453,-0.4891907572746277,-0.8541658520698547,-0.014804624021053314,-0.07334116101264954,-0.00022780895233154297,-0.023843918482853672,0.06380103229060466,3.065402947923733,0.06373963505029678,0.023841658607125282,-0.997681736946106
1727729749792,6i,42.47764919661722,0.0s : 0.0s,6.4401392744954675,6.350890324742254,1.0684502599532781,0.07110022320876143,0.9088810682296753,-0.6295225620269775,-0.7876213192939758,0.03356289491057396,-0.03954760357737541,0.048628807067871094,-0.014432146466739888,0.05801322369177804,3.056626686487747,0.05797465145587921,0.014431645162403584,-0.9982137680053711
1727729749802,6i,42.47764919661722,0.0s : 0.0s,6.428117726451627,6.349501811836387,1.0022595704746762,0.07800187511242718,0.8014787435531616,-0.7169224619865417,-0.7565180063247681,0.05536394938826561,-0.002267783973366022,0.054899752140045166,-0.00635719273955005,0.05116582362225989,3.0484720929597184,0.05114246904850006,0.00635715015232563,-0.9986711144447327
1727729749812,6i,42.47764919661722,0.0s : 0.0s,6.4178002076863825,6.348419219851872,0.9411338453135759,0.08026949284373382,0.693705141544342,-0.7257891297340393,-0.7132589221000671,0.03882840275764465,0.010253139771521091,0.06950122117996216,0.0007621606909560302,0.04390367213324801,3.0407586911808986,0.04388955608010292,-0.0007621606346219778,-0.9990360736846924
1727729749822,6i,42.47764919661722,0.0s : 0.0s,6.408706763503655,6.347564593896664,0.883145575138649,0.07648638890241745,0.6050466895103455,-0.720895528793335,-0.6557969450950623,0.006271053105592728,-0.012661579996347427,0.07516998052597046,0.006961267680630837,0.03667635766212718,3.0336637524381893,0.036667246371507645,-0.006961211562156677,-0.9993032813072205
1727729749832,6i,42.47764919661722,0.0s : 0.0s,6.401324668567505,6.346924153864087,0.8327732569598559,0.07447510036685638,0.5225082039833069,-0.7372116446495056,-0.6200206875801086,-0.011850567534565926,-0.03199373558163643,0.06620049476623535,0.012363866279542383,0.0294810593530799,3.0271097322039004,0.029474535956978798,-0.012363551184535027,-0.9994890689849854
1727729749842,6i,42.47764919661722,0.0s : 0.0s,6.395587624426495,6.346417759069902,0.7915318623274127,0.05574132016523557,0.4549936354160309,-0.7478299140930176,-0.6010776162147522,0.003368433564901352,-0.015268975868821144,0.053503334522247314,0.017095737297334285,0.022118846806784713,3.0208945336681103,0.02211381122469902,-0.01709490455687046,-0.9996092915534973
1727729749852,6i,42.47764919661722,0.0s : 0.0s,6.391565693558415,6.346060338536908,0.7613344828140164,0.045487961275372114,0.4222916066646576,-0.7379164099693298,-0.6089047789573669,0.022752337157726288,0.012083346024155617,0.03748971223831177,0.021331778164675547,0.014788253799012566,3.014779326407496,0.01478435005992651,-0.02133016102015972,-0.9996631741523743
1727729749862,6i,42.47764919661722,0.0s : 0.0s,6.38891525731367,6.345829747520017,0.7407313822334165,0.04326822496998477,0.42704614996910095,-0.7145549058914185,-0.621525764465332,0.02371266297996044,0.028772607445716858,0.02195417881011963,0.025494717495075703,0.00764677472044381,3.008588990790207,0.007644215133041143,-0.025491956621408463,-0.9996458292007446
1727729749872,6i,42.47764919661722,0.0s : 0.0s,6.387038807166897,6.345670342849063,0.7257634767207592,0.0500221452381557,0.46902555227279663,-0.6565353870391846,-0.640625,-0.0036900483537465334,0.04910920560359955,0.00876837968826294,0.029918095871880802,0.0009592208854180878,3.0022567462312737,0.0009587914682924747,-0.029913632199168205,-0.9995520114898682
1727729749882,6i,42.47764919661722,0.0s : 0.0s,6.385866976223179,6.345699081967606,0.715122506381425,0.09036819638208486,0.5355052947998047,-0.599938690662384,-0.6443081498146057,-0.03241218253970146,0.08236423134803772,0.018220722675323486,0.034947014073888484,-0.005158061657543482,2.9958136955903325,-0.005154889542609453,-0.034939900040626526,-0.999376118183136
1727729749892,6i,42.47764919661722,0.0s : 0.0s,6.385310060525257,6.345994015259091,0.7074917153867415,0.1208758527980019,0.613765299320221,-0.5312485694885254,-0.6337992548942566,-0.04094817116856575,0.10434870421886444,0.04522794485092163,0.040715528802497236,-0.01052857869731966,2.9894652488643643,-0.010519658215343952,-0.04070428013801575,-0.9991158843040466
1727729749902,6i,42.47764919661722,0.0s : 0.0s,6.385904535593884,6.3466075086380185,0.7073541326790063,0.14386452168880542,0.7094606161117554,-0.4889010787010193,-0.6369739770889282,-0.04674512520432472,0.11220104992389679,0.07695984840393066,0.04741471967866812,-0.015345412221420416,2.983210550255765,-0.01532756444066763,-0.0473969541490078,-0.9987585544586182
1727729749912,6i,42.47764919661722,0.0s : 0.0s,6.387484297762175,6.347546740059299,0.7131662056778252,0.17081605930090923,0.7638670206069946,-0.44856587052345276,-0.6593278050422668,-0.05963685363531113,0.11344567686319351,0.11292320489883423,0.0549100213367128,-0.01969396317141052,2.9768634335807636,-0.0196630097925663,-0.05488243326544762,-0.9982991814613342
1727729749922,6i,42.47764919661722,0.0s : 0.0s,6.390651198843932,6.348678043701103,0.7312385675775792,0.18484735410360817,0.8408039212226868,-0.42157235741615295,-0.6976714134216309,-0.07816681265830994,0.11278552561998367,0.12384635210037231,0.06305311046415607,-0.023704342416029853,2.9702436246172477,-0.02365502156317234,-0.06301134079694748,-0.9977324604988098
1727729749932,6i,42.47764919661722,0.0s : 0.0s,6.394518240360392,6.349923044370057,0.7538838484009742,0.19943577107254054,0.9135108590126038,-0.3540688455104828,-0.7310895323753357,-0.09335018694400787,0.11638695001602173,0.1323421597480774,0.07200027978914106,-0.027115165007345305,2.9632999299002694,-0.02704159915447235,-0.07193809002637863,-0.9970424771308899
1727729749942,6i,42.47764919661722,0.0s : 0.0s,6.398957549742,6.351353356804963,0.7790816776195373,0.2222191854361371,0.9741017818450928,-0.27558523416519165,-0.7667556405067444,-0.0985710546374321,0.11574427038431168,0.1620752215385437,0.08165528117097987,-0.029736677752887748,2.956076440442385,-0.029633229598402977,-0.08156456798315048,-0.9962274432182312
1727729749952,6i,42.47764919661722,0.0s : 0.0s,6.404319706402952,6.35285982205453,0.8102363748601343,0.21887698820508072,1.0300298929214478,-0.195391446352005,-0.8299649357795715,-0.10393905639648438,0.10841885209083557,0.15921419858932495,0.0919008081888631,-0.031406678795186466,2.9483935493255884,-0.031269002705812454,-0.09177149832248688,-0.9952890276908875
1727729749962,6i,42.47764919661722,0.0s : 0.0s,6.409368550766685,6.35436314406427,0.8378987128016564,0.2043211906821181,1.0150178670883179,-0.11169175058603287,-0.9063971638679504,-0.10026106238365173,0.11469465494155884,0.1361616849899292,0.10248380918944039,-0.03213036680224263,2.940013841753847,-0.03195628523826599,-0.10230450332164764,-0.9942396879196167
1727729749972,6i,42.47764919661722,0.0s : 0.0s,6.412983983860883,6.355894566320721,0.8537961343733864,0.21140765234178785,0.9450249671936035,-0.049048881977796555,-0.9582051038742065,-0.09301958978176117,0.1361432522535324,0.13230860233306885,0.1125618137916412,-0.0319744784567147,2.9309475450392104,-0.03176671639084816,-0.11232426762580872,-0.9931637048721313
1727729749982,6i,42.47764919661722,0.0s : 0.0s,6.414559011897472,6.357417003081594,0.8542929041283804,0.19613261185134886,0.8520492315292358,0.014570842497050762,-0.9821218848228455,-0.08664005994796753,0.1420370489358902,0.10386037826538086,0.12187649738183973,-0.031011222006950973,2.92145532176558,-0.0307762548327446,-0.1215749979019165,-0.9921050071716309
1727729749992,6i,42.47764919661722,0.0s : 0.0s,6.4154514425079965,6.3589020049456035,0.8499308811172345,0.18443917298016937,0.7534658908843994,0.030656157061457634,-0.9972505569458008,-0.08222923427820206,0.14622299373149872,0.0766485333442688,0.13015644053739994,-0.02958220538486888,2.911730916152648,-0.02932770922780037,-0.12978926301002502,-0.9911077618598938
1727729750002,6i,42.47764919661722,0.0s : 0.0s,6.416449200496379,6.360314439819963,0.8468887584377802,0.17902266975587267,0.7254361510276794,0.05475563555955887,-1.0185555219650269,-0.07405326515436172,0.15941396355628967,0.03394728899002075,0.13778529031741024,-0.02782218266509807,2.901782409692558,-0.027554946020245552,-0.13734973967075348,-0.9901392459869385
1727729750012,6i,42.47764919661722,0.0s : 0.0s,6.4180967010628045,6.361650344997867,0.8493351236006799,0.18806354902920508,0.7579536437988281,0.08328856527805328,-1.0511434078216553,-0.05848599970340729,0.17873650789260864,-0.0007396340370178223,0.14545058264291005,-0.02572700512773584,2.8915566459903728,-0.025452537462115288,-0.14493827521800995,-0.9891132712364197
1727729750022,6i,42.47764919661722,0.0s : 0.0s,6.422025115366892,6.3629572039460465,0.8690121996578926,0.196540766762355,0.8158358335494995,0.09100107848644257,-1.102431297302246,-0.04268404841423035,0.19182686507701874,0.00296628475189209,0.15355013587154498,-0.02326552808426113,2.8808551967563947,-0.022989720106124878,-0.15294745564460754,-0.9879668951034546
1727729750032,6i,42.47764919661722,0.0s : 0.0s,6.428218520582905,6.364277407744835,0.9044149631854623,0.18859868986370365,0.9027321338653564,0.11261716485023499,-1.1621836423873901,-0.01743871532380581,0.1876666098833084,0.006826460361480713,0.16237822172988717,-0.020459943270402278,2.8696089063278984,-0.020189397037029266,-0.16166560351848602,-0.9866390824317932
1727729750042,6i,42.47764919661722,0.0s : 0.0s,6.435859530801892,6.365606541036826,0.948336050629065,0.18260021217632896,0.9518368244171143,0.134153351187706,-1.240228295326233,-0.008040385320782661,0.1824139505624771,-0.0018276572227478027,0.17192233541444682,-0.017269929668459538,2.857612106259859,-0.017014484852552414,-0.17107665538787842,-0.9851108193397522
1727729750052,6i,42.47764919661722,0.0s : 0.0s,6.443776655714006,6.366963740430608,0.9919830224185591,0.18664637167080994,0.9788624048233032,0.1325787454843521,-1.2984868288040161,0.003850695677101612,0.18658877909183502,-0.0025821924209594727,0.18172798443840346,-0.013689515007072727,2.8448506134915736,-0.013463667593896389,-0.18072937428951263,-0.9834406971931458
1727729750062,6i,42.47764919661722,0.0s : 0.0s,6.450798916176141,6.368333882091953,1.028168382678115,0.17659638729221175,0.9925113916397095,0.13431832194328308,-1.3221572637557983,0.01881345734000206,0.17453595995903015,-0.019223332405090332,0.19179238098140666,-0.009916403999318129,2.831625115177691,-0.00973441917449236,-0.19061872363090515,-0.9816159009933472
1727729750072,6i,42.47764919661722,0.0s : 0.0s,6.455008655141568,6.3697199083855,1.0458513406168048,0.14987125961431116,0.9257190227508545,0.12165499478578568,-1.3256202936172485,0.022810276597738266,0.14803887903690338,-0.005057275295257568,0.20152414793246531,-0.006009873350334507,2.818185213084632,-0.005888213869184256,-0.200162872672081,-0.9797449707984924
1727729750082,6i,42.47764919661722,0.0s : 0.0s,6.4562163516696955,6.371096532391206,1.0449203579794484,0.11380593961065034,0.8224131464958191,0.09707561880350113,-1.3095283508300781,0.020134124904870987,0.11175690591335297,0.007536768913269043,0.21030379870615587,-0.002176647438498165,2.804763934978589,-0.0021286888513714075,-0.20875701308250427,-0.977965235710144
1727729750092,6i,42.47764919661722,0.0s : 0.0s,6.454395567469187,6.372298301119535,1.0261756686430377,0.08739159184665823,0.6895979046821594,0.0877620056271553,-1.3014787435531616,0.007306440733373165,0.08701005578041077,-0.003627181053161621,0.2178958323884308,0.0015811068483120448,2.791407845733832,0.001543720136396587,-0.21617569029331207,-0.9763532876968384
1727729750102,6i,42.47764919661722,0.0s : 0.0s,6.450295236535824,6.373394605798717,0.9930507727465685,0.08010777063017044,0.5194788575172424,0.050724100321531296,-1.2846307754516602,0.0064323642291128635,0.07966688275337219,0.005391418933868408,0.2238973487205688,0.005187058207091093,2.77811555778925,0.005057564005255699,-0.222031369805336,-0.9750264286994934
1727729750112,6i,42.47764919661722,0.0s : 0.0s,6.445192672041784,6.37451562782634,0.951871362285303,0.08211498119831245,0.3771395683288574,0.007339161820709705,-1.2481350898742676,0.035339102149009705,0.07396064698696136,0.004882693290710449,0.2282506010609292,0.008396905311094702,2.765068942754512,0.008179024793207645,-0.22627384960651398,-0.9740294218063354
1727729750122,6i,42.47764919661722,0.0s : 0.0s,6.439790765318695,6.375665286685511,0.9065303377368654,0.09085012582219279,0.28416648507118225,-0.056839559227228165,-1.186111330986023,0.06706710159778595,0.06090053915977478,-0.006846427917480469,0.23140191277123737,0.011031784890824322,2.752534081200038,0.0107375243678689,-0.2293422967195511,-0.9732866287231445
1727729750132,6i,42.47764919661722,0.0s : 0.0s,6.435083673742194,6.37684054970212,0.8638324442495249,0.10477965841676268,0.2414548546075821,-0.12351148575544357,-1.1294209957122803,0.08874312043190002,0.050796493887901306,-0.022872507572174072,0.2338453758324652,0.01283337953190895,2.740623606716465,0.012483744882047176,-0.2317199409008026,-0.9727024435997009
1727729750142,6i,42.47764919661722,0.0s : 0.0s,6.431474011867196,6.378042169819162,0.8273065002353042,0.10418228457856225,0.251341313123703,-0.14675822854042053,-1.079075813293457,0.0844007134437561,0.057643696665763855,-0.020190894603729248,0.23608493127531172,0.014105074048461437,2.7292416802034696,0.013713360764086246,-0.23389795422554016,-0.9721644520759583
1727729750152,6i,42.47764919661722,0.0s : 0.0s,6.4288287714440795,6.379254590240693,0.79683765312655,0.09058304377453938,0.297344446182251,-0.15137585997581482,-1.0329445600509644,0.06774992495775223,0.05872446298599243,-0.012910187244415283,0.23867258530836102,0.01515403663302536,2.7183434908456268,0.01472389604896307,-0.23641304671764374,-0.9715411067008972
1727729750162,6i,42.47764919661722,0.0s : 0.0s,6.4265132511284015,6.3804813619292595,0.7678086721327589,0.07889075626337656,0.3068775236606598,-0.1400528997182846,-0.9887402653694153,0.05340035259723663,0.05783362686634064,0.005236923694610596,0.24154141416257813,0.016161340433085543,2.70789979825132,0.015691500157117844,-0.23919957876205444,-0.9708436131477356
1727729750172,6i,42.47764919661722,0.0s : 0.0s,6.424205270954772,6.381741338907702,0.7374217562830645,0.07769616031903212,0.32499366998672485,-0.13475489616394043,-0.9299706220626831,0.05289260298013687,0.05203120410442352,0.02306121587753296,0.24450842070056522,0.01718422311984787,2.6979396051480595,0.016672283411026,-0.24207939207553864,-0.970113217830658
1727729750182,6i,42.47764919661722,0.0s : 0.0s,6.421542823237279,6.383052200539588,0.702037631368094,0.08440685389596776,0.33462047576904297,-0.11347226053476334,-0.8542039394378662,0.06941047310829163,0.03844517469406128,0.028786659240722656,0.24768057075206407,0.018197268529057255,2.68869014808519,0.0176409799605608,-0.24515597522258759,-0.9693231582641602
1727729750192,6i,42.47764919661722,0.0s : 0.0s,6.419039305449801,6.384394794189874,0.6660095471017672,0.08016757844764437,0.28792938590049744,-0.13357317447662354,-0.8078040480613708,0.07209505140781403,0.02557593584060669,0.023979485034942627,0.25065008622459684,0.01909422150254876,2.6800952545685397,0.018496429547667503,-0.2480337768793106,-0.9685748219490051
1727729750202,6i,42.47764919661722,0.0s : 0.0s,6.416906201255605,6.385756598712489,0.631504439978499,0.08278776755748901,0.21780677139759064,-0.14888447523117065,-0.7799095511436462,0.07369846105575562,0.036472827196121216,0.009596049785614014,0.25303140797694496,0.0197036748504272,2.671845116056681,0.01907503604888916,-0.25033998489379883,-0.967970073223114
1727729750212,6i,42.47764919661722,0.0s : 0.0s,6.41455364028704,6.387144274518369,0.5923566667194133,0.10354627797595752,0.12787674367427826,-0.15751609206199646,-0.7258742451667786,0.08614657819271088,0.056146711111068726,-0.012171506881713867,0.2546132944822129,0.020124940568491793,2.66403478006208,0.01947481371462345,-0.2518711984157562,-0.9675648212432861
1727729750222,6i,42.47764919661722,0.0s : 0.0s,6.41223685091879,6.388543741260697,0.5507179843438074,0.11740933370929084,0.04346785694360733,-0.17130833864212036,-0.6667486429214478,0.09147435426712036,0.06607219576835632,-0.032432377338409424,0.25531460298753583,0.020299590214282667,2.6568235769550492,0.019640207290649414,-0.25254982709884644,-0.9673845171928406
1727729750232,6i,42.47764919661722,0.0s : 0.0s,6.410168277280696,6.38991386520518,0.5091739764700914,0.12797888988992903,-0.026192978024482727,-0.19216914474964142,-0.6042299270629883,0.0975678339600563,0.06709253787994385,-0.04855620861053467,0.25524945848279296,0.020120349686996972,2.6502646441857642,0.019467143341898918,-0.25248679518699646,-0.9674044847488403
1727729750242,6i,42.47764919661722,0.0s : 0.0s,6.4089025874628005,6.391252237789175,0.4753180078034509,0.13151981542654112,-0.04936754330992699,-0.2226751297712326,-0.5649712085723877,0.10108809918165207,0.06390023231506348,-0.05473041534423828,0.2547257894778904,0.019554521736514244,2.644270112811419,0.018922338262200356,-0.2519800662994385,-0.9675474166870117
1727729750252,6i,42.47764919661722,0.0s : 0.0s,6.40840071110902,6.392575260938422,0.4500902213786222,0.1315591184110871,-0.04945489019155502,-0.20620329678058624,-0.5530402660369873,0.09399594366550446,0.07498198747634888,-0.05338788032531738,0.25411488098791696,0.018807029371669705,2.638516004246708,0.01820199005305767,-0.251388818025589,-0.9677150249481201
1727729750262,6i,42.47764919661722,0.0s : 0.0s,6.4083645283792885,6.393906534807766,0.43022686193733434,0.12592940604341843,-0.019218159839510918,-0.17977274954319,-0.5445288419723511,0.08098019659519196,0.0887598991394043,-0.03771078586578369,0.2536411470693632,0.018284439369340804,2.632844736818588,0.017698446288704872,-0.2509302496910095,-0.9678433537483215
1727729750272,6i,42.47764919661722,0.0s : 0.0s,6.408526523071215,6.395243052638197,0.4124057402487412,0.1122811079770662,0.015536224469542503,-0.15372708439826965,-0.5305584669113159,0.07300844043493271,0.08102676272392273,-0.026673555374145508,0.2535182475435016,0.018006968110722946,2.62729975031206,0.01743045076727867,-0.25081130862236023,-0.967879056930542
1727729750282,6i,42.47764919661722,0.0s : 0.0s,6.408683475407167,6.396606724094685,0.39325094433903773,0.10438198237921686,0.07044075429439545,-0.1177283450961113,-0.5039604306221008,0.07994119077920914,0.06641548871994019,-0.009694695472717285,0.2538403526410485,0.017987271198845002,2.6219252536361646,0.017409933730959892,-0.2511231005191803,-0.9677985906600952
1727729750292,6i,42.47764919661722,0.0s : 0.0s,6.408778124808553,6.397986123864964,0.3717668783740727,0.09784137640719871,0.11128246039152145,-0.06831507384777069,-0.46983298659324646,0.08981882780790329,0.03777968883514404,-0.008843541145324707,0.25468105101119115,0.01830123098454543,2.6168744316321817,0.017709912732243538,-0.25193676352500916,-0.9675816297531128
1727729750302,6i,42.47764919661722,0.0s : 0.0s,6.408994412961599,6.399378322679136,0.35095080652046284,0.09724089835433503,0.103331059217453,-0.020928651094436646,-0.4471236765384674,0.09714295715093613,0.002148181200027466,0.0037978291511535645,0.2556879651210412,0.01904751765842268,2.61213229701468,0.018427159637212753,-0.2529110610485077,-0.9673140048980713
1727729750312,6i,42.47764919661722,0.0s : 0.0s,6.40943083389667,6.400793188570067,0.33264120559603993,0.11227142159609581,0.07428635656833649,0.012256555259227753,-0.4332667589187622,0.10539886355400085,-0.03123319149017334,0.022813141345977783,0.25649745009525976,0.020155082063175636,2.6075664329594153,0.019494378939270973,-0.2536941468715668,-0.9670880436897278
1727729750322,6i,42.47764919661722,0.0s : 0.0s,6.4101401458971035,6.402407894835633,0.3147536150516392,0.14118116622336968,0.004543229006230831,0.04881589859724045,-0.41621455550193787,0.11942470073699951,-0.05297848582267761,0.05350834131240845,0.2568271167977439,0.021573882447762045,2.6031746367125383,0.020864658057689667,-0.2540130317211151,-0.966975748538971
1727729750332,6i,42.47764919661722,0.0s : 0.0s,6.411254810267501,6.404260409135496,0.29939414516289,0.16103875064454348,-0.0541461817920208,0.06286042928695679,-0.40025219321250916,0.11606453359127045,-0.06820479035377502,0.08837765455245972,0.2564347985346926,0.02321598408674323,2.598944316876672,0.02245481312274933,-0.2536335587501526,-0.9670397043228149
1727729750342,6i,42.47764919661722,0.0s : 0.0s,6.412616252906604,6.406243129572439,0.2858254219761768,0.16225346641161295,-0.08010401576757431,0.09611105918884277,-0.37655138969421387,0.10410292446613312,-0.07732799649238586,0.09751486778259277,0.25567930605833017,0.02499275996764389,2.594955363645293,0.02417777106165886,-0.25290268659591675,-0.9671895503997803
1727729750352,6i,42.47764919661722,0.0s : 0.0s,6.414424169338922,6.408238125100229,0.28164082838116183,0.14773410134762274,-0.0992761105298996,0.13319140672683716,-0.366531103849411,0.07582125812768936,-0.07066988945007324,0.10527235269546509,0.2546597468654318,0.02709124761338085,2.591147939267818,0.026214322075247765,-0.25191614031791687,-0.9673939347267151
1727729750362,6i,42.47764919661722,0.0s : 0.0s,6.416283097862174,6.410205373408149,0.27920577114578027,0.12160670646723504,-0.07467222958803177,0.18051499128341675,-0.3611094355583191,0.06359328329563141,-0.05659356713294983,0.08684039115905762,0.2536587510806981,0.029565897970450998,2.58742802071788,0.028615642338991165,-0.2509472966194153,-0.9675776958465576
1727729750372,6i,42.47764919661722,0.0s : 0.0s,6.418127242955799,6.412133200118026,0.2773177432397168,0.10254302728183735,-0.049556490033864975,0.2450868785381317,-0.351291298866272,0.0676899403333664,-0.04237663745880127,0.06432235240936279,0.25291354050927756,0.03259582780228757,2.5837623761390565,0.03155328333377838,-0.25022587180137634,-0.9676731824874878
1727729750382,6i,42.47764919661722,0.0s : 0.0s,6.419887117299172,6.41402748063557,0.2742299701265277,0.11578037851466302,-0.032890427857637405,0.29346293210983276,-0.3231920301914215,0.08219099044799805,-0.05623424053192139,0.05905461311340332,0.25239078938350373,0.03616524917116938,2.580300041989678,0.035011835396289825,-0.24971970915794373,-0.9676849842071533
1727729750392,6i,42.47764919661722,0.0s : 0.0s,6.421608914778876,6.415838331064982,0.272175612435875,0.14053357240595798,-0.05525938421487808,0.2996545135974884,-0.3108431100845337,0.0880182683467865,-0.09545440971851349,0.05376732349395752,0.25186555472096306,0.03993037673218925,2.5770689302719054,0.03866026550531387,-0.24921108782291412,-0.9676772356033325
1727729750402,6i,42.47764919661722,0.0s : 0.0s,6.423463398531671,6.417552276471117,0.2755082776187181,0.1457011206597114,-0.12986624240875244,0.2848004698753357,-0.32213279604911804,0.08504447340965271,-0.10290558636188507,0.05836689472198486,0.25080501620816587,0.043638383923978674,2.5738576433043994,0.04225965216755867,-0.24818387627601624,-0.9677907228469849
1727729750412,6i,42.47764919661722,0.0s : 0.0s,6.425519630330003,6.419233163125161,0.28416213187255834,0.11995618662758079,-0.1531703770160675,0.29949626326560974,-0.3277193009853363,0.08400112390518188,-0.06934468448162079,0.05024552345275879,0.2491742131787209,0.04733007225906738,2.5705631295628155,0.04585122689604759,-0.24660375714302063,-0.968031108379364
1727729750422,6i,42.47764919661722,0.0s : 0.0s,6.427343158747675,6.4207785380246225,0.29041874240985904,0.08221898281811221,-0.11357183009386063,0.34099072217941284,-0.29956647753715515,0.0738668292760849,-0.026379898190498352,0.02465265989303589,0.24767464574216697,0.05128567582804035,2.5673889318079532,0.049698904156684875,-0.24515022337436676,-0.9682103991508484
1727729750432,6i,42.47764919661722,0.0s : 0.0s,6.429194953705312,6.422250393020496,0.2987434385855772,0.06492201799806901,-0.09160341322422028,0.3923060894012451,-0.27753114700317383,0.05266713351011276,-0.0031250715255737305,0.03783220052719116,0.24651056621212528,0.055672209228136926,2.564499205733633,0.05396134406328201,-0.24402150511741638,-0.9682673811912537
1727729750442,6i,42.47764919661722,0.0s : 0.0s,6.430989975581516,6.4236518566917145,0.3071300865285531,0.059516282085185675,-0.0820906013250351,0.41154345870018005,-0.2665919363498688,0.034043826162815094,-0.0023698359727859497,0.04876053333282471,0.24548000116295435,0.06034541174772154,2.56174501350984,0.058500781655311584,-0.24302196502685547,-0.9682551026344299
1727729750452,6i,42.47764919661722,0.0s : 0.0s,6.432785195466715,6.425005879587852,0.3162670047242939,0.05676644409755292,-0.0809682086110115,0.44050130248069763,-0.24830511212348938,0.028199754655361176,-0.00048020482063293457,0.04926431179046631,0.24450232580871387,0.0652312154568768,2.559162810213633,0.0632462278008461,-0.24207347631454468,-0.9681943655014038
1727729750462,6i,42.47764919661722,0.0s : 0.0s,6.434094378822474,6.4261459299202945,0.31971700449583396,0.03763483745326297,-0.06410667300224304,0.4357757866382599,-0.24071164429187775,0.014508664608001709,-0.007683426141738892,0.03386509418487549,0.24360490778736546,0.0702005906882095,2.556711562974197,0.06807196140289307,-0.24120265245437622,-0.968084454536438
1727729750472,6i,42.47764919661722,0.0s : 0.0s,6.434906011060833,6.426961337678981,0.3196612819320486,0.01603118584299789,-0.038510631769895554,0.4084060490131378,-0.24759593605995178,0.0027728304266929626,-0.01310110092163086,0.008813142776489258,0.24288085901346887,0.07501291628607219,2.554235307320654,0.07274296134710312,-0.24049992859363556,-0.9679195284843445
1727729750482,6i,42.47764919661722,0.0s : 0.0s,6.435497234838231,6.42760870796177,0.3185450626591831,0.02463782142046271,0.00725792208686471,0.4029998481273651,-0.23843814432621002,0.0030373185873031616,-0.006541937589645386,-0.023558437824249268,0.24254857484112335,0.07963669377360601,2.5517453495876325,0.07722396403551102,-0.24017737805843353,-0.967652440071106
1727729750492,6i,42.47764919661722,0.0s : 0.0s,6.435954246800348,6.428109774309464,0.31766617121527985,0.05287632748794128,0.03556346148252487,0.40901893377304077,-0.23669233918190002,-0.003426969051361084,5.3316354751586914e-05,-0.0527651309967041,0.24255214513933152,0.08425229462656539,2.5493149363655827,0.08168935030698776,-0.2401808500289917,-0.9672848582267761
1727729750502,6i,42.47764919661722,0.0s : 0.0s,6.435959622010102,6.428191370334787,0.31612017097581263,0.07004974791319542,0.08374777436256409,0.39518672227859497,-0.24146020412445068,-0.018577322363853455,0.018648982048034668,-0.06491583585739136,0.24292447897378178,0.08888179784977952,2.546804832392816,0.08615856617689133,-0.24054226279258728,-0.9668071866035461
1727729750512,6i,42.47764919661722,0.0s : 0.0s,6.435592223877691,6.4279548742262484,0.31343804323346114,0.08612967098697615,0.13519299030303955,0.3778155744075775,-0.23183169960975647,-0.01895129680633545,0.04205673933029175,-0.07273513078689575,0.24378998712443595,0.09334576011584607,2.5442699923345025,0.09045404195785522,-0.24138227105140686,-0.9662052989006042
1727729750522,6i,42.47764919661722,0.0s : 0.0s,6.434961107736691,6.427484514964525,0.3101084777542718,0.10326574630841946,0.18840613961219788,0.35471370816230774,-0.23282213509082794,-0.017224155366420746,0.055840328335762024,-0.08514106273651123,0.24519470486381617,0.09761029879214018,2.5417326963833378,0.09454049170017242,-0.24274520576000214,-0.9654723405838013
1727729750532,6i,42.47764919661722,0.0s : 0.0s,6.434168642082613,6.4268077266601065,0.3076825625562279,0.10590863648698225,0.20087745785713196,0.3478107154369354,-0.2422543168067932,-0.021946512162685394,0.05341653525829315,-0.08877873420715332,0.24691198381633395,0.10174036004613204,2.5390974638239605,0.09848465025424957,-0.24441076815128326,-0.9646575450897217
1727729750542,6i,42.47764919661722,0.0s : 0.0s,6.433213156259522,6.4259489130639835,0.30563389956355147,0.09758611797321114,0.19435884058475494,0.33479025959968567,-0.25146540999412537,-0.03367997705936432,0.028350085020065308,-0.08709180355072021,0.24863143676228555,0.10583621108846988,2.536345586685079,0.102390356361866,-0.24607771635055542,-0.9638267159461975
1727729750552,6i,42.47764919661722,0.0s : 0.0s,6.431852815999151,6.425011121310803,0.29658512725475056,0.08171053927400782,0.13835056126117706,0.307242214679718,-0.2473922073841095,-0.03589503467082977,-0.007276087999343872,-0.07304257154464722,0.25003600618812954,0.10974192457430054,2.5336023652585147,0.10611604154109955,-0.24743884801864624,-0.9630749821662903
1727729750562,6i,42.47764919661722,0.0s : 0.0s,6.430092765278988,6.424036854244554,0.27900441824622085,0.062405785544011966,0.07946034520864487,0.2497142106294632,-0.24493995308876038,-0.022159717977046967,-0.025530517101287842,-0.052455902099609375,0.2508184457982105,0.11316924536120676,2.530971535223571,0.10939428210258484,-0.24819688498973846,-0.9625129699707031
1727729750572,6i,42.47764919661722,0.0s : 0.0s,6.428473226267642,6.423080419941474,0.26326021310552683,0.050360533025004026,0.06870889663696289,0.22251436114311218,-0.2503921091556549,0.0012571588158607483,-0.013131797313690186,-0.04860204458236694,0.25123686388724686,0.11615235774294813,2.528343222139024,0.11225302517414093,-0.24860218167304993,-0.9620791077613831
1727729750582,6i,42.47764919661722,0.0s : 0.0s,6.427077444610194,6.422186341976854,0.2506931749032217,0.0462680161079305,0.09615197032690048,0.20028015971183777,-0.25185152888298035,0.009936533868312836,0.015667885541915894,-0.0423852801322937,0.2517317997115723,0.11891480356144905,2.525662230275015,0.11489567905664444,-0.249081552028656,-0.9616430401802063
1727729750592,6i,42.47764919661722,0.0s : 0.0s,6.4259764695546995,6.42134492027343,0.2439323720814424,0.05082285840150951,0.14935368299484253,0.18529030680656433,-0.2439180314540863,0.008041046559810638,0.0206119567155838,-0.04575425386428833,0.25266171822436995,0.12150263475323064,2.522960269888496,0.11735573410987854,-0.2499820590019226,-0.9611122012138367
1727729750602,6i,42.47764919661722,0.0s : 0.0s,6.424833191936149,6.420527093154962,0.23518798920769168,0.05266688023970833,0.16811618208885193,0.16206620633602142,-0.22884880006313324,0.0043698325753211975,0.009105950593948364,-0.051689326763153076,0.2539690167201,0.12390427349056787,2.520337582035747,0.11962314695119858,-0.2512476444244385,-0.9605024456977844
1727729750622,6i,42.47764919661722,0.0s : 0.0s,6.423575707867702,6.419704840389991,0.222967793596657,0.06498045788552449,0.17410363256931305,0.12107256054878235,-0.21699070930480957,0.0075225830078125,-0.0049669742584228516,-0.06435215473175049,0.25680323358726675,0.1279621681721265,2.515355182608967,0.12342839688062668,-0.25398993492126465,-0.9592989683151245
1727729750612,6i,42.47764919661722,0.0s : 0.0s,6.42270995849949,6.418894816358284,0.22134260217428925,0.053256048995885215,0.17125724256038666,0.14300848543643951,-0.22034069895744324,0.0035221725702285767,0.001859515905380249,-0.05310690402984619,0.2553738670066083,0.12604074285858305,2.5178201611841753,0.1216304674744606,-0.25260716676712036,-0.9598935842514038
1727729750632,6i,42.47764919661722,0.0s : 0.0s,6.421565692409923,6.418084048354865,0.2114310530384445,0.07068448127482224,0.1580667495727539,0.09918604046106339,-0.21983346343040466,0.015949547290802002,-0.007375866174697876,-0.06846535205841064,0.2581622511905513,0.1296907706489239,2.512891903271258,0.12504170835018158,-0.25530412793159485,-0.9587410092353821
1727729750642,6i,42.47764919661722,0.0s : 0.0s,6.420434878054029,6.4173090464134095,0.200321307287277,0.06672737672756383,0.1602577269077301,0.07538563013076782,-0.20028506219387054,0.03283868730068207,-0.014824718236923218,-0.0561639666557312,0.25946973836678516,0.13115548255743048,2.5136649445434482,0.1264020800590515,-0.2565680742263794,-0.9582250714302063
1727729750652,6i,42.47764919661722,0.0s : 0.0s,6.419298819474972,6.41661002419126,0.1857771007444453,0.06223098209697223,0.12875984609127045,0.05098828300833702,-0.1858043670654297,0.04623483121395111,-0.020517319440841675,-0.036250174045562744,0.2606686416337611,0.13234568052485948,2.5115081456323147,0.12750178575515747,-0.25772666931152344,-0.9577683806419373
1727729750662,6i,42.47764919661722,0.0s : 0.0s,6.418395613569902,6.416007568997835,0.1750689203024061,0.0504333951355442,0.10792195051908493,0.045239318162202835,-0.19564500451087952,0.04439638555049896,-0.016633987426757812,-0.017198801040649414,0.26157679722152016,0.13332597742256233,2.5093953278242846,0.1284094601869583,-0.2586040198802948,-0.9574105739593506
1727729750672,6i,42.47764919661722,0.0s : 0.0s,6.417681978027377,6.4155341610324115,0.166022286827849,0.04944800872009239,0.10677213221788406,0.059172045439481735,-0.17880746722221375,0.04847617447376251,0.007373452186584473,-0.00638735294342041,0.2623722421136508,0.13440081955627595,2.5073110414395994,0.12941084802150726,-0.2593723237514496,-0.9570678472518921
1727729750682,6i,42.47764919661722,0.0s : 0.0s,6.417127653898501,6.415232972204593,0.15592703026703617,0.06647065545554462,0.14053621888160706,0.059830911457538605,-0.13183677196502686,0.061312511563301086,0.02382597327232361,0.009562790393829346,0.26337141985158613,0.13543810357735825,2.505556907979689,0.13036847114562988,-0.2603372037410736,-0.9566758275032043
1727729750692,6i,42.47764919661722,0.0s : 0.0s,6.416912796366541,6.415076612914024,0.15349881633480056,0.06517742888723996,0.1776227205991745,0.06553792953491211,-0.09747150540351868,0.06334967911243439,0.013999760150909424,0.006238758563995361,0.26481029872267686,0.1364244946726043,2.5041706592765913,0.13126099109649658,-0.26172617077827454,-0.9561746716499329
1727729750702,6i,42.47764919661722,0.0s : 0.0s,6.416807153243394,6.415014104117896,0.15168416490872294,0.05606495437791519,0.18728120625019073,0.06772705167531967,-0.09189563989639282,0.05587358772754669,-0.0046118199825286865,-0.0003904104232788086,0.2665066422541972,0.13741317721464774,2.50604329984666,0.13214527070522308,-0.2633630335330963,-0.9556032419204712
1727729750712,6i,42.47764919661722,0.0s : 0.0s,6.416667203215277,6.415034043514419,0.14476262421500197,0.0601401267653117,0.1618468314409256,0.06319475173950195,-0.08278972655534744,0.058591753244400024,-0.01354101300239563,0.0006944537162780762,0.2681174146422723,0.1383666568224895,2.508083203862558,0.13299767673015594,-0.2649165987968445,-0.9550554156303406
1727729750722,6i,42.47764919661722,0.0s : 0.0s,6.416621827604278,6.415312979777999,0.12959571744303164,0.07759770594503311,0.12967024743556976,0.04381413012742996,-0.055540531873703,0.07467924058437347,-0.02014249563217163,0.006220519542694092,0.2694526728762405,0.13914818173775928,2.5071673736259767,0.1336948424577713,-0.266203910112381,-0.9546000361442566
1727729750732,6i,42.47764919661722,0.0s : 0.0s,6.416857582631962,6.415860131084988,0.11313714746025762,0.09128712079574634,0.10921291261911392,0.016648374497890472,-0.041276104748249054,0.08474035561084747,-0.03138580918312073,0.012936055660247803,0.2705634205303802,0.13979300797271849,2.5064494445433287,0.1342690885066986,-0.267274409532547,-0.954220175743103
1727729750742,6i,42.47764919661722,0.0s : 0.0s,6.417282249906439,6.416603984918429,0.09329938742126227,0.09291993013109054,0.06764363497495651,-0.006406077649444342,-0.03288581967353821,0.08459837734699249,-0.032364100217819214,0.020731449127197266,0.27141683670043887,0.14016717092968456,2.5058875446798403,0.13459420204162598,-0.2680966854095459,-0.9539437294006348
1727729750752,6i,42.47764919661722,0.0s : 0.0s,6.417810820278844,6.417376404917558,0.07467129633001193,0.07176217010572566,0.032314006239175797,-0.0017371568828821182,-0.037460099905729294,0.06461270153522491,-0.02448451519012451,0.019378244876861572,0.2717081954355174,0.14046303764471285,2.505397956279865,0.13486549258232117,-0.2683773636817932,-0.9538264274597168
1727729750762,6i,42.47764919661722,0.0s : 0.0s,6.418421267315881,6.418122244925279,0.061954934655025544,0.04167619910709498,0.029004231095314026,0.02779570035636425,-0.032710351049900055,0.03819812834262848,-0.014275401830673218,0.008603572845458984,0.27172510427037366,0.14112133621504694,2.5048504937416305,0.1354927271604538,-0.2683936357498169,-0.953732967376709
1727729750772,6i,42.47764919661722,0.0s : 0.0s,6.419006858294048,6.4187695734269035,0.05519248205167036,0.027788126546090995,0.04248941317200661,0.04108221456408501,-0.005874941125512123,0.024675026535987854,-0.011883795261383057,0.004700899124145508,0.2718476553486841,0.14209022936370397,2.507650817584027,0.13641206920146942,-0.26851168274879456,-0.953568696975708
1727729750782,6i,42.47764919661722,0.0s : 0.0s,6.419588893866012,6.419361624289267,0.05401761610919694,0.028901620935031694,0.06152622029185295,0.04713158309459686,0.00045166444033384323,0.026215314865112305,-0.01209208369255066,-0.0013573765754699707,0.27234428263854155,0.1431352700483411,2.5074004576827846,0.13738946616649628,-0.26899003982543945,-0.95329350233078
1727729750792,6i,42.47764919661722,0.0s : 0.0s,6.420173234963095,6.419942392398208,0.054443045697915485,0.036864700901999455,0.07953251898288727,0.05598379671573639,-0.0038895877078175545,0.03662291169166565,-0.0034664571285247803,-0.002398371696472168,0.2731410905918132,0.14449521030993734,2.507064369260419,0.13865485787391663,-0.2697574198246002,-0.9528933763504028
1727729750802,6i,42.47764919661722,0.0s : 0.0s,6.420812792633354,6.420522345453369,0.06107151200114904,0.04484427138475118,0.10951118916273117,0.049890484660863876,-0.0071522267535328865,0.044536441564559937,-0.0025980472564697266,-0.004556775093078613,0.274375890939613,0.14644221859870804,2.5065099358228027,0.14046117663383484,-0.2709462344646454,-0.9522913694381714
1727729750812,6i,42.47764919661722,0.0s : 0.0s,6.4214307399202415,6.421095976654913,0.06556833213308846,0.03605501873003977,0.11383815854787827,0.04142913222312927,-0.02056134305894375,0.03437446057796478,-0.00916948914527893,0.0058550238609313965,0.2760301726009593,0.14854697974170467,2.5057677023030727,0.1423986703157425,-0.2725382447242737,-0.9515489935874939
1727729750822,6i,42.47764919661722,0.0s : 0.0s,6.421993650764276,6.421650280042789,0.06640881931674705,0.029073981846366944,0.10741648077964783,0.03022441640496254,-0.01313218753784895,0.01994141936302185,-0.01517292857170105,0.014745116233825684,0.27765702237051193,0.15052372762846655,2.504995621880984,0.14421269297599792,-0.27410316467285156,-0.9508260488510132
1727729750832,6i,42.47764919661722,0.0s : 0.0s,6.42250554786792,6.42215757729865,0.06685480341567375,0.03324501532321923,0.10694842785596848,0.03078496642410755,0.008609892800450325,0.0028743594884872437,-0.027233004570007324,0.018850266933441162,0.27912708019849153,0.1519764733820554,2.5045053609153602,0.14553268253803253,-0.2755166292190552,-0.9502162337303162
1727729750842,6i,42.47764919661722,0.0s : 0.0s,6.4229342021003,6.422583969788728,0.0670739556212641,0.04086115509478257,0.09843403846025467,0.03915474936366081,0.004565616138279438,-0.01948140561580658,-0.03136906027793884,0.017495453357696533,0.28023738480966287,0.15270174899247305,2.5043383365575496,0.14617519080638885,-0.27658379077911377,-0.9498074650764465
1727729750852,6i,42.47764919661722,0.0s : 0.0s,6.423287459113763,6.422931022712378,0.06766727338287211,0.03608525795377212,0.09504729509353638,0.051538627594709396,-0.01676117815077305,-0.027378350496292114,-0.019016891717910767,0.01381772756576538,0.28123007838564784,0.15334897382778792,2.5040736465538695,0.146747887134552,-0.27753761410713196,-0.9494408369064331
1727729750862,6i,42.47764919661722,0.0s : 0.0s,6.423608884156409,6.423249668887167,0.06793222912611162,0.02235249444083766,0.0905633345246315,0.051282431930303574,-0.016807517036795616,-0.009257912635803223,-0.008175194263458252,0.018630385398864746,0.28212793883510556,0.1541199893859543,2.5037067751355413,0.147441565990448,-0.27840009331703186,-0.9490808248519897
1727729750872,6i,42.47764919661722,0.0s : 0.0s,6.4239289187381665,6.423575711344524,0.06736344427947373,0.0277817110976418,0.08424897491931915,0.032248638570308685,-0.022653887048363686,0.010113999247550964,-0.011164814233779907,0.023342609405517578,0.28290761496144357,0.15485377850396453,2.5032923526912785,0.14810442924499512,-0.2791488468647003,-0.9487575888633728
1727729750882,6i,42.47764919661722,0.0s : 0.0s,6.424241645545354,6.42390004737164,0.06624878669016965,0.026674836046561273,0.07895194739103317,0.016791652888059616,-0.030889447778463364,0.011628344655036926,-0.015348106622695923,0.018459796905517578,0.2835885182578255,0.15554037567080742,2.5027985302421585,0.14872632920742035,-0.2798026204109192,-0.9484677314758301
1727729750892,6i,42.47764919661722,0.0s : 0.0s,6.424514148189288,6.424185172700067,0.06501466869053708,0.0115834634387352,0.07239551097154617,0.015240183100104332,-0.04263458773493767,-0.007392331957817078,-0.006133973598480225,0.006473362445831299,0.2842856382034257,0.15614416360083438,2.5022114033885012,0.14926861226558685,-0.2804718315601349,-0.9481847882270813
1727729750902,6i,42.47764919661722,0.0s : 0.0s,6.424726380432448,6.424401471857149,0.0646126289847596,0.03330108022237791,0.07718973606824875,0.030137373134493828,-0.043399445712566376,-0.0301210880279541,0.013341009616851807,-0.004868209362030029,0.2851014476571658,0.1568023374843723,2.5015716688094187,0.14985686540603638,-0.2812547981739044,-0.947860062122345
1727729750912,6i,42.47764919661722,0.0s : 0.0s,6.424902485208622,6.424534275462024,0.06878435762275924,0.04297869063824774,0.11968805640935898,0.018353108316659927,-0.04052659496665001,-0.03234441578388214,0.026609033346176147,-0.009641885757446289,0.28639812984416946,0.15722828653541893,2.5009884669133116,0.15020336210727692,-0.28249889612197876,-0.9474351406097412
1727729750922,6i,42.47764919661722,0.0s : 0.0s,6.425062950790135,6.424516120188188,0.08382447767887709,0.05506686601343569,0.17763365805149078,0.013226257637143135,-0.030272891744971275,-0.023107081651687622,0.042222172021865845,-0.026752769947052002,0.2882632503301767,0.1572451551982141,2.5004591186906153,0.1501365751028061,-0.28428757190704346,-0.946910560131073
1727729750932,6i,42.47764919661722,0.0s : 0.0s,6.4254984248011535,6.424494643783837,0.11357191164585616,0.06508911325205066,0.2749102711677551,0.0017712468979880214,-0.030393099412322044,6.718933582305908e-05,0.05517369508743286,-0.03453189134597778,0.2906003087558737,0.1570048325840949,2.49996183329696,0.1498047113418579,-0.2865274250507355,-0.9462878108024597
1727729750942,6i,42.47764919661722,0.0s : 0.0s,6.428259464627732,6.424471190838851,0.220657342179322,0.04545623113441122,0.6879652142524719,0.03281331807374954,-0.13406622409820557,0.018236011266708374,0.022664308547973633,-0.03492915630340576,0.29596338023517893,0.15737915922380305,2.4983184376773866,0.1499159187078476,-0.29166147112846375,-0.9447003602981567
1727729750952,6i,42.47764919661722,0.0s : 0.0s,6.427528690547904,6.42503190736211,0.17913697886050733,0.14301944593905722,0.11027844995260239,-0.13192299008369446,-0.06262313574552536,0.03045809268951416,-0.049110233783721924,0.1308245062828064,0.2996373996419863,0.15762309226406274,2.496480391531953,0.14997713267803192,-0.2951737940311432,-0.9435991048812866
1727729750962,6i,42.47764919661722,0.0s : 0.0s,6.426459011412298,6.4258677848570915,0.08717016059491459,0.2341489269839504,-0.27324047684669495,-0.2120433896780014,0.06024951487779617,0.00016054511070251465,-0.14241957664489746,0.18585574626922607,0.2988370545890687,0.15596062050293263,2.4966427959721993,0.14844487607479095,-0.29440900683403015,-0.9440802335739136
1727729750972,6i,42.47764919661722,0.0s : 0.0s,6.426844924258693,6.426494529612131,0.06710991979628372,0.16366058671390643,-0.2439667135477066,-0.1451907604932785,0.03426685184240341,-0.026905909180641174,-0.12023887038230896,0.10771942138671875,0.29619783334310906,0.15366700386841947,2.497710171441121,0.14639754593372345,-0.29188573360443115,-0.9451828002929688
1727729750982,6i,42.47764919661722,0.0s : 0.0s,6.427419439829702,6.427148629880612,0.059001228161104896,0.11056993349762967,-0.16193071007728577,-0.003506073262542486,-0.014946499839425087,-0.04118292033672333,0.08837735652923584,0.052145183086395264,0.29415438512227315,0.1527909181467386,2.498069232217689,0.1456599086523056,-0.28993067145347595,-0.945898175239563
1727729750992,6i,42.47764919661722,0.0s : 0.0s,6.428476857624108,6.428419977432867,0.027042609909783032,0.25926284019637263,-0.01236771047115326,0.152512788772583,2.1164538338780403e-05,0.01690630614757538,0.25802481174468994,0.01883065700531006,0.2931662850973919,0.15350395264036998,2.498174846026609,0.1463780552148819,-0.28898486495018005,-0.9460767507553101
1727729751002,6i,42.47764919661722,0.0s : 0.0s,6.429647531168513,6.429496474007064,0.04407341366488015,0.16634791820660744,0.17101089656352997,0.20005179941654205,-0.05677607282996178,-0.006050124764442444,0.16010048985481262,-0.044753313064575195,0.2939542509255377,0.15550075164751806,2.497770267566009,0.14823158085346222,-0.28973910212516785,-0.9455572962760925
1727729751012,6i,42.47764919661722,0.0s : 0.0s,6.4307109782944325,6.430299328939998,0.07276143614820783,0.05581434077061637,0.17657317221164703,0.10330688208341599,-0.09352469444274902,0.0045249611139297485,0.02299642562866211,-0.05065500736236572,0.29557678687907557,0.15736962396686965,2.496700682807593,0.14992456138134003,-0.2912916839122772,-0.9448131322860718
1727729751022,6i,42.47764919661722,0.0s : 0.0s,6.433521189261642,6.4310640023233745,0.1777939557437193,0.16723990227590543,0.5565218329429626,0.19896894693374634,-0.2600513696670532,0.05273328721523285,0.13353797793388367,-0.08576709032058716,0.29861599649442233,0.15914410147149768,2.494388357142737,0.15145988762378693,-0.2941977381706238,-0.9436671137809753
1727729751032,6i,42.47764919661722,0.0s : 0.0s,6.438421638657009,6.431824562066938,0.2913863413395572,0.272073530377101,0.7732528448104858,0.2776927351951599,-0.17348217964172363,0.022377774119377136,0.24537652730941772,-0.11538457870483398,0.3049836505138548,0.16279114674689926,2.4908679242457104,0.15459370613098145,-0.30027759075164795,-0.9412407279014587
1727729751042,6i,42.47764919661722,0.0s : 0.0s,6.4417508310985605,6.4320687704634825,0.35305113225619555,0.046278906428553535,0.7101287245750427,0.21527060866355896,-0.09867425262928009,-0.03238411247730255,-0.028532743453979492,-0.01669996976852417,0.31222398354332087,0.16606182958816473,2.4882417375953256,0.15730786323547363,-0.3071758449077606,-0.9385612607002258