timestamp,club,max_speed,tempo,speed,l.speed,t.spped,acc,rotation.x,rotation.y,rotation.z,userAcceleration.x,userAcceleration.y,userAcceleration.z,pitch,roll,yaw,gravity.x,gravity.y,gravity.z
1727724648673,7i,10.361288969221679,0.9s : 0.2s,0.11333705838277858,0.00113388089370029,0.1133313862836781,0.10145086455758251,-0.21597281098365784,-0.03813862055540085,0.7169327139854431,0.02226167917251587,0.023294180631637573,0.09619811177253723,-0.2289134957137628,1.811713768052617,2.9618109585691665,0.9457865953445435,0.2269195020198822,0.23236964643001556
1727724648683,7i,10.361288969221679,0.9s : 0.2s,0.15995672346860412,0.002449057007495392,0.15993797392297276,0.08822220964938086,-0.22475725412368774,-0.03093024343252182,0.3374299705028534,0.01569312810897827,0.05500531196594238,0.06716620922088623,-0.22950540483552964,1.8126293096042274,2.96555658216754,0.945442795753479,0.2274959236383438,0.2332032322883606
1727724648693,7i,10.361288969221679,0.9s : 0.2s,0.14584306857449303,0.0037411681058502418,0.14579507643411022,0.07702520537358569,-0.2132854163646698,-0.005401446484029293,-0.10085974633693695,-0.044788360595703125,0.033853814005851746,0.05273333191871643,-0.2293046395345988,1.8131644724333436,2.9684555199925953,0.9453622698783875,0.22730042040348053,0.23372013866901398
1727724648703,7i,10.361288969221679,0.9s : 0.2s,0.10589359553473408,0.0049776100828230405,0.10577654264125498,0.0734821592947068,-0.13524162769317627,-0.003840612480416894,-0.10838068276643753,-0.043734967708587646,0.054014578461647034,0.023860126733779907,-0.22953565180886826,1.8136012554968846,2.9702859561345045,0.9452091455459595,0.22752538323402405,0.2341204136610031
1727724648713,7i,10.361288969221679,0.9s : 0.2s,0.08913789234560664,0.0061759381932686395,0.08892368435489997,0.057029235146713944,-0.07736154645681381,0.03393366560339928,-0.16158798336982727,-0.028419017791748047,0.041842877864837646,0.026341348886489868,-0.23037697834673715,1.814027729365894,2.971583729987097,0.9449231028556824,0.22834455966949463,0.23447732627391815
1727724648723,7i,10.361288969221679,0.9s : 0.2s,0.16639415446016242,0.007335777242412496,0.16623237052620676,0.0341444927718718,-0.07670201361179352,0.14214254915714264,-0.8548645973205566,0.006966829299926758,0.013139501214027405,0.030735373497009277,-0.23131904852910243,1.8142447351055637,2.9726567596441624,0.9446628093719482,0.2292616367340088,0.23463037610054016
1727724648733,7i,10.361288969221679,0.9s : 0.2s,0.320510050981104,0.008407755070713507,0.3203997541112989,0.057146698322562736,-0.17298993468284607,0.034009963274002075,-1.018049716949463,-0.053832054138183594,0.008512258529663086,0.017187103629112244,-0.23044519919987627,1.8140629242200226,2.9731553574104885,0.9448995590209961,0.2284109741449356,0.2345067858695984
1727724648743,7i,10.361288969221679,0.9s : 0.2s,0.30508476917523825,0.009703155820197547,0.3049304267367187,0.18405601651435335,-0.20277924835681915,-0.06266101449728012,-0.3602840006351471,-0.13386720418930054,-0.04202777147293091,0.11912117898464203,-0.23066761739814676,1.8143609102801623,2.974659021701605,0.9447802901268005,0.2286275029182434,0.2347760796546936
1727724648763,7i,10.361288969221679,0.9s : 0.2s,0.23824159516294047,0.010922687601181716,0.2379910766422754,0.056982637753439334,-0.2580225467681885,-0.016060126945376396,-0.013369651511311531,0.027257561683654785,-0.04992550611495972,0.003389716148376465,-0.23070815420662255,1.8150025480553593,2.978801644180544,0.9446204900741577,0.2286669760942459,0.23538000881671906
1727724648753,7i,10.361288969221679,0.9s : 0.2s,0.19043366251688879,0.0119407140065756,0.19005893603987542,0.09784875888855164,-0.18121562898159027,-0.03547998517751694,-0.01307277474552393,-0.08999800682067871,-0.0383949875831604,-0.0007505416870117188,-0.23101125522265362,1.8146865282374873,2.9765442331123366,0.9446275234222412,0.2289620339870453,0.23506473004817963
1727724648773,7i,10.361288969221679,0.9s : 0.2s,0.18529113512798048,0.012846124662900872,0.18484529163103056,0.05120642913154854,-0.29326626658439636,-0.021107615903019905,-0.010153351351618767,-0.016818702220916748,-0.03337898850440979,-0.03500103950500488,-0.2301534494279117,1.815486608685209,2.981642694175715,0.944629430770874,0.22812692821025848,0.2358679473400116
1727724648783,7i,10.361288969221679,0.9s : 0.2s,0.18186106531881882,0.013545906217394437,0.1813558808079993,0.07771691428609603,-0.32105717062950134,-0.02378435991704464,-0.004745669662952423,0.007520616054534912,-0.023778319358825684,-0.07360672950744629,-0.22947662478155625,1.8159972716577566,2.984702389338711,0.9446583986282349,0.22746789455413818,0.2363877147436142
1727724648793,7i,10.361288969221679,0.9s : 0.2s,0.19675748699423207,0.013928211956696902,0.19626388766142058,0.07351790811173312,-0.3778597414493561,-0.029546108096837997,0.0015793385682627559,0.015356659889221191,-0.026894837617874146,-0.06667625904083252,-0.2286500564473531,1.8165435112535995,2.9881635351554316,0.9447111487388611,0.22666291892528534,0.23694933950901031
1727724648803,7i,10.361288969221679,0.9s : 0.2s,0.21676789964895812,0.014127214433218863,0.21630705982602286,0.05815630494811233,-0.404092401266098,-0.044945571571588516,-0.0003288164734840393,0.01202303171157837,-0.019802600145339966,-0.053342849016189575,-0.22769765306300907,1.8170722424600545,2.992110007846757,0.9447944760322571,0.22573520243167877,0.23750129342079163
1727724648813,7i,10.361288969221679,0.9s : 0.2s,0.23210008514194672,0.013932549682792672,0.23168153483226805,0.06426901041798347,-0.4005144238471985,-0.057791151106357574,-0.0026925052516162395,0.015123903751373291,-0.009751170873641968,-0.06169836223125458,-0.22673084191631035,1.8174615335640327,2.9960920201087746,0.9449132084846497,0.2247932404279709,0.23792226612567902
1727724648823,7i,10.361288969221679,0.9s : 0.2s,0.25107041074189435,0.013690578786797681,0.2506968671575016,0.04247288196584955,-0.43628522753715515,-0.0718369260430336,-0.008582551963627338,0.011917591094970703,-0.026275306940078735,-0.03116929531097412,-0.2257589423315765,1.8177644375393636,3.0002793838059647,0.9450526237487793,0.22384610772132874,0.23826180398464203
1727724648833,7i,10.361288969221679,0.9s : 0.2s,0.2606155186805688,0.013448150174442081,0.26026831507893455,0.018457221954034375,-0.41388484835624695,-0.07635445147752762,-0.02686408720910549,0.008585512638092041,0.0042797476053237915,-0.015768378973007202,-0.22485954912908043,1.8179818058938253,3.0046092039413477,0.9451957941055298,0.2229694426059723,0.2385164052248001
1727724648843,7i,10.361288969221679,0.9s : 0.2s,0.25625113293057894,0.013206182287241441,0.25591060915405867,0.03293837193995442,-0.349738746881485,-0.05502621456980705,-0.0456681028008461,-0.006671309471130371,0.022944197058677673,-0.022671431303024292,-0.22427739980036973,1.8181967806075048,3.0085185886343995,0.9452701210975647,0.2224019169807434,0.2387513369321823
1727724648853,7i,10.361288969221679,0.9s : 0.2s,0.23257727055751004,0.012963538141346457,0.23221570459131113,0.021373985477143462,-0.2595348060131073,-0.028484350070357323,-0.03982113301753998,-0.0063689351081848145,-0.003915563225746155,-0.02002379298210144,-0.22393750013906194,1.818491766696994,3.0116802597619587,0.9452728629112244,0.22207051515579224,0.23904868960380554
1727724648863,7i,10.361288969221679,0.9s : 0.2s,0.19373045637147177,0.012697820538072292,0.19331387710012343,0.03625505269656526,-0.14942587912082672,0.004245277494192123,-0.04964180663228035,-0.009907364845275879,-0.00997258722782135,-0.033418864011764526,-0.22385849791684373,1.8188884652058697,3.013875769316414,0.9451950192451477,0.22199349105358124,0.23942796885967255
1727724648873,7i,10.361288969221679,0.9s : 0.2s,0.14443538898660815,0.012212378126501834,0.14391816915250186,0.06289394826276891,-0.03653235360980034,0.04051300510764122,-0.05651489272713661,-0.00900191068649292,0.01934237778186798,-0.05916491150856018,-0.22415288935216524,1.8193461085186917,3.0148587721714586,0.9450217485427856,0.22228051722049713,0.23984436690807343
1727724648883,7i,10.361288969221679,0.9s : 0.2s,0.1110550064822919,0.011575614777086768,0.11045007744367763,0.06861560054981582,-0.03566429764032364,0.048896413296461105,-0.05399184674024582,-0.013136088848114014,-0.01682305335998535,-0.06521141529083252,-0.22462461255748759,1.8199430297794992,3.0153310792179733,0.944776713848114,0.22274042665958405,0.24038255214691162
1727724648893,7i,10.361288969221679,0.9s : 0.2s,0.09704633016188605,0.010743241256317074,0.09644984689048687,0.08743838136535166,-0.07874146103858948,0.05584166944026947,-0.04767616093158722,-0.003414452075958252,-0.04142028093338013,-0.07692965865135193,-0.22498471727788852,1.8206417787115379,3.0160060344576505,0.9445309042930603,0.2230914682149887,0.24102285504341125
1727724648903,7i,10.361288969221679,0.9s : 0.2s,0.09821068149844352,0.009931360150668147,0.09770724663988048,0.08936297960417598,-0.1476660668849945,0.057668112218379974,-0.043693434447050095,-0.016582846641540527,-0.04936873912811279,-0.07261872291564941,-0.22515547087392043,1.8214997585069903,3.0172285141928112,0.9442867636680603,0.223257914185524,0.24182367324829102
1727724648913,7i,10.361288969221679,0.9s : 0.2s,0.12073277890186195,0.009298075062063989,0.1203742069610683,0.08100512529180118,-0.2504366636276245,0.0581730455160141,-0.041698992252349854,-0.026212632656097412,-0.05590195953845978,-0.05243757367134094,-0.22507970318043463,1.8225685022892748,3.0193124294423193,0.9440439939498901,0.22318404912948608,0.24283690750598907
1727724648923,7i,10.361288969221679,0.9s : 0.2s,0.14234501963412793,0.008878222619815926,0.14206787736062385,0.060228414470406284,-0.2842465341091156,0.042048849165439606,-0.03278219699859619,-0.020546555519104004,-0.03190822899341583,-0.04676714539527893,-0.22474388539466036,1.823702570944617,3.022123013862572,0.9438405632972717,0.22285670042037964,0.24392612278461456
1727724648933,7i,10.361288969221679,0.9s : 0.2s,0.14500608079725746,0.008670137541269463,0.14474664826239061,0.054969766126952486,-0.23417885601520538,0.024587566033005714,-0.03223278373479843,-0.020939111709594727,0.011290058493614197,-0.04955565929412842,-0.22439889292370968,1.8246482030854283,3.024830398461859,0.9436838626861572,0.2225203663110733,0.24483783543109894
1727724648943,7i,10.361288969221679,0.9s : 0.2s,0.1411020695012426,0.008664722466026406,0.14083577884231066,0.04749318215638527,-0.18509826064109802,0.004065824672579765,-0.024545272812247276,-0.016927480697631836,0.013367578387260437,-0.04231277108192444,-0.22416171999823647,1.8252863378748236,3.026949359771743,0.9435784220695496,0.22228913009166718,0.24545323848724365
1727724648953,7i,10.361288969221679,0.9s : 0.2s,0.11931626488346943,0.00878473670366554,0.11899243449391862,0.034597973831278564,-0.10542766749858856,-0.007267789915204048,0.007057394366711378,0.005754530429840088,0.0003399401903152466,-0.03411436080932617,-0.22401746186108956,1.825256840883034,3.0283799923738837,0.9436168670654297,0.22214847803115845,0.2454335242509842
1727724648963,7i,10.361288969221679,0.9s : 0.2s,0.09282883468541096,0.008986442736180364,0.09239283736308085,0.030046462413547703,-0.048667579889297485,-0.0037948056124150753,0.02698473073542118,0.014660477638244629,-0.012563183903694153,-0.023022308945655823,-0.22360459697161866,1.8249749141076428,3.0289634904613156,0.9437745809555054,0.22174590826034546,0.24519048631191254
1727724648973,7i,10.361288969221679,0.9s : 0.2s,0.07386266000079506,0.009249177227764416,0.07328127498210203,0.02146331924182069,-0.04225229099392891,0.008781173266470432,0.039573490619659424,0.008108794689178467,-0.01986660063266754,0.0004895925521850586,-0.2229730331210298,1.8246324475753681,3.029188597142856,0.943993866443634,0.22113002836704254,0.24490238726139069
1727724648983,7i,10.361288969221679,0.9s : 0.2s,0.06203868495108511,0.00956178563346536,0.06129739542557782,0.03675525656007781,-0.04278146103024483,0.0040188198909163475,0.0517326183617115,0.012333333492279053,-0.0333128422498703,0.009438872337341309,-0.22219413640899022,1.8243685821472297,3.029436092836606,0.9442248940467834,0.220370352268219,0.24469643831253052
1727724648993,7i,10.361288969221679,0.9s : 0.2s,0.058398169395089114,0.009917623050992457,0.05754986482795547,0.04607775940080225,-0.017922984436154366,0.005321904551237822,0.07049752026796341,0.012578487396240234,-0.044269248843193054,0.0022749006748199463,-0.2212719188384066,1.824177409984705,3.0295118610885163,0.9444682002067566,0.21947070956230164,0.24456679821014404
1727724649003,7i,10.361288969221679,0.9s : 0.2s,0.05557835966560686,0.01038536129938373,0.054599435288295965,0.06372396025248057,-0.01574411801993847,0.007490294985473156,0.07960402965545654,-0.003212273120880127,-0.06359294056892395,-0.0025223642587661743,-0.2204023294142601,1.8240039133849877,3.029426938872719,0.9446948170661926,0.21862223744392395,0.24445059895515442
1727724649013,7i,10.361288969221679,0.9s : 0.2s,0.05383315932705033,0.010986083652674734,0.05270023727753054,0.06677439146069038,-0.022938115522265434,0.007833043113350868,0.07704606652259827,-0.01053619384765625,-0.0659043937921524,-0.002102106809616089,-0.21970630560819046,1.8238580325092675,3.0293694568261436,0.9448778033256531,0.2179429978132248,0.2443508803844452
1727724649023,7i,10.361288969221679,0.9s : 0.2s,0.05383609715915555,0.011628148759853544,0.0525653071307374,0.04287223457508183,-0.05312265083193779,0.014766584150493145,0.06095964089035988,-0.015524685382843018,-0.03718164563179016,0.014647111296653748,-0.2190594355754457,1.8238582591126373,3.0295179819160705,0.9450137615203857,0.21731163561344147,0.24438628554344177
1727724649033,7i,10.361288969221679,0.9s : 0.2s,0.05786636500317537,0.012258597974648582,0.05655301030340173,0.052440703770822536,-0.09423014521598816,0.010384351946413517,0.05219411477446556,-0.01481616497039795,-0.0233515202999115,0.04455575346946716,-0.21833458797527497,1.8240088666447989,3.0300969188022027,0.9451292157173157,0.2166040539741516,0.24456800520420074
1727724649043,7i,10.361288969221679,0.9s : 0.2s,0.05774336783997332,0.012867643022063615,0.056291387374617106,0.050846032041883885,-0.07018272578716278,0.01799127273261547,0.035951193422079086,-0.02006775140762329,-0.015025854110717773,0.04423604905605316,-0.21769959781822534,1.8242299546770309,3.0308200757892587,0.9452081322669983,0.21598409116268158,0.24481140077114105
1727724649053,7i,10.361288969221679,0.9s : 0.2s,0.051244106993961376,0.01342767485715321,0.049453574689188415,0.052456862769496716,-0.030420133844017982,0.01482690405100584,0.03368963673710823,-0.0074141621589660645,-0.013546556234359741,0.05013225972652435,-0.21720037638107226,1.824485210127029,3.03124018583605,0.9452497959136963,0.21549662947654724,0.24507968127727509
1727724649063,7i,10.361288969221679,0.9s : 0.2s,0.04253436387051878,0.013846147824098863,0.04021761181749727,0.061515857161292764,0.021023083478212357,0.016532037407159805,0.03418871387839317,-0.0010436177253723145,-0.009833350777626038,0.060715869069099426,-0.21675739134504218,1.8246438347833953,3.0312220078276852,0.9453031420707703,0.21506403386592865,0.2452535480260849
1727724649073,7i,10.361288969221679,0.9s : 0.2s,0.034972912434079934,0.014174122945901046,0.03197184453290589,0.06055017215037729,0.07383862882852554,0.022201906889677048,0.03899358958005905,-0.011675238609313965,-0.0027125775814056396,0.059351950883865356,-0.2164033170599683,1.8247104753664793,3.030652304033856,0.9453607201576233,0.21471822261810303,0.24533571302890778
1727724649083,7i,10.361288969221679,0.9s : 0.2s,0.03417578521350518,0.01448439539790435,0.03095458907685267,0.05702216615816057,0.11489937454462051,0.03799831494688988,0.03677527606487274,-0.017253220081329346,-0.0019731074571609497,0.0543135404586792,-0.21608362162300584,1.8247600702524656,3.029605821134133,0.9454149007797241,0.21440596878528595,0.2453998327255249
1727724649093,7i,10.361288969221679,0.9s : 0.2s,0.052066392114805946,0.0148428869653825,0.049905890377645847,0.06537456499502559,0.14433689415454865,0.05966046825051308,0.03915214538574219,-0.02339160442352295,-0.014899298548698425,0.05920031666755676,-0.21583574674403613,1.8249515144438266,3.0282126468689343,0.9454193115234375,0.2141638547182083,0.24559417366981506
1727724649103,7i,10.361288969221679,0.9s : 0.2s,0.0712623919643838,0.015343849424978405,0.06959091027791676,0.07120425816218878,0.15305449068546295,0.06709237396717072,0.05215929448604584,-0.015694856643676758,-0.043851807713508606,0.05385848879814148,-0.21563936711139242,1.8253290971670153,3.026627541931633,0.9453670382499695,0.2139720320701599,0.24596168100833893
1727724649113,7i,10.361288969221679,0.9s : 0.2s,0.08817612236035921,0.015930041813858258,0.0867252115726319,0.058944554173547596,0.1613883227109909,0.07665924727916718,0.06229155510663986,-0.005391597747802734,-0.04934035241603851,0.03179498016834259,-0.21536907554155285,1.825942460511292,3.0249608531705783,0.9452718496322632,0.21370799839496613,0.24655605852603912
1727724649123,7i,10.361288969221679,0.9s : 0.2s,0.09489662719182196,0.01656198578322785,0.09344019734193525,0.041229858329142215,0.13707378506660461,0.06675561517477036,0.06635010987520218,0.0034471750259399414,-0.040659815073013306,0.005898952484130859,-0.2150741116848174,1.8266378488769337,3.023362365451575,0.9451612830162048,0.2134198397397995,0.24722930788993835
1727724649133,7i,10.361288969221679,0.9s : 0.2s,0.08881370373463573,0.017234047505322873,0.08712555065908004,0.05588364163305194,0.0676550343632698,0.041785020381212234,0.06857278198003769,0.01081991195678711,-0.052763938903808594,-0.01489555835723877,-0.21460957196654923,1.8272213175659047,3.022230200659186,0.9451127052307129,0.2129659801721573,0.2478058785200119
1727724649143,7i,10.361288969221679,0.9s : 0.2s,0.07218351700912617,0.017980594877435977,0.06990821364947276,0.07415590440015857,0.00735614076256752,0.01530853658914566,0.06418079882860184,0.007508695125579834,-0.0643293708562851,-0.03611716628074646,-0.2140154432457615,1.8276520581751243,3.0217681720716123,0.9451282024383545,0.21238543093204498,0.24824507534503937
1727724649153,7i,10.361288969221679,0.9s : 0.2s,0.0580503156730763,0.018714705731986928,0.05495087750990828,0.08067280193588937,-0.024032142013311386,-0.0034861897584050894,0.061941348016262054,0.007912695407867432,-0.05125772953033447,-0.061791062355041504,-0.21336488672390327,1.8278501539551146,3.0217172451271725,0.9452123045921326,0.21174967288970947,0.2484673410654068
1727724649163,7i,10.361288969221679,0.9s : 0.2s,0.044183752924200057,0.019568934050720427,0.03961389708909376,0.09333852116222609,-0.126655712723732,-0.04235848784446716,0.054734569042921066,-0.004065871238708496,-0.06251116096973419,-0.06919467449188232,-0.21263902493845144,1.8278928054831838,3.0222694903404146,0.9453501105308533,0.2110402137041092,0.24854665994644165
1727724649173,7i,10.361288969221679,0.9s : 0.2s,0.07437438264221105,0.020515409462607763,0.071488927590163,0.08914448086637537,-0.27803540229797363,-0.10209718346595764,0.05242348089814186,0.01118612289428711,-0.0687391459941864,-0.05564655363559723,-0.21158007646266716,1.827689377772518,3.0241743434230415,0.9456161856651306,0.2100050002336502,0.24841096997261047
1727724649183,7i,10.361288969221679,0.9s : 0.2s,0.13752117312595602,0.021439030281034426,0.13583976236193898,0.06208497179836712,-0.4159453213214874,-0.14907214045524597,0.04084465280175209,0.014288008213043213,-0.022280946373939514,-0.0561600923538208,-0.21016501836921933,1.8272010466096331,3.0274800526244445,0.9460238814353943,0.2086212933063507,0.24802428483963013
1727724649193,7i,10.361288969221679,0.9s : 0.2s,0.21326104377864089,0.022164002525416313,0.21210617573660773,0.01597288208806241,-0.5428412556648254,-0.216802716255188,0.0431368350982666,0.007878363132476807,-0.01287086308002472,-0.005235001444816589,-0.2085005490423359,1.8263921105711516,3.032127779505457,0.9465587139129639,0.20699316263198853,0.24734634160995483
1727724649203,7i,10.361288969221679,0.9s : 0.2s,0.30116169543689725,0.02288742783182661,0.3002907465202173,0.056262072462971595,-0.7096675038337708,-0.2538682520389557,0.05237993225455284,-0.001763761043548584,-0.027905046939849854,0.0488223135471344,-0.20639990242705436,1.8252504375905707,3.0381438694741827,0.9472595453262329,0.20493754744529724,0.24637450277805328
1727724649213,7i,10.361288969221679,0.9s : 0.2s,0.41020466931304994,0.023919040792712752,0.4095067157126794,0.1214263481506319,-0.9625274538993835,-0.23793935775756836,0.06258543580770493,-0.03874009847640991,-0.07331620156764984,0.08870342373847961,-0.20372024052817442,1.824402795251917,3.0462362706431008,0.947996199131012,0.20231403410434723,0.2457083761692047
1727724649223,7i,10.361288969221679,0.9s : 0.2s,0.49610189551839295,0.024917612343236886,0.4954757343524046,0.11939296699078947,-1.0218521356582642,-0.16718754172325134,0.12499305605888367,-0.025463104248046875,-0.03580053150653839,0.11101636290550232,-0.2002526732736557,1.824294390792579,3.0559304897779622,0.9486960768699646,0.198916956782341,0.24578002095222473
1727724649233,7i,10.361288969221679,0.9s : 0.2s,0.5144917140192183,0.02495999664709827,0.5138859040310505,0.16411114216309788,-0.8234676718711853,-0.08489267528057098,0.11135394126176834,-0.02350461483001709,0.12938275933265686,0.0981840193271637,-0.1967281516594977,1.8248177335361793,3.0649260056866887,0.9492402672767639,0.19546164572238922,0.24645119905471802
1727724649243,7i,10.361288969221679,0.9s : 0.2s,0.45868988296283997,0.0238785940728116,0.45806792234074817,0.24038001893540156,-0.4873878061771393,-0.021051689982414246,0.07199890911579132,-0.023491322994232178,0.22218143939971924,0.08869114518165588,-0.1941669457098127,1.8255236906293355,3.0711287029049217,0.9495474100112915,0.19294920563697815,0.24724659323692322
1727724649253,7i,10.361288969221679,0.9s : 0.2s,0.3740480567780262,0.02266531344861459,0.3733607268389293,0.1625139173534354,-0.2603471875190735,0.018228070810437202,0.0694742351770401,-0.02806180715560913,0.13698559999465942,0.08281457424163818,-0.19258710118040107,1.8261842308646445,3.0745409412862093,0.9496774077415466,0.19139879941940308,0.24795040488243103
1727724649263,7i,10.361288969221679,0.9s : 0.2s,0.29757567762879483,0.02176405155971438,0.2967787222425869,0.09536069804647702,-0.16906189918518066,0.035500671714544296,0.08623660355806351,0.010361671447753906,0.04588422179222107,0.08295141160488129,-0.19131898069679423,1.8268272821766427,3.0764203661960066,0.9497517943382263,0.19015397131443024,0.24862229824066162
1727724649273,7i,10.361288969221679,0.9s : 0.2s,0.2246076966746157,0.02130837264718875,0.2235946570484293,0.08608420242153557,-0.06086379289627075,0.042159903794527054,0.1005612164735794,0.022868454456329346,-0.008026480674743652,0.08260205388069153,-0.19010829614329527,1.8273908449292662,3.0773292326842063,0.9498336911201477,0.18896524608135223,0.24921579658985138
1727724649283,7i,10.361288969221679,0.9s : 0.2s,0.15051337758711011,0.021253861850433264,0.14900520188611763,0.06807556546506281,0.079147107899189,0.05791827291250229,0.10992881655693054,-0.0072779059410095215,0.013147413730621338,0.06639623641967773,-0.1891037448212306,1.827839186526229,3.0769893853584427,0.9499049186706543,0.18797869980335236,0.2496897429227829
1727724649293,7i,10.361288969221679,0.9s : 0.2s,0.13038606742502426,0.02151898486274315,0.1285980554636811,0.04038782817646434,0.16899096965789795,0.09010816365480423,0.13362696766853333,-0.019344329833984375,0.0032703429460525513,0.03530266880989075,-0.18828513787286702,1.828324084991703,3.0753943269864195,0.9499322772026062,0.18717461824417114,0.2501894533634186
1727724649303,7i,10.361288969221679,0.9s : 0.2s,0.10369607771154098,0.02202752510409563,0.10132948569170962,0.08848966129731406,0.12012822926044464,0.1054200604557991,0.16160856187343597,-0.011330664157867432,-0.07425248622894287,0.04678252339363098,-0.18725283740377874,1.8289576130175054,3.073482096938318,0.9499599933624268,0.18616046011447906,0.250840425491333
1727724649313,7i,10.361288969221679,0.9s : 0.2s,0.10904652749746331,0.0231095628715941,0.10656966389709062,0.11793136100185557,0.018588822335004807,0.11044570803642273,0.18387924134731293,-0.014396429061889648,-0.08430883288383484,0.08119463920593262,-0.18576293735745342,1.8298432547312642,3.0723920215616447,0.9500043392181396,0.18469640612602234,0.2517523765563965
1727724649323,7i,10.361288969221679,0.9s : 0.2s,0.11921620891078459,0.024572713486528626,0.11665627380886469,0.10780486056587872,-0.03324588015675545,0.10843279957771301,0.18040227890014648,-0.03269153833389282,-0.060001492500305176,0.08338448405265808,-0.18396213348462903,1.8308698323793937,3.072003703066718,0.9500650763511658,0.18292628228664398,0.25281256437301636
1727724649333,7i,10.361288969221679,0.9s : 0.2s,0.12918045524784588,0.026091954923483346,0.1265179825412642,0.0798923677294659,-0.05719728395342827,0.09927738457918167,0.19123148918151855,-0.0352480411529541,-0.03575071692466736,0.06214702129364014,-0.18206433153143833,1.8319135744432427,3.0719828784044725,0.9501345753669739,0.18106016516685486,0.25389325618743896
1727724649343,7i,10.361288969221679,0.9s : 0.2s,0.13589268894336154,0.02753423546700454,0.13307399740559672,0.04835143058943841,0.004233318381011486,0.09580409526824951,0.2071814239025116,-0.031804680824279785,-0.032276660203933716,0.01686832308769226,-0.18005272624451096,1.8328489189503345,3.0718474376450655,0.9502464532852173,0.17908145487308502,0.25487565994262695
1727724649353,7i,10.361288969221679,0.9s : 0.2s,0.14895635536405594,0.02887501429015133,0.14613086379367798,0.05403261947745891,0.272473007440567,0.11991448700428009,0.2146819531917572,-0.05116003751754761,0.013844221830368042,-0.010512471199035645,-0.17835350873134032,1.8336079547901285,3.0699719792053277,0.9503452777862549,0.17740944027900696,0.2556755840778351
1727724649363,7i,10.361288969221679,0.9s : 0.2s,0.195042406328369,0.03013839132749747,0.19269981223278665,0.07691967804166505,0.4897129237651825,0.13681942224502563,0.1952211707830429,-0.06568747758865356,0.039169177412986755,0.00821995735168457,-0.17736601532251536,1.8341438436516528,3.065661044023621,0.9503768682479858,0.17643752694129944,0.25623032450675964
1727724649373,7i,10.361288969221679,0.9s : 0.2s,0.2733875178786477,0.03131817799771964,0.2715877513047138,0.05957163591476146,0.676717221736908,0.15730500221252441,0.2019517719745636,-0.03537029027938843,0.040873318910598755,0.025041848421096802,-0.17696789673670435,1.8345190129107043,3.059376646120657,0.9503484964370728,0.17604564130306244,0.2566051483154297
1727724649383,7i,10.361288969221679,0.9s : 0.2s,0.36714928301187877,0.03243356636774149,0.3657139042869521,0.1037357397694416,0.8581588864326477,0.18379385769367218,0.18118391931056976,-0.024357259273529053,0.059270039200782776,0.08157750964164734,-0.1771283513564382,1.8348138528185325,3.051350582697311,0.9502452611923218,0.17620357871055603,0.2568778991699219
1727724649393,7i,10.361288969221679,0.9s : 0.2s,0.4506296900048137,0.033819842539863795,0.44935880514841736,0.1520954250842948,0.9308387041091919,0.21379463374614716,0.16973312199115753,-0.036743998527526855,0.06403931975364685,0.13297316431999207,-0.1778017813721994,1.8352115711335284,3.0420346922596746,0.9500282406806946,0.17686644196510315,0.2572247385978699
1727724649403,7i,10.361288969221679,0.9s : 0.2s,0.5109872687723307,0.03537568225673014,0.5097612676069819,0.1313804543485013,0.929279088973999,0.21809829771518707,0.1839844286441803,-0.01650625467300415,0.045717790722846985,0.12205839157104492,-0.17854165670710953,1.8356863753315629,3.0323777977076585,0.9497796297073364,0.1775946021080017,0.2576414942741394
1727724649413,7i,10.361288969221679,0.9s : 0.2s,0.5393259298856011,0.03701324783095334,0.5380543449615222,0.11410653332614855,0.8576089143753052,0.20795005559921265,0.18038596212863922,-0.018487095832824707,0.03938870131969452,0.10548487305641174,-0.179143044982613,1.8361844256388644,3.0231094252083492,0.949548065662384,0.17818640172481537,0.2580864727497101
1727724649423,7i,10.361288969221679,0.9s : 0.2s,0.5428269202811346,0.03847316338737333,0.5414618002046586,0.043073667137377925,0.7843016982078552,0.16687248647212982,0.2148006707429886,-0.012652218341827393,-0.006407424807548523,0.0406719446182251,-0.1794112283465955,1.8365606107601646,3.0145939240687905,0.9494045972824097,0.17845028638839722,0.2584310472011566
1727724649433,7i,10.361288969221679,0.9s : 0.2s,0.5331382739948091,0.03897918125180743,0.5317114279636116,0.15289275502999727,0.7012355327606201,0.1083545908331871,0.2896274924278259,0.05676394701004028,-0.09913007915019989,-0.10162320733070374,-0.1789719233648009,1.836514048725315,3.006586872166138,0.9494920969009399,0.1780180186033249,0.2584074139595032
1727724649443,7i,10.361288969221679,0.9s : 0.2s,0.5052121405600007,0.03859616335713734,0.5037356877801364,0.23236925630443503,0.5661684274673462,0.09366632252931595,0.3479933738708496,0.08803313970565796,-0.15522713959217072,-0.14882934093475342,-0.1775048589890198,1.836260675585805,2.999529295584862,0.9498087167739868,0.17657418549060822,0.2582350969314575
1727724649453,7i,10.361288969221679,0.9s : 0.2s,0.4814107565334905,0.03771093527480775,0.47993145538383597,0.1136429765518999,0.5366171598434448,0.13342411816120148,0.32248055934906006,0.04024893045425415,-0.01223553717136383,-0.10557007789611816,-0.17564338021909678,1.8362661236785145,2.9933080687561473,0.9501227736473083,0.17474165558815002,0.25832605361938477
1727724649463,7i,10.361288969221679,0.9s : 0.2s,0.48184367834477526,0.03636803821915236,0.48046924579718264,0.12633143378327694,0.6394578218460083,0.18774977326393127,0.28460049629211426,0.019149363040924072,0.08919870853424072,-0.08738720417022705,-0.1742550869976343,1.8367672590119728,2.9867911425241194,0.9502263069152832,0.17337454855442047,0.2588656544685364
1727724649473,7i,10.361288969221679,0.9s : 0.2s,0.5000212236690765,0.03502066450992408,0.4987933211028432,0.08105754402862188,0.7240188121795654,0.24204790592193604,0.27185195684432983,0.035353004932403564,0.0671568363904953,-0.028468400239944458,-0.17339579640479072,1.837668670059225,2.9792538898657135,0.9501358866691589,0.1725282073020935,0.2597612738609314
1727724649483,7i,10.361288969221679,0.9s : 0.2s,0.4733266493527874,0.03389146371397523,0.47211173007547785,0.06181205407944215,0.5106291174888611,0.2364356815814972,0.2540440261363983,0.026966750621795654,-0.022646024823188782,0.05080041289329529,-0.17253331873509878,1.8389450804923342,2.9723083194326216,0.9499465823173523,0.1716786026954651,0.26101312041282654
1727724649493,7i,10.361288969221679,0.9s : 0.2s,0.3935557016931631,0.03334595117400834,0.392140456820638,0.09464370072876746,0.18728169798851013,0.1531413197517395,0.2408837378025055,0.039870381355285645,-0.08026404678821564,0.030421465635299683,-0.17106293212392604,1.8402009215305435,2.968286423007906,0.9498604536056519,0.17022986710071564,0.26227283477783203
1727724649503,7i,10.361288969221679,0.9s : 0.2s,0.295342970206738,0.032872632481397705,0.2935078535308401,0.06529297197452143,-0.05054324492812157,0.07899346202611923,0.21430642902851105,0.019279956817626953,-0.056820496916770935,-0.025746583938598633,-0.16904414326770262,1.8411978009350802,2.9670584713187647,0.9499278664588928,0.16824018955230713,0.26331087946891785
1727724649513,7i,10.361288969221679,0.9s : 0.2s,0.20916100837593196,0.03244477285367806,0.20662929158110646,0.03684614331508846,-0.1951478272676468,0.022364802658557892,0.1911105513572693,0.00020885467529296875,-0.021114766597747803,-0.030195385217666626,-0.16673797849931096,1.8418049556386173,2.967738932686164,0.9501389861106873,0.1659664511680603,0.26399073004722595
1727724649523,7i,10.361288969221679,0.9s : 0.2s,0.1792031754223533,0.03198973690039578,0.17632479920447436,0.05189527160058779,-0.2313724160194397,0.002383727813139558,0.1618800312280655,-0.00783628225326538,0.0360705703496933,-0.036477744579315186,-0.1644376058838783,1.842191329045955,2.969438894403305,0.9504024386405945,0.16369755566120148,0.2644595205783844
1727724649533,7i,10.361288969221679,0.9s : 0.2s,0.1473221600575694,0.031081475288711254,0.14400611354350665,0.11940575976435536,-0.12712642550468445,0.028078438714146614,0.14604727923870087,-0.014605402946472168,0.10315024852752686,-0.058347612619400024,-0.1624714265543578,1.8425707685659967,2.9708371123831574,0.9506099820137024,0.16175757348537445,0.2649059593677521
1727724649543,7i,10.361288969221679,0.9s : 0.2s,0.13124315608309903,0.029985817695612142,0.12777173692087856,0.0929381230930914,-0.04250555485486984,0.030842533335089684,0.13788868486881256,-0.01539832353591919,0.07606483995914459,-0.0511324405670166,-0.16091101519410858,1.8429676115511309,2.9712014837246965,0.9507468938827515,0.1602175235748291,0.26535072922706604
1727724649553,7i,10.361288969221679,0.9s : 0.2s,0.11688830670419384,0.028887129401033284,0.11326257104243062,0.06589762172721805,-0.044578295201063156,0.021511083468794823,0.11851630359888077,-0.0010553598403930664,0.05414019525051117,-0.03755292296409607,-0.159564021431647,1.8432287292165839,2.9712320216505788,0.9508846402168274,0.15888778865337372,0.26565682888031006
1727724649563,7i,10.361288969221679,0.9s : 0.2s,0.11241341307883108,0.02779719638386116,0.10892240960072894,0.06028303454652379,-0.09798506647348404,-0.007160509005188942,0.11056304723024368,-0.0019899606704711914,0.04593630135059357,-0.038986414670944214,-0.15827597800450746,1.8433786709222453,2.971623177441209,0.9510409832000732,0.15761597454547882,0.26585426926612854
1727724649573,7i,10.361288969221679,0.9s : 0.2s,0.10773800515815282,0.02671316122835152,0.10437377435278587,0.0589507436610786,-0.15305602550506592,-0.030935347080230713,0.10064516961574554,0.002862989902496338,0.04063735902309418,-0.042609840631484985,-0.1569050601824207,1.8433573295364203,2.9725321945366656,0.9512538313865662,0.15626204013824463,0.2658918499946594
1727724649583,7i,10.361288969221679,0.9s : 0.2s,0.11249283286179906,0.025667906575785673,0.10952532135213938,0.05186818228215004,-0.24647372961044312,-0.06933480501174927,0.09176761656999588,-0.010215580463409424,0.02478611469268799,-0.04440268874168396,-0.15549676830826997,1.843110925407331,2.974241968398277,0.951530396938324,0.1548708975315094,0.26571640372276306
1727724649593,7i,10.361288969221679,0.9s : 0.2s,0.13607689399910836,0.02462197111584811,0.1338307872606857,0.06681546056259127,-0.30963724851608276,-0.10670827329158783,0.0742323026061058,0.0010124444961547852,0.022203370928764343,-0.06301024556159973,-0.1539255771443564,1.8426010566053863,2.976741640518157,0.9518988728523254,0.15331846475601196,0.26529619097709656
1727724649603,7i,10.361288969221679,0.9s : 0.2s,0.1634582246183436,0.023579138308779342,0.1617486180219056,0.07614485317306334,-0.3362716734409332,-0.10838006436824799,0.06178032606840134,-0.009901165962219238,0.057812780141830444,-0.04855602979660034,-0.15238628280169794,1.8420016423822445,2.979758451316831,0.9522838592529297,0.15179719030857086,0.2647884488105774
1727724649613,7i,10.361288969221679,0.9s : 0.2s,0.17391443241971838,0.02251786617565392,0.17245050161355904,0.11022897130097635,-0.28371044993400574,-0.11128051578998566,0.029140891507267952,-0.01276940107345581,0.10742895305156708,-0.021127909421920776,-0.15109516021306021,1.8413295850469877,2.9827033893637545,0.9526498913764954,0.1505209058523178,0.2642005980014801
1727724649623,7i,10.361288969221679,0.9s : 0.2s,0.16808251455675863,0.021547750836739533,0.16669560922112125,0.08868773572656526,-0.20873181521892548,-0.08502308279275894,0.004352121613919735,-0.01473921537399292,0.0868285596370697,-0.010443717241287231,-0.15027817330756194,1.8407315652818994,2.9849955727222315,0.9529258608818054,0.1497131735086441,0.26366353034973145
1727724649633,7i,10.361288969221679,0.9s : 0.2s,0.15747569885003831,0.02092110792264189,0.15607979680790568,0.036049082737571375,-0.17883384227752686,-0.0958741307258606,-0.0007156073115766048,0.0009108781814575195,0.022160202264785767,0.02841886878013611,-0.14977054162482606,1.8401194999610866,2.9868821585546277,0.9531601667404175,0.14921124279499054,0.26310041546821594
1727724649643,7i,10.361288969221679,0.9s : 0.2s,0.14873954869178754,0.020443285933951245,0.14732795188035214,0.04095770883802216,-0.15835745632648468,-0.11299563944339752,-0.01619686186313629,0.005958080291748047,0.012830257415771484,0.038437217473983765,-0.14949968777244957,1.8392669357605176,2.9885013800632763,0.9534229040145874,0.14894342422485352,0.2622983753681183
1727724649653,7i,10.361288969221679,0.9s : 0.2s,0.14808618037437965,0.02007189551847874,0.14671958229278248,0.03350619161176794,-0.1790158599615097,-0.12204665690660477,-0.016288209706544876,0.009719431400299072,0.01671360433101654,0.027365177869796753,-0.14933767040668267,1.838278050134029,2.9901536361243406,0.9537052512168884,0.14878320693969727,0.26136183738708496
1727724649663,7i,10.361288969221679,0.9s : 0.2s,0.14816868410372036,0.019809802422299228,0.14683845094871284,0.018765954864384374,-0.18648509681224823,-0.12474759668111801,-0.007192747667431831,0.010462403297424316,-0.003296375274658203,0.01522606611251831,-0.14908112820408284,1.8371725278552196,2.991963569197868,0.9540302753448486,0.148529514670372,0.260317325592041
1727724649673,7i,10.361288969221679,0.9s : 0.2s,0.15402855275165547,0.019646394334002573,0.15277046263084493,0.03250063060366846,-0.22979635000228882,-0.10915505141019821,-0.010181080549955368,0.002080857753753662,-0.004577189683914185,0.032109349966049194,-0.14870988743935812,1.836126445069741,2.9939510775440414,0.9543552398681641,0.148162379860878,0.25933364033699036
1727724649683,7i,10.361288969221679,0.9s : 0.2s,0.18059687438068037,0.019757023005229187,0.1795129273284854,0.06418722449631362,-0.34926414489746094,-0.10260225087404251,-0.010315105319023132,-0.0031502246856689453,-0.020051807165145874,0.060893356800079346,-0.14823387048864903,1.8353976086673989,2.996720597057971,0.9546122550964355,0.14769160747528076,0.25865650177001953
1727724649693,7i,10.361288969221679,0.9s : 0.2s,0.2205464963879565,0.01996737811807962,0.21964075414205933,0.04778090081501616,-0.4591358006000519,-0.10283421725034714,-0.02100956067442894,-0.0019382238388061523,-0.007305115461349487,0.04717937111854553,-0.14764196805423374,1.8349223414688483,3.0007231314693867,0.9548192620277405,0.14710617065429688,0.25822553038597107
1727724649703,7i,10.361288969221679,0.9s : 0.2s,0.24366379859083917,0.02019675346704187,0.24282532382992628,0.01859548622901211,-0.4298473000526428,-0.10661390423774719,-0.02116319164633751,-0.00854504108428955,0.01153324544429779,0.011821955442428589,-0.14698494439269041,1.8345153432447345,3.0052063694390996,0.9550171494483948,0.1464562565088272,0.25786200165748596
1727724649713,7i,10.361288969221679,0.9s : 0.2s,0.25634475208270924,0.020422210488339206,0.2555299693560731,0.022148458122376785,-0.4082930088043213,-0.11682366579771042,-0.016430223360657692,0.00021415948867797852,-0.02178497612476349,0.003990381956100464,-0.1460832896566234,1.8340042999803912,3.0093248330420015,0.9552759528160095,0.1455642729997635,0.25740817189216614
1727724649723,7i,10.361288969221679,0.9s : 0.2s,0.27768153493824344,0.020734125173488025,0.2769063576354812,0.06370160328137206,-0.4744128882884979,-0.11123590916395187,-0.011785602197051048,-0.0009586811065673828,-0.05897529423236847,0.02406013011932373,-0.14507014543247246,1.8334964094711423,3.013608600521275,0.9555485248565674,0.14456184208393097,0.2569611370563507
1727724649733,7i,10.361288969221679,0.9s : 0.2s,0.30244282001933814,0.02125509264957064,0.3016950122519561,0.07290039812316244,-0.5289384722709656,-0.09255623072385788,-0.016340672969818115,-0.010569930076599121,-0.05713340640068054,0.04402860999107361,-0.14390273208764112,1.8331849093443038,3.018576478707466,0.9557908177375793,0.14340658485889435,0.2567070424556732
1727724649743,7i,10.361288969221679,0.9s : 0.2s,0.3178327573932891,0.021804746164625896,0.31708392377557965,0.04855718143841346,-0.5179898142814636,-0.09139753878116608,-0.026986094191670418,2.1278858184814453e-05,-0.03301028907299042,0.03561067581176758,-0.1427475168881065,1.8330392043079793,3.023819297115243,0.9559876918792725,0.14226321876049042,0.25661057233810425
1727724649753,7i,10.361288969221679,0.9s : 0.2s,0.2975067104037152,0.022273842883194603,0.29667173552338083,0.014052688215713425,-0.3635014295578003,-0.07391867786645889,-0.011871322989463806,0.008875072002410889,0.010308593511581421,-0.003527611494064331,-0.1417772602241821,1.8328577925485408,3.028211751108048,0.9561671614646912,0.14130276441574097,0.2564728260040283
1727724649763,7i,10.361288969221679,0.9s : 0.2s,0.2611756885702318,0.022695594883454084,0.2601877212187786,0.024914371425170764,-0.25102880597114563,-0.07019118219614029,-0.020590879023075104,-0.0024052858352661133,0.024665430188179016,-0.0025606751441955566,-0.14116238603060421,1.8325730945743737,3.0311626241624143,0.9563236236572266,0.1406940370798111,0.2562229633331299
1727724649773,7i,10.361288969221679,0.9s : 0.2s,0.22156341166155774,0.023047949354719207,0.22036137914265103,0.015628431358852956,-0.1789032220840454,-0.06488882750272751,-0.02111898362636566,0.010930776596069336,-0.0024772435426712036,-0.010891705751419067,-0.1408360228946888,1.8322093371798365,3.033392897479705,0.9564611315727234,0.1403709053993225,0.2558869421482086
1727724649783,7i,10.361288969221679,0.9s : 0.2s,0.18384532206547213,0.023325058731884486,0.18235965584665736,0.033290956913711596,-0.1279568076133728,-0.05417852848768234,-0.03435106202960014,0.03255808353424072,-0.006884589791297913,-0.0009281337261199951,-0.14067947927470315,1.8318369285908132,3.0348865515737113,0.9565778374671936,0.1402159184217453,0.2555364668369293
1727724649793,7i,10.361288969221679,0.9s : 0.2s,0.17238399356314177,0.023601138995427946,0.17076073165366734,0.04103190218353922,-0.2013479471206665,-0.060742687433958054,-0.04816248267889023,0.022438228130340576,-0.023393824696540833,0.02515694499015808,-0.14067867274289372,1.8315256624956833,3.036504239396576,0.9566572308540344,0.14021511375904083,0.25523868203163147
1727724649803,7i,10.361288969221679,0.9s : 0.2s,0.20116933198629558,0.023836691606518568,0.1997521270601846,0.07832716541252305,-0.383627325296402,-0.08795659989118576,-0.0653703361749649,0.03409874439239502,-0.06887654960155487,0.015114277601242065,-0.1404899689032447,1.8312180842580867,3.039508710641033,0.9567611813545227,0.14002826809883118,0.25495120882987976
1727724649813,7i,10.361288969221679,0.9s : 0.2s,0.25065245500014016,0.023982229304942884,0.249502516771199,0.08412693815466474,-0.5301682949066162,-0.11056070774793625,-0.06290371716022491,0.03096717596054077,-0.07772493362426758,-0.008786946535110474,-0.13993346905230522,1.8309003447286671,3.0441618836414377,0.9569172859191895,0.13947723805904388,0.254667192697525
1727724649823,7i,10.361288969221679,0.9s : 0.2s,0.2983607421083643,0.02408471996567625,0.29738705199727306,0.08319639971570787,-0.5958078503608704,-0.12781918048858643,-0.037575554102659225,0.010148048400878906,-0.07590726017951965,-0.032507628202438354,-0.13896088997941172,1.8304902920408106,3.0498424351317506,0.9571525454521179,0.13851410150527954,0.2543095648288727
1727724649833,7i,10.361288969221679,0.9s : 0.2s,0.3277968991097792,0.024187279408841734,0.32690332298828867,0.07122166486640587,-0.5749204158782959,-0.13463741540908813,-0.017228204756975174,-0.014624059200286865,-0.04249894618988037,-0.05524945259094238,-0.13769069178218296,1.8299877105021354,3.055680440729372,0.9574494361877441,0.13725602626800537,0.253873348236084
1727724649843,7i,10.361288969221679,0.9s : 0.2s,0.3287584927094425,0.024265438769230634,0.3278617620429703,0.06517960499083152,-0.48971912264823914,-0.11007628589868546,-0.010811351239681244,-0.03345334529876709,0.016404062509536743,-0.05348047614097595,-0.1364389186447614,1.8294968355156003,3.0609183085521448,0.9577393531799316,0.13601599633693695,0.25344711542129517
1727724649853,7i,10.361288969221679,0.9s : 0.2s,0.3034318344127065,0.024326640293859923,0.3024551085815435,0.06843908118767056,-0.34837132692337036,-0.10065082460641861,-0.014356018975377083,-0.03768354654312134,0.05377700924873352,-0.019284486770629883,-0.13547983714006318,1.829014992497661,3.065098092970294,0.9579869508743286,0.13506576418876648,0.2530187666416168
1727724649863,7i,10.361288969221679,0.9s : 0.2s,0.2549121797814108,0.024366692155982687,0.253744918597961,0.04833016409868748,-0.1938491314649582,-0.08306623995304108,-0.01062246598303318,-0.022577285766601562,0.04028409719467163,-0.01425701379776001,-0.13491426575624382,1.8284615430620927,3.067745403682787,0.9582006931304932,0.13450536131858826,0.2525080144405365
1727724649873,7i,10.361288969221679,0.9s : 0.2s,0.20704813364113436,0.024420948591362738,0.20560288644417196,0.02725452702148253,-0.12515397369861603,-0.06655250489711761,-0.008111106231808662,-0.004498541355133057,0.0228232741355896,0.014201074838638306,-0.13461110982702937,1.8279406962210367,3.0692498235443075,0.9583713412284851,0.1342049539089203,0.2520192265510559
1727724649883,7i,10.361288969221679,0.9s : 0.2s,0.17488147439765195,0.024512816125303486,0.17315499395946873,0.033718743425229444,-0.13271653652191162,-0.059397391974925995,-0.01584865339100361,0.012974262237548828,-0.0002770274877548218,0.03112146258354187,-0.1344093752811237,1.8275053316542498,3.070511842432976,0.9585070610046387,0.13400503993034363,0.25160878896713257
1727724649893,7i,10.361288969221679,0.9s : 0.2s,0.16425171690827614,0.024633539594608934,0.1623940123106678,0.041631181795639335,-0.19804681837558746,-0.04882996901869774,-0.021661534905433655,0.025728225708007812,-0.007630795240402222,0.0318274199962616,-0.13417744051784186,1.8271904325546142,3.0721443442308964,0.9586162567138672,0.13377518951892853,0.25131481885910034
1727724649903,7i,10.361288969221679,0.9s : 0.2s,0.17165005878568557,0.02477935306131816,0.16985207194200444,0.047205310140773976,-0.2766139507293701,-0.04364670440554619,-0.029139257967472076,0.027599751949310303,0.004363745450973511,0.03804671764373779,-0.13380678580271327,1.8270566380027151,3.0745680988670943,0.9586978554725647,0.133407860994339,0.2511991262435913
1727724649913,7i,10.361288969221679,0.9s : 0.2s,0.18495880529985545,0.02487371349105025,0.18327863496631291,0.04766556917067063,-0.31430619955062866,-0.04481822997331619,-0.0513705275952816,0.021936893463134766,0.03027944266796112,0.029562383890151978,-0.13343096493282397,1.8270596872322507,3.077557052295515,0.9587456583976746,0.13303539156913757,0.25121477246284485
1727724649923,7i,10.361288969221679,0.9s : 0.2s,0.1857890650535558,0.02465013059726509,0.18414653880812465,0.07221729650129152,-0.2689249813556671,-0.07298386096954346,-0.08049728721380234,0.010107278823852539,0.07139162719249725,-0.004051715135574341,-0.13330272355792455,1.8269269079789325,3.0806731700740015,0.9587951898574829,0.13290828466415405,0.25109171867370605
1727724649933,7i,10.361288969221679,0.9s : 0.2s,0.18021431693667572,0.023920512348301944,0.17861973328260053,0.11976101187648,-0.19073031842708588,-0.09649797528982162,-0.12490496784448624,-0.0037015676498413086,0.10907894372940063,-0.04930296540260315,-0.13372031835997064,1.8264098029455311,3.083138929704564,0.9588711261749268,0.13332216441631317,0.250581830739975
1727724649943,7i,10.361288969221679,0.9s : 0.2s,0.17846855319448213,0.023073830934076365,0.17697068346298872,0.07870323295122866,-0.18403072655200958,-0.13656571507453918,-0.15428093075752258,-0.010942041873931885,0.050910189747810364,-0.05901375412940979,-0.13463102966142876,1.8255412514280143,3.0852803555236767,0.9589705467224121,0.13422468304634094,0.24971820414066315
1727724649953,7i,10.361288969221679,0.9s : 0.2s,0.20510582877377656,0.022388231077341388,0.20388027885552176,0.06762424129224112,-0.3449471890926361,-0.161814883351326,-0.12431184947490692,-0.0028162002563476562,-0.06718266010284424,-0.0071831196546554565,-0.13539067887017442,1.8244420691528926,3.088050077809377,0.9591454267501831,0.13497743010520935,0.2486383020877838
1727724649963,7i,10.361288969221679,0.9s : 0.2s,0.2741814763704339,0.02266017315767122,0.27324347848967073,0.18745462463899448,-0.6169230341911316,-0.207010418176651,-0.06063779443502426,-0.005731403827667236,-0.18271903693675995,0.04147458076477051,-0.13509492021593955,1.8232414207807406,3.093063975687014,0.9594820141792297,0.13468436896800995,0.24749653041362762
1727724649973,7i,10.361288969221679,0.9s : 0.2s,0.3763958466808897,0.023824334865823568,0.3756410979469964,0.23742243648122488,-0.9014131426811218,-0.2249622642993927,0.04299885034561157,-0.01619631052017212,-0.2348490059375763,0.030871301889419556,-0.13326865761966905,1.8220474960704853,3.1005384461673313,0.9600136280059814,0.1328745186328888,0.24641157686710358
1727724649983,7i,10.361288969221679,0.9s : 0.2s,0.4632508099273712,0.025776026442517353,0.46253314406559026,0.2080611226544713,-0.9739267230033875,-0.20812983810901642,0.13391578197479248,-0.03482222557067871,-0.20025570690631866,0.0444352924823761,-0.1300193121559895,1.8210804627777328,3.109839685262807,0.960664689540863,0.12965328991413116,0.2455887347459793
1727724649993,7i,10.361288969221679,0.9s : 0.2s,0.45871219961249626,0.027244517607532766,0.45790241136476606,0.09324467921769132,-0.6430361270904541,-0.09500407427549362,0.12211956828832626,-0.04302704334259033,0.08241219818592072,0.007174491882324219,-0.12657418084490613,1.8206004832115656,3.1175563332324057,0.9612094759941101,0.12623648345470428,0.2452365607023239
1727724650003,7i,10.361288969221679,0.9s : 0.2s,0.3537878243541437,0.02785986001021362,0.35268917315598125,0.2638060191351351,-0.16218961775302887,0.007143506780266762,0.05628223344683647,-0.0922498106956482,0.24054010212421417,0.05678069591522217,-0.12475825378042603,1.8206373657715342,3.1211543775741575,0.961421012878418,0.12443486601114273,0.24532829225063324
1727724650013,7i,10.361288969221679,0.9s : 0.2s,0.21636810767991269,0.028436702517357665,0.21449128646853138,0.14111810456277774,0.15802913904190063,0.055004771798849106,0.04154136776924133,-0.035509347915649414,0.10548680275678635,0.08675217628479004,-0.12431002776404704,1.820952950908342,3.1210046048224647,0.9613974094390869,0.12399011850357056,0.2456454634666443
1727724650023,7i,10.361288969221679,0.9s : 0.2s,0.17408771176320745,0.029249974636867317,0.17161285024931033,0.10391094187357242,0.30965927243232727,0.13316112756729126,0.040730271488428116,0.009793400764465332,-0.0019114166498184204,0.10343074798583984,-0.12454761465331536,1.8215789050249285,3.1184344456506543,0.9612149000167847,0.12422586232423782,0.24623988568782806
1727724650033,7i,10.361288969221679,0.9s : 0.2s,0.09771180085129967,0.03097252479313993,0.09267307447982062,0.19786920427065605,0.14372090995311737,0.14488942921161652,0.03996274620294571,0.006989657878875732,-0.11539879441261292,0.16058170795440674,-0.12473997198771587,1.8227370589949978,3.115974807375731,0.9609058499336243,0.12441673129796982,0.24734698235988617
1727724650043,7i,10.361288969221679,0.9s : 0.2s,0.09195242878689061,0.03289749087158649,0.08586619971887699,0.12767694194194126,-0.009175831452012062,0.1242804229259491,0.029684709385037422,0.0033797025680541992,-0.09064065665006638,0.0898568332195282,-0.12456234950796012,1.82401807783136,3.115270463614928,0.960609495639801,0.12424048781394958,0.24858322739601135
1727724650053,7i,10.361288969221679,0.9s : 0.2s,0.11006884177525651,0.03479110287284344,0.10442571086967846,0.07633979995945314,-0.1990051418542862,0.10444892942905426,0.029580047354102135,-0.01664566993713379,-0.06673921644687653,0.03311440348625183,-0.124048669916631,1.825283096517197,3.116190581496119,0.9603559374809265,0.12373077124357224,0.2498142570257187
1727724650063,7i,10.361288969221679,0.9s : 0.2s,0.13555264588487678,0.036559392699667105,0.13052942431429906,0.05877300087896594,-0.26259106397628784,0.11052538454532623,0.03271858021616936,-0.037857770919799805,-0.024785257875919342,0.03750661015510559,-0.1231031523145396,1.8266373523691455,3.1184974760209805,0.9601296186447144,0.12279246002435684,0.2511441111564636
1727724650073,7i,10.361288969221679,0.9s : 0.2s,0.1486769312097229,0.03823313474638672,0.14367691979370004,0.09109121291200588,-0.2334350347518921,0.12245767563581467,0.001511660753749311,-0.07008242607116699,0.048361971974372864,0.032360196113586426,-0.12230710024445172,1.8281100872312908,3.120835947502967,0.9598529934883118,0.12200239300727844,0.2525826692581177
1727724650083,7i,10.361288969221679,0.9s : 0.2s,0.15919914458182186,0.03980501788871978,0.15414255799895923,0.07964891330908305,-0.23698222637176514,0.12544764578342438,-0.004023686051368713,-0.04364967346191406,0.05258602648973465,0.04090678691864014,-0.12175631915740438,1.8296486596252168,3.123048975805511,0.9595279693603516,0.12145571410655975,0.2540763318538666
1727724650093,7i,10.361288969221679,0.9s : 0.2s,0.18218192569265115,0.041250847701561365,0.17745033562376053,0.04707802531410532,-0.336698442697525,0.09330249577760696,-0.015400975942611694,-0.011274099349975586,0.01298387348651886,0.04382526874542236,-0.1211316998532523,1.8311192188793108,3.125856647144442,0.9592263698577881,0.12083569169044495,0.2555065453052521
1727724650103,7i,10.361288969221679,0.9s : 0.2s,0.20590393421997172,0.04262458946576953,0.20144372539281796,0.04428078471210905,-0.3793647885322571,0.07714922726154327,-0.003268979489803314,7.700920104980469e-05,-0.023473836481571198,0.037546783685684204,-0.12026009645350906,1.8324030267924494,3.1294589347511272,0.9589990377426147,0.1199704259634018,0.2567649781703949
1727724650113,7i,10.361288969221679,0.9s : 0.2s,0.20694097067122724,0.043919570543795215,0.20222669622381298,0.03950884089556381,-0.30544397234916687,0.0681472048163414,-0.006982758175581694,-0.012411236763000488,-0.0024913549423217773,0.03742596507072449,-0.11939774323015837,1.8335354468923168,3.1328595526683984,0.9588070511817932,0.11911425739526749,0.25787752866744995
1727724650123,7i,10.361288969221679,0.9s : 0.2s,0.17270594824441324,0.045097121617735686,0.16671410912336454,0.0451784945370512,-0.10976143181324005,0.06647992879152298,-0.004826229531317949,-0.0030286312103271484,0.03845791518688202,0.023514091968536377,-0.11891131122445772,1.8344544442763429,3.134967791620324,0.9586253762245178,0.1186312735080719,0.2587735950946808
1727724650133,7i,10.361288969221679,0.9s : 0.2s,0.11036690724808816,0.046058570008202536,0.10029687105940842,0.07986933276726832,0.12223638594150543,0.06865573674440384,-0.018911689519882202,0.01162564754486084,0.07589725404977798,0.021990031003952026,-0.11900930668655688,1.8351402193766913,3.1349546872382548,0.9584366083145142,0.11872857809066772,0.259427934885025
1727724650143,7i,10.361288969221679,0.9s : 0.2s,0.07597923938802051,0.04680447285676517,0.059851367056922414,0.10037623368853915,0.3495900630950928,0.10939894616603851,-0.023917198181152344,-0.002544581890106201,0.08570802956819534,0.05218282341957092,-0.11987058715309584,1.8357778991565992,3.132658781681047,0.9581721425056458,0.11958372592926025,0.26001226902008057
1727724650153,7i,10.361288969221679,0.9s : 0.2s,0.14797195255628545,0.047537940010455255,0.14012795225393807,0.09590870934701538,0.5698947310447693,0.13712137937545776,-0.007969925180077553,0.008525371551513672,0.06651389598846436,0.06856894493103027,-0.12122173222630049,1.8364932539888466,3.128280714187256,0.9578289985656738,0.12092506140470505,0.26065492630004883
1727724650163,7i,10.361288969221679,0.9s : 0.2s,0.26935149917805745,0.048233584416464546,0.26499764422312677,0.10207579419821446,0.829747200012207,0.16075503826141357,-0.0019239168614149094,-0.01148456335067749,0.08588806539773941,0.05395194888114929,-0.12310179625471954,1.8371447239341758,3.121524617587538,0.9574378728866577,0.1227911189198494,0.26121851801872253
1727724650173,7i,10.361288969221679,0.9s : 0.2s,0.42117625667061537,0.04886504754903617,0.4183319809805396,0.11206697241933924,1.1465896368026733,0.18897148966789246,0.014716845005750656,-0.04662942886352539,0.09743055701255798,0.029866188764572144,-0.1256321866551127,1.8377807808039839,3.111914858496548,0.9569687843322754,0.12530195713043213,0.2617446482181549
1727724650183,7i,10.361288969221679,0.9s : 0.2s,0.6092487026873674,0.0492260455806645,0.6072567646084566,0.11729184824180096,1.5508531332015991,0.20798805356025696,0.04954732954502106,-0.03741568326950073,0.11033587157726288,-0.0135439932346344,-0.12891246424882077,1.8381019240139773,3.0987118758030063,0.956483006477356,0.12855570018291473,0.26194196939468384
1727724650193,7i,10.361288969221679,0.9s : 0.2s,0.7775555611984835,0.04946079373481022,0.7759808506875739,0.07732403112475619,1.7304279804229736,0.2051701843738556,0.10354878008365631,0.002512514591217041,0.04128527641296387,-0.0653316080570221,-0.13257993834836293,1.838073626595784,3.0823270712529047,0.9560293555259705,0.13219188153743744,0.26178863644599915
1727724650203,7i,10.361288969221679,0.9s : 0.2s,0.8831482140135671,0.04899484893251917,0.8817881109957386,0.1790026821729318,1.6649936437606812,0.17875126004219055,0.20033763349056244,0.07969367504119873,-0.12250785529613495,-0.10335716605186462,-0.1356493295614234,1.8376768450387055,3.0652925024475,0.9557374119758606,0.13523370027542114,0.26130110025405884
1727724650213,7i,10.361288969221679,0.9s : 0.2s,0.875626625253967,0.04823792193318563,0.8742969116617185,0.21829118434070158,1.2484967708587646,0.15462595224380493,0.22162002325057983,0.07618564367294312,-0.18580816686153412,-0.0855693519115448,-0.13744288498143575,1.8373651203617756,3.0503824676563025,0.9555833339691162,0.13701055943965912,0.2609388530254364
1727724650223,7i,10.361288969221679,0.9s : 0.2s,0.8009878820118548,0.04746019333423116,0.7995805882952102,0.1603397034948276,0.9091620445251465,0.0887516438961029,0.2170117348432541,0.07149821519851685,-0.1331460326910019,-0.053562670946121216,-0.13802414460974008,1.8370582813328729,3.0396668786985273,0.9555860161781311,0.1375863254070282,0.26062455773353577
1727724650233,7i,10.361288969221679,0.9s : 0.2s,0.7213718011878867,0.04658431951530434,0.7198660824933705,0.12088224139812187,0.7696763277053833,0.08248575776815414,0.20611034333705902,0.05723625421524048,-0.06408636271953583,-0.08502626419067383,-0.13811822470573007,1.8368543026572568,3.0309130331537335,0.9556269645690918,0.13767950236797333,0.26042628288269043
1727724650243,7i,10.361288969221679,0.9s : 0.2s,0.6273590376509232,0.045882975561572635,0.625678922991584,0.10107830840225607,0.580899178981781,0.042266249656677246,0.18386894464492798,0.022565782070159912,-0.09564132988452911,-0.023671627044677734,-0.13801018159968462,1.8365477943053397,3.023851515999109,0.9557210206985474,0.1375724971294403,0.26013725996017456
1727724650253,7i,10.361288969221679,0.9s : 0.2s,0.5429644164491395,0.04527295577879304,0.5410736705893255,0.08753116769263514,0.4946995675563812,0.030962465330958366,0.13573017716407776,0.01877814531326294,-0.0658441036939621,-0.054531097412109375,-0.1378747568558111,1.8361341088424525,3.0182916852255195,0.9558465480804443,0.1374383568763733,0.2597467601299286
1727724650263,7i,10.361288969221679,0.9s : 0.2s,0.4899801719506526,0.04470411941073981,0.48793658462191725,0.08266609281943509,0.5336124897003174,0.022055210545659065,0.09890756011009216,-0.005926549434661865,-0.033452972769737244,-0.0753621757030487,-0.1380937482019895,1.8356663822034935,3.0130442508742052,0.9559389352798462,0.13765525817871094,0.25929179787635803
1727724650273,7i,10.361288969221679,0.9s : 0.2s,0.4667835566956361,0.04428584094334273,0.46467801012461196,0.059481995291017185,0.604161262512207,0.054918620735406876,0.08366388827562332,-0.023051023483276367,-0.03604765236377716,-0.04131978750228882,-0.13871069607886913,1.8352747138586563,3.0072714312420237,0.955958366394043,0.13826631009578705,0.2588951289653778
1727724650283,7i,10.361288969221679,0.9s : 0.2s,0.47528327232308043,0.04419381309367476,0.4732241496736792,0.032327525810039684,0.7270963191986084,0.08410530537366867,0.0805712565779686,-0.028830349445343018,-0.009820923209190369,0.010836482048034668,-0.13965371464131493,1.8350372784584197,3.000559583311042,0.955893337726593,0.13920021057128906,0.25863394141197205
1727724650293,7i,10.361288969221679,0.9s : 0.2s,0.4867351744279221,0.044242163954454336,0.4847202914609692,0.02670698474299363,0.7542043328285217,0.08258091658353806,0.08105728775262833,-0.004442095756530762,-0.0025924593210220337,0.026207059621810913,-0.14085991937659564,1.8348387052824269,2.9930470077272213,0.9557817578315735,0.14039456844329834,0.2584000527858734
1727724650303,7i,10.361288969221679,0.9s : 0.2s,0.4672883041061412,0.04472729555501579,0.4651428040792718,0.08545350857013838,0.6158246397972107,0.05305791273713112,0.0933535024523735,0.021129369735717773,-0.06839218735694885,0.04667291045188904,-0.14183478002551567,1.8345528337387125,2.986104479393091,0.955722987651825,0.14135970175266266,0.2580910325050354
1727724650313,7i,10.361288969221679,0.9s : 0.2s,0.42286555841271706,0.045612329285210675,0.42039837762398247,0.11223223167650609,0.45808058977127075,0.029202913865447044,0.11341775208711624,0.023322880268096924,-0.10237555205821991,0.03964042663574219,-0.14222220478083558,1.8342146980283769,2.980609256080765,0.9557573795318604,0.1417432278394699,0.2577535808086395
1727724650323,7i,10.361288969221679,0.9s : 0.2s,0.3659780512126481,0.04663166346963528,0.3629950714974824,0.10130004021765938,0.3227662742137909,-0.006890774704515934,0.13686053454875946,0.029772937297821045,-0.09496153891086578,0.018909692764282227,-0.14202360138201925,1.8337697671707616,2.976524321117489,0.9558990597724915,0.14154663681983948,0.2573356032371521
1727724650333,7i,10.361288969221679,0.9s : 0.2s,0.3104590919623329,0.04765792383020064,0.30677935080163243,0.09222799270463336,0.23494482040405273,-0.03747451677918434,0.14791558682918549,0.02716803550720215,-0.08708222210407257,-0.013586282730102539,-0.14135498767336566,1.8331321095022814,2.973435154183047,0.9561541080474854,0.14088471233844757,0.2567504942417145
1727724650343,7i,10.361288969221679,0.9s : 0.2s,0.25196843537600655,0.04870365334957555,0.24721659850470637,0.07585275961190832,0.12136992812156677,-0.07066473364830017,0.14624254405498505,0.024627745151519775,-0.07167987525463104,0.003018409013748169,-0.14040860681330236,1.8322950521881542,2.971315885163091,0.956497311592102,0.13994771242141724,0.25598445534706116
1727724650353,7i,10.361288969221679,0.9s : 0.2s,0.20490925709918473,0.049748349025556665,0.19877853358492004,0.05157089770916169,0.06656180322170258,-0.07711438089609146,0.15078696608543396,0.010031938552856445,-0.04912382364273071,0.012073427438735962,-0.1391876580034042,1.8314125788917561,2.9700772686169086,0.9568869471549988,0.13873867690563202,0.2551840543746948
1727724650363,7i,10.361288969221679,0.9s : 0.2s,0.18390717366546508,0.05039264008199542,0.17686839839605606,0.01832487682288954,0.11970345675945282,-0.07088014483451843,0.15060363709926605,-0.0014443397521972656,0.016863465309143066,-0.007024139165878296,-0.1379468200379176,1.8304992907354012,2.9687856398254318,0.9572855234146118,0.13750973343849182,0.2543541193008423
1727724650373,7i,10.361288969221679,0.9s : 0.2s,0.17150090356012682,0.05090944777828631,0.1637705347394636,0.0436741947421376,0.12966154515743256,-0.06458470225334167,0.14606906473636627,-0.012572824954986572,0.03942939639091492,-0.013952851295471191,-0.13683955003062,1.8296152758979012,2.9671398456138984,0.9576565027236938,0.13641288876533508,0.2535465657711029
1727724650383,7i,10.361288969221679,0.9s : 0.2s,0.1599223816840349,0.05136417320885593,0.15144929803094095,0.02212724227516542,0.09512021392583847,-0.07407509535551071,0.15273812413215637,-0.017522573471069336,0.004687413573265076,-0.012672901153564453,-0.13565133990251876,1.8287616298300104,2.965650529243533,0.9580286145210266,0.13523569703102112,0.2527701258659363
1727724650393,7i,10.361288969221679,0.9s : 0.2s,0.14506064145752176,0.051741712894107485,0.1355189464497545,0.029271384737510522,0.04001674801111221,-0.082889623939991,0.1402910351753235,-0.01948755979537964,0.015548482537269592,-0.015339285135269165,-0.13439182802524519,1.8278526627087561,2.9646202291864485,0.9584217667579651,0.1339876502752304,0.2519422769546509
1727724650403,7i,10.361288969221679,0.9s : 0.2s,0.13174731540779497,0.05205495102279593,0.12102742330222238,0.02557105607917392,-0.0023651961237192154,-0.08824288845062256,0.1322583258152008,-0.010544061660766602,0.02329559624195099,-0.00012987852096557617,-0.13311830912136213,1.8269358985688857,2.9640995738909286,0.958816647529602,0.13272550702095032,0.25110653042793274
1727724650413,7i,10.361288969221679,0.9s : 0.2s,0.1259152590190695,0.05230207289227409,0.11453883893688906,0.04013630875650401,-0.09231320023536682,-0.09825397282838821,0.10590367764234543,0.007048487663269043,0.036573365330696106,0.014954298734664917,-0.13185339812376612,1.8260556737542972,2.96424977727473,0.9591990113258362,0.1314716786146164,0.2503046691417694
1727724650423,7i,10.361288969221679,0.9s : 0.2s,0.12127861169109262,0.052341261848775786,0.1094024403831867,0.05078809470863784,-0.096095010638237,-0.10626357048749924,0.09960540384054184,0.00957643985748291,0.04827442765235901,0.012542009353637695,-0.1306091885654979,1.8251395859311832,2.9649579773395045,0.9595856070518494,0.13023816049098969,0.24946685135364532
1727724650433,7i,10.361288969221679,0.9s : 0.2s,0.11774026846931605,0.05223384834111491,0.10551964701752954,0.04602348834784383,-0.08729619532823563,-0.12441301345825195,0.08304081112146378,-0.015453994274139404,0.042696431279182434,0.0075066834688186646,-0.1294943730227078,1.8240841484480772,2.9656289889037644,0.9599881768226624,0.12913276255130768,0.2484901249408722
1727724650443,7i,10.361288969221679,0.9s : 0.2s,0.11455201114221482,0.051958937784760385,0.10209031315950358,0.07513695187059684,-0.01890861988067627,-0.11454067379236221,0.06959178298711777,-0.026272952556610107,0.0688067078590393,0.014863729476928711,-0.12861486298795363,1.8229240646102582,2.965982391415205,0.9603855013847351,0.1282605677843094,0.247404545545578
1727724650453,7i,10.361288969221679,0.9s : 0.2s,0.11303715835817044,0.051616515807025524,0.1005640813890983,0.08533868809647187,0.09570477902889252,-0.08942466229200363,0.07103308290243149,-0.036312997341156006,0.0735333263874054,0.023598894476890564,-0.12804921667300118,1.8218493668367073,2.9654521758237746,0.960720956325531,0.1276995688676834,0.24639025330543518
1727724650463,7i,10.361288969221679,0.9s : 0.2s,0.11287798278748727,0.05126341670424973,0.10056590429155761,0.08086605819209419,0.13963334262371063,-0.06853598356246948,0.08706537634134293,-0.03881525993347168,0.06822285056114197,0.019450902938842773,-0.12760350418543165,1.8208953240083061,2.964018633747231,0.961010754108429,0.12725749611854553,0.24548767507076263
1727724650473,7i,10.361288969221679,0.9s : 0.2s,0.117522153636113,0.050949360335970834,0.1059038208783118,0.052679411045824964,0.14573970437049866,-0.06421872973442078,0.10502946376800537,-0.029526233673095703,0.04175572097301483,0.01264047622680664,-0.12707355532799672,1.8200259942014054,2.962404181481751,0.9612889885902405,0.12673184275627136,0.24466873705387115
1727724650483,7i,10.361288969221679,0.9s : 0.2s,0.12133883614102658,0.05069275623803285,0.11024226785153814,0.05104462036129836,0.14149583876132965,-0.06812066584825516,0.10880352556705475,-0.01981419324874878,0.03921525180339813,0.025982975959777832,-0.1264658436528068,1.819174409138862,2.960687121948035,0.961571455001831,0.12612900137901306,0.24386891722679138
1727724650493,7i,10.361288969221679,0.9s : 0.2s,0.12044839845360739,0.0505229650285367,0.10934005073514566,0.07127791428123219,0.10264910757541656,-0.06697151064872742,0.08944820612668991,-0.025261402130126953,0.04591432213783264,0.04831436276435852,-0.12594243686307818,1.8183720627934734,2.959268366213215,0.961830735206604,0.12560975551605225,0.24311348795890808
1727724650503,7i,10.361288969221679,0.9s : 0.2s,0.11200936367143376,0.05046451810343086,0.09999714977272103,0.07688890249549171,0.07243847101926804,-0.06021534278988838,0.06920012831687927,-0.01698017120361328,0.04428531229496002,0.06051766872406006,-0.1257079874928305,1.8177180682623653,2.9582343118374794,0.9620180130004883,0.12537716329097748,0.24249157309532166
1727724650513,7i,10.361288969221679,0.9s : 0.2s,0.09916102744420165,0.050484988352366936,0.08534738024597525,0.06650968141779795,0.024174002930521965,-0.06104012206196785,0.04913853481411934,-0.01653873920440674,0.04150351881980896,0.04926931858062744,-0.12578962751534842,1.8172317091004717,2.957629012676729,0.9621259570121765,0.12545816600322723,0.24202117323875427
1727724650523,7i,10.361288969221679,0.9s : 0.2s,0.08440491523772016,0.05059982558217545,0.06755625335481645,0.04945634382076746,-0.05932168662548065,-0.060084931552410126,0.031129106879234314,-0.023506760597229004,0.016195088624954224,0.04038664698600769,-0.12615280607263574,1.8169441025657171,2.957753111240231,0.9621511101722717,0.12581846117973328,0.24173328280448914
1727724650533,7i,10.361288969221679,0.9s : 0.2s,0.08102259893186049,0.050770738845184224,0.06314264497775827,0.0377502744642161,-0.07993455976247787,-0.06623204052448273,0.020984327420592308,-0.02635127305984497,0.015307605266571045,0.02227938175201416,-0.1265552201467741,1.8167774059741142,2.9584680811747317,0.9621423482894897,0.12621766328811646,0.24156059324741364
1727724650543,7i,10.361288969221679,0.9s : 0.2s,0.0752914661046906,0.05096291813563487,0.05542188956806103,0.047720358688765306,-0.11068713665008545,-0.0640677809715271,0.007927781902253628,-0.037820518016815186,0.027639254927635193,0.009105637669563293,-0.12696794515844773,1.8165899897807458,2.9593862788598626,0.9621368050575256,0.1266270875930786,0.24136751890182495
1727724650553,7i,10.361288969221679,0.9s : 0.2s,0.07866108698719146,0.05121158415081075,0.0597071206370809,0.03554476317619816,-0.14430634677410126,-0.06244511157274246,0.005186324007809162,-0.028416216373443604,0.00569644570350647,0.020579099655151367,-0.12709172487956463,1.8163573433652933,2.960637512223352,0.9621778130531311,0.12674985826015472,0.24113988876342773
1727724650563,7i,10.361288969221679,0.9s : 0.2s,0.09060161886381687,0.05154787507843013,0.07450818690347323,0.04392307080843616,-0.1790013611316681,-0.055402785539627075,0.004899867344647646,-0.025131404399871826,-0.009010165929794312,0.03487786650657654,-0.1269811479005903,1.8162414315544626,2.9622680155265404,0.9622193574905396,0.1266401708126068,0.24103176593780518
1727724650573,7i,10.361288969221679,0.9s : 0.2s,0.09063865509344243,0.051920140150003596,0.07429444692540622,0.05129399776825203,-0.10456519573926926,-0.04440952464938164,-0.002480284310877323,-0.027430593967437744,0.029021263122558594,0.03219321370124817,-0.1269899614767391,1.8163834763595847,2.9637724130134804,0.9621841907501221,0.1266489177942276,0.24116820096969604
1727724650583,7i,10.361288969221679,0.9s : 0.2s,0.07971408610099556,0.05227933374736731,0.060176463720031895,0.06607138940458636,-0.02922317571938038,-0.03413917124271393,-0.012124290689826012,-0.016423821449279785,0.05821382999420166,0.026586398482322693,-0.12724892255586248,1.8165891677314878,2.964460400376117,0.9621025323867798,0.12690579891204834,0.24135808646678925
1727724650593,7i,10.361288969221679,0.9s : 0.2s,0.07005988269116717,0.0526660340919412,0.046202554212149284,0.04627530059288706,-0.005529830232262611,-0.02873562090098858,-0.019251175224781036,-0.007871747016906738,0.02896265685558319,0.03522220253944397,-0.1276797783511315,1.8167148073507666,2.96472179024902,0.9620192646980286,0.1273331493139267,0.24146567285060883
1727724650603,7i,10.361288969221679,0.9s : 0.2s,0.06502183816604817,0.053050735052805005,0.0375959964470799,0.03832886528112913,-0.0042300745844841,-0.02339061163365841,-0.022917982190847397,-0.0007013678550720215,0.02969825267791748,0.024220317602157593,-0.12804575071936053,1.8169014317919172,2.9648568036551044,0.9619287252426147,0.12769614160060883,0.24163378775119781
1727724650613,7i,10.361288969221679,0.9s : 0.2s,0.06362909215519232,0.05341686347206201,0.03457311188338481,0.0179397229368741,-0.015023333951830864,-0.025409286841750145,-0.0011482380796223879,0.005663752555847168,0.0047159343957901,0.016355901956558228,-0.1283110615154343,1.816963963617184,2.9650027860939616,0.9618809223175049,0.1279592663049698,0.24168571829795837
1727724650623,7i,10.361288969221679,0.9s : 0.2s,0.06331101778082354,0.053710775683723365,0.03351771990897509,0.004906436319250602,-0.027052033692598343,-0.024560539051890373,0.016096394509077072,-0.0047484636306762695,-0.0012121647596359253,-0.00023636221885681152,-0.12848804237877592,1.8169124644447963,2.9652265343782336,0.9618714451789856,0.1281348019838333,0.2416306734085083
1727724650633,7i,10.361288969221679,0.9s : 0.2s,0.06344623130783889,0.05401228171975879,0.03328810133656176,0.017297586345345145,-0.041989438235759735,-0.023488083854317665,0.028946414589881897,-0.014921247959136963,-0.00240442156791687,0.008413180708885193,-0.12825931510451952,1.8169866259095857,2.9655416850740943,0.9618816375732422,0.12790794670581818,0.24170908331871033
1727724650643,7i,10.361288969221679,0.9s : 0.2s,0.0637437461285986,0.054345320038128225,0.033314431714508465,0.029847454616165326,-0.037234365940093994,-0.028471212834119797,0.04375665262341499,-0.009249866008758545,-0.023388609290122986,0.016071200370788574,-0.12772425738844945,1.8171140464028979,2.965894204206206,0.9619171619415283,0.12737727165222168,0.24184831976890564
1727724650653,7i,10.361288969221679,0.9s : 0.2s,0.06502585378188275,0.05470002703582504,0.03516061294037413,0.02685747820398109,-0.055782217532396317,-0.02981051802635193,0.04049348086118698,-0.018235862255096436,-0.015332832932472229,0.012396842241287231,-0.12747899741741267,1.8171823350167084,2.9662734019016033,0.961931049823761,0.12713401019573212,0.24192164838314056
1727724650663,7i,10.361288969221679,0.9s : 0.2s,0.06598638951278929,0.055102473505685416,0.03630318187829802,0.041809459357448286,-0.057883717119693756,-0.028060907498002052,0.034112945199012756,-0.014759957790374756,-0.03166443109512329,0.022968202829360962,-0.12739143623496688,1.8171508739946258,2.9667920057049786,0.9619494080543518,0.12704715132713318,0.24189409613609314
1727724650673,7i,10.361288969221679,0.9s : 0.2s,0.07025179839836539,0.055586269137658045,0.042959071935511114,0.04641373952347877,-0.09138574451208115,-0.018346229568123817,0.011262492276728153,-0.021305501461029053,-0.026107385754585266,0.03191731870174408,-0.12720393997891405,1.8172481070316333,2.9674542800509567,0.961948812007904,0.12686116993427277,0.24199339747428894
1727724650683,7i,10.361288969221679,0.9s : 0.2s,0.0784690204478351,0.05616650536749784,0.05479699667724135,0.0517539309874872,-0.1266167014837265,-0.017113007605075836,0.0031021006871014833,-0.00025779008865356445,-0.029238581657409668,0.042702555656433105,-0.12703790461583944,1.8173566333818445,2.9685396843666028,0.9619429707527161,0.12669648230075836,0.24210293591022491
1727724650693,7i,10.361288969221679,0.9s : 0.2s,0.08709042490385706,0.056750952678307105,0.06606111927631043,0.030997221062715196,-0.14137141406536102,-0.007977566681802273,-0.013092314824461937,0.0013185739517211914,-0.010132476687431335,0.02926468849182129,-0.1267896645319444,1.8175020117630356,2.969932158772832,0.9619382619857788,0.12645024061203003,0.242250457406044
1727724650703,7i,10.361288969221679,0.9s : 0.2s,0.086219330022199,0.057272569127739134,0.06444862834060326,0.029126700483256336,-0.07646472752094269,0.0007741574663668871,-0.027045048773288727,-0.004495501518249512,0.02812337875366211,0.006101697683334351,-0.1267260372600232,1.8175952282822856,2.9710692366734848,0.9619234204292297,0.1263871192932129,0.2423420548439026
1727724650713,7i,10.361288969221679,0.9s : 0.2s,0.0785306174334478,0.0577547605870753,0.05321132871868687,0.015119049164343597,-0.04173523932695389,0.010992973111569881,-0.01815968006849289,-0.004782557487487793,0.011555090546607971,0.00849662721157074,-0.1268309269128928,1.8178055503736184,2.971683637290424,0.9618595242500305,0.12649115920066833,0.2425411343574524
1727724650723,7i,10.361288969221679,0.9s : 0.2s,0.07702674024094341,0.05821374665811613,0.050440840716332674,0.014292266565972574,-0.053085632622241974,0.009693527594208717,-0.0044718291610479355,-0.012725114822387695,-0.0036166906356811523,0.00540924072265625,-0.12669709111780803,1.8180921429650343,2.9721971292292015,0.9618065357208252,0.12635840475559235,0.24282096326351166
1727724650733,7i,10.361288969221679,0.9s : 0.2s,0.07653306593824769,0.05865421148160702,0.049162929707037256,0.01806540409473647,-0.05803218483924866,0.006723037920892239,0.02226870320737362,-0.014651834964752197,-0.01000012457370758,0.0034176111221313477,-0.12641014213993368,1.8183450566355783,2.9727134195466385,0.9617801904678345,0.12607374787330627,0.24307306110858917
1727724650743,7i,10.361288969221679,0.9s : 0.2s,0.07581217324020004,0.059079421815588826,0.047509025767087994,0.01758591766038465,-0.048755597323179245,-0.0017261067405343056,0.04065556824207306,-0.014587581157684326,-0.008589968085289001,0.00476229190826416,-0.12569622086878093,1.8186534049210001,2.973195812109484,0.9617921710014343,0.1253654956817627,0.24339164793491364
1727724650753,7i,10.361288969221679,0.9s : 0.2s,0.07727886316130832,0.05950339583372618,0.049308909699557466,0.019951175282177096,-0.08320172131061554,0.0008286635857075453,0.05063017085194588,-0.013462841510772705,-0.008888132870197296,0.01173892617225647,-0.12488944376084911,1.8190366190785294,2.973713737243348,0.9617967009544373,0.12456504255533218,0.24378499388694763
1727724650763,7i,10.361288969221679,0.9s : 0.2s,0.08685516318698495,0.060039783805037814,0.06276180154267486,0.05380286363491914,-0.13165992498397827,-0.007520479615777731,0.05514978989958763,0.000709831714630127,-0.044344477355480194,0.030460000038146973,-0.12383862835333753,1.8194807361536833,2.9746923883521332,0.9618145823478699,0.12352234125137329,0.24424418807029724
1727724650773,7i,10.361288969221679,0.9s : 0.2s,0.09857842224738624,0.060564107943247784,0.07777977990340806,0.028131847627481197,-0.16315074265003204,-0.00903528556227684,0.03960331901907921,0.005272865295410156,-0.02269379049539566,0.015766724944114685,-0.12293300398714069,1.8198002543497815,2.9760666676017675,0.9618444442749023,0.12262360006570816,0.24457892775535583
1727724650783,7i,10.361288969221679,0.9s : 0.2s,0.10411376435560772,0.06104386410532763,0.08434051566942966,0.010704370563510045,-0.15034614503383636,0.0020431538578122854,0.027014657855033875,0.00687021017074585,-0.0067109763622283936,0.004727214574813843,-0.12251097826870949,1.8199850990130892,2.9775450482372174,0.9618492126464844,0.1222047507762909,0.24476943910121918
1727724650793,7i,10.361288969221679,0.9s : 0.2s,0.10763979331184431,0.061474344506035734,0.08835853140342363,0.0017144516309216952,-0.1561233401298523,0.015405564568936825,0.00500496244058013,0.0007877349853515625,-0.0009473562240600586,0.0011921972036361694,-0.12213087407966687,1.82031695464718,2.9789633316169395,0.9618129730224609,0.12182748317718506,0.24510009586811066
1727724650803,7i,10.361288969221679,0.9s : 0.2s,0.1081041573694933,0.0618951674822851,0.0886312421379056,0.016203500303370044,-0.13879308104515076,0.009781146422028542,-0.007676677778363228,-3.349781036376953e-05,-0.0063035860657691956,0.014927059412002563,-0.12177770860914194,1.82068459924443,2.9804699422965255,0.9617645740509033,0.12147694081068039,0.24546436965465546
1727724650813,7i,10.361288969221679,0.9s : 0.2s,0.09699362658221626,0.062228771682274496,0.0743998895999568,0.03214003492719987,-0.06375478953123093,0.007525448687374592,-0.01875383034348488,0.000968635082244873,0.029801346361637115,-0.011996805667877197,-0.12162134571166214,1.8209254073306775,2.981490089424882,0.9617238640785217,0.12132173776626587,0.2457006573677063
1727724650823,7i,10.361288969221679,0.9s : 0.2s,0.08674568556105497,0.06248474377487258,0.0601703478371693,0.03193794212594953,-0.040376096963882446,0.011608384549617767,-0.01351542491465807,-0.01292353868484497,0.019111432135105133,-0.022085458040237427,-0.12164550618953732,1.8211350664591466,2.9820357006251803,0.9616692066192627,0.12134571373462677,0.24590148031711578
1727724650833,7i,10.361288969221679,0.9s : 0.2s,0.07895714391726057,0.06270833826951862,0.04797806672894006,0.02273958017897553,-0.028199590742588043,0.009484248235821724,0.007344583049416542,-0.00875157117843628,-0.015874862670898438,-0.013729065656661987,-0.12155116833762224,1.8213916447427276,2.982390055964657,0.9616173505783081,0.12125207483768463,0.24615110456943512
1727724650843,7i,10.361288969221679,0.9s : 0.2s,0.07670040739283407,0.06290427003834081,0.04388627695727009,0.019119084747051002,-0.03573260456323624,0.0017771485727280378,0.024724705144762993,-0.003023684024810791,-0.015833750367164612,-0.010280519723892212,-0.12094098253377142,1.8217058561198534,2.982658458236743,0.961611270904541,0.12064637243747711,0.24647152423858643
1727724650853,7i,10.361288969221679,0.9s : 0.2s,0.0766045780738109,0.06308139420358241,0.043462617123210937,0.020559707071442283,-0.05489538237452507,-0.0005379372742027044,0.03651558235287666,0.006346940994262695,-0.01914774626493454,-0.0039726197719573975,-0.1203444117814458,1.8218714493778618,2.98303938334392,0.9616402983665466,0.12005413323640823,0.2466486692428589
1727724650863,7i,10.361288969221679,0.9s : 0.2s,0.08082476474523762,0.06326537350279408,0.05030044842419365,0.034851062169138525,-0.0952669084072113,-0.0041878437623381615,0.038898348808288574,0.01828402280807495,-0.02812468260526657,0.009449511766433716,-0.11974981606135195,1.8219222966869286,2.9836610115283353,0.9616965651512146,0.11946381628513336,0.2467152327299118
1727724650873,7i,10.361288969221679,0.9s : 0.2s,0.08728563600453115,0.06344693088727503,0.05994388387234223,0.023947999808794442,-0.11975813657045364,-0.011389830149710178,0.027712538838386536,0.011387288570404053,-0.02031742036342621,0.005571246147155762,-0.11915571167108205,1.8219542547347785,2.9846505241741625,0.961757242679596,0.1188739463686943,0.24676355719566345
1727724650883,7i,10.361288969221679,0.9s : 0.2s,0.08812485528300222,0.0635575253735783,0.061044500874665494,0.02443827105671717,-0.10550609230995178,-0.017404891550540924,0.011319417506456375,0.010512292385101318,0.003313496708869934,-0.021811500191688538,-0.11865356424955749,1.8220428203286485,2.9857112898034437,0.9617930054664612,0.11837534606456757,0.24686351418495178
1727724650893,7i,10.361288969221679,0.9s : 0.2s,0.09185644236770302,0.06363351963596217,0.06624485778678041,0.013685056013285877,-0.12453491240739822,-0.009418603032827377,0.003864963073283434,0.0006666779518127441,-0.002595357596874237,-0.013420149683952332,-0.11859580434325462,1.8219310438305631,2.9867893181252696,0.9618270397186279,0.11831799149513245,0.24675767123699188
1727724650903,7i,10.361288969221679,0.9s : 0.2s,0.09182314419194888,0.06372454417423697,0.06611106018724217,0.011306843960360434,-0.09716840088367462,-0.010269172489643097,0.0023596445098519325,-0.007811784744262695,-0.006065107882022858,0.005480438470840454,-0.11847895912882757,1.8218217157094405,2.987900163669232,0.9618676900863647,0.11820196360349655,0.24665601551532745
1727724650913,7i,10.361288969221679,0.9s : 0.2s,0.08498007132640434,0.06376901063503178,0.056170506542757584,0.023096137419423526,-0.04763387516140938,-0.008282986469566822,0.010605856776237488,-0.00447160005569458,0.01671256124973297,-0.01530119776725769,-0.11816000329821782,1.8217158993177553,2.988571198968231,0.9619302749633789,0.11788523942232132,0.24656358361244202
1727724650923,7i,10.361288969221679,0.9s : 0.2s,0.07763957518788124,0.06377505081072884,0.04427918844608173,0.022624303677603878,-0.017293544486165047,-0.01432170532643795,0.028904035687446594,-0.0014429092407226562,-0.006825610995292664,-0.021521806716918945,-0.11780038855296542,1.821541180617371,2.9888044322723486,0.9620141983032227,0.11752812564373016,0.24640598893165588
1727724650933,7i,10.361288969221679,0.9s : 0.2s,0.07625815776966714,0.06377966539636228,0.04180264236087852,0.03261737113691382,-0.013131557032465935,-0.01570228673517704,0.047208212316036224,-0.014276862144470215,-0.023956477642059326,-0.016916006803512573,-0.11725786578390142,1.8213527991294014,2.9888454224486685,0.9621224403381348,0.11698934435844421,0.24624058604240417
1727724650943,7i,10.361288969221679,0.9s : 0.2s,0.07516441288894764,0.06378293925938353,0.03976714252211226,0.02642219402961284,-0.009767052717506886,-0.01908259280025959,0.05321074277162552,-0.011810839176177979,-0.018778711557388306,-0.014352574944496155,-0.11651530691975011,1.8212353575121658,2.988855006617778,0.9622349739074707,0.1162518560886383,0.2461489737033844
1727724650953,7i,10.361288969221679,0.9s : 0.2s,0.074265549068831,0.06376333812757581,0.03807372439522276,0.023313412181512276,-0.008818967267870903,-0.021811001002788544,0.050125736743211746,-0.00013816356658935547,-0.014126382768154144,-0.01854565739631653,-0.11582561152929428,1.8210530039862085,2.988814693935803,0.9623573422431946,0.11556680500507355,0.24599331617355347
1727724650963,7i,10.361288969221679,0.9s : 0.2s,0.07366584719775617,0.06373199353473856,0.036944418298996154,0.013129541813229827,-0.0233094934374094,-0.01808887906372547,0.033525388687849045,0.003796100616455078,-0.008150637149810791,-0.009567737579345703,-0.11541660229953955,1.8206702628520275,2.988851194456338,0.9624972939491272,0.11516053229570389,0.24563665688037872
1727724650973,7i,10.361288969221679,0.9s : 0.2s,0.0736825484162959,0.06371096445829706,0.037013929120175794,0.019284362338929103,-0.05362505465745926,-0.019078243523836136,0.013406271114945412,0.011562764644622803,-0.01527683436870575,0.002192586660385132,-0.1150943558498542,1.8204431795245353,2.989166522551375,0.9625887870788574,0.11484041810035706,0.245427206158638
1727724650983,7i,10.361288969221679,0.9s : 0.2s,0.07339131815837933,0.06368154221539234,0.03648214305785317,0.01350501582393695,-0.05418791249394417,-0.021575000137090683,-0.010782722383737564,0.013494610786437988,0.0002384185791015625,0.00047338008880615234,-0.11492836626247722,1.8203696618156806,2.9897065602669133,0.9626253843307495,0.11467552930116653,0.24536116421222687
1727724650993,7i,10.361288969221679,0.9s : 0.2s,0.07397956307236599,0.06364109705800612,0.03771984249213698,0.011398727469645037,-0.07535392045974731,-0.01872728206217289,-0.019562631845474243,0.008804917335510254,0.007225945591926575,-0.0004360377788543701,-0.11509835423319908,1.8201464103461593,2.990361992905167,0.9626613259315491,0.11484438925981522,0.24514146149158478
1727724651003,7i,10.361288969221679,0.9s : 0.2s,0.07793872825690329,0.06361043757192207,0.045035070713967125,0.007003249074484279,-0.0949953943490982,-0.019009621813893318,-0.014499664306640625,0.004986584186553955,-0.003192491829395294,0.003739982843399048,-0.11503357100776546,1.8199118840542519,2.991186362553486,0.9627259969711304,0.11478003859519958,0.24491752684116364
1727724651013,7i,10.361288969221679,0.9s : 0.2s,0.08216029105040283,0.06360593247553807,0.05200575717556852,0.013290656363479507,-0.10136327892541885,-0.026814015582203865,0.0006475981790572405,-0.006988108158111572,-0.01060425490140915,0.003918886184692383,-0.11470695417501257,1.8197005658754268,2.992203806938752,0.9628139734268188,0.11445557326078415,0.24472327530384064
1727724651023,7i,10.361288969221679,0.9s : 0.2s,0.0821416674814733,0.06358782322931376,0.05199848337783007,0.013788142760648301,-0.0712403953075409,-0.02867516689002514,0.019344553351402283,-0.004816234111785889,-0.00437019020318985,-0.012158051133155823,-0.11425299074968459,1.8194277383113422,2.993023436499934,0.9629308581352234,0.11400458216667175,0.24447332322597504
1727724651033,7i,10.361288969221679,0.9s : 0.2s,0.08130217813226949,0.06355609327164287,0.05070174727854564,0.014778833095146668,-0.0492008775472641,-0.027922291308641434,0.034640152007341385,-0.007933616638183594,-6.330013275146484e-05,-0.012468665838241577,-0.11375761862662483,1.8190704056733589,2.993519827176506,0.9630728960037231,0.11351242661476135,0.24414311349391937
1727724651043,7i,10.361288969221679,0.9s : 0.2s,0.07785273018705063,0.06355142962282076,0.04496958294751427,0.012559350663733706,-0.01821073889732361,-0.02083064801990986,0.03788428381085396,-0.009398877620697021,-0.006731137633323669,0.004908174276351929,-0.11326588556561087,1.8187899076484892,2.9937566357939702,0.9631952047348022,0.11302385479211807,0.24388659000396729
1727724651053,7i,10.361288969221679,0.9s : 0.2s,0.07612775589840377,0.0635627967996115,0.041895179688578095,0.01147497414395998,-0.02063421532511711,-0.017066001892089844,0.03441578149795532,-0.00715869665145874,-0.008955888450145721,0.000469207763671875,-0.11275608102252542,1.8186312956681225,2.9938173014667675,0.963289737701416,0.11251730471849442,0.24374794960021973
1727724651063,7i,10.361288969221679,0.9s : 0.2s,0.07357299904827776,0.06357867595109679,0.037023481106769354,0.00729275529188525,-0.012187466956675053,-0.013635230250656605,0.02800142392516136,-0.0019208788871765137,-0.006898015737533569,-0.0013827085494995117,-0.11242032373811908,1.8184848692814783,2.9939117732088856,0.963361918926239,0.11218367516994476,0.24361613392829895
1727724651073,7i,10.361288969221679,0.9s : 0.2s,0.06979951654826465,0.06357048845201001,0.02882300311113212,0.011114106091405108,0.00450868858024478,-0.008746732026338577,0.01757914386689663,0.004517972469329834,0.00783335417509079,-0.006461411714553833,-0.1122600616584288,1.8183669560207643,2.993886860575502,0.9634079933166504,0.11202441900968552,0.24350692331790924
1727724651083,7i,10.361288969221679,0.9s : 0.2s,0.06795619677557337,0.06354804555959753,0.024076764437020275,0.009283496051530376,0.0009064972400665283,-0.006725925486534834,0.011311260983347893,0.007723510265350342,-0.0010709390044212341,-0.005038231611251831,-0.11211501389795195,1.8183109539520854,2.9938371176535106,0.963437557220459,0.11188028752803802,0.24345698952674866
1727724651093,7i,10.361288969221679,0.9s : 0.2s,0.06742191002302114,0.06350569047741268,0.022643790056865804,0.011709644506905995,-0.001536686671897769,-0.01784755289554596,0.01183643750846386,0.003401041030883789,-0.0013145580887794495,-0.011127471923828125,-0.11194556999606929,1.818243794947344,2.993800622333943,0.9634721279144287,0.11171190440654755,0.24339689314365387
1727724651103,7i,10.361288969221679,0.9s : 0.2s,0.06734097468523662,0.06345214748115209,0.02255286792378751,0.008548996237606412,-0.01918652094900608,-0.02604866772890091,0.012718742713332176,0.0009813904762268066,-0.0008384883403778076,-0.008450984954833984,-0.11178896415141161,1.8179638088400012,2.9938627545192125,0.9635571837425232,0.111556276679039,0.24313139915466309
1727724651113,7i,10.361288969221679,0.9s : 0.2s,0.06728292946707454,0.06341559135177792,0.02248233464690973,0.006761997962985103,-0.021391350775957108,-0.028113417327404022,0.006488276645541191,-0.002405703067779541,0.002025716006755829,0.005986124277114868,-0.11167061315845551,1.817641259185843,2.9940403486987517,0.9636485576629639,0.11143866181373596,0.24282385408878326
1727724651123,7i,10.361288969221679,0.9s : 0.2s,0.06751387622687319,0.06340946729701719,0.023181090144470354,0.012470734727702971,-0.03974026441574097,-0.030855851247906685,-0.003750778501853347,-0.0015524029731750488,-0.004520997405052185,0.011518239974975586,-0.11154846164692024,1.817439131689219,2.994345959050077,0.9637106657028198,0.11131726950407028,0.24263235926628113
1727724651133,7i,10.361288969221679,0.9s : 0.2s,0.06920134133373868,0.06343551191688285,0.027654321004711435,0.018656068526658492,-0.05581697076559067,-0.03834386169910431,-0.005366251803934574,-0.0012465715408325195,-0.01662953943014145,0.008363813161849976,-0.11143398398762411,1.8171783039923393,2.994805960954131,0.9637861847877502,0.11120350658893585,0.24238407611846924
1727724651143,7i,10.361288969221679,0.9s : 0.2s,0.07003612500327806,0.06345442679651546,0.029641095212566818,0.019905827657562793,-0.05796707421541214,-0.029312415048480034,-0.0028132463339716196,-0.004639089107513428,-0.014973603188991547,-0.01226833462715149,-0.11128776342351199,1.816907334936042,2.995407759735644,0.9638675451278687,0.11105819046497345,0.24212685227394104
1727724651153,7i,10.361288969221679,0.9s : 0.2s,0.06990051808797211,0.06345216359975828,0.02932414301350383,0.016611017750668235,-0.032184477895498276,-0.02291390486061573,0.003019875381141901,-0.005513489246368408,-0.0035999268293380737,-0.015250176191329956,-0.11123580966805655,1.8166592454151518,2.9958497583549972,0.9639334678649902,0.11100655794143677,0.24188920855522156
1727724651163,7i,10.361288969221679,0.9s : 0.2s,0.06913281308129333,0.06346179228852784,0.02742164772694722,0.010894577056285824,-0.013023831881582737,-0.014575104229152203,0.00921618565917015,0.005504786968231201,-0.007971219718456268,0.004984855651855469,-0.11112030153447033,1.816464073949697,2.996038623070321,0.9639929533004761,0.11089175939559937,0.24170415103435516
1727724651173,7i,10.361288969221679,0.9s : 0.2s,0.06820297274353603,0.06347575832494581,0.02494942075737612,0.02069626256176126,0.0011122263967990875,-0.012008083052933216,0.015092717483639717,0.017693698406219482,-0.002211548388004303,0.01050606369972229,-0.11099033381470019,1.81625734474607,2.996048368046088,0.9640569090843201,0.1107625961303711,0.2415083795785904
1727724651183,7i,10.361288969221679,0.9s : 0.2s,0.06761344100065116,0.06348897455844148,0.02325354840591227,0.027440570026267732,0.0027912163641303778,-0.015822838991880417,0.019147945567965508,0.024683356285095215,-0.0014799684286117554,0.011896491050720215,-0.11083763815014876,1.8160770079746897,2.995974954555296,0.9641167521476746,0.11061083525419235,0.2413385808467865
1727724651193,7i,10.361288969221679,0.9s : 0.2s,0.06709938547937341,0.06349769002434687,0.02168803571745278,0.024352895327924867,0.0109993452206254,-0.019777899608016014,0.02295972965657711,0.021272122859954834,0.004505902528762817,0.010966181755065918,-0.11066430117437677,1.8159292505366755,2.995857118279716,0.9641710519790649,0.11043856292963028,0.24120080471038818
1727724651203,7i,10.361288969221679,0.9s : 0.2s,0.06698505768363651,0.06349857801731856,0.021329053956015403,0.010749464086926914,-0.0026336428709328175,-0.027143137529492378,0.02085975930094719,0.008806109428405762,0.005346573889255524,0.0030688047409057617,-0.11044792199316153,1.8157738155488403,2.99576415856429,0.9642316699028015,0.11022350192070007,0.24105671048164368
1727724651213,7i,10.361288969221679,0.9s : 0.2s,0.06730843566670128,0.06349166689662937,0.02234353925827158,0.010001117002313814,-0.029445815831422806,-0.030379945412278175,0.02051141858100891,0.0009519457817077637,-0.006715051829814911,-0.007350116968154907,-0.11008668694766333,1.815571068907118,2.99586939764069,0.9643189907073975,0.10986446589231491,0.24087081849575043
1727724651223,7i,10.361288969221679,0.9s : 0.2s,0.06788339692478229,0.06348888793665874,0.024027415312803186,0.01693406410333114,-0.03772291913628578,-0.03226786106824875,0.02369069866836071,-0.009016871452331543,-0.011496216058731079,-0.008561283349990845,-0.10969273919641993,1.8152180185103262,2.9961610694786116,0.9644458293914795,0.10947289317846298,0.24054080247879028
1727724651233,7i,10.361288969221679,0.9s : 0.2s,0.06827988923798156,0.06350086192678281,0.025095493796829228,0.021867180659573143,-0.031176337972283363,-0.034350451081991196,0.02315487153828144,-0.012301921844482422,-0.01674696058034897,-0.0068099647760391235,-0.10937210738853358,1.8148330802342463,2.9964404019343305,0.9645724296569824,0.10915417969226837,0.24017801880836487
1727724651243,7i,10.361288969221679,0.9s : 0.2s,0.06796591835953804,0.06351605633469061,0.024188357657017514,0.010535602101128234,0.006603931076824665,-0.02707509510219097,0.02323426678776741,-0.006951510906219482,-0.006525181233882904,-0.004483014345169067,-0.10906672169243331,1.8145638515590117,2.996491795964707,0.9646693468093872,0.10885061323642731,0.23992633819580078
1727724651253,7i,10.361288969221679,0.9s : 0.2s,0.0671972670514661,0.06356426329560536,0.021795805350411073,0.019043056300487218,0.042079366743564606,-0.019586285576224327,0.01732577756047249,-0.014296948909759521,-0.01097959280014038,0.006138712167739868,-0.10891208980986297,1.8143523078293042,2.9962165978158146,0.9647365808486938,0.10869690030813217,0.23972636461257935
1727724651263,7i,10.361288969221679,0.9s : 0.2s,0.06640874964914072,0.06364941485748532,0.018943970498867826,0.01991438400229411,0.052963707596063614,-0.01573038473725319,0.013875652104616165,-0.005530059337615967,-0.014385908842086792,0.012611374258995056,-0.10885430242415586,1.8141579000685435,2.9956890168985293,0.9647890329360962,0.10863945633172989,0.23954026401042938
1727724651273,7i,10.361288969221679,0.9s : 0.2s,0.06626268086842053,0.06377369705061817,0.017990509730580757,0.02542448747998835,0.038158394396305084,-0.015770863741636276,0.008255849592387676,0.000920414924621582,-0.019498899579048157,0.01628957688808441,-0.10888629058356337,1.8139997881485306,2.99521772683897,0.9648236036300659,0.10867125540971756,0.2393869012594223
1727724651283,7i,10.361288969221679,0.9s : 0.2s,0.06623261985687584,0.0639305538358434,0.017310234526076003,0.028036127353557393,0.013394991867244244,-0.01562962681055069,0.006369732320308685,0.008327841758728027,-0.01942402869462967,0.018422231078147888,-0.10890307309500533,1.8138300145631505,2.994956409396351,0.9648624062538147,0.10868793725967407,0.23922264575958252
1727724651293,7i,10.361288969221679,0.9s : 0.2s,0.06622779401653026,0.06409025159401745,0.016690127348570585,0.020010345158148042,0.0053719524294137955,-0.014739332720637321,0.007269614841789007,0.01291346549987793,-0.0021810680627822876,0.015129417181015015,-0.10884113704544293,1.8136353073018503,2.9948470103505618,0.9649154543876648,0.1086263656616211,0.23903638124465942
1727724651303,7i,10.361288969221679,0.9s : 0.2s,0.06640791452806885,0.06423257154394126,0.01685787248794357,0.022089723309702783,0.014538685791194439,-0.022254107519984245,0.014002185314893723,0.019465863704681396,0.002938583493232727,0.010020017623901367,-0.10869500045245044,1.813407614074045,2.9947463721146748,0.9649854302406311,0.10848109424114227,0.23882052302360535
1727724651313,7i,10.361288969221679,0.9s : 0.2s,0.06831088747484651,0.06430968130963359,0.023035673149584896,0.024324525161956462,0.06271953135728836,-0.02720492333173752,0.018840083852410316,0.0043318867683410645,0.01641278713941574,-0.017422333359718323,-0.10852545606405263,1.813109914543476,2.994326375783326,0.9650741815567017,0.10831254720687866,0.23853762447834015
1727724651323,7i,10.361288969221679,0.9s : 0.2s,0.07255564466979825,0.06434996455416181,0.033517214015012356,0.01818186166940736,0.08361335843801498,-0.029323557391762733,0.023931914940476418,-0.005879461765289307,0.004384554922580719,-0.016636937856674194,-0.1084684090775596,1.8127373160990656,2.993522862092444,0.9651691913604736,0.10825584083795547,0.2381795346736908
1727724651333,7i,10.361288969221679,0.9s : 0.2s,0.07673463776170028,0.06439548929387251,0.04173039169504774,0.012528482909404308,0.08617372065782547,-0.02485424093902111,0.023971064016222954,-0.009604990482330322,-0.0072543323040008545,-0.003475874662399292,-0.10838807515638271,1.8124423277581336,2.992642535808257,0.9652478694915771,0.10817597806453705,0.2378969043493271
1727724651343,7i,10.361288969221679,0.9s : 0.2s,0.07762810763834227,0.06445170658042498,0.043267778015295126,0.011013067891480212,0.07863257825374603,-0.020459802821278572,0.0196206234395504,-0.004756510257720947,-0.009907394647598267,0.0007119029760360718,-0.10829398760562986,1.812211391723097,2.9917957656884098,0.9653125405311584,0.10808244347572327,0.23767638206481934
1727724651353,7i,10.361288969221679,0.9s : 0.2s,0.07735284796370812,0.06454555970761619,0.04263019833553554,0.019742807648926494,0.04950745776295662,-0.019756995141506195,0.013822922483086586,-0.003891885280609131,-0.01071881502866745,0.016116410493850708,-0.10815859340274443,1.8120567882352805,2.9911276605075647,0.965363621711731,0.10794784128665924,0.2375306636095047
1727724651363,7i,10.361288969221679,0.9s : 0.2s,0.07379130712114183,0.0646761235973122,0.035526835534168744,0.023167242998849,0.011402415111660957,-0.02465588040649891,0.006720471195876598,-0.0014546513557434082,-0.0032744258642196655,0.02288849651813507,-0.10800697708235131,1.8119134436545996,2.990820869093027,0.9654132723808289,0.10779710859060287,0.23739613592624664
1727724651373,7i,10.361288969221679,0.9s : 0.2s,0.07209686041370654,0.06483538028322361,0.03153301040248559,0.019735061202526466,-0.029522648081183434,-0.0322490818798542,0.00507676787674427,-0.0012797117233276367,-0.008261069655418396,0.01787707209587097,-0.10791190421413141,1.811727927473581,2.9909120212152254,0.9654672741889954,0.1077025905251503,0.23721946775913239
1727724651383,7i,10.361288969221679,0.9s : 0.2s,0.07056062642454086,0.0650283905882906,0.027388143765511578,0.02244392353836994,-0.0492343008518219,-0.03491535037755966,0.004498995374888182,-0.008021831512451172,-0.00685468316078186,0.019808918237686157,-0.10777120953477438,1.8114776614814843,2.9913306094043426,0.9655415415763855,0.10756271332502365,0.23698151111602783
1727724651393,7i,10.361288969221679,0.9s : 0.2s,0.06969930778227655,0.06524420600699178,0.02451911678355756,0.026877176874131742,-0.030903495848178864,-0.025846755132079124,0.002749830950051546,-0.011554956436157227,0.00891343504190445,0.022570252418518066,-0.10775001797222782,1.811129879971428,2.991718379762953,0.965626060962677,0.10754164308309555,0.23664623498916626
1727724651403,7i,10.361288969221679,0.9s : 0.2s,0.06934758787657545,0.06547049015674174,0.02286269588074286,0.025180971520951643,-0.009530697017908096,-0.022175543010234833,0.003744155401363969,-0.0010422468185424805,0.01049245148897171,0.02286708354949951,-0.10771192786063166,1.8108215721581347,2.9919013406893176,0.9657028913497925,0.10750377178192139,0.23634947836399078
1727724651413,7i,10.361288969221679,0.9s : 0.2s,0.06943983768941375,0.06568304418047674,0.022530618400693484,0.014614913314723709,0.01734672300517559,-0.02108018472790718,0.010194864124059677,-0.0007388591766357422,0.010455869138240814,0.010184526443481445,-0.10761059665048534,1.8106002628685216,2.9918422756432483,0.9657657146453857,0.10740302503108978,0.23613832890987396
1727724651423,7i,10.361288969221679,0.9s : 0.2s,0.06965782572165732,0.06590123154577533,0.022566354712688752,0.01509549709864964,0.022069307044148445,-0.01845848187804222,0.021843796595931053,-0.011968791484832764,0.00018371641635894775,0.009197190403938293,-0.10744475876448058,1.8104174270964075,2.991588510529322,0.9658260345458984,0.10723815113306046,0.23596593737602234
1727724651433,7i,10.361288969221679,0.9s : 0.2s,0.07001188720278498,0.0661360016922519,0.022971583094291512,0.020895665594523775,0.01747428998351097,-0.021718190982937813,0.03495347499847412,-0.012923359870910645,-0.01486939936876297,0.006965383887290955,-0.10714582211386005,1.8103189812690748,2.991354207738761,0.9658805131912231,0.10694093257188797,0.23587848246097565
1727724651443,7i,10.361288969221679,0.9s : 0.2s,0.07054231660936203,0.06634518362047517,0.02396946063183118,0.02306896625927376,0.035372063517570496,-0.021344903856515884,0.03165634721517563,-0.02081853151321411,0.002530984580516815,-0.009610414505004883,-0.1068641874431231,1.810221661279987,2.9910402064558634,0.9659327268600464,0.10666090250015259,0.2357916235923767
1727724651453,7i,10.361288969221679,0.9s : 0.2s,0.07077065814704403,0.06652586882339385,0.02414114396333289,0.01084123770415746,0.025214234367012978,-0.01855577528476715,0.023888438940048218,-0.008145332336425781,0.002428010106086731,-0.006729841232299805,-0.10661479396438975,1.8101080414395723,2.9906514882854793,0.9659853577613831,0.10641293227672577,0.23568817973136902
1727724651463,7i,10.361288969221679,0.9s : 0.2s,0.0704056153346832,0.06672840792811413,0.022455962371596857,0.020450757082641585,-0.009924045763909817,-0.019187655299901962,0.007588827982544899,-0.00021022558212280273,-0.015260271728038788,0.013612985610961914,-0.10644936117121369,1.810053382002244,2.9905642682356026,0.9660152792930603,0.10624843835830688,0.2356395423412323
1727724651473,7i,10.361288969221679,0.9s : 0.2s,0.06985458830881996,0.06695085308221385,0.01993105063358531,0.023339221598109236,-0.03340380638837814,-0.021368518471717834,-0.006923802196979523,0.006760835647583008,-0.012205652892589569,0.018709152936935425,-0.10646181503020986,1.8100381441761546,2.990801105435251,0.9660173654556274,0.10626082122325897,0.23562444746494293
1727724651483,7i,10.361288969221679,0.9s : 0.2s,0.0694507104320488,0.06717705361316517,0.017625114109424213,0.019226558532479482,-0.02682606503367424,-0.016001271083950996,-0.015866495668888092,0.0026633739471435547,0.0051716044545173645,0.018325433135032654,-0.10655641377634137,1.8100271712508884,2.991158768925582,0.966010332107544,0.10635488480329514,0.23561149835586548
1727724651493,7i,10.361288969221679,0.9s : 0.2s,0.06933514358038846,0.06738346049551884,0.016334974348370897,0.012095734139739873,-0.0031811886001378298,-0.015264374203979969,-0.013093347661197186,0.0037521719932556152,0.008425839245319366,0.00782516598701477,-0.10673644937800808,1.8099709862819142,2.9913400089509787,0.9660050868988037,0.10653389245271683,0.23555271327495575
1727724651503,7i,10.361288969221679,0.9s : 0.2s,0.06947652462347986,0.06755925868737563,0.01620907274859562,0.00999374059802168,0.026120107620954514,-0.016572829335927963,-0.004318864084780216,0.008381664752960205,0.005290873348712921,0.0012764036655426025,-0.10685082041868421,1.8098820652565042,2.9912672702698067,0.9660142660140991,0.10664761811494827,0.235463947057724
1727724651513,7i,10.361288969221679,0.9s : 0.2s,0.0704936103248826,0.06771923546759066,0.01958198775204916,0.008019714602038869,0.05003955587744713,-0.02112390659749508,0.013157597742974758,0.00020688772201538086,-0.007454782724380493,-0.002949446439743042,-0.10680937464509418,1.8097221591744894,2.990889217274007,0.9660561084747314,0.10660640895366669,0.23531049489974976
1727724651523,7i,10.361288969221679,0.9s : 0.2s,0.07302152168113019,0.06785927386957982,0.026967787794350655,0.007235095938034045,0.058529842644929886,-0.02638964168727398,0.025237396359443665,-0.0011233687400817871,-0.004822619259357452,-0.005275130271911621,-0.10678632903734016,1.809396406975351,2.9903030307007135,0.9661350250244141,0.10658349096775055,0.23499636352062225
1727724651533,7i,10.361288969221679,0.9s : 0.2s,0.07571938897273271,0.0679950327086208,0.03331818412455253,0.011678260202893606,0.060390859842300415,-0.03396766632795334,0.03259491175413132,0.0004661083221435547,-0.01165006309747696,-0.0006637275218963623,-0.1066550367142118,1.8090105800349898,2.9896447990615704,0.966239333152771,0.10645294934511185,0.2346269190311432
1727724651543,7i,10.361288969221679,0.9s : 0.2s,0.07712561580426329,0.0681355582884625,0.036137325716028824,0.009523801658180774,0.06448826938867569,-0.03107311949133873,0.02540607564151287,-0.004361927509307861,-0.007440418004989624,0.004039376974105835,-0.10641125864875856,1.80870082090274,2.988970043693617,0.9663369059562683,0.10621055215597153,0.23433364927768707
1727724651553,7i,10.361288969221679,0.9s : 0.2s,0.0776407580138189,0.06828723681953208,0.036945102415794205,0.01610657884489706,0.053380224853754044,-0.03535175323486328,0.017132164910435677,0.0004544854164123535,-0.014913283288478851,0.006067067384719849,-0.10626922068224624,1.8084146112254735,2.9883724863966017,0.9664188623428345,0.10606931149959564,0.23406067490577698
1727724651563,7i,10.361288969221679,0.9s : 0.2s,0.0774076336534542,0.06843663804210108,0.03617137433554076,0.016423113590337834,0.03019527532160282,-0.03548828884959221,0.004660582635551691,-0.0032865405082702637,-0.015818893909454346,-0.0029461681842803955,-0.10630525445490455,1.8081265716016768,2.9879139724455315,0.9664822220802307,0.10610514134168625,0.2337813377380371
1727724651573,7i,10.361288969221679,0.9s : 0.2s,0.07617969739591528,0.06861576472880832,0.033094155466094684,0.030390513463286226,-0.014114396646618843,-0.03198409825563431,0.0035785401705652475,-0.0033669471740722656,-0.030051372945308685,0.0030268728733062744,-0.10633198088935909,1.807835975709324,2.987833495368771,0.9665476679801941,0.10613171756267548,0.23349986970424652
1727724651583,7i,10.361288969221679,0.9s : 0.2s,0.07513721968752156,0.0688004895787153,0.030200900915369488,0.013135021520407764,-0.015296573750674725,-0.027423523366451263,0.0018405611626803875,-0.0015423297882080078,-0.011711925268173218,0.005742892622947693,-0.10628754592354739,1.8075664571583334,2.98799398568262,0.9666149616241455,0.10608753561973572,0.23324041068553925
1727724651593,7i,10.361288969221679,0.9s : 0.2s,0.0743359856531684,0.06900206921501147,0.027650555276066767,0.020812427649258943,-0.01300998404622078,-0.021616235375404358,0.0050057279877364635,0.002852201461791992,-1.9669532775878906e-05,0.02061605453491211,-0.10619143746675765,1.8073473523647339,2.988132423506277,0.9666760563850403,0.10599196702241898,0.2330310344696045
1727724651603,7i,10.361288969221679,0.9s : 0.2s,0.0739820589776615,0.069300658212493,0.025899108515341066,0.03936419228315573,-0.019042443484067917,-0.03143482282757759,0.013619156554341316,0.007929325103759766,-0.010167784988880157,0.03719249367713928,-0.10603902184739845,1.8070695499931733,2.9882608821174106,0.9667565226554871,0.10584041476249695,0.2327662855386734
1727724651613,7i,10.361288969221679,0.9s : 0.2s,0.07400209730779642,0.06960317136135885,0.02513382068834509,0.02077667267930061,-0.012825293466448784,-0.034229546785354614,0.022345803678035736,0.0007340312004089355,0.003220096230506897,0.020512491464614868,-0.1057568663279472,1.8067645769634164,2.988388295161014,0.9668564200401306,0.1055598333477974,0.23247841000556946
1727724651623,7i,10.361288969221679,0.9s : 0.2s,0.07445711078765865,0.06989713678647252,0.025656414712481253,0.010642262921402001,0.012871813960373402,-0.0333685465157032,0.032178327441215515,-0.0038084983825683594,-0.00018342584371566772,0.009935766458511353,-0.10545079744206552,1.8064594435332306,2.9883221999079908,0.9669586420059204,0.10525546967983246,0.23219089210033417
1727724651633,7i,10.361288969221679,0.9s : 0.2s,0.07510496160262543,0.07018634882648181,0.02673259612793447,0.01280592813381413,0.038023240864276886,-0.027555927634239197,0.033428680151700974,-0.009665191173553467,-0.00628267228603363,0.00557708740234375,-0.10510891875002065,1.8061612965101097,2.987985013053653,0.9670627117156982,0.10491548478603363,0.23191094398498535
1727724651643,7i,10.361288969221679,0.9s : 0.2s,0.07620172769044126,0.07047504588810152,0.028982256814784887,0.013695981591431598,0.049935292452573776,-0.02252388559281826,0.03695297613739967,-0.006471991539001465,-0.009572036564350128,0.00735318660736084,-0.10478014803149327,1.8058627139221288,2.9874636747112406,0.9671654105186462,0.10458852350711823,0.23163020610809326
1727724651653,7i,10.361288969221679,0.9s : 0.2s,0.07657736190777134,0.07076169001120644,0.02927243726633837,0.013144775317734331,0.03673160821199417,-0.016878515481948853,0.030176827684044838,-0.0028824806213378906,-0.01018030196428299,0.007799863815307617,-0.10437914432571972,1.8056589192883006,2.986934109424997,0.9672532677650452,0.10418970882892609,0.23144282400608063
1727724651663,7i,10.361288969221679,0.9s : 0.2s,0.0767429658429242,0.0710736449607819,0.028948571611686687,0.024730776354448755,0.028220541775226593,-0.013998884707689285,0.025587236508727074,-0.0052925944328308105,-0.014900408685207367,0.019015192985534668,-0.10412349913869025,1.8055104857411308,2.9865620054621376,0.9673135280609131,0.10393545776605606,0.23130546510219574
1727724651673,7i,10.361288969221679,0.9s : 0.2s,0.07621514978288617,0.07137277791660507,0.026733417830399953,0.011675285949348914,0.008881999179720879,-0.008982555009424686,0.015034460462629795,-0.010493874549865723,-0.0002991706132888794,0.005108952522277832,-0.1039868488610513,1.8055127211802395,2.986326215565898,0.9673267602920532,0.10379954427480698,0.2313109189271927
1727724651683,7i,10.361288969221679,0.9s : 0.2s,0.07520935741869511,0.07166289444994757,0.022822729950395984,0.01176140146292628,-0.007157554384320974,-0.0025467153172940016,0.011392088606953621,-0.009776949882507324,-0.004891149699687958,0.00433802604675293,-0.10380183005244226,1.8056583221088425,2.986321121837109,0.9673117399215698,0.10361552238464355,0.2314562201499939
1727724651693,7i,10.361288969221679,0.9s : 0.2s,0.07473355003119295,0.07196971404422474,0.02013613072706225,0.02115266182600588,-0.02737121284008026,-0.0007522774394601583,0.012693574652075768,-0.012630283832550049,-0.008373335003852844,0.014757990837097168,-0.10366696178306839,1.8057830574860083,2.9864607497278204,0.9672964811325073,0.10348138213157654,0.23158013820648193
1727724651703,7i,10.361288969221679,0.9s : 0.2s,0.07444214986079313,0.07229943908494352,0.017732027066844958,0.02478123442464302,-0.03769415616989136,-0.0012136257719248533,0.013497383333742619,-0.008601486682891846,-0.005151920020580292,0.022662341594696045,-0.10346572391805751,1.8058723998906199,2.986751303302033,0.9672962427139282,0.10328122228384018,0.23167145252227783
1727724651713,7i,10.361288969221679,0.9s : 0.2s,0.07432289294725936,0.0726355807848866,0.01574689874521286,0.027497799744260063,-0.034724198281764984,0.00416782358661294,0.012255018576979637,-0.0006371736526489258,0.008731894195079803,0.02606678009033203,-0.10322194651193736,1.8059749662946198,2.987113958936186,0.9672967791557312,0.1030387431383133,0.23177647590637207
1727724651723,7i,10.361288969221679,0.9s : 0.2s,0.07434853378221812,0.07297917605069462,0.01420367341666762,0.03425368532097183,-0.014283374883234501,0.0007289727218449116,0.004313938785344362,0.0015033483505249023,0.014451533555984497,0.031019479036331177,-0.10304030333686078,1.8060716711417568,2.9873405947944955,0.9672926068305969,0.10285806655883789,0.23187440633773804
1727724651733,7i,10.361288969221679,0.9s : 0.2s,0.07445579788239273,0.07331650582561074,0.012975199876183181,0.021393183054693655,0.006999543402343988,0.0004197796806693077,0.0025956672616302967,0.0016604065895080566,0.007353395223617554,0.02002096176147461,-0.10295106262754634,1.8061294137213826,2.987360342750589,0.9672880172729492,0.10276930034160614,0.2319323718547821
1727724651743,7i,10.361288969221679,0.9s : 0.2s,0.07460285384574124,0.07364067004477143,0.011943094962618922,0.011699858698571545,-0.008042522706091404,-0.000803232891485095,0.0058615016750991344,-0.0017604827880859375,-0.01061316579580307,0.004598706960678101,-0.10283532130583523,1.8062324609487383,2.9873515307265794,0.9672755599021912,0.10265416651964188,0.23203478753566742
1727724651753,7i,10.361288969221679,0.9s : 0.2s,0.07473971885516338,0.07392189122182882,0.011026312744384287,0.008659910989806662,-0.012748594395816326,0.007513819262385368,0.011300741694867611,-0.0032471418380737305,-0.001237727701663971,-0.007932096719741821,-0.10273671093157431,1.8063123425473544,2.9874681565959675,0.967266857624054,0.10255607962608337,0.23211440443992615
1727724651763,7i,10.361288969221679,0.9s : 0.2s,0.074927927118178,0.07412715802393624,0.010925140984050534,0.02505995631408994,0.012096035294234753,0.013837406411767006,0.022972244769334793,-0.004150032997131348,0.013335667550563812,-0.0208071768283844,-0.10255137466522792,1.8064462785556117,2.987414643448488,0.9672542214393616,0.1023717150092125,0.23224839568138123
1727724651773,7i,10.361288969221679,0.9s : 0.2s,0.07516160848817871,0.07428434639950791,0.011450033647469111,0.0192958653919946,0.019258074462413788,0.013422752730548382,0.02716432698071003,-0.009237170219421387,0.006892144680023193,-0.01547589898109436,-0.10231028718087654,1.8066550378732735,2.9872091669220158,0.9672296643257141,0.10213189572095871,0.23245607316493988
1727724651783,7i,10.361288969221679,0.9s : 0.2s,0.07553035558839441,0.0744025882445684,0.013003440999155333,0.016682834558506873,0.02996930666267872,0.013076985254883766,0.02688749134540558,-0.008289337158203125,0.007542453706264496,-0.01235780119895935,-0.10207074242336948,1.8068960960165845,2.986904383182807,0.9671975374221802,0.1018935963511467,0.23269498348236084
1727724651793,7i,10.361288969221679,0.9s : 0.2s,0.0757034986914722,0.07448285278150973,0.013539732481023409,0.015558322553561838,0.02913573756814003,0.005561278201639652,0.016685720533132553,-0.0050792694091796875,0.0054543837904930115,-0.013656944036483765,-0.10199165777787551,1.8070856032818678,2.9865833672591506,0.9671613574028015,0.10181492567062378,0.23288017511367798
1727724651803,7i,10.361288969221679,0.9s : 0.2s,0.07574231077834367,0.07452243976071124,0.0135389665098324,0.015155812354430975,0.02756980061531067,0.004997576121240854,0.006781557574868202,0.00200045108795166,0.005738928914070129,-0.013883858919143677,-0.1020430365628184,1.8072584315471192,2.9862949422881844,0.9671157002449036,0.10186603665351868,0.2330460250377655
1727724651813,7i,10.361288969221679,0.9s : 0.2s,0.07556560509959269,0.07455970354926607,0.012288664724580503,0.009918032409066952,0.005552115384489298,0.0058607067912817,-0.0020670616067945957,-0.000876307487487793,-0.008898034691810608,-0.0042923688888549805,-0.10210821687401064,1.807392756721703,2.986138464133943,0.9670780897140503,0.1019308790564537,0.2331744134426117
1727724651823,7i,10.361288969221679,0.9s : 0.2s,0.07529900557381843,0.07462481687211585,0.01005370315899135,0.017729287185426483,-0.012604651041328907,0.005278938915580511,-0.009593987837433815,-0.0005800724029541016,-0.015440523624420166,0.00869375467300415,-0.10210469394943142,1.8074864630448235,2.9862024607336357,0.9670567512512207,0.10192736983299255,0.23326516151428223
1727724651833,7i,10.361288969221679,0.9s : 0.2s,0.07507108233371693,0.07472090708933818,0.007242475164071691,0.01838609429111527,-0.02113661915063858,0.005324479192495346,-0.018900137394666672,0.0004904270172119141,-0.006493180990219116,0.01719437539577484,-0.10220630967080133,1.807518968244517,2.9864001441233823,0.9670388102531433,0.10202845931053162,0.23329409956932068
1727724651843,7i,10.361288969221679,0.9s : 0.2s,0.07509030662781079,0.07481342919158959,0.006442434481906165,0.016668493486913127,0.015409540385007858,0.009674353525042534,-0.015494586899876595,0.004517972469329834,0.011316336691379547,0.011373966932296753,-0.10243386419552354,1.807484242966356,2.9864829393853727,0.9670243263244629,0.10225482285022736,0.233255073428154
1727724651853,7i,10.361288969221679,0.9s : 0.2s,0.07585078748697928,0.07487614757241064,0.0121204161277358,0.015135915263145778,0.045466773211956024,0.010213643312454224,-0.007860635407269001,0.0030306577682495117,0.014691077172756195,-0.002020716667175293,-0.1026614102200965,1.8074872958131878,2.9861749296411872,0.9670011401176453,0.1024811714887619,0.2332525998353958
1727724651863,7i,10.361288969221679,0.9s : 0.2s,0.07602044015800437,0.07495174328612275,0.012702106131971818,0.009884591165499137,0.02640852890908718,0.0033291499130427837,0.0037861336022615433,-0.0005486011505126953,-0.007826358079910278,0.006012678146362305,-0.10281023350721738,1.807451945596465,2.985781376927193,0.96699458360672,0.10262921452522278,0.2332148402929306
1727724651873,7i,10.361288969221679,0.9s : 0.2s,0.07591655374138354,0.0750561306199731,0.011397385153003715,0.01816518792273288,-0.00015943299513310194,-0.00624464824795723,0.005597082898020744,-0.0026602745056152344,-0.014135807752609253,0.011093959212303162,-0.10281783486672573,1.807357287581288,2.9856516147276952,0.9670156836509705,0.10263677686452866,0.2331230789422989
1727724651883,7i,10.361288969221679,0.9s : 0.2s,0.0757611918734823,0.07515774894799299,0.009543110979186005,0.0050764723504644485,-0.009802073240280151,-0.004889054223895073,-0.0016740458086133003,-0.004415929317474365,0.0005106404423713684,0.0024514049291610718,-0.10281984693005468,1.8072216931091694,2.9856889406459723,0.9670470952987671,0.10263877362012863,0.23299191892147064
