timestamp,club,max_speed,tempo,w.rotation,l.speed,t.spped,acc,rotation.x,rotation.y,rotation.z,userAcceleration.x,userAcceleration.y,userAcceleration.z,pitch,roll,yaw,gravity.x,gravity.y,gravity.z,impactIndex,minDownIndex,StartIndex,endIndex
1731921774852,9i,9.933181149817315,1.2s : 0.2s,-8.582054929273767,0.0006673156160321042,0.1910266189013229,0.04780583241789454,-0.29232630133628845,-0.013325989246368408,-0.028126785531640053,-0.009779095649719238,-0.0067136287689208984,0.04631084203720093,-0.2804722178694722,2.0338690171961047,2.967435289044556,0.8597240447998047,0.2768094539642334,0.42924433946609497, 150, 107, 10, 130
1731921774862,9i,9.933181149817315,1.2s : 0.2s,-8.582054929273767,0.0016073942391292182,0.18230756183923955,0.029554310631915954,-0.24676215648651123,-0.022801781073212624,-0.012192361056804657,-0.001021265983581543,0.022523343563079834,0.019107937812805176,-0.27943903340725146,2.0344619659544434,2.970064678982703,0.8597248196601868,0.2758164703845978,0.4298817813396454, 150, 107, 10, 130
1731921774872,9i,9.933181149817315,1.2s : 0.2s,-8.582054929273767,0.002390314624145059,0.16809925651635915,0.030957159905944248,-0.20454280078411102,-0.017702894285321236,-0.01575540378689766,0.0002243518829345703,0.030879080295562744,-0.002185821533203125,-0.27854061872323627,2.0348923927002285,2.9722102883945793,0.8597609400749207,0.27495279908180237,0.4303625524044037, 150, 107, 10, 130
1731921774882,9i,9.933181149817315,1.2s : 0.2s,-8.582054929273767,0.003114588140688197,0.1676454221284791,0.017964325787579165,-0.2439131736755371,-0.0005109459161758423,-0.032697003334760666,-0.003287196159362793,-0.0028914809226989746,-0.01742270588874817,-0.2777977710311818,2.0354528670038694,2.974385416546504,0.8597018718719482,0.2742385268211365,0.43093571066856384, 150, 107, 10, 130
1731921774892,9i,9.933181149817315,1.2s : 0.2s,-8.582054929273767,0.003940200276585474,0.1685420184538306,0.05977630782388796,-0.26338595151901245,0.009500409476459026,-0.03536921739578247,-0.008786916732788086,-0.05081731081008911,-0.030225783586502075,-0.2769230835672141,2.0363229857015552,2.9769935221017807,0.8595406413078308,0.2733972668647766,0.4317910969257355, 150, 107, 10, 130
1731921774902,9i,9.933181149817315,1.2s : 0.2s,-8.582054929273767,0.005068789361042965,0.1690180666147813,0.0823751912529001,-0.2555774748325348,0.01278497464954853,-0.04522541165351868,-0.0053893327713012695,-0.07857942581176758,-0.024122625589370728,-0.2760732854221686,2.037249606337677,2.9796106126230546,0.8593475818634033,0.27257972955703735,0.4326918423175812, 150, 107, 10, 130
1731921774912,9i,9.933181149817315,1.2s : 0.2s,-8.582054929273767,0.006512052095751603,0.16806122025893888,0.09786067565281228,-0.234396830201149,0.009885590523481369,-0.043347615748643875,0.002877950668334961,-0.09023764729499817,-0.03775706887245178,-0.27531263853315685,2.0381275509248273,2.982151131815616,0.8591521978378296,0.27184781432151794,0.43353939056396484, 150, 107, 10, 130
1731921774922,9i,9.933181149817315,1.2s : 0.2s,-8.582054929273767,0.007995543585399653,0.15165574201683552,0.0834874013336901,-0.16073492169380188,0.005833768751472235,-0.054712820798158646,0.003714323043823242,-0.07338085770606995,-0.03964340686798096,-0.27482540412373785,2.0388152084464477,2.9842143328497204,0.8589717745780945,0.27137890458106995,0.43418970704078674, 150, 107, 10, 130
1731921774932,9i,9.933181149817315,1.2s : 0.2s,-8.582054929273767,0.009505562067482544,0.13149995685370297,0.07926737734141641,-0.11398286372423172,0.010074852965772152,-0.05987189710140228,0.007129073143005371,-0.06999814510345459,-0.03650689125061035,-0.274719359658477,2.039358732172723,2.985744171484815,0.8587613701820374,0.2712768316268921,0.43466952443122864, 150, 107, 10, 130
1731921774942,9i,9.933181149817315,1.2s : 0.2s,-8.582054929273767,0.0110303711719997,0.10917965748947836,0.07572312717723459,-0.07423391938209534,-0.002513021230697632,-0.04659394547343254,0.010434091091156006,-0.06583258509635925,-0.03593316674232483,-0.2747828465389024,2.039730380568023,2.9868609218521054,0.8585843443870544,0.27133792638778687,0.4349808394908905, 150, 107, 10, 130
1731921774952,9i,9.933181149817315,1.2s : 0.2s,-8.582054929273767,0.012507954315074324,0.0786785417106449,0.048607144953658414,-0.005236742552369833,-0.015507649630308151,-0.01697293482720852,0.011316120624542236,-0.04482552409172058,-0.015009075403213501,-0.2749299716740212,2.0397819470063387,2.987407580946704,0.8585262894630432,0.2714795470237732,0.4350070655345917, 150, 107, 10, 130
1731921774962,9i,9.933181149817315,1.2s : 0.2s,-8.582054929273767,0.013768527600165413,0.0450940117931404,0.030305255721616062,0.05956462770700455,-0.02561727538704872,-0.004054605960845947,0.006848394870758057,-0.029090940952301025,-0.00502246618270874,-0.27513327856087255,2.039500254483469,2.987177556688237,0.8585996627807617,0.2716751992702484,0.4347403347492218, 150, 107, 10, 130
1731921774972,9i,9.933181149817315,1.2s : 0.2s,-8.582054929273767,0.014839393921394028,0.08605442270254192,0.022422743486492994,0.11466941982507706,-0.28136035799980164,0.3690284192562103,-0.004206717014312744,-0.017441898584365845,-0.013448536396026611,-0.27518979758168793,2.0387836083349447,2.9862676277824365,0.8588970899581909,0.27172958850860596,0.43411785364151, 150, 107, 10, 130
1731921774982,9i,9.933181149817315,1.2s : 0.2s,-8.582054929273767,0.015851045677051163,0.20520472701395306,0.02872467128627043,0.15430006384849548,-0.387724369764328,0.6026459336280823,-0.019162893295288086,-0.020860522985458374,-0.004767477512359619,-0.2758565085984502,2.0387913603011256,2.985287917138248,0.8587320446968079,0.27237117290496826,0.4340428113937378, 150, 107, 10, 130
1731921774992,9i,9.933181149817315,1.2s : 0.2s,-8.582054929273767,0.016827216732373165,0.22610492321665135,0.0567115830933316,0.1552790403366089,-0.22109995782375336,0.31837397813796997,-0.04870772361755371,-0.028338730335235596,-0.006377905607223511,-0.276904675197817,2.0388625007198384,2.9841347427155256,0.8584456443786621,0.2733795642852783,0.4339747428894043, 150, 107, 10, 130
1731921775002,9i,9.933181149817315,1.2s : 0.2s,-8.582054929273767,0.01771880783562607,0.17578739608461366,0.018804483336553296,0.14733269810676575,-0.02009618654847145,0.04064182564616203,-0.0024936795234680176,-0.017864257097244263,-0.005315870046615601,-0.2768657599976732,2.038028736557805,2.9823606782057084,0.8588166832923889,0.2733421325683594,0.4332636296749115, 150, 107, 10, 130
1731921775012,9i,9.933181149817315,1.2s : 0.2s,-8.582054929273767,0.018520951187105075,0.14366696786853433,0.015929640957858402,0.1196877509355545,-0.007576400879770517,0.06276444345712662,-0.010702133178710938,-0.009280115365982056,-0.007286787033081055,-0.2771422973393346,2.0377337180254713,2.9808504083182537,0.8588771224021912,0.27360811829566956,0.43297630548477173, 150, 107, 10, 130
1731921775022,9i,9.933181149817315,1.2s : 0.2s,-8.582054929273767,0.01926264024772633,0.11754204255672482,0.02411264015683627,0.08914995193481445,-8.803606033325195e-05,0.05100824683904648,-0.021832168102264404,-0.004660487174987793,-0.009113490581512451,-0.2770828050252345,2.0373293619524295,2.9795987315297157,0.8590667843818665,0.2735508978366852,0.4326363205909729, 150, 107, 10, 130
1731921775032,9i,9.933181149817315,1.2s : 0.2s,-8.582054929273767,0.019878224082901706,0.09782635983099104,0.010270672985443114,0.06648431718349457,0.009476972743868828,0.057247769087553024,0.0018756389617919922,0.006032735109329224,0.008097827434539795,-0.2768957443848416,2.0370723598954497,2.978555089956075,0.8592236638069153,0.2733709514141083,0.43243855237960815, 150, 107, 10, 130
1731921775042,9i,9.933181149817315,1.2s : 0.2s,-8.582054929273767,0.020414160716617273,0.08023656217506953,0.02586777120720718,0.035993050783872604,0.017159927636384964,0.05540822073817253,-0.020831823348999023,0.004096537828445435,0.014778196811676025,-0.27660852906828476,2.0370524975575175,2.977833527228291,0.8593023419380188,0.27309468388557434,0.4324567914009094, 150, 107, 10, 130
1731921775052,9i,9.933181149817315,1.2s : 0.2s,-8.582054929273767,0.020867504517400805,0.06716141625600446,0.03148967875117566,0.028834475204348564,0.018953565508127213,0.052423618733882904,-0.02646273374557495,0.010730624198913574,0.013273179531097412,-0.2762156019188047,2.03709645519534,2.977292877206555,0.8593790531158447,0.2727166712284088,0.43254271149635315, 150, 107, 10, 130
1731921775062,9i,9.933181149817315,1.2s : 0.2s,-8.582054929273767,0.021256933671647427,0.0539428027723107,0.0187675793918833,0.008794987574219704,0.02159941755235195,0.038433898240327835,-0.01329648494720459,0.005943715572357178,0.01183629035949707,-0.27587800594958867,2.037211116167995,2.9769105964688616,0.8594115376472473,0.2723918557167053,0.432682603597641, 150, 107, 10, 130
1731921775072,9i,9.933181149817315,1.2s : 0.2s,-8.582054929273767,0.021614755202991987,0.04588084198372866,0.011076352274175433,-0.01036778837442398,0.02827436290681362,0.03726024180650711,-0.009704351425170898,-0.0035385489463806152,0.0039987266063690186,-0.2755042152083599,2.03747102041045,2.976776139332209,0.8593899011611938,0.2720321714878082,0.4329517185688019, 150, 107, 10, 130
1731921775082,9i,9.933181149817315,1.2s : 0.2s,-8.582054929273767,0.021943425942259454,0.04111616742508259,0.013300033831761772,-0.008925220929086208,0.031682588160037994,0.027113167569041252,-0.012512385845184326,-0.002681136131286621,0.0036252737045288086,-0.2751365344343615,2.0377467003748664,2.9767104387458443,0.859359860420227,0.2716783285140991,0.4332336485385895, 150, 107, 10, 130
1731921775092,9i,9.933181149817315,1.2s : 0.2s,-8.582054929273767,0.022256058965732153,0.03795910422515097,0.012820159008295228,-0.03597281500697136,0.025746934115886688,0.026408229023218155,-0.010394573211669922,-0.007151752710342407,0.0022719502449035645,-0.2748034010524972,2.038031275304788,2.976775269641268,0.8593173623085022,0.2713577151298523,0.4335189759731293, 150, 107, 10, 130
1731921775102,9i,9.933181149817315,1.2s : 0.2s,-8.582054929273767,0.022568636367746534,0.03578532962894783,0.016921020295343488,-0.03589491918683052,0.019754555076360703,0.033619869500398636,-0.004645168781280518,-0.01557275652885437,0.004715144634246826,-0.274389235627054,2.0383255204511763,2.9770119367701575,0.8592897653579712,0.2709590792655945,0.43382224440574646, 150, 107, 10, 130
1731921775112,9i,9.933181149817315,1.2s : 0.2s,-8.582054929273767,0.022875192326969454,0.03373674283851372,0.019268091495519047,-0.019905567169189453,0.017138533294200897,0.025140631943941116,-0.0053345561027526855,-0.014992237091064453,0.01086437702178955,-0.27402399253553306,2.0385577444621363,2.9771104047571475,0.8592773675918579,0.27060747146606445,0.43406644463539124, 150, 107, 10, 130
1731921775122,9i,9.933181149817315,1.2s : 0.2s,-8.582054929273767,0.023199801441265967,0.12038377673864008,0.028128112585800082,-0.0040207430720329285,-0.28686726093292236,0.4269142150878906,-0.007984340190887451,-0.02527928352355957,0.009402066469192505,-0.273392686009757,2.0383232825129722,2.9769662923046774,0.8595313429832458,0.2699996531009674,0.4339418113231659, 150, 107, 10, 130
1731921775132,9i,9.933181149817315,1.2s : 0.2s,-8.582054929273767,0.02355984179027842,0.3111744277150551,0.03580612035442103,0.027730261906981468,-0.6799665689468384,0.9056670069694519,-0.008007049560546875,-0.03389519453048706,0.00831151008605957,-0.2734506307411271,2.03876596842283,2.9771872497654996,0.8593253493309021,0.27005547285079956,0.4343152940273285, 150, 107, 10, 130
1731921775142,9i,9.933181149817315,1.2s : 0.2s,-8.582054929273767,0.024041888768509635,0.38864206131046364,0.05076322855378124,0.0468309186398983,-0.610816478729248,0.6012454032897949,-0.03215169906616211,-0.039282798767089844,-0.00018799304962158203,-0.2743395253744476,2.0402607254940923,2.977888661789777,0.8584608435630798,0.27091121673583984,0.43549054861068726, 150, 107, 10, 130
1731921775152,9i,9.933181149817315,1.2s : 0.2s,-8.582054929273767,0.024567612105356997,0.3022944904753908,0.04387816672634002,0.0004892535507678986,-0.13354551792144775,0.08416949212551117,-0.005754709243774414,-0.04322540760040283,0.00487247109413147,-0.2739017249589034,2.0401513402644587,2.977994563109107,0.8586139678955078,0.27048975229263306,0.43545013666152954, 150, 107, 10, 130
1731921775161,9i,9.933181149817315,1.2s : 0.2s,-8.582054929273767,0.025120230635373452,0.2183755045275907,0.039376985728511615,-0.027355758473277092,-0.016495149582624435,0.03100118413567543,0.005890905857086182,-0.038761913776397705,0.0036548972129821777,-0.27346565566943104,2.0400144893310066,2.978119169185336,0.8587789535522461,0.2700699269771576,0.4353860914707184, 150, 107, 10, 130
1731921775171,9i,9.933181149817315,1.2s : 0.2s,-8.582054929273767,0.025676952800390902,0.15642557395528667,0.02813392997759673,-0.005271230358630419,-0.004828906152397394,0.019132006913423538,-0.01285332441329956,-0.02502378821372986,0.0003465414047241211,-0.2732225008861746,2.0399588922777903,2.978192303099018,0.8588615655899048,0.26983579993247986,0.4353679418563843, 150, 107, 10, 130
1731921775181,9i,9.933181149817315,1.2s : 0.2s,-8.582054929273767,0.02619756246278492,0.10873132202637432,0.01891698865635517,0.025709256529808044,0.006264934781938791,-0.0006380032282322645,0.015108764171600342,-0.011288583278656006,0.0014647841453552246,-0.27315678150871764,2.039873496580851,2.977964127690056,0.8589147329330444,0.2697725296020508,0.4353027045726776, 150, 107, 10, 130
1731921775191,9i,9.933181149817315,1.2s : 0.2s,-8.582054929273767,0.026706767038459575,0.06390107006790487,0.020050787720631263,0.012488791719079018,0.05603249371051788,-0.03478798270225525,-0.0024228692054748535,-0.013519287109375,-0.01460796594619751,-0.2731280837434722,2.0397156026359022,2.9776694767992655,0.8589903116226196,0.269744873046875,0.43517056107521057, 150, 107, 10, 130
1731921775201,9i,9.933181149817315,1.2s : 0.2s,-8.582054929273767,0.027213335354841942,0.011662012798459765,0.022544860769817276,-0.01484895683825016,0.14319570362567902,-0.12424536049365997,-0.0026900768280029297,-0.017805397510528564,-0.013564735651016235,-0.27306298030232323,2.0395933012964664,2.9774529783540813,0.8590589761734009,0.2696821987628937,0.4350733458995819, 150, 107, 10, 130
1731921775211,9i,9.933181149817315,1.2s : 0.2s,-8.582054929273767,0.027727189931925522,0.06440970427704427,0.02726595827196786,-0.05747231841087341,0.23974701762199402,-0.2315872609615326,0.002232372760772705,-0.023371845483779907,-0.013863831758499146,-0.27290140170547555,2.0395632595503135,2.9775640631766924,0.8591108918190002,0.2695266008377075,0.43506717681884766, 150, 107, 10, 130
1731921775221,9i,9.933181149817315,1.2s : 0.2s,-8.582054929273767,0.028233848732682428,0.1350768313508251,0.019811055895603922,-0.07423931360244751,0.3077009618282318,-0.3177611529827118,-0.0008174777030944824,-0.0188465416431427,-0.006051242351531982,-0.2726547089721523,2.0395637929125283,2.9777610304377533,0.8591699600219727,0.2692890167236328,0.43509766459465027, 150, 107, 10, 130
1731921775231,9i,9.933181149817315,1.2s : 0.2s,-8.582054929273767,0.028725519979498886,0.18866997425827256,0.016785271701006563,-0.0947941243648529,0.3130975663661957,-0.3348730504512787,0.0008948445320129395,-0.01674175262451172,-0.0008113682270050049,-0.2722437532613431,2.0396227912163987,2.9781661779136077,0.8592429757118225,0.2688932418823242,0.4351983368396759, 150, 107, 10, 130
1731921775241,9i,9.933181149817315,1.2s : 0.2s,-8.582054929273767,0.029180442045115544,0.20429861422076204,0.00566804462054133,-0.08162498474121094,0.2198171615600586,-0.27354133129119873,-0.0021009445190429688,-0.0047397613525390625,-0.0022907257080078125,-0.2717437986899116,2.039711139857418,2.9785975361699357,0.8593243956565857,0.26841166615486145,0.4353350102901459, 150, 107, 10, 130
1731921775251,9i,9.933181149817315,1.2s : 0.2s,-8.582054929273767,0.02958222732099538,0.16327392215319067,0.011145476948566022,-0.0361456573009491,0.02886851504445076,-0.10105559229850769,-0.005429685115814209,0.006812065839767456,-0.006952404975891113,-0.27118846337650665,2.039730567407185,2.9789490732842556,0.8594487905502319,0.26787665486335754,0.4354189932346344, 150, 107, 10, 130
1731921775261,9i,9.933181149817315,1.2s : 0.2s,-8.582054929273767,0.029907136938105018,0.12998880943004998,0.019463794583380805,0.0004060963401570916,-0.22835761308670044,0.13169702887535095,-0.006641805171966553,0.018212050199508667,0.0017455518245697021,-0.2706324592688607,2.0396696323047907,2.9791646942693633,0.859607994556427,0.26734092831611633,0.4354338049888611, 150, 107, 10, 130
1731921775271,9i,9.933181149817315,1.2s : 0.2s,-8.582054929273767,0.03016424631114055,0.055363619580628576,0.01845779402537455,0.013763979077339172,-0.5088343024253845,0.41698789596557617,-0.005396008491516113,0.0176335871219635,0.0007936358451843262,-0.27009264928850346,2.0397071417673183,2.979530998471182,0.8597201704978943,0.2668207287788391,0.4355311691761017, 150, 107, 10, 130
1731921775281,9i,9.933181149817315,1.2s : 0.2s,-8.582054929273767,0.03038318442489731,0.23536100612074679,0.009549026381602143,0.013241134583950043,-0.7482743263244629,0.670906126499176,-0.005442976951599121,0.007607847452163696,-0.0019179582595825195,-0.2695551321397485,2.0398928276775803,2.980172253262933,0.8597672581672668,0.2663026452064514,0.4357556402683258, 150, 107, 10, 130
1731921775291,9i,9.933181149817315,1.2s : 0.2s,-8.582054929273767,0.030597966896977705,0.38811251468605484,0.01119179409357149,0.010206995531916618,-0.7925914525985718,0.7820539474487305,-0.009268641471862793,-0.006184101104736328,-0.001051396131515503,-0.26896732953944485,2.040222558764464,2.981014386967284,0.8597627878189087,0.26573604345321655,0.4361097514629364, 150, 107, 10, 130
1731921775301,9i,9.933181149817315,1.2s : 0.2s,-8.582054929273767,0.03083134458699965,0.4819582936532784,0.020263797306707923,-0.019272932782769203,-0.71354740858078,0.7659465074539185,-0.012723684310913086,-0.01544913649559021,-0.0031707286834716797,-0.2683215951202398,2.040662757244517,2.9819660200275755,0.8597237467765808,0.2651134729385376,0.43656590580940247, 150, 107, 10, 130
1731921775311,9i,9.933181149817315,1.2s : 0.2s,-8.582054929273767,0.03108689967321811,0.5068781985735904,0.02313277763257591,-0.021766716614365578,-0.5345443487167358,0.6552003026008606,-0.014659464359283447,-0.01767149567604065,-0.002818465232849121,-0.26765136526071615,2.0410647167771696,2.9827756084439336,0.8597064018249512,0.26446714997291565,0.4369918406009674, 150, 107, 10, 130
1731921775321,9i,9.933181149817315,1.2s : 0.2s,-8.582054929273767,0.03136319641432064,0.4595350301327241,0.021442576966566318,-0.04285196214914322,-0.2759567201137543,0.45060640573501587,-0.009821534156799316,-0.018598884344100952,-0.004171699285507202,-0.2669832850303451,2.041356571530316,2.983293249478964,0.859735906124115,0.2638227939605713,0.43732261657714844, 150, 107, 10, 130
1731921775331,9i,9.933181149817315,1.2s : 0.2s,-8.582054929273767,0.031647534377277124,0.3506123465426326,0.01719955475475044,-0.04327540472149849,0.004146301653236151,0.18541203439235687,-0.009756267070770264,-0.013865292072296143,-0.0028971731662750244,-0.2664103936023146,2.0415693647840722,2.9834724303480065,0.8597775101661682,0.26327016949653625,0.4375741183757782, 150, 107, 10, 130
1731921775341,9i,9.933181149817315,1.2s : 0.2s,-8.582054929273767,0.031937904931442294,0.2036496612507856,0.01680010254881329,-0.041343215852975845,0.26471006870269775,-0.08275867253541946,-0.009225010871887207,-0.012223094701766968,-0.006909310817718506,-0.2660368248037535,2.0416584401091535,2.983236450725624,0.8598262667655945,0.26290977001190186,0.43769535422325134, 150, 107, 10, 130
1731921775351,9i,9.933181149817315,1.2s : 0.2s,-8.582054929273767,0.03224946974842185,0.07587467821655285,0.02297799684478676,-0.08082963526248932,0.46431267261505127,-0.31181636452674866,-0.004134416580200195,-0.01956382393836975,-0.011320412158966064,-0.2657534714783889,2.0417270175793893,2.98297394434598,0.8598626255989075,0.26263636350631714,0.43778812885284424, 150, 107, 10, 130
1731921775361,9i,9.933181149817315,1.2s : 0.2s,-8.582054929273767,0.03259111094989656,0.14988220301548694,0.02913554907836993,-0.09129606187343597,0.5750033855438232,-0.4662052392959595,0.002208411693572998,-0.02897283434867859,-0.0021396279335021973,-0.2654155263898257,2.041757067002089,2.982807263249748,0.8599284887313843,0.262310266494751,0.43785420060157776, 150, 107, 10, 130
1731921775371,9i,9.933181149817315,1.2s : 0.2s,-8.582054929273767,0.03296426652763767,0.2577048728433321,0.03533578798419215,-0.06722082197666168,0.5844576358795166,-0.5207318067550659,0.008684992790222168,-0.03411680459976196,0.0030384957790374756,-0.26508526032928953,2.0417051281755856,2.982572780355479,0.8600282669067383,0.26199156045913696,0.4378487765789032, 150, 107, 10, 130
1731921775381,9i,9.933181149817315,1.2s : 0.2s,-8.582054929273767,0.03333104299299591,0.3179798108722167,0.01867889798276494,-0.002026368398219347,0.5033243298530579,-0.4787124991416931,0.0072438716888427734,-0.017052263021469116,0.0023765265941619873,-0.2648743043162245,2.0415231353301158,2.9819837738497674,0.8601571321487427,0.26178795099258423,0.4377172589302063, 150, 107, 10, 130
1731921775391,9i,9.933181149817315,1.2s : 0.2s,-8.582054929273767,0.03365971192516971,0.32216115851995064,0.007417904853339166,0.06440751999616623,0.35160085558891296,-0.36397525668144226,0.0073587894439697266,-0.0009309649467468262,-8.26716423034668e-05,-0.26480275264123293,2.041161459304946,2.9808999743278197,0.8603320717811584,0.26171889901161194,0.43741464614868164, 150, 107, 10, 130
1731921775401,9i,9.933181149817315,1.2s : 0.2s,-8.582054929273767,0.03395493044742687,0.2774935769250943,0.002663133710275318,0.08963477611541748,0.1647968739271164,-0.20314541459083557,0.002618849277496338,-0.00016814470291137695,-0.0004534721374511719,-0.2648503583477216,2.04072993489282,2.9796629763529343,0.8605098128318787,0.26176485419273376,0.43703776597976685, 150, 107, 10, 130
1731921775411,9i,9.933181149817315,1.2s : 0.2s,-8.582054929273767,0.03423845625341758,0.1963827319479713,0.010526241885648999,0.08296702057123184,-0.024932578206062317,-0.032126784324645996,-0.007315933704376221,-0.007344990968704224,0.0018248260021209717,-0.2648873444883581,2.040392646644244,2.9786816529898603,0.8606483340263367,0.2618005573749542,0.43674302101135254, 150, 107, 10, 130
1731921775421,9i,9.933181149817315,1.2s : 0.2s,-8.582054929273767,0.034550350025934484,0.09775105788041577,0.026792491308331726,0.08698486536741257,-0.1816677749156952,0.1351238191127777,-0.013420403003692627,-0.022843480110168457,-0.003988206386566162,-0.2649144114450356,2.0402361842955226,2.978063512696942,0.8607105016708374,0.26182666420936584,0.4366052448749542, 150, 107, 10, 130
1731921775431,9i,9.933181149817315,1.2s : 0.2s,-8.582054929273767,0.03490916003072467,0.0483064705363332,0.03481540000764996,0.09962449222803116,-0.3039950132369995,0.26655852794647217,-0.01597994565963745,-0.029356390237808228,-0.009744524955749512,-0.2649749547205432,2.040177970115196,2.9775380586153113,0.8607217073440552,0.2618851065635681,0.4365479052066803, 150, 107, 10, 130
1731921775441,9i,9.933181149817315,1.2s : 0.2s,-8.582054929273767,0.03528945225296655,0.12411489101026643,0.02765973080819446,0.10510501265525818,-0.3544379770755768,0.35038700699806213,-0.012447059154510498,-0.0246889591217041,0.0007659792900085449,-0.2650242160052253,2.040170194177258,2.977061824108144,0.8607137203216553,0.2619326412677765,0.43653547763824463, 150, 107, 10, 130
1731921775451,9i,9.933181149817315,1.2s : 0.2s,-8.582054929273767,0.0356520411084533,0.1920172773513482,0.017371464534711244,0.13164128363132477,-0.34313178062438965,0.37823888659477234,-0.006633400917053223,-0.011285871267318726,0.011419057846069336,-0.26508133206897383,2.0401398829567974,2.9763950471617364,0.860713541507721,0.26198774576187134,0.4365025460720062, 150, 107, 10, 130
1731921775461,9i,9.933181149817315,1.2s : 0.2s,-8.582054929273767,0.03595950853963802,0.23141865700978148,0.011371833370459994,0.13774557411670685,-0.2901041507720947,0.36161476373672485,-0.0011770129203796387,0.006858915090560913,0.008993804454803467,-0.2651424510524954,2.039987702705306,2.975383366840505,0.8607656955718994,0.262046754360199,0.4363643527030945, 150, 107, 10, 130
1731921775471,9i,9.933181149817315,1.2s : 0.2s,-8.582054929273767,0.036184044076709665,0.23245124507438103,0.025622140272356337,0.13998769223690033,-0.18948060274124146,0.27754223346710205,-0.004452705383300781,0.023353129625320435,0.009555041790008545,-0.26515876622722806,2.0397455935328805,2.974162340512859,0.8608673214912415,0.2620624899864197,0.43615391850471497, 150, 107, 10, 130
1731921775481,9i,9.933181149817315,1.2s : 0.2s,-8.582054929273767,0.03634235441636309,0.2008564630545927,0.02435914565956817,0.07571050524711609,-0.07871653884649277,0.16143006086349487,-0.008807659149169922,0.022675782442092896,0.00126570463180542,-0.265212462109647,2.039562498785736,2.9730868515058355,0.8609347939491272,0.2621143162250519,0.43599000573158264, 150, 107, 10, 130
1731921775491,9i,9.933181149817315,1.2s : 0.2s,-8.582054929273767,0.03646947406859453,0.14688612646165436,0.01856246599255683,0.0025635897181928158,0.018048090860247612,0.05346471071243286,-0.010961472988128662,0.012360334396362305,-0.008463650941848755,-0.26508643740949855,2.039449832588206,2.972559919415728,0.8610132336616516,0.2619926929473877,0.43590787053108215, 150, 107, 10, 130
1731921775501,9i,9.933181149817315,1.2s : 0.2s,-8.582054929273767,0.03657626905894101,0.0846538318507011,0.0036468927656680395,-0.04063268378376961,0.10145687311887741,-0.03527477756142616,0.0007936358451843262,0.0035580098628997803,0.00010263919830322266,-0.2647523812388358,2.0394323469486055,2.972461992353498,0.8610990047454834,0.2616702914237976,0.43593236804008484, 150, 107, 10, 130
1731921775511,9i,9.933181149817315,1.2s : 0.2s,-8.582054929273767,0.03668345881656003,0.033050802690616124,0.011200119499274892,-0.05705906078219414,0.14597854018211365,-0.0941426232457161,0.008582592010498047,-0.006329774856567383,-0.0034228265285491943,-0.26435718753466236,2.039449816666129,2.972576752981463,0.8611834049224854,0.2612888514995575,0.4359939992427826, 150, 107, 10, 130
1731921775521,9i,9.933181149817315,1.2s : 0.2s,-8.582054929273767,0.036769413799079484,0.03632430775654099,0.009577036507346247,-0.049015384167432785,0.160710871219635,-0.12137842923402786,0.0003600120544433594,0.006796151399612427,-0.006738126277923584,-0.2639902278392907,2.039475171241799,2.9726938288494766,0.8612581491470337,0.26093462109565735,0.43605926632881165, 150, 107, 10, 130
1731921775531,9i,9.933181149817315,1.2s : 0.2s,-8.582054929273767,0.03684232316110476,0.06185249296137669,0.014807685507354718,-0.049318984150886536,0.15011389553546906,-0.1122744157910347,-0.006965339183807373,0.006898552179336548,-0.011097818613052368,-0.2636785952091606,2.0395339013410534,2.972812818896952,0.8613048195838928,0.26063376665115356,0.43614643812179565, 150, 107, 10, 130
1731921775541,9i,9.933181149817315,1.2s : 0.2s,-8.582054929273767,0.036921968265270805,0.07160813085448965,0.012401443368839343,-0.04977564886212349,0.10589440912008286,-0.08394753932952881,-0.008215010166168213,-0.0021081864833831787,-0.009047925472259521,-0.26335095131266173,2.0396070009244704,2.972979826769692,0.8613492250442505,0.2603174149990082,0.4362480640411377, 150, 107, 10, 130
1731921775551,9i,9.933181149817315,1.2s : 0.2s,-8.582054929273767,0.037008232257908426,0.0697151672934595,0.010853410888277232,-0.027418943122029305,0.05910560116171837,-0.05437100678682327,-0.004758298397064209,-0.003140866756439209,-0.009235262870788574,-0.26310878880950506,2.039649750375334,2.973139019828476,0.8613866567611694,0.2600836157798767,0.436313271522522, 150, 107, 10, 130
1731921775561,9i,9.933181149817315,1.2s : 0.2s,-8.582054929273767,0.03711011975629139,0.053612354773434054,0.019949110349424422,-0.007829196751117706,0.01546553522348404,-0.01804891787469387,-0.0007072091102600098,-0.006065458059310913,-0.01899150013923645,-0.26307191397523527,2.03965158094571,2.973225058784441,0.8613943457603455,0.2600480020046234,0.43631917238235474, 150, 107, 10, 130
1731921775571,9i,9.933181149817315,1.2s : 0.2s,-8.582054929273767,0.03723633497008262,0.033817922047599105,0.02418520462983393,0.016364024952054024,-0.01377543993294239,0.005885975435376167,0.0005039572715759277,-0.010410219430923462,-0.021824240684509277,-0.26305195407155685,2.0394654544322393,2.973133584693717,0.8614802360534668,0.2600287199020386,0.43616122007369995, 150, 107, 10, 130
1731921775581,9i,9.933181149817315,1.2s : 0.2s,-8.582054929273767,0.037376650614613934,0.02869834133056591,0.01785860092313837,0.045602936297655106,-0.0154526112601161,0.009767565876245499,-0.0032175779342651367,-0.007244467735290527,-0.016002953052520752,-0.26307618672284766,2.0391764378718107,2.97276514485535,0.8616008162498474,0.2600521147251129,0.4359094500541687, 150, 107, 10, 130
1731921775591,9i,9.933181149817315,1.2s : 0.2s,-8.582054929273767,0.037529894000127836,0.018375055475905257,0.02266905657095,0.08431970328092575,-0.03471951559185982,0.02487993985414505,-0.0067487359046936035,-0.004873901605606079,-0.02108520269393921,-0.2631652867072525,2.038694046987276,2.9720529713231456,0.8617900609970093,0.2601381540298462,0.4354831874370575, 150, 107, 10, 130
1731921775601,9i,9.933181149817315,1.2s : 0.2s,-8.582054929273767,0.03772012540799701,0.03384225773231984,0.0315008735936441,0.11778804659843445,-0.031250037252902985,0.023826859891414642,-0.007893860340118408,-0.012911051511764526,-0.02762782573699951,-0.2634138044975703,2.0380688777921825,2.9710174734024988,0.8620045185089111,0.2603781223297119,0.4349152445793152, 150, 107, 10, 130
1731921775611,9i,9.933181149817315,1.2s : 0.2s,-8.582054929273767,0.037955869061869096,0.05197151332218782,0.03432725084091095,0.13655801117420197,-0.04381802678108215,0.01364639401435852,-0.01655524969100952,-0.01555788516998291,-0.02573394775390625,-0.2638636648526351,2.037349184683546,2.969737141722623,0.862212598323822,0.2608124315738678,0.43424203991889954, 150, 107, 10, 130
1731921775621,9i,9.933181149817315,1.2s : 0.2s,-8.582054929273767,0.03822069123649246,0.06467823269428247,0.033538593732187386,0.13440504670143127,-0.04337044060230255,0.007513898890465498,-0.02105236053466797,-0.012021481990814209,-0.023175835609436035,-0.26437323970563176,2.0365576347152223,2.9684583533564006,0.8624371886253357,0.2613043487071991,0.43349969387054443, 150, 107, 10, 130
1731921775631,9i,9.933181149817315,1.2s : 0.2s,-8.582054929273767,0.03852186408561799,0.0761702172118688,0.03555909283334734,0.14602307975292206,-0.048439234495162964,0.0037338086403906345,-0.02079916000366211,-0.01659160852432251,-0.023591578006744385,-0.26495043032561144,2.0357384024468264,2.9671276913401776,0.8626571297645569,0.2618614137172699,0.43272531032562256, 150, 107, 10, 130
1731921775641,9i,9.933181149817315,1.2s : 0.2s,-8.582054929273767,0.038878867374001445,0.09203858407158248,0.04172654656893865,0.18579985201358795,-0.04835294559597969,0.011721061542630196,-0.0286598801612854,-0.01931285858154297,-0.023382246494293213,-0.2655882695193938,2.034822203728913,2.965545564186554,0.8629037141799927,0.26247695088386536,0.43185997009277344, 150, 107, 10, 130
1731921775651,9i,9.933181149817315,1.2s : 0.2s,-8.582054929273767,0.03925567227795553,0.10212560240920902,0.0418404313627367,0.17909081280231476,-0.054648127406835556,0.006171033252030611,-0.0358504056930542,-0.00903889536857605,-0.019587457180023193,-0.26629489629919095,2.033827476770677,2.9637788466687365,0.8631665110588074,0.26315873861312866,0.4309183359146118, 150, 107, 10, 130
1731921775661,9i,9.933181149817315,1.2s : 0.2s,-8.582054929273767,0.03962758984217012,0.1080263131034772,0.04858308963239045,0.18034537136554718,-0.05065658316016197,-0.0018288688734173775,-0.04084140062332153,0.0046714842319488525,-0.02589350938796997,-0.267030056492637,2.0328543686278917,2.9621172034174417,0.8634120225906372,0.26386791467666626,0.42999181151390076, 150, 107, 10, 130
1731921775671,9i,9.933181149817315,1.2s : 0.2s,-8.582054929273767,0.03995853562382439,0.11142278375423202,0.054869228622955186,0.1819792091846466,-0.04094110429286957,-0.04068918153643608,-0.046185851097106934,0.01629731059074402,-0.02473655343055725,-0.26801241595728625,2.0319488323858805,2.9605252203798913,0.8635685443878174,0.2648153305053711,0.42909425497055054, 150, 107, 10, 130
1731921775681,9i,9.933181149817315,1.2s : 0.2s,-8.582054929273767,0.040190531000378484,0.11687455371818367,0.06756353088801811,0.19081032276153564,0.0033214320428669453,-0.08209478110074997,-0.05693632364273071,0.02898058295249939,-0.02198207378387451,-0.2693543898772318,2.031363341441504,2.959067302185049,0.8635005950927734,0.2661091685295105,0.4284302890300751, 150, 107, 10, 130
1731921775691,9i,9.933181149817315,1.2s : 0.2s,-8.582054929273767,0.04005945389282012,0.12509412101720946,0.10656675783104493,0.18128766119480133,0.0729290023446083,-0.16662004590034485,-0.07057148218154907,0.0793842077255249,-0.00861901044845581,-0.27123462680905946,2.0313608995640196,2.957887666513913,0.8630520105361938,0.26792111992836,0.42820510268211365, 150, 107, 10, 130
1731921775701,9i,9.933181149817315,1.2s : 0.2s,-8.582054929273767,0.03923334893933869,0.16684430066937586,0.18016542135010621,0.25791919231414795,0.22188058495521545,-0.28340426087379456,-0.08911633491516113,0.15371829271316528,0.029808461666107178,-0.27412527306708495,2.0325342468159926,2.957007283585697,0.8618519902229309,0.270704984664917,0.42887061834335327, 150, 107, 10, 130
1731921775710,9i,9.933181149817315,1.2s : 0.2s,-8.582054929273767,0.03741223313875186,0.2711265829302386,0.2748045497397677,0.4590813219547272,0.4403002858161926,-0.4664345383644104,-0.10021108388900757,0.24312645196914673,0.0797797441482544,-0.27897165108838373,2.0353500692602817,2.9554019555016167,0.8594578504562378,0.27536720037460327,0.4307028651237488, 150, 107, 10, 130
1731921775720,9i,9.933181149817315,1.2s : 0.2s,-8.582054929273767,0.034232221458135044,0.41598191304370474,0.4221752287582491,0.5654045343399048,0.6703266501426697,-0.7269302010536194,-0.11221849918365479,0.376365602016449,0.15488016605377197,-0.2866153348263077,2.040335704960697,2.9533631432656495,0.8553977608680725,0.28270724415779114,0.4340173304080963, 150, 107, 10, 130
1731921775730,9i,9.933181149817315,1.2s : 0.2s,-8.582054929273767,0.029476416562980657,0.592378234535782,0.6686858188942211,0.5847662687301636,0.9366248846054077,-1.0384894609451294,-0.14365249872207642,0.5987919569015503,0.2606777250766754,-0.2970521309848163,2.0479823917027162,2.9521832147897054,0.8493865132331848,0.29270273447036743,0.4391663372516632, 150, 107, 10, 130
1731921775740,9i,9.933181149817315,1.2s : 0.2s,-8.582054929273767,0.024857497923750176,0.8167014821508487,0.8793805172958921,0.5631774067878723,1.2912780046463013,-1.451998233795166,-0.1508433222770691,0.8037434816360474,0.32334625720977783,-0.310633703340403,2.059241736983574,2.9529522729325843,0.8408001065254211,0.3056620657444,0.4467952251434326, 150, 107, 10, 130
1731921775750,9i,9.933181149817315,1.2s : 0.2s,-8.582054929273767,0.025740118181391033,1.112205893168953,1.0008005348512383,0.8366323709487915,1.6140385866165161,-1.9830349683761597,-0.1817123293876648,0.9083906412124634,0.37869352102279663,-0.32879427669698386,2.0745732891855866,2.9552734368632625,0.8288528919219971,0.322902113199234,0.4568776786327362, 150, 107, 10, 130
1731921775760,9i,9.933181149817315,1.2s : 0.2s,-8.582054929273767,0.036198235826305505,1.5295314819204238,1.1274594851062156,2.075695753097534,1.7261970043182373,-2.659877061843872,-0.27320462465286255,1.028802752494812,0.3716033101081848,-0.3558577525326757,2.090875739411555,2.9545161194630682,0.8134114146232605,0.348394513130188,0.46581408381462097, 150, 107, 10, 130
1731921775770,9i,9.933181149817315,1.2s : 0.2s,-8.582054929273767,0.05460688558174296,1.945345840720514,1.3641670613657602,2.528698205947876,2.0215418338775635,-2.9390788078308105,-0.4101191759109497,1.238541841506958,0.39845719933509827,-0.3919951873781061,2.107335858504976,2.948118895062136,0.7942895293235779,0.38203302025794983,0.47239217162132263, 150, 107, 10, 130
1731921775780,9i,9.933181149817315,1.2s : 0.2s,-8.582054929273767,0.08075907082196424,2.3481243117937796,1.8913892326789807,3.301741361618042,2.1730289459228516,-2.9854094982147217,-0.5389068722724915,1.7109618186950684,0.5996184349060059,-0.4323239497897752,2.12399670872533,2.9374141196738686,0.7725646495819092,0.41898205876350403,0.4770720303058624, 150, 107, 10, 130
1731921775790,9i,9.933181149817315,1.2s : 0.2s,-8.582054929273767,0.11597181884434861,2.7709090241416914,2.517732347380176,3.9149773120880127,2.333341598510742,-3.3171274662017822,-0.626019299030304,2.227734088897705,0.9921072721481323,-0.4780922878571066,2.139537182517019,2.9218046293893005,0.7481047511100769,0.4600861966609955,0.47818371653556824, 150, 107, 10, 130
1731921775800,9i,9.933181149817315,1.2s : 0.2s,-8.582054929273767,0.15942080337988485,3.2545763205813976,2.7886112132677146,4.551601409912109,2.622462511062622,-3.909550666809082,-0.770972728729248,2.4508371353149414,1.0841360092163086,-0.5311373924901399,2.15551633461739,2.903879426966245,0.7189859747886658,0.5065143704414368,0.4759223163127899, 150, 107, 10, 130
1731921775810,9i,9.933181149817315,1.2s : 0.2s,-8.582054929273767,0.21018084671124754,3.800916974367117,3.0186899473397273,5.198297500610352,2.9211854934692383,-4.6645708084106445,-0.9435506463050842,2.665670871734619,1.0565983057022095,-0.5938415168121854,2.172796691782304,2.8843897386509676,0.6830983757972717,0.5595489740371704,0.4693414866924286, 150, 107, 10, 130
1731921775820,9i,9.933181149817315,1.2s : 0.2s,-8.582054929273767,0.2661654654923052,4.388844850588475,3.043370839226423,5.724363803863525,3.23763108253479,-5.525142669677734,-1.0138212442398071,2.68129301071167,1.0222232341766357,-0.6667890167775224,2.1922017080440033,2.8651013562229735,0.6389127969741821,0.6184659600257874,0.4574825167655945, 150, 107, 10, 130
1731921775830,9i,9.933181149817315,1.2s : 0.2s,-8.582054929273767,0.3248824745594485,4.9584572790514745,2.9154357982386805,5.957476615905762,3.4637107849121094,-6.3672943115234375,-0.9059944152832031,2.5545437335968018,1.0738930702209473,-0.7492817092411261,2.215441926520765,2.849378892561957,0.5852394104003906,0.6811130046844482,0.4399770498275757, 150, 107, 10, 130
1731921775840,9i,9.933181149817315,1.2s : 0.2s,-8.582054929273767,0.3846598558624944,5.478969332008797,2.8049648893723793,6.024150371551514,3.5578510761260986,-7.1459150314331055,-0.6687192916870117,2.4734766483306885,1.1412956714630127,-0.8392528090189096,2.2446111379643803,2.8409023736837953,0.5220212340354919,0.7441442012786865,0.41682469844818115, 150, 107, 10, 130
1731921775850,9i,9.933181149817315,1.2s : 0.2s,-8.582054929273767,0.4443879228532779,5.963408490391219,2.7240789498749884,6.086246967315674,3.5598561763763428,-7.926552772521973,-0.3683564364910126,2.4513683319091797,1.1294746398925781,-0.9357695226685566,2.282191682394688,2.8434061279137666,0.44931963086128235,0.8050557971000671,0.38729456067085266, 150, 107, 10, 130
1731921775860,9i,9.933181149817315,1.2s : 0.2s,-8.582054929273767,0.5039686183127572,6.411294451751517,2.698196969972698,6.275355339050293,3.487128257751465,-8.524322509765625,-0.06633883714675903,2.4755523204803467,1.07121741771698,-1.0381546512116322,2.3321424254582257,2.8608706980747556,0.3676084578037262,0.8614686131477356,0.35033705830574036, 150, 107, 10, 130
1731921775870,9i,9.933181149817315,1.2s : 0.2s,-8.582054929273767,0.5631226907637312,6.796256181723895,2.8130251435332694,6.441843032836914,3.325517416000366,-8.918512344360352,0.2509782016277313,2.588164806365967,1.0730905532836914,-1.1444362279398115,2.400510144118638,2.899445308941228,0.2791883945465088,0.9104771018028259,0.30509841442108154, 150, 107, 10, 130
1731921775880,9i,9.933181149817315,1.2s : 0.2s,-8.582054929273767,0.6221028511838396,7.096783837854612,2.9491627324152474,6.477466583251953,3.003288984298706,-9.206979751586914,0.6115545630455017,2.684570074081421,1.056714415550232,-1.2519097206434155,2.5064319571367895,2.97893028259945,0.18600711226463318,0.9495850801467896,0.25236743688583374, 150, 107, 10, 130
1731921775890,9i,9.933181149817315,1.2s : 0.2s,-8.582054929273767,0.6808656462911542,7.331487230755521,3.031152960746885,6.480780601501465,2.7340049743652344,-9.439029693603516,0.9239300489425659,2.6772828102111816,1.0799992084503174,-1.3554726067295704,2.7070290663094365,-3.1262983615748667,0.08995546400547028,0.9769072532653809,0.1938043236732483, 150, 107, 10, 130
1731921775900,9i,9.933181149817315,1.2s : 0.2s,-8.582054929273767,0.7393284607088073,7.518115432975728,3.0472978634615386,6.451690673828125,2.52876615524292,-9.649065017700195,1.1239207983016968,2.608020305633545,1.1050142049789429,-1.4384381267488047,-3.0786219484292987,-2.648421600125899,-0.008304884657263756,0.9912534356117249,0.13171051442623138, 150, 107, 10, 130
1731921775910,9i,9.933181149817315,1.2s : 0.2s,-8.582054929273767,0.798062122945399,7.6641160743157,3.110165587841609,6.441699028015137,2.2504138946533203,-9.81775951385498,1.2419748306274414,2.6049458980560303,1.1596919298171997,-1.4446507434779305,-2.123611310432243,-1.7108170139363912,-0.10707180947065353,0.9920541644096375,0.06606170535087585, 150, 107, 10, 130
1731921775920,9i,9.933181149817315,1.2s : 0.2s,-8.582054929273767,0.8580397502364487,7.786908876450336,3.2421066401095198,6.534907817840576,2.073436975479126,-9.91109561920166,1.338731050491333,2.668856620788574,1.263431429862976,-1.3642321490959677,-1.56534672016901,-1.167334133402555,-0.20509448647499084,0.9787413477897644,-0.0011176953557878733, 150, 107, 10, 130
1731921775930,9i,9.933181149817315,1.2s : 0.2s,-8.582054929273767,0.9201276996251234,7.865794959566347,3.4106362799635654,6.546652317047119,1.8454573154449463,-9.902777671813965,1.4435200691223145,2.746591329574585,1.4159539937973022,-1.2577716207162393,-1.3442981887948788,-0.9591539238467277,-0.3000720739364624,0.9514064788818359,-0.06915237009525299, 150, 107, 10, 130
1731921775940,9i,9.933181149817315,1.2s : 0.2s,-8.582054929273767,0.9844649812010811,7.911475474655857,3.535921129181402,6.542110443115234,1.658567190170288,-9.877789497375488,1.575924038887024,2.748178482055664,1.5705784559249878,-1.1447068353058096,-1.2349709778112603,-0.860736485119792,-0.390224426984787,0.9105889797210693,-0.13620656728744507, 150, 107, 10, 130
1731921775950,9i,9.933181149817315,1.2s : 0.2s,-8.582054929273767,1.0508366546423757,7.9106005321707045,3.642100629054995,6.438327312469482,1.4705506563186646,-9.77042007446289,1.748232364654541,2.7079861164093018,1.6956980228424072,-1.0297473557606829,-1.1715006076613537,-0.8065277687206702,-0.47452011704444885,0.8571689128875732,-0.20023006200790405, 150, 107, 10, 130
1731921775960,9i,9.933181149817315,1.2s : 0.2s,-8.582054929273767,1.1184386887051165,7.84553761321171,3.692403117324365,6.4322357177734375,1.2107261419296265,-9.436851501464844,1.9980156421661377,2.615532875061035,1.6735477447509766,-0.9159527550287362,-1.12950011441069,-0.7717461887047172,-0.5506889224052429,0.7931432127952576,-0.26012617349624634, 150, 107, 10, 130
1731921775970,9i,9.933181149817315,1.2s : 0.2s,-8.582054929273767,1.1866543420365936,7.714317696775806,3.775783409904816,6.5059661865234375,0.7928636074066162,-8.92317008972168,2.3008408546447754,2.4805660247802734,1.6761455535888672,-0.8051377454294241,-1.0990657215705557,-0.7446623268884303,-0.6173233985900879,0.7209261059761047,-0.314924418926239, 150, 107, 10, 130
1731921775980,9i,9.933181149817315,1.2s : 0.2s,-8.582054929273767,1.2550512456156595,7.535145418527208,3.8364799329704784,6.600449562072754,0.28887441754341125,-8.368188858032227,2.562204599380493,2.353811740875244,1.6165568828582764,-0.6983479495902474,-1.0769785799962406,-0.7198540803381396,-0.6744023561477661,0.6429532766342163,-0.36303219199180603, 150, 107, 10, 130
1731921775990,9i,9.933181149817315,1.2s : 0.2s,-8.582054929273767,1.3231742187297344,7.326042625622467,3.81033250575518,6.5110321044921875,-0.14799289405345917,-7.921482086181641,2.7002110481262207,2.2087349891662598,1.532639503479004,-0.595549930002019,-1.0622988361477947,-0.6962266145365977,-0.7230992913246155,0.5609641075134277,-0.4030466675758362, 150, 107, 10, 130
1731921776000,9i,9.933181149817315,1.2s : 0.2s,-8.582054929273767,1.391796123029073,7.064894858020992,3.6730765601570345,6.004702568054199,-0.43552854657173157,-7.564966201782227,2.675541877746582,2.0424184799194336,1.4702019691467285,-0.49743593150573484,-1.0550919157693088,-0.6762472773744976,-0.7645158171653748,0.477173775434494,-0.4333826005458832, 150, 107, 10, 130
1731921776010,9i,9.933181149817315,1.2s : 0.2s,-8.582054929273767,1.4588174401645455,6.729999563207109,3.510268885478144,5.250788688659668,-0.5954282283782959,-7.162169456481934,2.5794687271118164,1.8913302421569824,1.446097731590271,-0.4057035604704279,-1.0541939358366306,-0.661830060350916,-0.7989205121994019,0.39466530084609985,-0.45383408665657043, 150, 107, 10, 130
1731921776020,9i,9.933181149817315,1.2s : 0.2s,-8.582054929273767,1.5236879160750891,6.341343690177679,3.3371804887840417,4.425488471984863,-0.7148935794830322,-6.795053005218506,2.527224540710449,1.6952769756317139,1.3696516752243042,-0.3213327762808715,-1.0577924164582344,-0.6531351979189524,-0.8266781568527222,0.31583139300346375,-0.46567538380622864, 150, 107, 10, 130
1731921776030,9i,9.933181149817315,1.2s : 0.2s,-8.582054929273767,1.5856968707009222,5.92977314776551,3.16857545296231,3.7458512783050537,-0.7047230005264282,-6.400121212005615,2.5031540393829346,1.4428699016571045,1.3008522987365723,-0.2438819504761244,-1.063996443150229,-0.6493456365626629,-0.8484297394752502,0.24147151410579681,-0.47101834416389465, 150, 107, 10, 130
1731921776040,9i,9.933181149817315,1.2s : 0.2s,-8.582054929273767,1.6446621423788839,5.485728148516198,3.0372906998807916,3.102161169052124,-0.7381783723831177,-5.868359565734863,2.4727468490600586,1.2356557846069336,1.2584961652755737,-0.17374049184234056,-1.0710398885770114,-0.6486325957373131,-0.8644854426383972,0.17286773025989532,-0.4719972014427185, 150, 107, 10, 130
1731921776050,9i,9.933181149817315,1.2s : 0.2s,-8.582054929273767,1.7008729515246241,5.023973952586221,2.958452324900945,2.598313331604004,-0.8465621471405029,-5.26145601272583,2.451510429382324,1.0750842094421387,1.2596549987792969,-0.11134879563422631,-1.0790931719909203,-0.6498445687945105,-0.8760707974433899,0.111118845641613,-0.4692040979862213, 150, 107, 10, 130
1731921776060,9i,9.933181149817315,1.2s : 0.2s,-8.582054929273767,1.7544486190296869,4.5565771969615225,2.9152246177721706,2.3015263080596924,-0.9695519208908081,-4.564000129699707,2.462339162826538,0.8765733242034912,1.2911388874053955,-0.056531692099909894,-1.088274390568957,-0.6513317826981907,-0.884412407875061,0.056501585990190506,-0.46327337622642517, 150, 107, 10, 130
1731921776070,9i,9.933181149817315,1.2s : 0.2s,-8.582054929273767,1.804782186868418,4.084368332886799,2.8291086424383374,2.072967052459717,-1.219183325767517,-3.801708698272705,2.487039089202881,0.606864333152771,1.2042458057403564,-0.009453555020692454,-1.0990937120788136,-0.6510468727613313,-0.8907560110092163,0.009453414008021355,-0.4543832838535309, 150, 107, 10, 130
1731921776080,9i,9.933181149817315,1.2s : 0.2s,-8.582054929273767,1.851187581069635,3.63131796463922,2.755892717202429,1.7083617448806763,-1.486053466796875,-3.2148635387420654,2.51080584526062,0.292927086353302,1.0977214574813843,0.030251662575876977,-1.11273737983091,-0.6497598014963947,-0.8965020775794983,-0.030247049406170845,-0.44200563430786133, 150, 107, 10, 130
1731921776090,9i,9.933181149817315,1.2s : 0.2s,-8.582054929273767,1.8931636196858392,3.195743310053464,2.741877150803161,1.1971344947814941,-1.5599244832992554,-2.737093925476074,2.52065110206604,-0.07933055609464645,1.0760645866394043,0.06327450599560717,-1.1280489349886766,-0.6496044187532083,-0.9017696976661682,-0.06323229521512985,-0.42756617069244385, 150, 107, 10, 130
1731921776100,9i,9.933181149817315,1.2s : 0.2s,-8.582054929273767,1.9302824410948738,2.7772951823131433,2.7318387556808994,0.7594935894012451,-1.4480191469192505,-2.279113292694092,2.4824600219726562,-0.45229625701904297,1.046787142753601,0.0900617769903543,-1.143004441675817,-0.6513366681723948,-0.9061964154243469,-0.08994007855653763,-0.4131813049316406, 150, 107, 10, 130
1731921776110,9i,9.933181149817315,1.2s : 0.2s,-8.582054929273767,1.9625106059446842,2.374459759866993,2.686490841199262,0.367315411567688,-1.245627522468567,-1.8464299440383911,2.372520685195923,-0.750069797039032,1.0128049850463867,0.11116669632887226,-1.1562016578702767,-0.654678380899763,-0.9096299409866333,-0.11093787103891373,-0.400332510471344, 150, 107, 10, 130
1731921776120,9i,9.933181149817315,1.2s : 0.2s,-8.582054929273767,1.990458770381343,1.9625293515237736,2.6016689128597217,-0.027448903769254684,-1.0191346406936646,-1.2988994121551514,2.241802215576172,-0.9056717157363892,0.9606053829193115,0.1263259604731789,-1.1669073255652542,-0.6594415258348378,-0.9122122526168823,-0.12599024176597595,-0.38986578583717346, 150, 107, 10, 130
1731921776130,9i,9.933181149817315,1.2s : 0.2s,-8.582054929273767,2.015573275822271,1.5313321948260799,2.589398872718113,-0.42167770862579346,-0.7798927426338196,-0.6496500372886658,2.1846413612365723,-0.9597036838531494,1.0056328773498535,0.13443556904940998,-1.1751135782590867,-0.6653281703374837,-0.9144079685211182,-0.1340309977531433,-0.38196054100990295, 150, 107, 10, 130
1731921776140,9i,9.933181149817315,1.2s : 0.2s,-8.582054929273767,2.039155171345003,1.101062829550293,2.7020574214644797,-0.6617618799209595,-0.4990191161632538,-0.0016941128997132182,2.2325518131256104,-1.0499236583709717,1.1020376682281494,0.13527244651016948,-1.1806507517781584,-0.6718012464415145,-0.9164047837257385,-0.13486027717590332,-0.37684866786003113, 150, 107, 10, 130
1731921776150,9i,9.933181149817315,1.2s : 0.2s,-8.582054929273767,2.0617510490803332,0.6863098101838082,2.837074086275713,-0.622351884841919,-0.1403171420097351,0.6151533722877502,2.311941146850586,-1.1997647285461426,1.1244919300079346,0.1299617597204006,-1.183260749998328,-0.6767103827907766,-0.9180353283882141,-0.12959621846675873,-0.37472090125083923, 150, 107, 10, 130
1731921776160,9i,9.933181149817315,1.2s : 0.2s,-8.582054929273767,2.08345165076719,0.31173424996618415,2.9057554827658234,-0.5776293277740479,0.3247464895248413,1.227413296699524,2.323275566101074,-1.351043462753296,1.1047565937042236,0.11919397926028001,-1.1821900698307344,-0.6787109775421691,-0.9188717603683472,-0.11891194432973862,-0.3762105405330658, 150, 107, 10, 130
1731921776170,9i,9.933181149817315,1.2s : 0.2s,-8.582054929273767,2.10460344166574,0.37499281983295285,2.924205614926723,-0.5946197509765625,0.9325531125068665,1.8929258584976196,2.2654175758361816,-1.4477874040603638,1.1501188278198242,0.10260918996476687,-1.1760780209590407,-0.6781256192755429,-0.9182496666908264,-0.10242922604084015,-0.38252556324005127, 150, 107, 10, 130
1731921776180,9i,9.933181149817315,1.2s : 0.2s,-8.582054929273767,2.1257807602985803,0.8554702284325687,2.9324505801883385,-0.7880045771598816,1.4869080781936646,2.5947976112365723,2.1995537281036377,-1.4941661357879639,1.2364050149917603,0.0792964312693401,-1.1637006429993078,-0.6756688768872622,-0.9153890609741211,-0.07921335846185684,-0.3946998119354248, 150, 107, 10, 130
1731921776190,9i,9.933181149817315,1.2s : 0.2s,-8.582054929273767,2.1475850651852033,1.4619656577207147,3.003318823746032,-1.0143986940383911,2.5382087230682373,3.3875956535339355,2.17716646194458,-1.5590720176696777,1.359839916229248,0.04829234388933925,-1.1431936269355298,-0.6716718514591512,-0.908901572227478,-0.04827357456088066,-0.4142070710659027, 150, 107, 10, 130
1731921776200,9i,9.933181149817315,1.2s : 0.2s,-8.582054929273767,2.1701300461396866,2.138163040511726,3.1011985657954235,-1.2857121229171753,3.428529977798462,4.192221641540527,2.260319232940674,-1.663202166557312,1.3199045658111572,0.009146002164726866,-1.1135546930573266,-0.6657238311491324,-0.8972361087799072,-0.00914587453007698,-0.44145628809928894, 150, 107, 10, 130
1731921776210,9i,9.933181149817315,1.2s : 0.2s,-8.582054929273767,2.194880318414161,2.82933385114345,3.2617529244912604,-1.4172719717025757,4.159873962402344,4.968436241149902,2.479313373565674,-1.6353917121887207,1.3481584787368774,-0.037729171557757527,-1.0755289857194488,-0.656671816961415,-0.8792154788970947,0.037720222026109695,-0.4749286472797394, 150, 107, 10, 130
1731921776220,9i,9.933181149817315,1.2s : 0.2s,-8.582054929273767,2.2236843302538656,3.541157212022423,3.5405610533159058,-1.629033088684082,4.9572649002075195,5.743643760681152,2.8495383262634277,-1.5772873163223267,1.388477087020874,-0.09152945698149058,-1.0291542376838065,-0.6429888387460012,-0.8532764911651611,0.09140171110630035,-0.5133857131004333, 150, 107, 10, 130
1731921776230,9i,9.933181149817315,1.2s : 0.2s,-8.582054929273767,2.2578738620789327,4.334007954744962,3.912938163688822,-2.188206434249878,5.857127666473389,6.773101329803467,3.2976791858673096,-1.5830435752868652,1.3893775939941406,-0.15408713106062724,-0.9729973622896749,-0.6250748782352529,-0.8167831301689148,0.15347811579704285,-0.5561561584472656, 150, 107, 10, 130
1731921776240,9i,9.933181149817315,1.2s : 0.2s,-8.582054929273767,2.299543589411791,5.217774810697676,4.417131657179012,-2.7206928730010986,6.661797046661377,8.119718551635742,3.8382184505462646,-1.5592851638793945,1.5322405099868774,-0.2285831227918768,-0.9056324844200274,-0.6006939629919203,-0.7663493752479553,0.22659772634506226,-0.6011340618133545, 150, 107, 10, 130
1731921776250,9i,9.933181149817315,1.2s : 0.2s,-8.582054929273767,2.35125872935235,6.162924258986272,5.152022731798787,-3.240532398223877,7.102691173553467,9.742478370666504,4.5568389892578125,-1.6143393516540527,1.7811415195465088,-0.3155169019415591,-0.8268950524780034,-0.5646775717660569,-0.699508786201477,0.31030789017677307,-0.6437362432479858, 150, 107, 10, 130
1731921776259,9i,9.933181149817315,1.2s : 0.2s,-8.582054929273767,2.4157032784891435,7.202905254356435,6.113896288991058,-3.587822437286377,7.287124156951904,11.895970344543457,5.529440879821777,-1.7414289712905884,1.942276120185852,-0.41558087514879705,-0.7345634558180416,-0.508224371013498,-0.6132117509841919,0.403721421957016,-0.6789553165435791, 150, 107, 10, 130
1731921776269,9i,9.933181149817315,1.2s : 0.2s,-8.582054929273767,2.4949588832789655,8.328334545831215,7.065041770110177,-4.354756832122803,7.746464252471924,13.756966590881348,6.590851783752441,-1.7622560262680054,1.835740089416504,-0.5266531806366078,-0.6212629099686265,-0.4240760024379992,-0.5031896233558655,0.5026428699493408,-0.7029582262039185, 150, 107, 10, 130
1731921776279,9i,9.933181149817315,1.2s : 0.2s,-8.582054929273767,2.5885530665339127,9.56090111607899,7.637427761602116,-6.033197402954102,8.467394828796387,15.412014961242676,7.35001277923584,-1.581125020980835,1.344491958618164,-0.6464799515809555,-0.47552428090450816,-0.307545025532118,-0.3654238283634186,0.6023803949356079,-0.7096500992774963, 150, 107, 10, 130
1731921776289,9i,9.933181149817315,1.2s : 0.2s,-8.582054929273767,2.6974067926437875,10.911423663937427,8.213280294815448,-8.586591720581055,8.559721946716309,17.283544540405273,8.117445945739746,-0.9483183026313782,0.8159270286560059,-0.7741970189436534,-0.2815921320563618,-0.1431306338481428,-0.1986832469701767,0.6991421580314636,-0.6868224740028381, 150, 107, 10, 130
1731921776299,9i,9.933181149817315,1.2s : 0.2s,-8.582054929273767,2.8289127431151426,12.253609097171047,9.626616223416143,-12.306194305419922,7.800594329833984,18.2303524017334,9.591476440429688,0.348990797996521,0.7439926266670227,-0.904046240997042,-0.019197248699399455,0.09758500040462423,-0.011871526017785072,0.7858356833457947,-0.6183212995529175, 150, 107, 10, 130
1731921776309,9i,9.933181149817315,1.2s : 0.2s,-8.582054929273767,2.991900499394078,13.386434957096819,11.488093261331526,-16.975120544433594,5.884740829467773,17.171810150146484,11.223907470703125,2.1183667182922363,1.229922890663147,-1.021020362677532,0.3372632160561897,0.4458802339853295,0.17289699614048004,0.8526415824890137,-0.49306079745292664, 150, 107, 10, 130
1731921776319,9i,9.933181149817315,1.2s : 0.2s,-8.582054929273767,3.1879434848274437,14.126553631822286,12.724259219698112,-20.76386070251465,2.0645177364349365,14.428072929382324,11.862883567810059,4.196417331695557,1.8891394138336182,-1.0971964130830707,0.806984012070919,0.9346084698594508,0.3293921649456024,0.8899321556091309,-0.3154700994491577, 150, 107, 10, 130
1731921776329,9i,9.933181149817315,1.2s : 0.2s,-8.582054929273767,3.4175462429634575,14.646584846574218,14.164679510067565,-22.08930778503418,-2.428175449371338,12.71133041381836,11.994023323059082,6.8864336013793945,3.0591800212860107,-1.086209272492539,1.2890427310167132,1.4793587266269275,0.4474743902683258,0.8848673701286316,-0.12952320277690887, 150, 107, 10, 130
1731921776339,9i,9.933181149817315,1.2s : 0.2s,-8.582054929273767,3.682671919794257,15.591373182703604,16.376577998622402,-25.59360122680664,-8.088309288024902,11.278023719787598,11.574006080627441,10.236383438110352,5.426890850067139,-0.9802711200139287,1.6633987423568135,1.974634895536189,0.5544116497039795,0.8306483626365662,0.051487114280462265, 150, 107, 10, 130
1731921776349,9i,9.933181149817315,1.2s : 0.2s,-8.582054929273767,3.9764374829284646,16.848834455720198,18.3054088419576,-30.440000534057617,-11.44289779663086,4.601990222930908,9.58769702911377,13.443204879760742,7.902170658111572,-0.8427063077330358,1.8899968319035025,2.3851788941732415,0.6318312287330627,0.7464467287063599,0.20882169902324677, 150, 107, 10, 130
1731921776359,9i,9.933181149817315,1.2s : 0.2s,-8.582054929273767,4.254806688598416,19.57070823856523,13.273041846633145,-39.426483154296875,-12.40334701538086,-0.25404924154281616,4.416909217834473,7.999566555023193,9.626603126525879,-0.6785259402455425,2.0659740466146324,2.8212056236261436,0.6849887371063232,0.6276461482048035,0.36993324756622314, 150, 107, 10, 130
1731921776369,9i,9.933181149817315,1.2s : 0.2s,-8.582054929273767,4.507781774695551,19.37931538539104,14.894008125814745,-27.208499908447266,-11.910569190979004,-2.53786039352417,1.1817679405212402,2.881617307662964,14.56472396850586,-0.5163253698511647,2.1636872418571755,-3.1002167348392957,0.7212164998054504,0.49368786811828613,0.48592013120651245, 150, 107, 10, 130
1731921776379,9i,9.933181149817315,1.2s : 0.2s,-8.582054929273767,4.757898464476644,17.256644832123637,16.752946486800944,-14.101401329040527,-15.793580055236816,-1.4847395420074463,1.924263596534729,3.8530044555664062,16.189897537231445,-0.42757500736079607,2.1104993685193825,-2.8879449181855588,0.7806314826011658,0.4146653413772583,0.46761858463287354, 150, 107, 10, 130
1731921776389,9i,9.933181149817315,1.2s : 0.2s,-8.582054929273767,5.006531054309882,15.803342911143478,13.005406800738971,-13.511605262756348,-14.953269958496094,-7.312692165374756,3.3053371906280518,8.360333442687988,9.397881507873535,-0.40516260880093025,2.01358898653769,-2.743717588079962,0.8304049968719482,0.3941681981086731,0.39377525448799133, 150, 107, 10, 130
1731921776399,9i,9.933181149817315,1.2s : 0.2s,-8.582054929273767,5.227094218428576,15.138676880697147,7.0629397316275755,-14.120346069335938,-14.116212844848633,-10.244094848632812,3.7153139114379883,4.976463317871094,3.3639817237854004,-0.42955448669256324,1.944439797588981,-2.5599013701699924,0.8464231491088867,0.4164658188819885,0.33184924721717834, 150, 107, 10, 130
1731921776409,9i,9.933181149817315,1.2s : 0.2s,-8.582054929273767,5.4221061120390095,14.152859564849276,6.607258530202347,-7.260175704956055,-15.072375297546387,-13.510692596435547,3.0385971069335938,1.460073471069336,5.6825151443481445,-0.5053456192905459,1.8693039082185114,-2.400985312473427,0.8363111615180969,0.48410987854003906,0.257334440946579, 150, 107, 10, 130
1731921776419,9i,9.933181149817315,1.2s : 0.2s,-8.582054929273767,5.60848022720231,13.221930573044277,7.589225127818671,-1.3970091342926025,-15.201058387756348,-14.196502685546875,3.9840087890625,3.8373749256134033,5.196014404296875,-0.6312394378881107,1.7628760355832964,-2.316514303677179,0.7924497127532959,0.5901458263397217,0.1541135013103485, 150, 107, 10, 130
1731921776429,9i,9.933181149817315,1.2s : 0.2s,-8.582054929273767,5.787548654371375,12.692728729431616,7.207171430333921,-0.6066393852233887,-13.842564582824707,-13.725770950317383,4.943347454071045,3.6771464347839355,3.739683151245117,-0.7680595269151103,1.6393328476739082,-2.2819916056576894,0.7175714373588562,0.6947408318519592,0.04925699904561043, 150, 107, 10, 130
1731921776439,9i,9.933181149817315,1.2s : 0.2s,-8.582054929273767,5.968437615407202,12.375507089590876,8.646262595310178,-0.21485069394111633,-12.380670547485352,-14.106502532958984,6.292748928070068,1.2142314910888672,5.803861618041992,-0.9066064303213015,1.5143308436641898,-2.2746839737003413,0.6154389381408691,0.787416398525238,-0.034788038581609726, 150, 107, 10, 130
1731921776449,9i,9.933181149817315,1.2s : 0.2s,-8.582054929273767,6.154701572158013,12.045427178564374,10.621751824165331,0.394849956035614,-10.428594589233398,-14.472503662109375,6.443174362182617,-1.0174648761749268,8.382832527160645,-1.0443585187109394,1.3704134414830011,-2.3083152049782316,0.4924027919769287,0.8646023869514465,-0.10001128166913986, 150, 107, 10, 130
1731921776459,9i,9.933181149817315,1.2s : 0.2s,-8.582054929273767,6.339821319332298,11.513996423428642,10.28502099144637,3.1799230575561523,-8.693048477172852,-13.768091201782227,5.313407897949219,-1.4795215129852295,8.681035041809082,-1.1661306677463406,1.1575693788882326,-2.4352889070674957,0.3605726957321167,0.9192340970039368,-0.15810145437717438, 150, 107, 10, 130
1731921776469,9i,9.933181149817315,1.2s : 0.2s,-8.582054929273767,6.516305010632731,10.894066442108844,9.174292826487456,6.621998310089111,-8.080994606018066,-11.794010162353516,4.555202960968018,-1.992295265197754,7.710287570953369,-1.2412782358367744,0.7865261264336505,-2.7401107509322293,0.22906839847564697,0.9461984038352966,-0.2285522222518921, 150, 107, 10, 130
1731921776479,9i,9.933181149817315,1.2s : 0.2s,-8.582054929273767,6.681283179035232,10.293199778079545,8.821858311076317,9.613974571228027,-7.641722679138184,-9.242585182189941,3.9479284286499023,-2.8043861389160156,7.373904228210449,-1.228646729783902,0.32838705649925115,-3.140706077685811,0.10820845514535904,0.9420356154441833,-0.31758418679237366, 150, 107, 10, 130
1731921776489,9i,9.933181149817315,1.2s : 0.2s,-8.582054929273767,6.8336744600434205,9.853866504331222,8.867958460790518,13.216511726379395,-6.669589519500732,-6.427401065826416,2.6252729892730713,-3.213733196258545,7.8371262550354,-1.1302739224061658,0.019686501739021117,2.888160720021763,0.008394014090299606,0.9045290350914001,-0.4263291656970978, 150, 107, 10, 130
1731921776499,9i,9.933181149817315,1.2s : 0.2s,-8.582054929273767,6.967213049221003,10.023462877770948,8.293490190964256,16.561628341674805,-7.504215240478516,-3.5443508625030518,0.7570916414260864,-3.5420081615448,7.460762023925781,-0.9765999837641544,-0.1189715940515787,2.805976155151585,-0.0664483904838562,0.82859867811203,-0.5558854937553406, 150, 107, 10, 130
1731921776509,9i,9.933181149817315,1.2s : 0.2s,-8.582054929273767,7.074542163562746,10.293918239438108,8.100114553843959,15.774166107177734,-7.29457426071167,-2.960761070251465,-1.2607030868530273,-4.295588970184326,6.750585079193115,-0.8104166596856922,-0.2040279962580736,2.7956232360758704,-0.13964185118675232,0.7245743870735168,-0.67490154504776, 150, 107, 10, 130
1731921776519,9i,9.933181149817315,1.2s : 0.2s,-8.582054929273767,7.149739035344542,10.220417162920583,8.40957782967032,14.193109512329102,-5.603929042816162,-1.6678392887115479,-3.372918128967285,-4.98761510848999,5.870955467224121,-0.6595385891305268,-0.25780007530518956,2.810672600835413,-0.20148374140262604,0.6127522587776184,-0.7641589641571045, 150, 107, 10, 130
1731921776529,9i,9.933181149817315,1.2s : 0.2s,-8.582054929273767,7.194207272208033,9.846977823767942,7.485853465509221,12.659717559814453,-6.468684673309326,-0.21413934230804443,-4.1275153160095215,-4.581592559814453,4.243893146514893,-0.5277664277659935,-0.2981549267626265,2.84331072052789,-0.25378671288490295,0.5036049485206604,-0.8258174061775208, 150, 107, 10, 130
1731921776539,9i,9.933181149817315,1.2s : 0.2s,-8.582054929273767,7.216652615931837,9.52291579314599,4.748392995332994,11.192747116088867,-7.600207805633545,0.15226726233959198,-2.8159987926483154,-3.2771213054656982,1.969228982925415,-0.413032792933996,-0.3474348233085104,2.8784878740029147,-0.31185469031333923,0.40138891339302063,-0.8611814975738525, 150, 107, 10, 130
1731921776549,9i,9.933181149817315,1.2s : 0.2s,-8.582054929273767,7.228570351828479,8.993443780694317,2.162821355357692,9.326932907104492,-7.066707134246826,-0.4826471209526062,-0.9146068096160889,-1.8850088119506836,0.5366864800453186,-0.3145315015419927,-0.40037337468049455,2.91069744598093,-0.3706410527229309,0.3093709945678711,-0.8757367134094238, 150, 107, 10, 130
1731921776559,9i,9.933181149817315,1.2s : 0.2s,-8.582054929273767,7.238499447399633,8.303315618576017,0.6644866655650357,7.821671009063721,-6.174108028411865,-0.9920770525932312,0.10184359550476074,-0.5955054759979248,0.27666521072387695,-0.23234060406664375,-0.45382537509554194,2.939792407509496,-0.42662695050239563,0.2302558571100235,-0.8746265769004822, 150, 107, 10, 130
1731921776569,9i,9.933181149817315,1.2s : 0.2s,-8.582054929273767,7.253079568238729,7.493148796321193,1.0948562285970556,6.238988876342773,-5.5126237869262695,-1.0644372701644897,0.5525764226913452,0.5019173622131348,0.8009047508239746,-0.16574109826607175,-0.5068631939406141,2.9627377657679808,-0.4787849485874176,0.16498331725597382,-0.8622907996177673, 150, 107, 10, 130
1731921776579,9i,9.933181149817315,1.2s : 0.2s,-8.582054929273767,7.275393419804502,6.9305728648637475,1.8917235089688567,6.1740946769714355,-5.58021354675293,-1.1644002199172974,0.9097397923469543,1.0907692909240723,1.2494853734970093,-0.10740462286438085,-0.5588861618209051,2.984636667669515,-0.5271867513656616,0.10719824582338333,-0.8429606556892395, 150, 107, 10, 130
1731921776589,9i,9.933181149817315,1.2s : 0.2s,-8.582054929273767,7.303744466161239,6.542695368196315,2.0571765933583284,6.175286769866943,-5.539617538452148,-1.4361896514892578,0.9761361479759216,1.2880228757858276,1.272843599319458,-0.048757947809746356,-0.6129149346227718,3.00755199910293,-0.5745705962181091,0.04873863235116005,-0.817002534866333, 150, 107, 10, 130
1731921776599,9i,9.933181149817315,1.2s : 0.2s,-8.582054929273767,7.335401069283095,6.313467858124518,2.0691454970256467,6.68718147277832,-5.286245346069336,-1.221498727798462,0.8299550414085388,1.5126237869262695,1.1421501636505127,0.010594523117156168,-0.6665448402612549,3.0351411670844106,-0.6182393431663513,-0.010594325140118599,-0.7859184741973877, 150, 107, 10, 130
1731921776609,9i,9.933181149817315,1.2s : 0.2s,-8.582054929273767,7.36990377140609,6.108347324555619,2.1775515495116644,6.800788402557373,-4.860912322998047,-0.8662101030349731,0.8068200945854187,1.5888454914093018,1.2515358924865723,0.06924742822255071,-0.7187371608532571,3.0710181658839883,-0.6568566560745239,-0.06919209659099579,-0.7508339881896973, 150, 107, 10, 130
1731921776619,9i,9.933181149817315,1.2s : 0.2s,-8.582054929273767,7.405989986396809,5.789220913272003,1.931167748450879,6.174587726593018,-4.268973350524902,-0.6297959685325623,0.809920608997345,1.1329113245010376,1.3378899097442627,0.12198310224916938,-0.7683960851604466,3.109874551905302,-0.6898186206817627,-0.12168081104755402,-0.7136834263801575, 150, 107, 10, 130
1731921776629,9i,9.933181149817315,1.2s : 0.2s,-8.582054929273767,7.442154666516616,5.310207260764839,1.7135047253990363,5.135438442230225,-3.5446784496307373,-0.461570143699646,0.6668699979782104,0.5989165902137756,1.460370421409607,0.16562113066361936,-0.8130032114177811,-3.1362074649212817,-0.716415286064148,-0.16486498713493347,-0.6779149770736694, 150, 107, 10, 130
1731921776639,9i,9.933181149817315,1.2s : 0.2s,-8.582054929273767,7.4771488959914105,4.697050508806311,1.5940240403703199,3.9994304180145264,-2.7634694576263428,-0.33217471837997437,0.5232733488082886,0.18809719383716583,1.4938932657241821,0.19905256483513953,-0.8503898182420512,-3.1046001377542263,-0.7366980314254761,-0.19774068892002106,-0.6466642022132874, 150, 107, 10, 130
1731921776649,9i,9.933181149817315,1.2s : 0.2s,-8.582054929273767,7.510999561677004,4.054361145667332,1.62233731800103,3.128784656524658,-2.167792797088623,-0.19875195622444153,0.39667969942092896,0.12097370624542236,1.5684351921081543,0.22386732065823728,-0.8806167734898764,-3.078892542984539,-0.7518889904022217,-0.2220020890235901,-0.6207881569862366, 150, 107, 10, 130
1731921776659,9i,9.933181149817315,1.2s : 0.2s,-8.582054929273767,7.544534219395943,3.4797947975833297,1.6492851811977527,2.7816174030303955,-1.5854438543319702,-0.14843475818634033,0.23550474643707275,0.3109854757785797,1.6024878025054932,0.2433263359607745,-0.9045704905648404,-3.056785872015091,-0.763001024723053,-0.24093230068683624,-0.5998175144195557, 150, 107, 10, 130
1731921776669,9i,9.933181149817315,1.2s : 0.2s,-8.582054929273767,7.577603113026905,2.9569470496359616,1.6311177385598947,2.3934736251831055,-1.0670065879821777,-0.1644158512353897,0.0808631181716919,0.47388768196105957,1.5586650371551514,0.2604368687568427,-0.9229040785484707,-3.036521201541858,-0.7704687714576721,-0.2575027048587799,-0.5831553936004639, 150, 107, 10, 130
1731921776679,9i,9.933181149817315,1.2s : 0.2s,-8.582054929273767,7.610035872291339,2.4855301414152686,1.6339754013052212,2.054734945297241,-0.5799912214279175,-0.1714317500591278,-0.07646936178207397,0.5143293142318726,1.54902982711792,0.2747936473310644,-0.9357124656661359,-3.0194162271748595,-0.774818480014801,-0.27134832739830017,-0.5709871649742126, 150, 107, 10, 130
1731921776689,9i,9.933181149817315,1.2s : 0.2s,-8.582054929273767,7.639758844485089,2.089995357522314,1.577111631572669,1.8022434711456299,-0.2630767226219177,-0.33627742528915405,-0.2132272720336914,0.47897377610206604,1.4874136447906494,0.28813511359228383,-0.9439118440206447,-3.0049512027153864,-0.7764729857444763,-0.2841647267341614,-0.5624411106109619, 150, 107, 10, 130
1731921776699,9i,9.933181149817315,1.2s : 0.2s,-8.582054929273767,7.66566958349046,1.6933062309599318,1.3270434261109623,1.1876522302627563,-0.04705510288476944,-0.42855212092399597,-0.30107372999191284,0.16212567687034607,1.2822301387786865,0.30010943303536847,-0.948449608927307,-2.9947526966363163,-0.7761967182159424,-0.2956247627735138,-0.5568883419036865, 150, 107, 10, 130
1731921776709,9i,9.933181149817315,1.2s : 0.2s,-8.582054929273767,7.687636047818668,1.2722050265422662,1.2092089616010517,0.445381224155426,0.11422646790742874,-0.39193180203437805,-0.3557854890823364,-0.08238258957862854,1.152742862701416,0.30812028920937673,-0.9494432580742571,-2.9907400524787304,-0.7747992277145386,-0.3032679855823517,-0.5547203421592712, 150, 107, 10, 130
1731921776719,9i,9.933181149817315,1.2s : 0.2s,-8.582054929273767,7.706339939808865,0.8711745255790326,1.1795940637458129,-0.09606032073497772,0.23986205458641052,-0.3009657561779022,-0.40264302492141724,-0.12412482500076294,1.1017775535583496,0.3118595982675981,-0.947461124167022,-2.991702858500201,-0.7727720141410828,-0.3068290650844574,-0.5555891394615173, 150, 107, 10, 130
1731921776729,9i,9.933181149817315,1.2s : 0.2s,-8.582054929273767,7.7217410084849,0.516302718689827,1.073766536697015,-0.4938439130783081,0.3935440480709076,-0.24446384608745575,-0.4644853472709656,-0.16192135214805603,0.9544681310653687,0.3122599037299187,-0.9430971200310947,-2.996209427821042,-0.7702405452728271,-0.3072100281715393,-0.5588840246200562, 150, 107, 10, 130
1731921776739,9i,9.933181149817315,1.2s : 0.2s,-8.582054929273767,7.7336639551037045,0.26387496638396846,0.9389221360837915,-0.7619531154632568,0.5790137648582458,-0.24706974625587463,-0.5369736552238464,-0.12821415066719055,0.7594703435897827,0.3104491343351651,-0.9361445030684714,-3.0032971433581737,-0.7667830586433411,-0.3054863214492798,-0.5645545721054077, 150, 107, 10, 130
1731921776749,9i,9.933181149817315,1.2s : 0.2s,-8.582054929273767,7.742431328751849,0.2603148769531332,0.8014608242621224,-0.9869273900985718,0.6014801859855652,-0.2789882719516754,-0.5460275411605835,-0.049155354499816895,0.5846170783042908,0.30732900342456676,-0.9274096651694188,-3.01249631313711,-0.7625814080238342,-0.30251386761665344,-0.5717996954917908, 150, 107, 10, 130
1731921776759,9i,9.933181149817315,1.2s : 0.2s,-8.582054929273767,7.748731298863949,0.42224305785092353,0.6309443236971802,-1.2628403902053833,0.5016209483146667,-0.2987964153289795,-0.45727241039276123,-0.008149147033691406,0.4346565008163452,0.302823847900494,-0.9184483051278265,-3.023950212500246,-0.7585021257400513,-0.2982167601585388,-0.5794318914413452, 150, 107, 10, 130
1731921776769,9i,9.933181149817315,1.2s : 0.2s,-8.582054929273767,7.753379860795731,0.588309229099088,0.49250175468764684,-1.4420815706253052,0.43090447783470154,-0.23800605535507202,-0.3453812003135681,-0.007535785436630249,0.3510171175003052,0.29666222084556715,-0.9099831614715755,-3.0370867238710946,-0.7550063133239746,-0.292329877614975,-0.5869485139846802, 150, 107, 10, 130
1731921776779,9i,9.933181149817315,1.2s : 0.2s,-8.582054929273767,7.75663028045595,0.7115942616764431,0.41086601151767355,-1.4710935354232788,0.33154404163360596,-0.20494043827056885,-0.3032868504524231,-0.03595155477523804,0.2748371362686157,0.2893584433835639,-0.9023050841179127,-3.050678883906845,-0.7521330118179321,-0.2853373885154724,-0.5940356850624084, 150, 107, 10, 130
1731921776789,9i,9.933181149817315,1.2s : 0.2s,-8.582054929273767,7.758298296045446,0.7960528535105393,0.3430622178667145,-1.4634106159210205,0.25258105993270874,-0.1981927901506424,-0.30334579944610596,-0.04471203684806824,0.1538630723953247,0.2818025317838264,-0.895660588980518,-3.0641126010602315,-0.7498310208320618,-0.2780875265598297,-0.6003504395484924, 150, 107, 10, 130
1731921776799,9i,9.933181149817315,1.2s : 0.2s,-8.582054929273767,7.758480580085935,0.8561958492604672,0.29250426502590304,-1.4905550479888916,0.14997364580631256,-0.14363263547420502,-0.28751951456069946,-0.0156535804271698,0.05144160985946655,0.2739223920440671,-0.8900406016802116,-3.0773179455935025,-0.7481249570846558,-0.27050966024398804,-0.6059154272079468, 150, 107, 10, 130
1731921776808,9i,9.933181149817315,1.2s : 0.2s,-8.582054929273767,7.757557770333998,0.9350949723093951,0.24307229701961522,-1.6876035928726196,0.05065396800637245,-0.10162713378667831,-0.24262398481369019,0.01039499044418335,-0.010473191738128662,0.2648696289241036,-0.8854957501592775,-3.0909683620232387,-0.7472288012504578,-0.2617834508419037,-0.6108341813087463, 150, 107, 10, 130
1731921776818,9i,9.933181149817315,1.2s : 0.2s,-8.582054929273767,7.7559421629537395,1.0413499386707106,0.20120153111332817,-1.9352091550827026,-0.03875979781150818,-0.1304667741060257,-0.18987560272216797,0.042311400175094604,-0.051371753215789795,0.25431823444350693,-0.8815320447077023,-3.1063868369273684,-0.7468919157981873,-0.25158563256263733,-0.6155136227607727, 150, 107, 10, 130
1731921776828,9i,9.933181149817315,1.2s : 0.2s,-8.582054929273767,7.753895551291939,1.1349874346464257,0.18502381757488942,-2.028435230255127,-0.13175950944423676,-0.07655906677246094,-0.14555901288986206,0.071176677942276,-0.08933234214782715,0.24238142792889447,-0.878249940011586,-3.1231426914998983,-0.7471259236335754,-0.24001511931419373,-0.6198351383209229, 150, 107, 10, 130
1731921776838,9i,9.933181149817315,1.2s : 0.2s,-8.582054929273767,7.751728160958714,1.1696518101576086,0.16441319202881294,-1.86293625831604,-0.23660078644752502,-0.08486216515302658,-0.07380884885787964,0.08551928400993347,-0.11945879459381104,0.23046786640939354,-0.8763979929047219,-3.1392508142129265,-0.7481210231781006,-0.2284330427646637,-0.6230034232139587, 150, 107, 10, 130
1731921776848,9i,9.933181149817315,1.2s : 0.2s,-8.582054929273767,7.749561375367679,1.1447292736710748,0.19274672790229933,-1.6034636497497559,-0.23567400872707367,-0.1619977056980133,-0.014452874660491943,0.10496142506599426,-0.16101402044296265,0.22031039181530426,-0.8755342493240599,3.1293188071694176,-0.7493257522583008,-0.2185325175523758,-0.6251034736633301, 150, 107, 10, 130
1731921776858,9i,9.933181149817315,1.2s : 0.2s,-8.582054929273767,7.747426936627312,1.0945331583538902,0.21656180156786567,-1.4299824237823486,-0.2490365207195282,-0.20245079696178436,-0.008928835391998291,0.13414403796195984,-0.16977828741073608,0.21210093513394185,-0.8751542158350986,3.116144184081981,-0.7504400014877319,-0.21051421761512756,-0.6265168786048889, 150, 107, 10, 130
1731921776868,9i,9.933181149817315,1.2s : 0.2s,-8.582054929273767,7.7455155771641495,1.0319674542549042,0.2381190108662416,-1.2878109216690063,-0.275649756193161,-0.1728750616312027,0.016782820224761963,0.17101408541202545,-0.1648429036140442,0.20483789340136946,-0.8753103092551859,3.1041123367396386,-0.7516918778419495,-0.20340844988822937,-0.6273629069328308, 150, 107, 10, 130
1731921776878,9i,9.933181149817315,1.2s : 0.2s,-8.582054929273767,7.743938322001361,0.9776998521267901,0.25178583113954545,-1.2281099557876587,-0.3243587911128998,-0.13353939354419708,0.06986606121063232,0.16861866414546967,-0.17344331741333008,0.1980635052770239,-0.8761524746494802,3.0933040397768488,-0.7532614469528198,-0.1967710703611374,-0.6275973320007324, 150, 107, 10, 130
1731921776888,9i,9.933181149817315,1.2s : 0.2s,-8.582054929273767,7.74257136744588,0.9610544520328888,0.23600426189257648,-1.3277090787887573,-0.32945579290390015,-0.16654154658317566,0.10041683912277222,0.11025363206863403,-0.18291693925857544,0.19098711698634413,-0.8773503874527229,3.082192227492973,-0.7550646066665649,-0.18982815742492676,-0.6275688409805298, 150, 107, 10, 130
1731921776898,9i,9.933181149817315,1.2s : 0.2s,-8.582054929273767,7.741275658982536,0.956943120947264,0.17005187880429698,-1.36244535446167,-0.27936068177223206,-0.17703713476657867,0.07384586334228516,0.07478907704353333,-0.13368254899978638,0.1837311187229316,-0.8782377953858006,3.0704218162682757,-0.7566613554954529,-0.18269915878772736,-0.6277614831924438, 150, 107, 10, 130
1731921776908,9i,9.933181149817315,1.2s : 0.2s,-8.582054929273767,7.739833280522018,0.9558853146411052,0.11764667139375116,-1.384819507598877,-0.21165993809700012,-0.1679520308971405,0.00018483400344848633,0.01606425642967224,-0.11654460430145264,0.17626197909804586,-0.8785560417863493,3.0584500846869576,-0.757890522480011,-0.17535069584846497,-0.6283741593360901, 150, 107, 10, 130
1731921776918,9i,9.933181149817315,1.2s : 0.2s,-8.582054929273767,7.738264443504229,0.9218311763656295,0.14625941980943594,-1.237796664237976,-0.14866863191127777,-0.16133487224578857,-0.040718138217926025,0.018032729625701904,-0.13931500911712646,0.16909058224399123,-0.8783915497368296,3.0469708165907488,-0.7587355375289917,-0.16828596591949463,-0.6292853951454163, 150, 107, 10, 130
1731921776928,9i,9.933181149817315,1.2s : 0.2s,-8.582054929273767,7.736670054988999,0.8585380589794317,0.16577236437600845,-1.0333210229873657,-0.142520472407341,-0.19638553261756897,-0.024360716342926025,0.09990815818309784,-0.13002073764801025,0.1631925396091279,-0.8781443929935888,3.036923063695493,-0.7593306303024292,-0.16246914863586426,-0.6300958395004272, 150, 107, 10, 130
1731921776938,9i,9.933181149817315,1.2s : 0.2s,-8.582054929273767,7.735275860042598,0.7835466395795946,0.21884818701552688,-0.8759866952896118,-0.11589932441711426,-0.22404801845550537,0.0009453296661376953,0.17869530618190765,-0.12633931636810303,0.15879289266078378,-0.8780690977983159,3.028069213493852,-0.7598259449005127,-0.15812639892101288,-0.6306034326553345, 150, 107, 10, 130
1731921776948,9i,9.933181149817315,1.2s : 0.2s,-8.582054929273767,7.734198406725339,0.7176820077555802,0.2230488206356343,-0.8128199577331543,-0.0991634875535965,-0.1987205594778061,0.006011545658111572,0.19823695719242096,-0.10206246376037598,0.1550803063966874,-0.8778940168986714,3.0200818218410417,-0.7601618766784668,-0.15445944666862488,-0.6311070322990417, 150, 107, 10, 130
1731921776958,9i,9.933181149817315,1.2s : 0.2s,-8.582054929273767,7.733187455385918,0.6694432588624861,0.16980412832136865,-0.8078857660293579,-0.11910869926214218,-0.14750804007053375,-0.0003579258918762207,0.14812707901000977,-0.08301615715026855,0.15129757923524656,-0.8778327386301237,3.0126127628133568,-0.760567307472229,-0.15072101354599,-0.6315223574638367, 150, 107, 10, 130
1731921776968,9i,9.933181149817315,1.2s : 0.2s,-8.582054929273767,7.732305608811607,0.6338092626041443,0.12589344329008112,-0.8029618859291077,-0.12109967321157455,-0.12015524506568909,0.00260847806930542,0.09982553124427795,-0.07666301727294922,0.14713929214821744,-0.8779834380252184,3.00542267670647,-0.7611380815505981,-0.14660893380641937,-0.6318025588989258, 150, 107, 10, 130
1731921776978,9i,9.933181149817315,1.2s : 0.2s,-8.582054929273767,7.7315473712416365,0.6040180134319414,0.11385111104673905,-0.7685174942016602,-0.13682617247104645,-0.16106945276260376,-0.00414961576461792,0.09525531530380249,-0.06221961975097656,0.14319899927508528,-0.8783300013038068,2.9983348602234003,-0.7617958188056946,-0.14271008968353271,-0.6319026947021484, 150, 107, 10, 130
1731921776988,9i,9.933181149817315,1.2s : 0.2s,-8.582054929273767,7.730869593943757,0.5884068824554812,0.09801948410563906,-0.7898795008659363,-0.11863838136196136,-0.20210610330104828,-0.0341145396232605,0.08550406992435455,-0.0336611270904541,0.13968402150287484,-0.878552664040143,2.9911482523253614,-0.762317955493927,-0.13923022150993347,-0.6320493221282959, 150, 107, 10, 130
1731921776998,9i,9.933181149817315,1.2s : 0.2s,-8.582054929273767,7.73025031114063,0.6151148183730457,0.07784106624893271,-0.9773315787315369,-0.1412203013896942,-0.20983706414699554,-0.06131923198699951,0.0476863831281662,0.005019187927246094,0.13570316847558161,-0.8787107056503879,2.982927504218015,-0.7628384232521057,-0.13528704643249512,-0.6322774887084961, 150, 107, 10, 130
1731921777008,9i,9.933181149817315,1.2s : 0.2s,-8.582054929273767,7.729760010706154,0.671172995077396,0.08250657165237156,-1.1716336011886597,-0.1414029896259308,-0.1939571648836136,-0.05316805839538574,0.03141714632511139,0.05471247434616089,0.13038855050833784,-0.8788463393123405,2.973225722234811,-0.7634670734405518,-0.130019411444664,-0.6326238512992859, 150, 107, 10, 130
1731921777018,9i,9.933181149817315,1.2s : 0.2s,-8.582054929273767,7.729793292849418,0.7263519905442894,0.12641912804197816,-1.249124526977539,-0.15761703252792358,-0.1992035210132599,-0.021396398544311523,0.037977270781993866,0.11866641044616699,0.12409565849070658,-0.8789882976104416,2.962444144309732,-0.764171838760376,-0.12377739697694778,-0.6330248713493347, 150, 107, 10, 130
1731921777028,9i,9.933181149817315,1.2s : 0.2s,-8.582054929273767,7.730560454289657,0.7452621055326004,0.13905279078574936,-1.1474136114120483,-0.18713682889938354,-0.18223118782043457,0.004971683025360107,0.04898492991924286,0.13004398345947266,0.11787644985652304,-0.8794020298269322,2.951722902600494,-0.7650119662284851,-0.11760365962982178,-0.6331872940063477, 150, 107, 10, 130
1731921777038,9i,9.933181149817315,1.2s : 0.2s,-8.582054929273767,7.7317956121685345,0.7311637301281392,0.1251341533829902,-0.9986236095428467,-0.2097500115633011,-0.21323396265506744,0.01978379487991333,0.07635301351547241,0.09714615345001221,0.11255544205870739,-0.8802898457079043,2.942076247495751,-0.766045331954956,-0.11231793463230133,-0.6328974366188049, 150, 107, 10, 130
1731921777048,9i,9.933181149817315,1.2s : 0.2s,-8.582054929273767,7.733512231085555,0.7005037644994804,0.16583441525353998,-0.8894915580749512,-0.1864984780550003,-0.23994599282741547,0.024976015090942383,0.12564043700695038,0.10531729459762573,0.10830439375061827,-0.8813654809892632,2.9332077626335207,-0.7670871615409851,-0.1080927848815918,-0.6323710680007935, 150, 107, 10, 130
1731921777058,9i,9.933181149817315,1.2s : 0.2s,-8.582054929273767,7.735839911882115,0.6655355403643594,0.23056224924041865,-0.8256040811538696,-0.14760620892047882,-0.23867283761501312,0.01178741455078125,0.16904079914093018,0.15634965896606445,0.10474856583279751,-0.8821268794912368,2.9251014743850368,-0.7678603529930115,-0.10455711930990219,-0.6320271492004395, 150, 107, 10, 130
1731921777068,9i,9.933181149817315,1.2s : 0.2s,-8.582054929273767,7.738633403931804,0.664961559495917,0.22783232374331738,-0.9375130534172058,-0.1498326063156128,-0.259321391582489,0.01830953359603882,0.15866100788116455,0.16247773170471191,0.10112450729980106,-0.8827206506698916,2.9167054481766614,-0.768523097038269,-0.10095224529504776,-0.6318075656890869, 150, 107, 10, 130
1731921777078,9i,9.933181149817315,1.2s : 0.2s,-8.582054929273767,7.741888327445773,0.693859556683916,0.2242641131222021,-1.0936565399169922,-0.2082078605890274,-0.22018730640411377,0.052028000354766846,0.13797487318515778,0.16896867752075195,0.09655987597593668,-0.883541145115953,2.907244620811618,-0.7693894505500793,-0.09640989452600479,-0.6314625144004822, 150, 107, 10, 130
1731921777088,9i,9.933181149817315,1.2s : 0.2s,-8.582054929273767,7.745667281102672,0.7199334550541832,0.23335442921894928,-1.1111953258514404,-0.2742941975593567,-0.21888262033462524,0.09375560283660889,0.09948159009218216,0.1891232132911682,0.09110839652684737,-0.8850346034619688,2.897145656489972,-0.7707269787788391,-0.09098240733146667,-0.6306362152099609, 150, 107, 10, 130
1731921777098,9i,9.933181149817315,1.2s : 0.2s,-8.582054929273767,7.7494818819226055,0.7544163670278926,0.18670583174060482,-1.2108311653137207,-0.20368802547454834,-0.20695048570632935,0.10396665334701538,0.03537091612815857,0.15099304914474487,0.08552392799441845,-0.8863466624147613,2.8867703460993654,-0.7719353437423706,-0.08541970700025558,-0.6299358606338501, 150, 107, 10, 130
1731921777108,9i,9.933181149817315,1.2s : 0.2s,-8.582054929273767,7.753098364083639,0.7937083945152491,0.15408284699649186,-1.2647160291671753,-0.250304251909256,-0.2812153995037079,0.06423670053482056,-0.006302088499069214,0.13991230726242065,0.07967387272633053,-0.8876733300182836,2.87567317408116,-0.7731447219848633,-0.0795896053314209,-0.6292158961296082, 150, 107, 10, 130
1731921777118,9i,9.933181149817315,1.2s : 0.2s,-8.582054929273767,7.756162150492831,0.818356697527822,0.08667372402221325,-1.2209659814834595,-0.36924681067466736,-0.29851776361465454,0.036791861057281494,0.05444011837244034,0.056524038314819336,0.07414606379822726,-0.8899498985769675,2.864099202215127,-0.774905264377594,-0.07407814264297485,-0.6277215480804443, 150, 107, 10, 130
1731921777128,9i,9.933181149817315,1.2s : 0.2s,-8.582054929273767,7.759088477120123,0.8317656605594926,0.13796996588280702,-1.2352319955825806,-0.29876065254211426,-0.20498381555080414,0.042244791984558105,0.1302298903465271,0.017066478729248047,0.06846998886317796,-0.892792235816617,2.8529159296190056,-0.7770012021064758,-0.06841649860143661,-0.6257700324058533, 150, 107, 10, 130
1731921777138,9i,9.933181149817315,1.2s : 0.2s,-8.582054929273767,7.763020121209549,0.9602720533690797,0.3173785562927752,-1.8652721643447876,-0.09253514558076859,-0.32488498091697693,0.06578105688095093,0.14524826407432556,0.2744174599647522,0.060858936648140995,-0.893605875702717,2.83968154875819,-0.7778934240341187,-0.060821376740932465,-0.6254458427429199, 150, 107, 10, 130
1731921777148,9i,9.933181149817315,1.2s : 0.2s,-8.582054929273767,7.767571334379842,1.2290736673072225,0.32858360692879907,-2.7282650470733643,-0.25483059883117676,-0.40738120675086975,0.02446925640106201,0.15373431146144867,0.2893686294555664,0.049124531217155994,-0.894402333819035,2.8189175141962326,-0.778894305229187,-0.04910477623343468,-0.6252298355102539, 150, 107, 10, 130
1731921777158,9i,9.933181149817315,1.2s : 0.2s,-8.582054929273767,7.771915003706617,1.397688269800309,0.25318881730786247,-2.642094612121582,-0.030231555923819542,-0.4474189579486847,-0.08000445365905762,0.1847406029701233,0.15354079008102417,0.03547129339800047,-0.8949562691162143,2.795098854022614,-0.7796909809112549,-0.0354638546705246,-0.6251594424247742, 150, 107, 10, 130
1731921777168,9i,9.933181149817315,1.2s : 0.2s,-8.582054929273767,7.774990732088541,1.5197574224046653,0.13865123287017544,-2.65667462348938,0.06124349683523178,-0.46979135274887085,-0.10308289527893066,0.01096559688448906,0.0920751690864563,0.022625208854416864,-0.893870165040896,2.771747267648247,-0.7793022990226746,-0.022623278200626373,-0.6262395977973938, 150, 107, 10, 130
1731921777178,9i,9.933181149817315,1.2s : 0.2s,-8.582054929273767,7.777581538929743,1.602082022028337,0.153147700066333,-2.6439316272735596,-0.05033114179968834,-0.40029412508010864,-0.03470069169998169,-0.08783561736345291,0.12056112289428711,0.009271428581407563,-0.8933980689921417,2.7481000731937892,-0.7791725397109985,-0.009271295741200447,-0.6267409324645996, 150, 107, 10, 130
1731921777188,9i,9.933181149817315,1.2s : 0.2s,-8.582054929273767,7.780232291142556,1.5516534303622576,0.1290797624203053,-2.088358163833618,-0.2129908949136734,-0.42042094469070435,0.07296192646026611,0.05305046588182449,0.09232437610626221,-0.002461021882634525,-0.8946343093491586,2.7272263088377184,-0.7799779176712036,0.0024610194377601147,-0.6258021593093872, 150, 107, 10, 130
1731921777198,9i,9.933181149817315,1.2s : 0.2s,-8.582054929273767,7.782770188511362,1.4657402210694686,0.1561482212630181,-1.8252333402633667,-0.3648296892642975,-0.3803621828556061,0.1077377200126648,0.10552053153514862,-0.0405002236366272,-0.011346804415599708,-0.8976685986607127,2.7095903294744357,-0.7818252444267273,0.011346560902893543,-0.6233944296836853, 150, 107, 10, 130
1731921777208,9i,9.933181149817315,1.2s : 0.2s,-8.582054929273767,7.785255644643374,1.36592053416044,0.12836888798183305,-1.64291250705719,-0.22642813622951508,-0.32340675592422485,0.051489949226379395,0.11191889643669128,0.03607654571533203,-0.019445241157342436,-0.9011064781776467,2.694048519248608,-0.7838660478591919,0.019444014877080917,-0.6206254959106445, 150, 107, 10, 130
1731921777218,9i,9.933181149817315,1.2s : 0.2s,-8.582054929273767,7.787581388116202,1.3041253509074682,0.1648101688874575,-1.6962157487869263,0.08372368663549423,-0.39612364768981934,-0.05124080181121826,0.10313653945922852,0.1178966760635376,-0.026749469995565576,-0.9021179900481084,2.679122134078103,-0.784360945224762,0.02674628049135208,-0.6197276711463928, 150, 107, 10, 130
1731921777228,9i,9.933181149817315,1.2s : 0.2s,-8.582054929273767,7.789904434236592,1.288746408850909,0.3047106867395271,-1.8535022735595703,0.2837531864643097,-0.29259511828422546,-0.1391589641571045,-0.01936575397849083,0.2703855633735657,-0.035135324886424006,-0.9008514931420755,2.6630152753261496,-0.7833721041679382,0.03512809798121452,-0.6205594539642334, 150, 107, 10, 130
1731921777238,9i,9.933181149817315,1.2s : 0.2s,-8.582054929273767,7.792309473023063,1.3049882408505047,0.3952494975273033,-1.9719245433807373,0.596146821975708,-0.17421135306358337,-0.15978145599365234,-0.11564221978187561,0.34251850843429565,-0.045116149239745766,-0.8969757019779858,2.646779315461391,-0.7806481719017029,0.04510084539651871,-0.6233411431312561, 150, 107, 10, 130
1731921777248,9i,9.933181149817315,1.2s : 0.2s,-8.582054929273767,7.7946209081884215,1.49020213387842,0.3972252318948598,-2.7713418006896973,0.7182128429412842,-0.3733324408531189,-0.1335507035255432,-0.19504496455192566,0.3192327618598938,-0.05762568623775866,-0.8913847292159757,2.626965382732247,-0.7766512632369995,0.057593800127506256,-0.6272924542427063, 150, 107, 10, 130
1731921777258,9i,9.933181149817315,1.2s : 0.2s,-8.582054929273767,7.797557042207797,1.6907220195417647,0.5236467439781307,-3.0962576866149902,0.9607115387916565,-0.1659899801015854,-0.09027928113937378,-0.2572494149208069,0.44707751274108887,-0.07413554441448336,-0.8847941384822462,2.6017940670679227,-0.7716591954231262,0.07406765222549438,-0.6317088603973389, 150, 107, 10, 130
1731921777268,9i,9.933181149817315,1.2s : 0.2s,-8.582054929273767,7.800899234520928,1.7636963475088525,0.5967481910039879,-2.6813180446624756,1.2290778160095215,0.15081647038459778,-0.05207175016403198,-0.3822862505912781,0.4552517533302307,-0.0927922869690005,-0.8756241376396612,2.5796578995044563,-0.764639675617218,0.09265918284654617,-0.6377621293067932, 150, 107, 10, 130
1731921777278,9i,9.933181149817315,1.2s : 0.2s,-8.582054929273767,7.803665789048228,1.7250456731146497,0.5437686645641692,-2.1793034076690674,1.1837728023529053,0.03538510948419571,0.030944883823394775,-0.48406165838241577,0.2457866668701172,-0.10918693567817364,-0.8651868172863759,2.5619367056262745,-0.756683349609375,0.10897011309862137,-0.6446360945701599, 150, 107, 10, 130
1731921777288,9i,9.933181149817315,1.2s : 0.2s,-8.582054929273767,7.805761721831115,1.626291635214788,0.3239545396897994,-1.7614363431930542,1.1957570314407349,-0.038539446890354156,0.0746617317199707,-0.30390870571136475,0.08373570442199707,-0.12209818487132269,-0.8552254939446561,2.546896801245603,-0.7491002082824707,0.12179503589868546,-0.6511642336845398, 150, 107, 10, 130
1731921777298,9i,9.933181149817315,1.2s : 0.2s,-8.582054929273767,7.8079990298112945,1.4465694869918513,0.12075210548256544,-1.0193108320236206,1.3543704748153687,-0.1804342269897461,0.043516695499420166,0.02397388219833374,0.11005735397338867,-0.13055621184227786,-0.8439582460119802,2.535734046844781,-0.7409196496009827,0.13018563389778137,-0.6588549017906189, 150, 107, 10, 130
1731921777308,9i,9.933181149817315,1.2s : 0.2s,-8.582054929273767,7.8103573373513235,1.2698662196768835,0.21834023391541865,-0.48304474353790283,1.490733027458191,-0.34719952940940857,-0.019271910190582275,0.19021360576152802,0.10545063018798828,-0.13343946993122235,-0.8306811873570196,2.528577269322965,-0.7318267226219177,0.1330438107252121,-0.6683778166770935, 150, 107, 10, 130
1731921777318,9i,9.933181149817315,1.2s : 0.2s,-8.582054929273767,7.813066021543738,1.1919725228345277,0.28874937051619776,-0.2546243369579315,1.8014111518859863,-0.3322698175907135,-0.08687466382980347,0.14165078103542328,0.23614412546157837,-0.13321798124276832,-0.8149759439435071,2.5237560738053304,-0.7212612628936768,0.13282428681850433,-0.6798086166381836, 150, 107, 10, 130
1731921777328,9i,9.933181149817315,1.2s : 0.2s,-8.582054929273767,7.816543725835363,1.2342655015980422,0.42659464932964203,-0.5410089492797852,2.0049705505371094,-0.29007843136787415,-0.1218612790107727,0.05788981914520264,0.4046993851661682,-0.13346983429492823,-0.7963644979197171,2.5191276380574625,-0.7084609866142273,0.13307391107082367,-0.6930904388427734, 150, 107, 10, 130
1731921777338,9i,9.933181149817315,1.2s : 0.2s,-8.582054929273767,7.820324765657735,1.3146745773677404,0.3566814905730944,-1.0287221670150757,1.9598764181137085,-0.3483579456806183,-0.10066485404968262,0.0619821697473526,0.3365211486816406,-0.13688545212989728,-0.7775080603016409,2.51122111983683,-0.6949436664581299,0.1364583671092987,-0.7059974670410156, 150, 107, 10, 130
1731921777348,9i,9.933181149817315,1.2s : 0.2s,-8.582054929273767,7.823587893101588,1.3340274939338792,0.20253452781926098,-1.0250099897384644,1.7370022535324097,-0.40836694836616516,-0.017088353633880615,0.19011223316192627,0.06771677732467651,-0.1420143918131738,-0.7603075863693389,2.501091412626383,-0.6822066307067871,0.14153751730918884,-0.7173291444778442, 150, 107, 10, 130
1731921777357,9i,9.933181149817315,1.2s : 0.2s,-8.582054929273767,7.82495416243676,1.243758221290287,0.4980049997044378,-0.4700263440608978,1.433161973953247,-0.4429567754268646,0.10424959659576416,0.29438334703445435,-0.38791680335998535,-0.14453484474771786,-0.7457938674798826,2.4927564172172527,-0.6714798212051392,0.14403213560581207,-0.7268902659416199, 150, 107, 10, 130
1731921777367,9i,9.933181149817315,1.2s : 0.2s,-8.582054929273767,7.824387581486817,1.0839813248925891,0.6764651714825636,-0.34761548042297363,0.9580870270729065,-0.3334329426288605,0.2036532163619995,0.26874804496765137,-0.5864341259002686,-0.14458168130007767,-0.7344920488377386,2.4874139364982786,-0.6632174253463745,0.14407849311828613,-0.7344276309013367, 150, 107, 10, 130
1731921777377,9i,9.933181149817315,1.2s : 0.2s,-8.582054929273767,7.823466105253209,0.9602996208984729,0.5011270412288993,-0.8265078067779541,0.6514605283737183,-0.2582780420780182,0.2371845245361328,0.2083311676979065,-0.3891913890838623,-0.146825292666808,-0.7276920972960383,2.481467349261931,-0.6579914093017578,0.14629831910133362,-0.7386772632598877, 150, 107, 10, 130
1731921777387,9i,9.933181149817315,1.2s : 0.2s,-8.582054929273767,7.822885544789002,0.9532461890069908,0.22359156179622053,-1.1411712169647217,0.8348660469055176,-0.18704353272914886,0.13164037466049194,0.11122965812683105,-0.14244985580444336,-0.15293081614106477,-0.7217284241145252,2.47305170642729,-0.6529721617698669,0.15233539044857025,-0.7419037818908691, 150, 107, 10, 130
1731921777397,9i,9.933181149817315,1.2s : 0.2s,-8.582054929273767,7.821083810266638,0.9688705753583629,0.2294012387604912,-1.2385544776916504,0.9334324598312378,-0.18758505582809448,-0.06632095575332642,-0.12227946519851685,-0.18241214752197266,-0.16065889885998877,-0.7142706987857638,2.4639314869524425,-0.6466306447982788,0.15996865928173065,-0.7458410263061523, 150, 107, 10, 130
1731921777407,9i,9.933181149817315,1.2s : 0.2s,-8.582054929273767,7.8175593652866855,1.003622986547554,0.39684178603247955,-1.380419135093689,0.9112773537635803,-0.19508212804794312,-0.12134569883346558,-0.2822710871696472,-0.2511606216430664,-0.1693092534233261,-0.706631249728783,2.453876205658576,-0.6399915814399719,0.16850152611732483,-0.7496785521507263, 150, 107, 10, 130
1731921777417,9i,9.933181149817315,1.2s : 0.2s,-8.582054929273767,7.8140415380484,1.0105408246414325,0.2124872777149215,-1.321536660194397,0.8234120011329651,-0.10953779518604279,-0.04451686143875122,-0.1785314977169037,-0.10628074407577515,-0.17864088700737768,-0.6998371655671823,2.4439576143916253,-0.6338431239128113,0.177692249417305,-0.7527738213539124, 150, 107, 10, 130
1731921777427,9i,9.933181149817315,1.2s : 0.2s,-8.582054929273767,7.811758336036005,1.0095487488866675,0.04694754766956056,-1.1356011629104614,0.9766896963119507,-0.047954849898815155,0.0019043684005737305,-0.01979897916316986,0.04252582788467407,-0.18778604729253076,-0.6924811016042092,2.4353084223467465,-0.6272248029708862,0.18668432533740997,-0.7561336159706116, 150, 107, 10, 130
1731921777437,9i,9.933181149817315,1.2s : 0.2s,-8.582054929273767,7.8102070006046365,0.9500733404939317,0.05456068673577984,-0.6245825290679932,1.0974324941635132,-0.07753454893827438,-0.035439252853393555,0.030426472425460815,0.028198540210723877,-0.1941801688246322,-0.683190842378169,2.4292753528976916,-0.6194069385528564,0.1929621696472168,-0.7609866261482239, 150, 107, 10, 130
1731921777447,9i,9.933181149817315,1.2s : 0.2s,-8.582054929273767,7.808407590256469,0.87906383925465,0.12265080138972931,-0.4087200164794922,1.0561617612838745,-0.03183630108833313,-0.03129225969314575,-0.004044011235237122,-0.11852282285690308,-0.1975567609874866,-0.6731982080979867,2.425570046984511,-0.6113621592521667,0.19627420604228973,-0.7666242122650146, 150, 107, 10, 130
1731921777457,9i,9.933181149817315,1.2s : 0.2s,-8.582054929273767,7.806672052116286,0.788433659269294,0.11461044883500278,-0.02841789647936821,1.0233700275421143,0.11220958083868027,0.04364413022994995,-0.01267215609550476,-0.10521483421325684,-0.19971178603836984,-0.6632495166342011,2.424539660300324,-0.6034433245658875,0.19838684797286987,-0.7723333835601807, 150, 107, 10, 130
1731921777467,9i,9.933181149817315,1.2s : 0.2s,-8.582054929273767,7.805357440892537,0.7470709927472676,0.13429944284982667,-0.024310503154993057,1.0614252090454102,0.04298044741153717,0.0927804708480835,-0.004321232438087463,-0.09700232744216919,-0.20000312793316524,-0.6525758040546655,2.4255027766484307,-0.5951302647590637,0.19867239892482758,-0.7786842584609985, 150, 107, 10, 130
1731921777477,9i,9.933181149817315,1.2s : 0.2s,-8.582054929273767,7.804128310653719,0.7514521881634071,0.08657062930402734,0.005785548593848944,1.1946264505386353,0.01837719976902008,0.04973524808883667,-0.04705810546875,-0.052975594997406006,-0.2004204641549459,-0.6413998347169076,2.425727354254101,-0.5863410830497742,0.1990813910961151,-0.7852201461791992, 150, 107, 10, 130
1731921777487,9i,9.933181149817315,1.2s : 0.2s,-8.582054929273767,7.80315343474859,0.7630881998363471,0.028861036974787892,0.1804439127445221,1.2320489883422852,0.08459509909152985,0.004895567893981934,0.0017353594303131104,-0.028389811515808105,-0.20025342697674411,-0.6292915530854197,2.4265641588410722,-0.5768102407455444,0.1989177018404007,-0.7922888398170471, 150, 107, 10, 130
1731921777497,9i,9.933181149817315,1.2s : 0.2s,-8.582054929273767,7.80215179777857,0.7556754463490993,0.09664223182080721,0.3850826025009155,1.1192432641983032,0.10288199782371521,0.029262185096740723,-0.03043489158153534,-0.08693194389343262,-0.19842133128135117,-0.6169655154411219,2.429260126365442,-0.5672107934951782,0.19712188839912415,-0.7996341586112976, 150, 107, 10, 130
1731921777507,9i,9.933181149817315,1.2s : 0.2s,-8.582054929273767,7.800835832152733,0.7534592803840998,0.17509800378675078,0.42183181643486023,1.08712637424469,0.03265177831053734,0.058796465396881104,-0.06686188280582428,-0.15077060461044312,-0.19562489217223605,-0.6055268091828977,2.4320823377526453,-0.5583387017250061,0.1943795531988144,-0.8065199851989746, 150, 107, 10, 130
1731921777517,9i,9.933181149817315,1.2s : 0.2s,-8.582054929273767,7.7993940162466355,0.7700365999299212,0.14399856066139824,0.6610550284385681,1.0967613458633423,0.027259906753897667,0.03682136535644531,-0.001492515206336975,-0.1392032504081726,-0.19130158798514504,-0.5939255914207328,2.435465360585996,-0.5494098663330078,0.1901368945837021,-0.8136318325996399, 150, 107, 10, 130
1731921777527,9i,9.933181149817315,1.2s : 0.2s,-8.582054929273767,7.797587566665151,0.7904082860998364,0.18051237878756846,0.8065264821052551,1.0433945655822754,0.014379262924194336,0.020411014556884766,-0.004723221063613892,-0.1792925000190735,-0.18527042406243546,-0.5824146468754412,2.4398921311154753,-0.540628969669342,0.1842123419046402,-0.8208447694778442, 150, 107, 10, 130
1731921777537,9i,9.933181149817315,1.2s : 0.2s,-8.582054929273767,7.79561339253399,0.8165578962831057,0.18707447003885463,0.9534422755241394,0.9868925213813782,0.04289449378848076,0.04681575298309326,-0.013676375150680542,-0.18060481548309326,-0.1780680524916848,-0.5713633335285139,2.445019789123454,-0.532228410243988,0.17712850868701935,-0.8278637528419495, 150, 107, 10, 130
1731921777547,9i,9.933181149817315,1.2s : 0.2s,-8.582054929273767,7.79369714102026,0.8574669913106874,0.15858523025658408,1.1025660037994385,0.9763178825378418,0.02526756376028061,0.06831973791122437,-0.005669325590133667,-0.14300191402435303,-0.16959762384300128,-0.5605489450041596,2.450992982635059,-0.5240234732627869,0.16878576576709747,-0.834811806678772, 150, 107, 10, 130
1731921777557,9i,9.933181149817315,1.2s : 0.2s,-8.582054929273767,7.791781158003384,0.9057453848721724,0.168273696692299,1.1875070333480835,0.9947903752326965,-0.060191377997398376,0.053921520709991455,-0.015986159443855286,-0.15859681367874146,-0.15977727435032923,-0.5497695221183345,2.4569550685971415,-0.5158356428146362,0.1590983271598816,-0.8417845964431763, 150, 107, 10, 130
1731921777567,9i,9.933181149817315,1.2s : 0.2s,-8.582054929273767,7.789832238093001,0.937590374066447,0.15271837621482467,1.1357882022857666,1.0042775869369507,-0.1099189892411232,0.024296283721923828,-0.03277011215686798,-0.14716899394989014,-0.14932169385080418,-0.5389535205440859,2.462335537507018,-0.5075269341468811,0.1487674117088318,-0.8486958742141724, 150, 107, 10, 130
1731921777577,9i,9.933181149817315,1.2s : 0.2s,-8.582054929273767,7.788000916250407,0.9665639540405696,0.10091205749334062,1.1151927709579468,1.0594754219055176,-0.1525547355413437,0.008258283138275146,-0.06176812946796417,-0.07937091588973999,-0.13912073273291062,-0.5280846180381747,2.4669706571686625,-0.49901148676872253,0.13867239654064178,-0.8554282784461975, 150, 107, 10, 130
1731921777587,9i,9.933181149817315,1.2s : 0.2s,-8.582054929273767,7.786370314575016,0.9957015066328575,0.08655502997669733,1.163007140159607,1.0694468021392822,-0.16222093999385834,0.0025465190410614014,-0.07358430325984955,-0.04550427198410034,-0.1284415487891909,-0.5168044080435386,2.4712631451225966,-0.4900343418121338,0.12808868288993835,-0.8622410297393799, 150, 107, 10, 130
1731921777597,9i,9.933181149817315,1.2s : 0.2s,-8.582054929273767,7.784780018943538,1.046224778255524,0.08887019200638094,1.342391014099121,1.0968611240386963,-0.1522226482629776,0.008422166109085083,-0.056175485253334045,-0.06834685802459717,-0.11663565480380499,-0.5053787776007796,2.4761747693715392,-0.4808495342731476,0.11637138575315475,-0.8690462708473206, 150, 107, 10, 130
1731921777607,9i,9.933181149817315,1.2s : 0.2s,-8.582054929273767,7.783553936136839,1.1031362060782464,0.036127052671333454,1.4381614923477173,1.137963056564331,-0.2174634337425232,0.008916288614273071,0.00807102769613266,-0.03406643867492676,-0.10379430667412054,-0.49376625404251145,2.4812015583741442,-0.47139495611190796,0.10360804200172424,-0.8758151531219482, 150, 107, 10, 130
1731921777617,9i,9.933181149817315,1.2s : 0.2s,-8.582054929273767,7.782390577600734,1.1735615949106613,0.09446249140436429,1.6248222589492798,1.1387314796447754,-0.27615979313850403,-0.023473888635635376,0.0784832090139389,-0.047037482261657715,-0.08888536797443956,-0.4818303163630747,2.4862915283115004,-0.4615724980831146,0.088768370449543,-0.8826500177383423, 150, 107, 10, 130
1731921777627,9i,9.933181149817315,1.2s : 0.2s,-8.582054929273767,7.781249367125453,1.2173195998717654,0.093652437559859,1.56248140335083,1.152574896812439,-0.3368058502674103,-0.03939199447631836,0.06827522814273834,-0.05057215690612793,-0.07336159716380938,-0.4700323456490458,2.4909527222002232,-0.45169690251350403,0.07329580932855606,-0.8891555666923523, 150, 107, 10, 130
1731921777637,9i,9.933181149817315,1.2s : 0.2s,-8.582054929273767,7.780167390980819,1.24996693031723,0.08219882256606616,1.5388212203979492,1.1732186079025269,-0.42837774753570557,-0.05103522539138794,0.062893345952034,-0.014017105102539062,-0.05779005405305075,-0.45814746129336975,2.494470058157914,-0.44154903292655945,0.057757891714572906,-0.8953761458396912, 150, 107, 10, 130
1731921777647,9i,9.933181149817315,1.2s : 0.2s,-8.582054929273767,7.77897913107636,1.250255159221632,0.10314252563924475,1.4283525943756104,1.1201857328414917,-0.46902236342430115,-0.04842287302017212,0.05623657628893852,-0.07163137197494507,-0.04242421042195657,-0.44654805264275593,2.496942664166906,-0.43146607279777527,0.04241148382425308,-0.9011316299438477, 150, 107, 10, 130
1731921777657,9i,9.933181149817315,1.2s : 0.2s,-8.582054929273767,7.777772823131128,1.2381293502788864,0.09413399202313517,1.3576916456222534,1.0901083946228027,-0.49841877818107605,-0.018057137727737427,0.042295485734939575,-0.08213549852371216,-0.027837500680687688,-0.4354504426027626,2.498512690091971,-0.42165541648864746,0.027833905071020126,-0.9063288569450378, 150, 107, 10, 130
1731921777667,9i,9.933181149817315,1.2s : 0.2s,-8.582054929273767,7.776678354238888,1.223317407315373,0.10098150634462463,1.3466259241104126,1.0293662548065186,-0.5406008958816528,-0.0021751821041107178,0.07809582352638245,-0.0639810562133789,-0.013457317215962982,-0.42483318406967463,2.4994523872761505,-0.41213148832321167,0.013456910848617554,-0.9110249876976013, 150, 107, 10, 130
1731921777677,9i,9.933181149817315,1.2s : 0.2s,-8.582054929273767,7.775664219737945,1.2269489500417532,0.15187894903398735,1.463818907737732,0.9786494374275208,-0.5862488746643066,-0.00927618145942688,0.12189719825983047,-0.09012347459793091,0.0015663880155775273,-0.4148608638945607,2.500068430017979,-0.403062105178833,-0.0015663873637095094,-0.9151712656021118, 150, 107, 10, 130
1731921777687,9i,9.933181149817315,1.2s : 0.2s,-8.582054929273767,7.774579520669811,1.2280316366061503,0.21239564160926996,1.5275774002075195,0.863646924495697,-0.601162314414978,-0.0075397491455078125,0.16439099609851837,-0.1342782974243164,0.017678665918989568,-0.4056559356196688,2.500700405832125,-0.3945598900318146,-0.01767774485051632,-0.9187001585960388, 150, 107, 10, 130
1731921777697,9i,9.933181149817315,1.2s : 0.2s,-8.582054929273767,7.7735263926981375,1.236353182042457,0.23094695945006968,1.6183512210845947,0.7667812705039978,-0.6163991093635559,0.012231796979904175,0.18194596469402313,-0.14171290397644043,0.03450713135203847,-0.39756281457838755,2.501328869531266,-0.38694190979003906,-0.034500282257795334,-0.9214584827423096, 150, 107, 10, 130
1731921777707,9i,9.933181149817315,1.2s : 0.2s,-8.582054929273767,7.772589163715507,1.238546505729516,0.17504611292188302,1.6305745840072632,0.6965758204460144,-0.6115713119506836,0.02246922254562378,0.1567230522632599,-0.0746603012084961,0.05182682047155678,-0.3902969293415025,2.5020593585974105,-0.37995216250419617,-0.051803622394800186,-0.9235543608665466, 150, 107, 10, 130
1731921777717,9i,9.933181149817315,1.2s : 0.2s,-8.582054929273767,7.771734721734607,1.2447932391588121,0.14835193985001122,1.6585451364517212,0.6379610300064087,-0.6566135287284851,0.013785868883132935,0.130044624209404,-0.07004743814468384,0.06940085072784748,-0.38369783842426863,2.502537713085326,-0.3734508156776428,-0.0693451538681984,-0.9250544309616089, 150, 107, 10, 130
1731921777727,9i,9.933181149817315,1.2s : 0.2s,-8.582054929273767,7.770966002893903,1.2714088283784521,0.14977118947449963,1.75205397605896,0.643153965473175,-0.7161220908164978,-0.011638879776000977,0.14208060503005981,-0.045924365520477295,0.08773449061787054,-0.3773308133468863,2.5025740318157315,-0.3670232594013214,-0.08762197941541672,-0.9260757565498352, 150, 107, 10, 130
1731921777737,9i,9.933181149817315,1.2s : 0.2s,-8.582054929273767,7.7703049706862135,1.285579963626965,0.13421916515817156,1.73187255859375,0.585789144039154,-0.7468666434288025,-0.035494983196258545,0.12889833748340607,-0.011836767196655273,0.10663939291098508,-0.37112934289325966,2.50219617093334,-0.36060795187950134,-0.10643739253282547,-0.9266245365142822, 150, 107, 10, 130
1731921777747,9i,9.933181149817315,1.2s : 0.2s,-8.582054929273767,7.769683547697802,1.3055201708645432,0.13328272992755757,1.7727108001708984,0.551724374294281,-0.8052961230278015,-0.030948758125305176,0.123739093542099,-0.038666486740112305,0.12570254377123982,-0.365334088375483,2.5013436213951876,-0.3544425070285797,-0.1253717690706253,-0.9266350269317627, 150, 107, 10, 130
1731921777757,9i,9.933181149817315,1.2s : 0.2s,-8.582054929273767,7.769102686960848,1.309243121663789,0.129115309045212,1.7281945943832397,0.5064039826393127,-0.8177002668380737,-0.0047731101512908936,0.11645424365997314,-0.05555528402328491,0.14502293979495345,-0.35986646798494365,2.4999871550541712,-0.3484525978565216,-0.14451512694358826,-0.9261188507080078, 150, 107, 10, 130
1731921777767,9i,9.933181149817315,1.2s : 0.2s,-8.582054929273767,7.768714759278291,1.2915952875981986,0.07994505604430086,1.6223405599594116,0.44324448704719543,-0.8196478486061096,0.015252560377120972,0.0693458616733551,-0.036738574504852295,0.1634874568840502,-0.3548625232228428,2.498183190910913,-0.34282827377319336,-0.16276013851165771,-0.9251907467842102, 150, 107, 10, 130
1731921777777,9i,9.933181149817315,1.2s : 0.2s,-8.582054929273767,7.7685750749816895,1.2690193913086432,0.07337996890225905,1.5622721910476685,0.4031239449977875,-0.8410536050796509,0.036388278007507324,0.05764693021774292,-0.027154088020324707,0.18128844396322155,-0.3502454372455099,2.4958455158517467,-0.3375052213668823,-0.18029704689979553,-0.9238956570625305, 150, 107, 10, 130
1731921777787,9i,9.933181149817315,1.2s : 0.2s,-8.582054929273767,7.768598509448244,1.2372287085523686,0.05978259808749227,1.4710767269134521,0.3789192736148834,-0.8462094664573669,0.041119128465652466,0.035613805055618286,-0.024795830249786377,0.1983498294092546,-0.34583197525507525,2.493036133326469,-0.33233317732810974,-0.1970517784357071,-0.9223476648330688, 150, 107, 10, 130
1731921777797,9i,9.933181149817315,1.2s : 0.2s,-8.582054929273767,7.76871132454263,1.251383402116975,0.05533742885043486,1.5571891069412231,0.3730964660644531,-1.0757851600646973,0.041350483894348145,0.028361812233924866,-0.023408889770507812,0.21552764022478457,-0.3410305973876667,2.4889053393609255,-0.32672038674354553,-0.21386289596557617,-0.9206065535545349, 150, 107, 10, 130
1731921777807,9i,9.933181149817315,1.2s : 0.2s,-8.582054929273767,7.768904075478329,1.1855615943631022,0.06653386510461982,1.3951435089111328,0.28519853949546814,-0.6004038453102112,0.06625336408615112,-0.006014466285705566,0.001035928726196289,0.23252541935677173,-0.3374854620475423,2.486078166333122,-0.3222043216228485,-0.23043571412563324,-0.918195903301239, 150, 107, 10, 130
1731921777817,9i,9.933181149817315,1.2s : 0.2s,-8.582054929273767,7.769481628058578,1.189326476745649,0.1267227031452775,1.5316013097763062,0.3315247893333435,-0.8790445923805237,0.12476897239685059,-0.02015972137451172,-0.009215891361236572,0.24845611200377044,-0.3341043704644213,2.4838914563704586,-0.31785374879837036,-0.2459077686071396,-0.9156955480575562, 150, 107, 10, 130
1731921777827,9i,9.933181149817315,1.2s : 0.2s,-8.582054929273767,7.770132255415635,1.1595252009060768,0.07315882155938315,1.362829327583313,0.36858052015304565,-0.8053176403045654,0.06695333123207092,-0.011481106281280518,0.027159690856933594,0.2652385299058466,-0.329548957842584,2.4804983000002414,-0.3122994303703308,-0.2621394693851471,-0.9131001830101013, 150, 107, 10, 130
1731921777837,9i,9.933181149817315,1.2s : 0.2s,-8.582054929273767,7.77071507301906,1.1086217425976321,0.14455203348550263,1.230201005935669,0.33748722076416016,-0.7422477006912231,0.05859172344207764,-0.12949880957603455,0.026312708854675293,0.27969707651474884,-0.3252657131440441,2.4772034404909555,-0.3071421682834625,-0.27606451511383057,-0.9107425808906555, 150, 107, 10, 130
1731921777847,9i,9.933181149817315,1.2s : 0.2s,-8.582054929273767,7.7718668704464555,1.0631027069678867,0.14782656183632845,1.172720193862915,0.3512672185897827,-0.7337163090705872,0.12083446979522705,-0.05073636770248413,0.06839257478713989,0.29348551436920906,-0.3209080110723295,2.473858810679844,-0.30194106698036194,-0.2892904579639435,-0.9083735942840576, 150, 107, 10, 130
1731921777857,9i,9.933181149817315,1.2s : 0.2s,-8.582054929273767,7.773344513079236,1.0297642052083413,0.15562399689716602,1.168839693069458,0.3753046691417694,-0.7126761674880981,0.12572363018989563,-0.07160860300064087,0.05731147527694702,0.30676086961315685,-0.3163160113022551,2.4704391802485133,-0.2965458035469055,-0.30197229981422424,-0.9060205817222595, 150, 107, 10, 130
1731921777867,9i,9.933181149817315,1.2s : 0.2s,-8.582054929273767,7.774910496277048,1.0042037836473512,0.13512650220500186,1.1585638523101807,0.3931286633014679,-0.6978040337562561,0.11291936039924622,-0.06027451157569885,0.04330557584762573,0.32003878658591317,-0.31147069748939415,2.467133933244885,-0.2908979058265686,-0.31460338830947876,-0.9035502672195435, 150, 107, 10, 130
1731921777877,9i,9.933181149817315,1.2s : 0.2s,-8.582054929273767,7.776503486812938,0.9422568014532257,0.14261966876383422,0.8126354813575745,0.8749160170555115,-0.5133205056190491,0.11067801713943481,-0.08064106106758118,0.03984677791595459,0.33120381215259137,-0.3048132716704409,2.4641735431232745,-0.2838042676448822,-0.32518166303634644,-0.9020598530769348, 150, 107, 10, 130
1731921777887,9i,9.933181149817315,1.2s : 0.2s,-8.582054929273767,7.7777676493313965,0.88049534563776,0.17520019628235872,0.37945500016212463,0.7616539001464844,-0.9405666589736938,0.06737366318702698,-0.15808320045471191,0.03414088487625122,0.3395378902479994,-0.2947004476857566,2.4584393736368826,-0.2738708555698395,-0.3330514132976532,-0.902259111404419, 150, 107, 10, 130
1731921777896,9i,9.933181149817315,1.2s : 0.2s,-8.582054929273767,7.777769878708345,0.7508861085713336,0.3975499420970462,0.008833669126033783,0.6643730401992798,-0.545954704284668,-0.05212211608886719,-0.39373207092285156,0.017444133758544922,0.3430924846513193,-0.28498440051809365,2.4508048138307497,-0.2647571861743927,-0.33640095591545105,-0.9037355780601501, 150, 107, 10, 130
1731921777906,9i,9.933181149817315,1.2s : 0.2s,-8.582054929273767,7.777766626588219,0.6642767070661441,0.23990783537898114,0.3894132375717163,0.5320674777030945,-0.2752041518688202,0.04741761088371277,-0.23032182455062866,0.04753100872039795,0.3459822817515589,-0.2778495143545901,2.447454860033469,-0.25803470611572266,-0.33912092447280884,-0.9046629667282104, 150, 107, 10, 130
1731921777916,9i,9.933181149817315,1.2s : 0.2s,-8.582054929273767,7.77830320552171,0.6204140988404925,0.14875878528377645,0.634570837020874,0.41549843549728394,-0.2714557349681854,0.14620113372802734,-0.02679532766342163,-0.006034493446350098,0.3517189462995957,-0.2727002904190928,2.446162519530716,-0.2528448700904846,-0.34451204538345337,-0.9040911793708801, 150, 107, 10, 130
1731921777926,9i,9.933181149817315,1.2s : 0.2s,-8.582054929273767,7.778890809021004,0.6159448721726204,0.135486360631894,0.7885226011276245,0.3782099187374115,-0.264498233795166,0.1211329847574234,0.010250449180603027,-0.05981874465942383,0.35943148136226305,-0.2685139896360399,2.4453734896199246,-0.24834555387496948,-0.35174208879470825,-0.9025530219078064, 150, 107, 10, 130
1731921777936,9i,9.933181149817315,1.2s : 0.2s,-8.582054929273767,7.779518012214934,0.620347028367491,0.12379961349762705,0.8844045996665955,0.31861937046051025,-0.3136138617992401,0.10565146803855896,0.04261162877082825,-0.04845988750457764,0.36822918161319507,-0.2648998741592851,2.4447551349281196,-0.24426235258579254,-0.35996389389038086,-0.9004231691360474, 150, 107, 10, 130
1731921777946,9i,9.933181149817315,1.2s : 0.2s,-8.582054929273767,7.780114837237431,0.6335106787942913,0.11645148717101042,0.8644596338272095,0.29848480224609375,-0.42563894391059875,0.09804955124855042,-0.010920912027359009,-0.061870574951171875,0.37774409076577836,-0.2614025434946604,2.443260965635509,-0.2402157336473465,-0.3688245415687561,-0.8979225158691406, 150, 107, 10, 130
1731921777956,9i,9.933181149817315,1.2s : 0.2s,-8.582054929273767,7.780664943186746,0.6331064738665924,0.12571668731928787,0.7935205698013306,0.24702802300453186,-0.4675643742084503,0.1006140410900116,-0.0188484787940979,-0.07298105955123901,0.3869781206070026,-0.25774429125685155,2.4405321298363982,-0.23605109751224518,-0.3773917257785797,-0.895463764667511, 150, 107, 10, 130
1731921777966,9i,9.933181149817315,1.2s : 0.2s,-8.582054929273767,7.781164354409858,0.6171410988855339,0.1120611594768291,0.6983495950698853,0.2401839643716812,-0.465535044670105,0.08789074420928955,-0.023649662733078003,-0.06537288427352905,0.3954514279582118,-0.25425993156503224,2.4377140824714645,-0.23211686313152313,-0.3852248191833496,-0.893153727054596, 150, 107, 10, 130
1731921777976,9i,9.933181149817315,1.2s : 0.2s,-8.582054929273767,7.781546401268619,0.5839238811834918,0.10846504139916618,0.5834908485412598,0.18638703227043152,-0.45755064487457275,0.06142142415046692,-0.030748575925827026,-0.08394402265548706,0.40275060336828233,-0.2508865004187398,2.434453974617185,-0.228398397564888,-0.3919503390789032,-0.8911840915679932, 150, 107, 10, 130
