timestamp,club,max_speed,tempo,w.rotation,l.speed,t.spped,acc,rotation.x,rotation.y,rotation.z,userAcceleration.x,userAcceleration.y,userAcceleration.z,pitch,roll,yaw,gravity.x,gravity.y,gravity.z,impactIndex,minDownIndex,StartIndex,endIndex
1731654747364,9i,7.162796124636163,-2.2s : 0.3s,127.86775752531518,0.0004198804708410146,0.09372466766520433,0.0324390930439528,0.07110855728387833,-0.03897165507078171,0.004042902961373329,-0.012648344039916992,-0.028317347168922424,-0.0095100998878479,-0.1360979450809847,2.095752105217162,3.0630586279896685,0.8573445081710815,0.13567818701267242,0.49654051661491394, 102, 43, 285, 68
1731654747374,9i,7.162796124636163,-2.2s : 0.3s,127.86775752531518,0.001171362929365899,0.07920942844793327,0.023239805359820537,0.08874660730361938,-0.03376268967986107,0.008409122936427593,-0.015127003192901611,-0.014446035027503967,-0.010127902030944824,-0.13658967612866937,2.0952837658554935,3.0623120348225523,0.85751873254776,0.13616535067558289,0.49610525369644165, 102, 43, 285, 68
1731654747384,9i,7.162796124636163,-2.2s : 0.3s,127.86775752531518,0.0018487825208044553,0.07727404702142047,0.024202953487328212,0.11470496654510498,-0.031226564198732376,0.005928387865424156,-0.015167534351348877,-0.01364271342754364,-0.0130232572555542,-0.13708804553882203,2.094714112479858,3.0613552337708123,0.8577426075935364,0.13665905594825745,0.49558281898498535, 102, 43, 285, 68
1731654747394,9i,7.162796124636163,-2.2s : 0.3s,127.86775752531518,0.002456406525168546,0.07624425471021858,0.02778992539227675,0.11684874445199966,-0.038456421345472336,0.011786243878304958,-0.017109692096710205,-0.021746233105659485,0.002576768398284912,-0.1374126442589766,2.094288886025047,3.0603262837041645,0.8579148650169373,0.13698060810565948,0.4951958954334259, 102, 43, 285, 68
1731654747404,9i,7.162796124636163,-2.2s : 0.3s,127.86775752531518,0.002999728187412218,0.0756593492162324,0.027701923598751316,0.10934848338365555,-0.048436086624860764,0.017987947911024094,-0.018091559410095215,-0.0204479843378067,0.0046874284744262695,-0.13754999695998366,2.0938138289074844,3.0592395817866036,0.8581336736679077,0.1371166706085205,0.4947788417339325, 102, 43, 285, 68
1731654747414,9i,7.162796124636163,-2.2s : 0.3s,127.86775752531518,0.0034687609813575217,0.08178037718928517,0.024800447701554876,0.1515013873577118,-0.04741600900888443,0.03991727903485298,-0.019323766231536865,-0.01103450357913971,0.01094961166381836,-0.137582017832626,2.093258238803949,3.058009910105014,0.8584045171737671,0.13714838027954102,0.4942997694015503, 102, 43, 285, 68
1731654747424,9i,7.162796124636163,-2.2s : 0.3s,127.86775752531518,0.0038426776439332063,0.09851486357820564,0.026111654923422285,0.2087596207857132,-0.041125621646642685,0.05385759845376015,-0.023161470890045166,0.006519049406051636,0.010142326354980469,-0.1377300624816929,2.092681879674257,3.0561822939060623,0.8586717247962952,0.13729502260684967,0.49379482865333557, 102, 43, 285, 68
1731654747434,9i,7.162796124636163,-2.2s : 0.3s,127.86775752531518,0.004115764368183935,0.1171164293812739,0.033203608992771735,0.23795439302921295,-0.034236375242471695,0.051127661019563675,-0.025376439094543457,0.021318286657333374,-0.002011626958847046,-0.13805535037233785,2.0920418619344745,3.0539548692988188,0.8589486479759216,0.13761723041534424,0.49322280287742615, 102, 43, 285, 68
1731654747444,9i,7.162796124636163,-2.2s : 0.3s,127.86775752531518,0.004079132566871358,0.13906003966857888,0.04724220285673579,0.28720343112945557,0.001172745251096785,0.05167733505368233,-0.03625750541687012,0.028701528906822205,0.009666502475738525,-0.13855041457861808,2.0915781525221417,3.0514060489831607,0.8591182827949524,0.138107568025589,0.4927906394004822, 102, 43, 285, 68
1731654747454,9i,7.162796124636163,-2.2s : 0.3s,127.86775752531518,0.003646568962567608,0.15595198606644778,0.06370588952536811,0.29750069975852966,0.05113675445318222,0.025381747633218765,-0.04927879571914673,0.03783990442752838,0.014077723026275635,-0.13949192050551312,2.0914920923992733,3.048646407330008,0.8590475916862488,0.1390399932861328,0.4926518201828003, 102, 43, 285, 68
1731654747464,9i,7.162796124636163,-2.2s : 0.3s,127.86775752531518,0.002728298210335495,0.168274469623381,0.09358315392876107,0.29383590817451477,0.10776035487651825,-0.03216090798377991,-0.05339241027832031,0.07011693716049194,0.031474947929382324,-0.14087406785932988,2.091939018106631,3.0460377880238423,0.8586597442626953,0.14040857553482056,0.4929395020008087, 102, 43, 285, 68
1731654747474,9i,7.162796124636163,-2.2s : 0.3s,127.86775752531518,0.0011229617352475792,0.17516864724946393,0.1456946575250565,0.2496207058429718,0.1874368041753769,-0.10464152693748474,-0.06185883283615112,0.11086784303188324,0.07147544622421265,-0.1426057442311524,2.0931216095306375,3.0440190394944415,0.8578642010688782,0.14212289452552795,0.4938325583934784, 102, 43, 285, 68
1731654747484,9i,7.162796124636163,-2.2s : 0.3s,127.86775752531518,0.00148601466823724,0.22022724214164474,0.22414038216641755,0.32786545157432556,0.26465117931365967,-0.3688524067401886,-0.08650100231170654,0.15491953492164612,0.13695409893989563,-0.14464125870806285,2.094711450897487,3.042049960779403,0.8568255305290222,0.144137442111969,0.49504992365837097, 102, 43, 285, 68
1731654747494,9i,7.162796124636163,-2.2s : 0.3s,127.86775752531518,0.005077464101909102,0.2374000493268776,0.26717635096092424,0.46701693534851074,-0.10514774918556213,-0.06763904541730881,-0.07261478900909424,0.1929674744606018,0.1699230670928955,-0.14753295807615444,2.0976384340925165,3.039945303101358,0.8550091981887817,0.1469983458518982,0.49734416604042053, 102, 43, 285, 68
1731654747504,9i,7.162796124636163,-2.2s : 0.3s,127.86775752531518,0.009760608728562083,0.2801626176997259,0.3265126320546885,0.5546722412109375,0.15090534090995789,-0.0455973856151104,-0.16621559858322144,0.21216924488544464,0.18430161476135254,-0.15130721796840796,2.101736035232074,3.0372171703002326,0.8524795770645142,0.15073055028915405,0.5005589723587036, 102, 43, 285, 68
1731654747514,9i,7.162796124636163,-2.2s : 0.3s,127.86775752531518,0.015494093367085352,0.380348147193305,0.3670738102102077,0.6917874217033386,0.6275539994239807,-0.29056522250175476,-0.160478413105011,0.23948808014392853,0.22723406553268433,-0.1563353536428982,2.106973752636162,3.0333021731147185,0.849183976650238,0.15569931268692017,0.5046236515045166, 102, 43, 285, 68
1731654747524,9i,7.162796124636163,-2.2s : 0.3s,127.86775752531518,0.022352379975655867,0.5353367740399221,0.4250140322928173,1.0030416250228882,0.8641920685768127,-0.28952154517173767,-0.1595766544342041,0.2939378619194031,0.2622455954551697,-0.16300558207090338,2.113696680833855,3.027319856984808,0.8448639512062073,0.16228467226028442,0.5097731947898865, 102, 43, 285, 68
1731654747534,9i,7.162796124636163,-2.2s : 0.3s,127.86775752531518,0.030729601161375734,0.7152423740625686,0.5344445606581572,1.254235863685608,1.0793401002883911,-0.3770090937614441,-0.19637984037399292,0.3747599422931671,0.3265286087989807,-0.17176825583404387,2.1220665913087964,3.019357662438527,0.8393241167068481,0.1709248423576355,0.5160620808601379, 102, 43, 285, 68
1731654747544,9i,7.162796124636163,-2.2s : 0.3s,127.86775752531518,0.04087528417991179,0.8971106387195231,0.6424495136922245,1.45250403881073,1.23003351688385,-0.5120718479156494,-0.19668996334075928,0.4603467285633087,0.4026603102684021,-0.18272775046306353,2.131877495246409,3.0099550555458503,0.83258455991745,0.1817125827074051,0.5232433676719666, 102, 43, 285, 68
1731654747554,9i,7.162796124636163,-2.2s : 0.3s,127.86775752531518,0.05301106980215529,1.0967947679414294,0.7529774498286873,1.717496395111084,1.4315110445022583,-0.6553754806518555,-0.2410144805908203,0.5476648211479187,0.45711082220077515,-0.1960663438644068,2.1432015399767437,2.9996979977905855,0.8244951367378235,0.1948125660419464,0.531277596950531, 102, 43, 285, 68
1731654747564,9i,7.162796124636163,-2.2s : 0.3s,127.86775752531518,0.06727295182865474,1.3308878725292281,0.863066129840468,2.087830066680908,1.6497752666473389,-0.8697255849838257,-0.28715962171554565,0.6528465747833252,0.4860183596611023,-0.21286245022305844,2.1560988955815477,2.987628252112304,0.8147320747375488,0.21125860512256622,0.5399829149246216, 102, 43, 285, 68
1731654747574,9i,7.162796124636163,-2.2s : 0.3s,127.86775752531518,0.08362181746170527,1.5926454370680014,0.9520639189135957,2.413712978363037,1.9331550598144531,-1.1136624813079834,-0.3398358225822449,0.7218542695045471,0.5194841027259827,-0.23363456150274084,2.1709684520328674,2.974184790987512,0.8028178811073303,0.2315148562192917,0.5494401454925537, 102, 43, 285, 68
1731654747584,9i,7.162796124636163,-2.2s : 0.3s,127.86775752531518,0.10196371717320267,1.8852571774723927,1.0302043273720098,2.7762856483459473,2.2394981384277344,-1.3981752395629883,-0.37976646423339844,0.762761116027832,0.5790456533432007,-0.2587474301094939,2.1882493161968855,2.9596446262343252,0.7882137298583984,0.25586986541748047,0.5596875548362732, 102, 43, 285, 68
1731654747594,9i,7.162796124636163,-2.2s : 0.3s,127.86775752531518,0.12201404670044017,2.202296733999525,1.076149265444722,3.149656295776367,2.54075288772583,-1.6992285251617432,-0.40295565128326416,0.7868593335151672,0.6136581897735596,-0.2887458736022313,2.2079366360821258,2.944453760376698,0.7705247402191162,0.2847502529621124,0.5702717304229736, 102, 43, 285, 68
1731654747604,9i,7.162796124636163,-2.2s : 0.3s,127.86775752531518,0.1438735643620452,2.51899598577924,1.167929088596001,3.4870657920837402,2.764031171798706,-1.9519239664077759,-0.43091410398483276,0.8385937809944153,0.6892980933189392,-0.32361072643618777,2.2295668172163485,2.928336030408105,0.7497006058692932,0.3179919421672821,0.5803707242012024, 102, 43, 285, 68
1731654747613,9i,7.162796124636163,-2.2s : 0.3s,127.86775752531518,0.16770065673648876,2.838670423458153,1.2725869234367762,3.924746513366699,2.9346923828125,-2.132329225540161,-0.4608454704284668,0.9240493774414062,0.7437954545021057,-0.3628198066342329,2.252134986787179,2.9110048931148502,0.7261652946472168,0.3549118638038635,0.5888313055038452, 102, 43, 285, 68
1731654747623,9i,7.162796124636163,-2.2s : 0.3s,127.86775752531518,0.19329054482101157,3.143928828866492,1.330914015688129,4.175605773925781,3.1545464992523193,-2.379361152648926,-0.4865366816520691,0.9909648895263672,0.7433725595474243,-0.40614104219057884,2.275591506497826,2.8927180257344243,0.6997781991958618,0.3950672447681427,0.5951744914054871, 102, 43, 285, 68
1731654747633,9i,7.162796124636163,-2.2s : 0.3s,127.86775752531518,0.2207184842706283,3.4472208719286304,1.4205901972850092,4.28788423538208,3.3817787170410156,-2.9519476890563965,-0.538455069065094,1.0251116752624512,0.8229755163192749,-0.45277045769456875,2.301096894488985,2.8760779369268246,0.6699092388153076,0.43745851516723633,0.5998762249946594, 102, 43, 285, 68
1731654747643,9i,7.162796124636163,-2.2s : 0.3s,127.86775752531518,0.2501783838435183,3.7475137898719715,1.532393034320746,4.30635404586792,3.6069862842559814,-3.5914480686187744,-0.5595983862876892,1.0933917760849,0.9162818789482117,-0.5030253145359552,2.330967292147744,2.8631846253114697,0.6349462270736694,0.48207831382751465,0.6036922335624695, 102, 43, 285, 68
1731654747653,9i,7.162796124636163,-2.2s : 0.3s,127.86775752531518,0.2821280948617068,3.981745605096467,1.691494974062406,4.0921101570129395,3.934288263320923,-3.710458278656006,-0.6294079422950745,1.1897845268249512,1.0244089365005493,-0.5553507806135064,2.3649877582744447,2.8554840768779917,0.5955333113670349,0.5272414088249207,0.6060998439788818, 102, 43, 285, 68
1731654747663,9i,7.162796124636163,-2.2s : 0.3s,127.86775752531518,0.31706704765010685,4.212592196179672,1.8800288992341085,4.071566581726074,4.241540431976318,-4.002869129180908,-0.6021939516067505,1.3523794412612915,1.15885329246521,-0.6104100769070453,2.4056853478154117,2.8548738924207933,0.5500392913818359,0.5732035040855408,0.6073671579360962, 102, 43, 285, 68
1731654747673,9i,7.162796124636163,-2.2s : 0.3s,127.86775752531518,0.35478809873533484,4.473000053626632,1.9922416118900723,4.321872711181641,4.422467231750488,-4.402163982391357,-0.5097706317901611,1.5099966526031494,1.1954374313354492,-0.6693952657620355,2.4522064102589014,2.8602065451473404,0.4987994134426117,0.6205118894577026,0.6051152944564819, 102, 43, 285, 68
1731654747683,9i,7.162796124636163,-2.2s : 0.3s,127.86775752531518,0.39471336735273543,4.7644572153186955,2.046836690297413,4.675658702850342,4.5158209800720215,-4.879003524780273,-0.39695197343826294,1.5966951847076416,1.2175935506820679,-0.7331786708740993,2.504399587972506,2.871908716812962,0.44207197427749634,0.6692349314689636,0.597241222858429, 102, 43, 285, 68
1731654747693,9i,7.162796124636163,-2.2s : 0.3s,127.86775752531518,0.4364345156786854,5.059138559166592,2.1118869596579737,4.847846508026123,4.554679870605469,-5.428508758544922,-0.24300497770309448,1.644595742225647,1.3024284839630127,-0.8021734092392934,2.564131258623573,2.8924255264026746,0.37947937846183777,0.718868613243103,0.5824289917945862, 102, 43, 285, 68
1731654747703,9i,7.162796124636163,-2.2s : 0.3s,127.86775752531518,0.4798298923859124,5.291173318567336,2.1941305984734596,4.6380534172058105,4.519425868988037,-5.848686218261719,-0.13464418053627014,1.6883251667022705,1.3948613405227661,-0.8718442380788006,2.6377205128952936,2.92973162840937,0.31065407395362854,0.7655168771743774,0.5634518265724182, 102, 43, 285, 68
1731654747713,9i,7.162796124636163,-2.2s : 0.3s,127.86775752531518,0.525688388140654,5.539856077031247,2.4188474535885285,4.804441452026367,4.6866135597229,-6.206726551055908,-0.011018216609954834,1.8669586181640625,1.537909984588623,-0.9413951087202088,2.7288966889775694,2.985619009696346,0.23610040545463562,0.808380126953125,0.5392387509346008, 102, 43, 285, 68
1731654747723,9i,7.162796124636163,-2.2s : 0.3s,127.86775752531518,0.5736049686373867,5.786662858600154,2.500070008418232,4.8242573738098145,4.750473976135254,-6.672576427459717,0.14754164218902588,1.9374231100082397,1.573204755783081,-1.0096292762560721,2.84447408797512,3.0668251824412343,0.1558028757572174,0.8466346263885498,0.508857250213623, 102, 43, 285, 68
1731654747733,9i,7.162796124636163,-2.2s : 0.3s,127.86775752531518,0.6229422704470698,6.087171884315824,2.5352506307775284,5.09732723236084,5.031626224517822,-7.164387226104736,0.3162915110588074,2.0208616256713867,1.4978563785552979,-1.073462600937979,2.994046034163222,-3.1003215815876453,0.07013710588216782,0.8788577318191528,0.4719010293483734, 102, 43, 285, 68
1731654747743,9i,7.162796124636163,-2.2s : 0.3s,127.86775752531518,0.6743924104016557,6.418899496758467,2.7502273179384185,5.381109237670898,5.2255473136901855,-7.671725273132324,0.511911153793335,2.1020801067352295,1.6979271173477173,-1.1298400136854394,-3.0941822938388106,-2.939010570137467,-0.020227400586009026,0.9043439030647278,0.4263254702091217, 102, 43, 285, 68
1731654747753,9i,7.162796124636163,-2.2s : 0.3s,127.86775752531518,0.7276491791383979,6.755517158215467,2.8576341206925435,5.598337650299072,5.405157566070557,-8.117659568786621,0.7315259575843811,2.0834076404571533,1.8139336109161377,-1.17056711353247,-2.8482572552394485,-2.72567196517116,-0.11266022175550461,0.920971691608429,0.3729867935180664, 102, 43, 285, 68
1731654747763,9i,7.162796124636163,-2.2s : 0.3s,127.86775752531518,0.7832965467241586,7.119235790561625,3.0923064279690617,5.964842319488525,5.574487686157227,-8.629498481750488,0.9734832644462585,2.1529269218444824,1.9948922395706177,-1.1883692471753096,-2.557795919552939,-2.4671452182050904,-0.20569175481796265,0.9277616739273071,0.31136712431907654, 102, 43, 285, 68
1731654747773,9i,7.162796124636163,-2.2s : 0.3s,127.86775752531518,0.8414808949193091,7.469753114323555,3.27292669252324,6.175653457641602,5.654803276062012,-9.086888313293457,1.193326473236084,2.175549030303955,2.134246349334717,-1.1766190832394459,-2.2535031368341705,-2.1940305052451006,-0.2979715168476105,0.9233128428459167,0.24229495227336884, 102, 43, 285, 68
1731654747783,9i,7.162796124636163,-2.2s : 0.3s,127.86775752531518,0.9019187804276153,7.7739587690834435,3.3932915025110506,6.549749851226807,5.524418354034424,-9.307657241821289,1.4265308380126953,2.2221145629882812,2.131113290786743,-1.136044552509781,-1.9783338671056032,-1.9489103389774574,-0.3866904079914093,0.9069746136665344,0.16693684458732605, 102, 43, 285, 68
1731654747793,9i,7.162796124636163,-2.2s : 0.3s,127.86775752531518,0.9642777251741175,7.999042347748514,3.5049586310168253,6.997126579284668,5.043779373168945,-9.362140655517578,1.6782357692718506,2.2406249046325684,2.108994960784912,-1.0734173838200105,-1.7519954150008716,-1.7492018896759187,-0.4693126678466797,0.8788361549377441,0.08598211407661438, 102, 43, 285, 68
1731654747803,9i,7.162796124636163,-2.2s : 0.3s,127.86775752531518,1.0271960384109289,8.088951082687592,3.4720910042444943,7.232300758361816,4.242638111114502,-9.170452117919922,1.9169020652770996,2.0927116870880127,2.0003650188446045,-0.9947238266927376,-1.5767091316173707,-1.595330122008929,-0.544725239276886,0.8386085629463196,0.0032208915799856186, 102, 43, 285, 68
1731654747813,9i,7.162796124636163,-2.2s : 0.3s,127.86775752531518,1.089054434055987,8.037104194737317,3.3632763612725762,7.213616847991943,3.269258737564087,-8.872654914855957,2.134129285812378,1.8695530891418457,1.8060706853866577,-0.9058354720804855,-1.4468407419408764,-1.4799521231308022,-0.6122942566871643,0.7869409322738647,-0.07628841698169708, 102, 43, 285, 68
1731654747823,9i,7.162796124636163,-2.2s : 0.3s,127.86775752531518,1.1510000213042093,7.844644883937876,3.25373838600699,6.872966766357422,2.2104196548461914,-8.503936767578125,2.309661626815796,1.603961706161499,1.6369433403015137,-0.8113481233092805,-1.354960582390087,-1.3954947638899153,-0.6725463271141052,0.7252160310745239,-0.14745643734931946, 102, 43, 285, 68
1731654747833,9i,7.162796124636163,-2.2s : 0.3s,127.86775752531518,1.2092576943166784,7.5390191367749,3.1274806789421152,6.258243083953857,1.2879396677017212,-8.114608764648438,2.394489049911499,1.393968939781189,1.450657844543457,-0.7151071874430738,-1.2934470506219917,-1.33543088009521,-0.7261697053909302,0.6556983590126038,-0.20673078298568726, 102, 43, 285, 68
1731654747843,9i,7.162796124636163,-2.2s : 0.3s,127.86775752531518,1.264286661530943,7.169225622960883,3.005699073609237,5.672144889831543,0.7051293253898621,-7.635387420654297,2.389720916748047,1.2847561836242676,1.2933918237686157,-0.6202341274101205,-1.2532238750092097,-1.293275950296444,-0.7730523347854614,0.5812256932258606,-0.25410032272338867, 102, 43, 285, 68
1731654747853,9i,7.162796124636163,-2.2s : 0.3s,127.86775752531518,1.3168263950941685,6.795735171084151,2.8808254645453926,5.254029273986816,0.3639604449272156,-7.219003677368164,2.312967300415039,1.217869758605957,1.2108389139175415,-0.5281978416020989,-1.2259266261887976,-1.2622233269335814,-0.8128607273101807,0.5039775967597961,-0.2920002341270447, 102, 43, 285, 68
1731654747863,9i,7.162796124636163,-2.2s : 0.3s,127.86775752531518,1.3674808724153795,6.452346370609708,2.7563479546584713,4.904785633087158,0.1273316591978073,-6.943625450134277,2.2048604488372803,1.1296350955963135,1.20829176902771,-0.43881733288214714,-1.2073666630511566,-1.23789873794558,-0.8461264371871948,0.4248691499233246,-0.3218017816543579, 102, 43, 285, 68
1731654747873,9i,7.162796124636163,-2.2s : 0.3s,127.86775752531518,1.4168659719984662,6.153446712666005,2.6683957719283122,4.591182708740234,0.030772093683481216,-6.775325298309326,2.0976877212524414,1.0336182117462158,1.2851753234863281,-0.3520577850935263,-1.1951587802648456,-1.2187136856406944,-0.8732157349586487,0.34483009576797485,-0.3443640470504761, 102, 43, 285, 68
1731654747883,9i,7.162796124636163,-2.2s : 0.3s,127.86775752531518,1.4652570128762206,5.858188951311518,2.599922594518917,4.022037029266357,0.013844243250787258,-6.621562480926514,2.026379108428955,0.9421330690383911,1.3288229703903198,-0.26879447728103617,-1.1879150096533093,-1.204478112305341,-0.8942838907241821,0.26556938886642456,-0.360179603099823, 102, 43, 285, 68
1731654747893,9i,7.162796124636163,-2.2s : 0.3s,127.86775752531518,1.5126290910734126,5.567427470098982,2.529441615089285,3.583207130432129,0.009504355490207672,-6.385736465454102,1.9885034561157227,0.8722001910209656,1.2973803281784058,-0.19059697655413962,-1.1848376590180763,-1.1946623401496343,-0.9096615314483643,0.18944509327411652,-0.3696305453777313, 102, 43, 285, 68
1731654747903,9i,7.162796124636163,-2.2s : 0.3s,127.86775752531518,1.558578835234742,5.290583475403219,2.435608043062461,3.1659693717956543,-0.0474577322602272,-6.198336124420166,1.9682379961013794,0.7680577635765076,1.2117396593093872,-0.1178039402965609,-1.1850915968369489,-1.1873498939333205,-0.9201119542121887,0.11753164976835251,-0.37360474467277527, 102, 43, 285, 68
1731654747913,9i,7.162796124636163,-2.2s : 0.3s,127.86775752531518,1.6023545946821047,5.018320135310219,2.2922102163144067,2.6313586235046387,-0.04103924706578255,-6.034958362579346,1.9312970638275146,0.6348618865013123,1.058900237083435,-0.05043151599837483,-1.1880419130161324,-1.183147719418236,-0.9264600872993469,0.05041014030575752,-0.37300217151641846, 102, 43, 285, 68
1731654747923,9i,7.162796124636163,-2.2s : 0.3s,127.86775752531518,1.6438274726930797,4.7426106361095695,2.1564012103715933,2.1599175930023193,-0.029027059674263,-5.775925159454346,1.8458306789398193,0.5402982831001282,0.9752194881439209,0.011352788382262103,-1.1922107955718675,-1.182118129950052,-0.9291284680366516,-0.011352544650435448,-0.3695827126502991, 102, 43, 285, 68
1731654747933,9i,7.162796124636163,-2.2s : 0.3s,127.86775752531518,1.6827289261085503,4.4521207597188726,2.0173606068529923,1.8225971460342407,-0.09723372012376785,-5.370485782623291,1.7625932693481445,0.42057740688323975,0.8866360187530518,0.0671582262114982,-1.1969688830569913,-1.1829441448834728,-0.9288378953933716,-0.06710775196552277,-0.36435800790786743, 102, 43, 285, 68
1731654747943,9i,7.162796124636163,-2.2s : 0.3s,127.86775752531518,1.718688924576324,4.149582015029049,1.8953638002546294,1.6481103897094727,-0.23799030482769012,-4.885178089141846,1.7109596729278564,0.27847036719322205,0.7664692997932434,0.11705556910157418,-1.2022681121371204,-1.1842164817606562,-0.926474928855896,-0.11678843945264816,-0.3577776849269867, 102, 43, 285, 68
1731654747953,9i,7.162796124636163,-2.2s : 0.3s,127.86775752531518,1.7515776421394793,3.831557100195239,1.8114231124549431,1.421453595161438,-0.43260496854782104,-4.388772487640381,1.6830556392669678,0.14544673264026642,0.653775691986084,0.16174578373030962,-1.2082755869633246,-1.1847009380257876,-0.9228019714355469,-0.16104145348072052,-0.35000354051589966, 102, 43, 285, 68
1731654747963,9i,7.162796124636163,-2.2s : 0.3s,127.86775752531518,1.7814484954889456,3.4837658507331444,1.7724838589989096,1.116174340248108,-0.7409105896949768,-3.8072996139526367,1.6759699583053589,-0.004071563482284546,0.5768944025039673,0.20093715158685257,-1.2152651494600468,-1.1863572806461813,-0.9186000823974609,-0.19958771765232086,-0.34108486771583557, 102, 43, 285, 68
1731654747973,9i,7.162796124636163,-2.2s : 0.3s,127.86775752531518,1.8084944647259291,3.139263376182915,1.7811905996804103,0.9596976637840271,-1.0512815713882446,-3.2680203914642334,1.6907355785369873,-0.16867844760417938,0.5344162583351135,0.23506126692475088,-1.2237958796488582,-1.1880613416001882,-0.9145362973213196,-0.23290257155895233,-0.3307264745235443, 102, 43, 285, 68
1731654747983,9i,7.162796124636163,-2.2s : 0.3s,127.86775752531518,1.8326236054425629,2.7883193505711716,1.808057308695381,0.5019599199295044,-1.2053278684616089,-2.771674156188965,1.711347222328186,-0.3622991442680359,0.4572758972644806,0.26479278318963906,-1.2331206572914057,-1.1911460455675709,-0.9106424450874329,-0.2617092728614807,-0.31974828243255615, 102, 43, 285, 68
1731654747993,9i,7.162796124636163,-2.2s : 0.3s,127.86775752531518,1.8544877073107342,2.408922747940021,1.7839266269630127,0.08706734329462051,-1.1826393604278564,-2.1275904178619385,1.6864804029464722,-0.4078057110309601,0.41457515954971313,0.2888042613870549,-1.241290887178476,-1.1971039507194632,-0.9070157408714294,-0.2848062217235565,-0.3101743161678314, 102, 43, 285, 68
1731654748003,9i,7.162796124636163,-2.2s : 0.3s,127.86775752531518,1.8749218950693063,2.030503877335373,1.7368693485261608,-0.09354157745838165,-1.1277198791503906,-1.5156248807907104,1.6579747200012207,-0.3600011467933655,0.3717985153198242,0.3067756417641448,-1.2482789616709067,-1.2036694423284753,-0.9041600227355957,-0.3019863963127136,-0.3021572232246399, 102, 43, 285, 68
1731654748013,9i,7.162796124636163,-2.2s : 0.3s,127.86775752531518,1.8941865602378307,1.6985510475198866,1.7097442985614706,0.02374250255525112,-0.9863330721855164,-1.1192625761032104,1.6280181407928467,-0.39437803626060486,0.34241563081741333,0.3208299198750704,-1.254858571475402,-1.209041819146026,-0.9020050764083862,-0.31535422801971436,-0.2948538064956665, 102, 43, 285, 68
1731654748023,9i,7.162796124636163,-2.2s : 0.3s,127.86775752531518,1.9119515779101788,1.3700400036888933,1.6456067298319232,-0.01857272908091545,-0.7050920724868774,-0.6834285259246826,1.5463147163391113,-0.4847407639026642,0.28628429770469666,0.3314609941407392,-1.2603927582880672,-1.212362649077033,-0.9003795385360718,-0.32542484998703003,-0.28881704807281494, 102, 43, 285, 68
1731654748033,9i,7.162796124636163,-2.2s : 0.3s,127.86775752531518,1.9279300103346069,1.0481434031274626,1.5883306084824977,-0.15784220397472382,-0.4351809620857239,-0.2986215651035309,1.4713608026504517,-0.5627279281616211,0.2030487358570099,0.3377133660905233,-1.263903597605364,-1.215237638516861,-0.8994309306144714,-0.33133047819137573,-0.2850339710712433, 102, 43, 285, 68
1731654748043,9i,7.162796124636163,-2.2s : 0.3s,127.86775752531518,1.942382019846955,0.7375834864776434,1.566638157438489,-0.3359757363796234,-0.18881966173648834,0.06656306982040405,1.4256582260131836,-0.6212565898895264,0.18945708870887756,0.3395456960208806,-1.265561506797673,-1.2181394720193988,-0.8993216156959534,-0.33305877447128296,-0.28335943818092346, 102, 43, 285, 68
1731654748053,9i,7.162796124636163,-2.2s : 0.3s,127.86775752531518,1.955600377231355,0.4531159745451976,1.5458111274142938,-0.5351913571357727,0.0463990792632103,0.4187537431716919,1.3753784894943237,-0.6760129928588867,0.20216944813728333,0.3368362113434978,-1.2651138072921002,-1.2216474035468543,-0.9000519514083862,-0.3305027484893799,-0.28403258323669434, 102, 43, 285, 68
1731654748063,9i,7.162796124636163,-2.2s : 0.3s,127.86775752531518,1.9681236315782695,0.2866479141513246,1.5137460622086696,-0.8268610239028931,0.2594250738620758,0.7909464836120605,1.3104627132415771,-0.7032432556152344,0.2820701003074646,0.3294642608331925,-1.2623931206340362,-1.2263822605661374,-0.9015730023384094,-0.3235361576080322,-0.2872121036052704, 102, 43, 285, 68
1731654748073,9i,7.162796124636163,-2.2s : 0.3s,127.86775752531518,1.9801444468601164,0.4168208382976746,1.4568374499107728,-1.0422614812850952,0.4597628712654114,1.1939843893051147,1.235229253768921,-0.7074543237686157,0.30998778343200684,0.3172340909782826,-1.257293418379313,-1.2324097580671782,-0.9037931561470032,-0.31193986535072327,-0.29300448298454285, 102, 43, 285, 68
1731654748083,9i,7.162796124636163,-2.2s : 0.3s,127.86775752531518,1.9917734311005295,0.6916020346676945,1.3804312999609663,-1.151069164276123,0.6805692315101624,1.677943229675293,1.1697440147399902,-0.6717853546142578,0.293247252702713,0.30015451653150865,-1.2500641918278725,-1.2384498033722582,-0.9065756797790527,-0.295667827129364,-0.3011663854122162, 102, 43, 285, 68
1731654748093,9i,7.162796124636163,-2.2s : 0.3s,127.86775752531518,2.003072033206638,1.0018091526276318,1.3104366570669597,-1.1956936120986938,0.9101840257644653,2.175717353820801,1.121303915977478,-0.6276357173919678,0.2568952441215515,0.2781593209055046,-1.2407013015182269,-1.2435028298431494,-0.9096493124961853,-0.27458620071411133,-0.3116740882396698, 102, 43, 285, 68
1731654748103,9i,7.162796124636163,-2.2s : 0.3s,127.86775752531518,2.0142542884315224,1.320104936143461,1.2554443549319891,-1.2101213932037354,1.1325651407241821,2.6414718627929688,1.097963809967041,-0.5646812915802002,0.22748854756355286,0.25151517106700083,-1.2295107242226668,-1.246843511868779,-0.9126762747764587,-0.24887174367904663,-0.32416799664497375, 102, 43, 285, 68
1731654748113,9i,7.162796124636163,-2.2s : 0.3s,127.86775752531518,2.025481405458675,1.6320877774924294,1.2276945162384256,-1.1877593994140625,1.2891618013381958,3.0854697227478027,1.1021504402160645,-0.5079180002212524,0.18578895926475525,0.22056615676422794,-1.216996256571676,-1.2482844816262522,-0.9153372645378113,-0.21878209710121155,-0.3380714952945709, 102, 43, 285, 68
1731654748123,9i,7.162796124636163,-2.2s : 0.3s,127.86775752531518,2.0369960307765234,1.9386793197296988,1.2199043078495937,-1.1539583206176758,1.4278219938278198,3.5316710472106934,1.1283209323883057,-0.4400136470794678,0.1464458405971527,0.18553033567294508,-1.2035202296091156,-1.2475604017961175,-0.9172919988632202,-0.18446779251098633,-0.3529123067855835, 102, 43, 285, 68
1731654748133,9i,7.162796124636163,-2.2s : 0.3s,127.86775752531518,2.0490766582513857,2.2407782564192904,1.228558168078836,-1.1585118770599365,1.5237743854522705,3.9700779914855957,1.1578216552734375,-0.38526880741119385,0.1427309811115265,0.1464894788941559,-1.1892559873692514,-1.2442985308792933,-0.9181519746780396,-0.14596611261367798,-0.3683624863624573, 102, 43, 285, 68
1731654748143,9i,7.162796124636163,-2.2s : 0.3s,127.86775752531518,2.0619427691574836,2.549549759955219,1.2418977315236723,-1.1994556188583374,1.632749319076538,4.44520902633667,1.1807563304901123,-0.3366418480873108,0.18653881549835205,0.10317755686847664,-1.1740951332600995,-1.2391159120116921,-0.9174355864524841,-0.10299459099769592,-0.3843230605125427, 102, 43, 285, 68
1731654748153,9i,7.162796124636163,-2.2s : 0.3s,127.86775752531518,2.0754061956564467,2.858845329273843,1.266407550749332,-1.1942263841629028,1.7430496215820312,4.911095142364502,1.2185428142547607,-0.27689164876937866,0.20560279488563538,0.05551928616139983,-1.1578389986377116,-1.2316066245883066,-0.9145268201828003,-0.05549076944589615,-0.40070149302482605, 102, 43, 285, 68
1731654748162,9i,7.162796124636163,-2.2s : 0.3s,127.86775752531518,2.090468168007452,3.1598208906250567,1.327717002877258,-1.2338217496871948,1.8291418552398682,5.323067665100098,1.2903552055358887,-0.22402018308639526,0.21824491024017334,0.003961593051719061,-1.1402917566753843,-1.2215472137755568,-0.9087482690811157,-0.003961582668125629,-0.4173261821269989, 102, 43, 285, 68
1731654748172,9i,7.162796124636163,-2.2s : 0.3s,127.86775752531518,2.1074010935612835,3.450087398289784,1.4145313533596273,-1.2788784503936768,1.8718822002410889,5.723151683807373,1.3829259872436523,-0.1676202267408371,0.2455974817276001,-0.0512637044214723,-1.1215087195861624,-1.2093632407148334,-0.8995735049247742,0.051241252571344376,-0.43375343084335327, 102, 43, 285, 68
1731654748182,9i,7.162796124636163,-2.2s : 0.3s,127.86775752531518,2.1264901009682613,3.729799926875154,1.5249904178026947,-1.2931787967681885,1.8847122192382812,6.123615741729736,1.4950392246246338,-0.11493844538927078,0.27792561054229736,-0.1099410905535916,-1.101537311846699,-1.1944834864197518,-0.8865188956260681,0.10971974581480026,-0.4494952857494354, 102, 43, 285, 68
1731654748192,9i,7.162796124636163,-2.2s : 0.3s,127.86775752531518,2.1477572357285704,3.995529677080762,1.6483093059706553,-1.295994758605957,1.860658884048462,6.5004777908325195,1.6226277351379395,-0.09674902260303497,0.2732076644897461,-0.1718271143984469,-1.080319214400484,-1.176748119327845,-0.8691183924674988,0.17098283767700195,-0.46411022543907166, 102, 43, 285, 68
1731654748202,9i,7.162796124636163,-2.2s : 0.3s,127.86775752531518,2.171353258877395,4.26143434283353,1.7649392867058151,-1.2252005338668823,1.943308711051941,6.909657955169678,1.7348358631134033,-0.07883566617965698,0.3148652911186218,-0.23653737904770317,-1.0570036836773051,-1.1551677580936608,-0.8466371893882751,0.23433783650398254,-0.4777985215187073, 102, 43, 285, 68
1731654748212,9i,7.162796124636163,-2.2s : 0.3s,127.86775752531518,2.19753496127992,4.53229875689789,1.8787599054172193,-1.1520452499389648,2.0653328895568848,7.330158710479736,1.8341426849365234,-0.058658331632614136,0.402763694524765,-0.30389967831772946,-1.0299369910353142,-1.1286647728425099,-0.817983865737915,0.2992434501647949,-0.4912797510623932, 102, 43, 285, 68
1731654748222,9i,7.162796124636163,-2.2s : 0.3s,127.86775752531518,2.226721009837968,4.808836550154891,2.0190301997458366,-1.194267749786377,2.1795830726623535,7.741715431213379,1.9446126222610474,-0.04315480589866638,0.5413892865180969,-0.3739531455789647,-0.9981416690941253,-1.097051161935674,-0.7823813557624817,0.36529821157455444,-0.5044171214103699, 102, 43, 285, 68
1731654748232,9i,7.162796124636163,-2.2s : 0.3s,127.86775752531518,2.2592920233400005,5.083324199228207,2.18428618356351,-1.2852452993392944,2.283247470855713,8.11805534362793,2.074662446975708,-0.031881898641586304,0.6825433373451233,-0.44655439344289805,-0.9611224494174004,-1.060068914793996,-0.7394422292709351,0.4318603575229645,-0.5164512395858765, 102, 43, 285, 68
1731654748242,9i,7.162796124636163,-2.2s : 0.3s,127.86775752531518,2.2955110244708523,5.367839197378709,2.3752506555952833,-1.6473143100738525,2.46431303024292,8.486570358276367,2.2367024421691895,-0.03814813494682312,0.7984501123428345,-0.522014969795686,-0.9179188550287285,-1.0182024403612666,-0.6885460615158081,0.49862775206565857,-0.5265688896179199, 102, 43, 285, 68
1731654748252,9i,7.162796124636163,-2.2s : 0.3s,127.86775752531518,2.3358841622268245,5.706653899561888,2.6061389969045616,-2.1468098163604736,2.595950126647949,9.086334228515625,2.4505202770233154,0.017341196537017822,0.8869104385375977,-0.6020186747958357,-0.8672927072928374,-0.9708952406815656,-0.628514289855957,0.5663074254989624,-0.5331658124923706, 102, 43, 285, 68
1731654748262,9i,7.162796124636163,-2.2s : 0.3s,127.86775752531518,2.381594528959622,6.1426415584063925,2.9440321308181967,-2.758141279220581,2.6567912101745605,9.97922134399414,2.7512035369873047,0.12549006938934326,1.0404117107391357,-0.6889474838022136,-0.8067502753609429,-0.9142475126530182,-0.557356059551239,0.6357250809669495,-0.5340487360954285, 102, 43, 285, 68
1731654748272,9i,7.162796124636163,-2.2s : 0.3s,127.86775752531518,2.4344737814116435,6.684608998624816,3.4556083745955384,-3.2903103828430176,2.6272313594818115,11.096457481384277,3.190350294113159,0.1881653070449829,1.3143393993377686,-0.7837475452338254,-0.7308235258010476,-0.8409573686716817,-0.47276028990745544,0.7059386372566223,-0.5273978114128113, 102, 43, 285, 68
1731654748282,9i,7.162796124636163,-2.2s : 0.3s,127.86775752531518,2.4965298822993995,7.334833667792982,4.102348515617275,-3.962123155593872,2.632829427719116,12.332863807678223,3.744433879852295,0.1942194104194641,1.6645591259002686,-0.8853457552976673,-0.6293477758788355,-0.7399218374347354,-0.37260788679122925,0.7741339206695557,-0.5117422938346863, 102, 43, 285, 68
1731654748292,9i,7.162796124636163,-2.2s : 0.3s,127.86775752531518,2.569699962247808,8.09250996141004,4.81951062993552,-4.612527847290039,2.601155996322632,13.735501289367676,4.374054431915283,0.24742203950881958,2.008510112762451,-0.9907834275499575,-0.48310303202194793,-0.5917266319816149,-0.25457829236984253,0.8364555835723877,-0.48531654477119446, 102, 43, 285, 68
1731654748302,9i,7.162796124636163,-2.2s : 0.3s,127.86775752531518,2.6545644218399373,8.85698062371118,5.376840405712124,-5.350594997406006,2.7276957035064697,14.702235221862793,4.899192810058594,0.447115957736969,2.169887065887451,-1.089203173462365,-0.26073844534669177,-0.36554100983629545,-0.11940812319517136,0.8862581253051758,-0.4475358724594116, 102, 43, 285, 68
1731654748312,9i,7.162796124636163,-2.2s : 0.3s,127.86775752531518,2.7497124841772767,9.549624137532835,5.6623185926091155,-6.604254722595215,2.969723701477051,15.043363571166992,5.1930646896362305,0.6086675524711609,2.1733510494232178,-1.1633664510062827,0.0691114043341764,-0.03337848421407568,0.027363687753677368,0.9181422591209412,-0.395305335521698, 102, 43, 285, 68
1731654748322,9i,7.162796124636163,-2.2s : 0.3s,127.86775752531518,2.854999485632158,10.156990046843136,6.120739352372693,-8.832719802856445,2.635758876800537,14.824660301208496,5.65964937210083,0.7010023593902588,2.2227044105529785,-1.195187448289591,0.5008649876868568,0.40121320668448335,0.1761506348848343,0.9302844405174255,-0.32177969813346863, 102, 43, 285, 68
1731654748332,9i,7.162796124636163,-2.2s : 0.3s,127.86775752531518,2.973909188159515,10.72861976181589,7.1107691935293325,-12.576791763305664,1.5768039226531982,13.71617317199707,6.627171039581299,1.1456148624420166,2.308941125869751,-1.1780424730595673,0.9639743597362531,0.8768470291825228,0.3144027590751648,0.9238585829734802,-0.21825803816318512, 102, 43, 285, 68
1731654748342,9i,7.162796124636163,-2.2s : 0.3s,127.86775752531518,3.111035476120409,11.504838164577757,8.30965158161529,-17.376680374145508,0.2604822814464569,12.167651176452637,7.535668849945068,2.391861915588379,2.557929039001465,-1.1127337022518538,1.3928997087556043,1.3362082739300758,0.4352324903011322,0.8969109058380127,-0.07825364172458649, 102, 43, 285, 68
1731654748352,9i,7.162796124636163,-2.2s : 0.3s,127.86775752531518,3.267276990258852,12.616045427911782,9.20403611458137,-21.374696731567383,-1.3140003681182861,11.044791221618652,7.752251625061035,3.973048448562622,2.971827983856201,-0.9972286896010818,1.735886318792168,1.7349404369696384,0.5352543592453003,0.8399704098701477,0.08917678147554398, 102, 43, 285, 68
1731654748362,9i,7.162796124636163,-2.2s : 0.3s,127.86775752531518,3.4410764025650304,13.973404526284172,9.851565755867412,-25.143173217773438,-4.2781572341918945,9.158838272094727,7.503010272979736,5.174513339996338,3.739331007003784,-0.8312452730602161,1.9625812934960623,2.050792779657085,0.6228899955749512,0.7387712001800537,0.2573426365852356, 102, 43, 285, 68
1731654748372,9i,7.162796124636163,-2.2s : 0.3s,127.86775752531518,3.63601076173053,15.494443231209964,11.153952894003128,-28.990293502807617,-9.43569564819336,4.446228504180908,7.428927898406982,5.763328552246094,6.000478267669678,-0.6496742454305796,2.087331998115719,2.3405856937322587,0.6923947930335999,0.6049270629882812,0.39326006174087524, 102, 43, 285, 68
1731654748382,9i,7.162796124636163,-2.2s : 0.3s,127.86775752531518,3.84945309183568,16.63433021444394,12.389239728608402,-29.445199966430664,-9.136576652526855,-0.6625123620033264,6.050796031951904,5.870672225952148,9.078344345092773,-0.4765193641357869,2.1442289699371426,2.6259680225626,0.746460497379303,0.4586890637874603,0.48208072781562805, 102, 43, 285, 68
1731654748392,9i,7.162796124636163,-2.2s : 0.3s,127.86775752531518,4.0566123870500155,17.490592498944384,11.290112928185954,-29.456329345703125,-9.0940580368042,-8.44225788116455,2.4788761138916016,3.2051050662994385,10.537984848022461,-0.35712538060005516,2.172987814169623,2.9178628469592116,0.7721004486083984,0.3495824337005615,0.5307100415229797, 102, 43, 285, 68
1731654748402,9i,7.162796124636163,-2.2s : 0.3s,127.86775752531518,4.25246135245718,17.92063586841704,13.266421518407643,-25.57842254638672,-13.53407096862793,-5.546938896179199,-0.09585821628570557,1.0050184726715088,13.227951049804688,-0.2610435235082077,2.1478815249202228,-3.0746668024110346,0.8096643090248108,0.2580888569355011,0.5270999073982239, 102, 43, 285, 68
1731654748412,9i,7.162796124636163,-2.2s : 0.3s,127.86775752531518,4.467877156462935,16.537787327406498,16.070535154793344,-16.79880714416504,-11.38575267791748,-3.659919261932373,1.2586677074432373,4.974833011627197,15.229211807250977,-0.1902531512791831,2.064391552864566,-2.868512423727724,0.864745557308197,0.1891074776649475,0.46524620056152344, 102, 43, 285, 68
1731654748422,9i,7.162796124636163,-2.2s : 0.3s,127.86775752531518,4.687391052700062,14.574128252125325,11.347711412765905,-11.609899520874023,-8.03162670135498,-9.613638877868652,3.3615036010742188,7.361093044281006,7.955196857452393,-0.18475583829779185,1.9966697306655838,-2.716582695233309,0.8951796293258667,0.18370653688907623,0.4060855805873871, 102, 43, 285, 68
1731654748432,9i,7.162796124636163,-2.2s : 0.3s,127.86775752531518,4.856483218778417,13.489008435227893,2.513962039137302,-10.780366897583008,-7.878667831420898,-13.840470314025879,0.8709688782691956,2.155697822570801,0.9562349319458008,-0.24647882912287403,1.9450461864308297,-2.567142714818071,0.9026517271995544,0.2439907193183899,0.3545258939266205, 102, 43, 285, 68
1731654748442,9i,7.162796124636163,-2.2s : 0.3s,127.86775752531518,4.988081359845691,12.690382112841586,3.619764791216315,-8.248340606689453,-8.392882347106934,-14.140632629394531,-0.34863364696502686,-0.4228023588657379,3.57804274559021,-0.34117132361985786,1.9025070206507415,-2.4233381234187084,0.8909920454025269,0.3345911204814911,0.30689096450805664, 102, 43, 285, 68
1731654748452,9i,7.162796124636163,-2.2s : 0.3s,127.86775752531518,5.114175176881846,11.982953820469078,6.018990995697028,-3.929133415222168,-8.451494216918945,-15.74569320678711,1.2431704998016357,1.2976486682891846,5.7444658279418945,-0.463096593323646,1.8620132396576867,-2.3110815244853598,0.857003390789032,0.446720689535141,0.25687694549560547, 102, 43, 285, 68
1731654748462,9i,7.162796124636163,-2.2s : 0.3s,127.86775752531518,5.2366193392370235,11.676669887126405,5.438693806586866,-0.798724353313446,-7.962911605834961,-17.481651306152344,1.8117488622665405,2.1315486431121826,4.664060115814209,-0.6178473115419165,1.8187645505035093,-2.233913232783482,0.7901952266693115,0.5792818069458008,0.2000606656074524, 102, 43, 285, 68
1731654748472,9i,7.162796124636163,-2.2s : 0.3s,127.86775752531518,5.349391454797164,11.475596952309365,4.138458060163806,1.6562182903289795,-6.969973087310791,-17.233762741088867,1.7530637979507446,1.639458179473877,3.371317148208618,-0.7887381305202654,1.7727551595695554,-2.1891779738832953,0.6904178857803345,0.7094645500183105,0.14136317372322083, 102, 43, 285, 68
1731654748482,9i,7.162796124636163,-2.2s : 0.3s,127.86775752531518,5.458442634460864,11.288766194794254,4.582178494909165,3.5433619022369385,-6.453179359436035,-16.24273681640625,2.868955612182617,0.7351550459861755,3.496426820755005,-0.9575922834036544,1.7089295247079475,-2.1852078869148714,0.5700093507766724,0.8178083300590515,0.07924185693264008, 102, 43, 285, 68
1731654748492,9i,7.162796124636163,-2.2s : 0.3s,127.86775752531518,5.570998095509043,11.196402928031274,5.993593891711493,5.073979377746582,-6.752327919006348,-15.40705394744873,3.8746416568756104,-0.41204410791397095,4.554178237915039,-1.1184522807195603,1.5906751363246454,-2.2457394343826205,0.43698883056640625,0.8994250297546387,0.008687962777912617, 102, 43, 285, 68
1731654748502,9i,7.162796124636163,-2.2s : 0.3s,127.86775752531518,5.68483902163691,11.061921498770205,6.5262358500755875,6.431727409362793,-7.402268409729004,-13.865168571472168,3.385878801345825,-1.5289571285247803,5.36561918258667,-1.2602269419539271,1.340267520261935,-2.4401804664155895,0.29751673340797424,0.9521597027778625,-0.06982754170894623, 102, 43, 285, 68
1731654748512,9i,7.162796124636163,-2.2s : 0.3s,127.86775752531518,5.794506432503052,10.738306064859938,6.385356915228268,8.220829963684082,-7.306888580322266,-11.59398365020752,2.7492523193359375,-2.4066338539123535,5.236650466918945,-1.345800214764368,0.8010139722446881,-2.9262797145201676,0.16020214557647705,0.9747949838638306,-0.15527531504631042, 102, 43, 285, 68
1731654748522,9i,7.162796124636163,-2.2s : 0.3s,127.86775752531518,5.894981256040159,10.526957769819614,5.850590426945457,10.054656028747559,-7.0080461502075195,-10.425089836120605,2.2572054862976074,-2.983124017715454,4.498377799987793,-1.3141823088337592,0.12694044876153465,2.7340741565095548,0.032131969928741455,0.9672548770904541,-0.25176525115966797, 102, 43, 285, 68
1731654748532,9i,7.162796124636163,-2.2s : 0.3s,127.86775752531518,5.984531132461944,10.353361434328235,5.446027447862059,11.540486335754395,-6.374433517456055,-8.976447105407715,1.6567323207855225,-3.212003469467163,4.074001312255859,-1.1998213513562455,-0.2294471146475391,2.4307263610597114,-0.08245228230953217,0.9319743514060974,-0.35302361845970154, 102, 43, 285, 68
1731654748542,9i,7.162796124636163,-2.2s : 0.3s,127.86775752531518,6.064485403984339,10.263451799572916,5.017004337193992,13.283977508544922,-5.911067008972168,-7.193533897399902,1.0782688856124878,-2.9228322505950928,3.932520866394043,-1.0569821599137268,-0.3747454237407393,2.3378418801178937,-0.1799074411392212,0.8708761930465698,-0.4573926627635956, 102, 43, 285, 68
1731654748552,9i,7.162796124636163,-2.2s : 0.3s,127.86775752531518,6.135503277878417,10.16328984548465,4.658701571985563,13.306174278259277,-5.972834587097168,-5.738303184509277,0.6339612007141113,-2.761629581451416,3.697971820831299,-0.9082677400820399,-0.4427926876908891,2.3276416025662625,-0.2635538876056671,0.7884393930435181,-0.5557902455329895, 102, 43, 285, 68
1731654748562,9i,7.162796124636163,-2.2s : 0.3s,127.86775752531518,6.196150998285067,9.884836592844543,3.843009468837422,12.102563858032227,-5.712399959564209,-4.81401252746582,0.20565465092658997,-2.410775899887085,2.9857306480407715,-0.7714185794786306,-0.48999462007075517,2.343136533774743,-0.33739885687828064,0.6971529722213745,-0.6325660347938538, 102, 43, 285, 68
1731654748572,9i,7.162796124636163,-2.2s : 0.3s,127.86775752531518,6.245360025696214,9.491495401224348,2.7090843042875816,11.109094619750977,-5.2269086837768555,-4.308172702789307,-0.2957034707069397,-1.5837311744689941,2.1779561042785645,-0.6484276664822253,-0.5299891337578431,2.3652248490957994,-0.4029199779033661,0.6039339303970337,-0.6876912713050842, 102, 43, 285, 68
1731654748582,9i,7.162796124636163,-2.2s : 0.3s,127.86775752531518,6.283757949973038,9.063461394563857,1.845077412558853,10.171537399291992,-5.010677814483643,-4.231618404388428,-0.5076547265052795,-0.9193182587623596,1.517053484916687,-0.5349203667698968,-0.5674573985185076,2.3894474143320408,-0.4624073803424835,0.509772539138794,-0.7254732847213745, 102, 43, 285, 68
1731654748592,9i,7.162796124636163,-2.2s : 0.3s,127.86775752531518,6.31406497379514,8.58499492827955,1.0888782786166893,8.824145317077637,-4.965809345245361,-4.632047176361084,-0.1530057191848755,-0.5031585693359375,0.9534550905227661,-0.4339311494268643,-0.6101578293184041,2.411137768827177,-0.5198914408683777,0.4204408526420593,-0.7436009645462036, 102, 43, 285, 68
1731654748602,9i,7.162796124636163,-2.2s : 0.3s,127.86775752531518,6.340540153957087,8.08225234028057,0.8559235357105341,7.348442077636719,-5.653476238250732,-4.6665520668029785,0.5306634306907654,-0.19675061106681824,0.642098605632782,-0.3455546029389342,-0.661715827672436,2.429304874415956,-0.5781486630439758,0.33871856331825256,-0.7423031330108643, 102, 43, 285, 68
1731654748612,9i,7.162796124636163,-2.2s : 0.3s,127.86775752531518,6.365216768037555,7.59608832284113,1.1066889493895748,6.083401679992676,-6.509023189544678,-4.245711803436279,1.051249384880066,-0.05855777859687805,0.34089022874832153,-0.26914734220447195,-0.722993744812057,2.4411103907800356,-0.6378123164176941,0.2659095823764801,-0.7228330373764038, 102, 43, 285, 68
1731654748622,9i,7.162796124636163,-2.2s : 0.3s,127.86775752531518,6.389216581841628,7.140545642742533,1.2780968870019604,5.253380298614502,-6.34785795211792,-4.223015785217285,1.2502484321594238,0.11748255789279938,0.23792511224746704,-0.19991715594830767,-0.7860873699347907,2.4495889248029283,-0.6935008764266968,0.19858813285827637,-0.6925455927848816, 102, 43, 285, 68
1731654748632,9i,7.162796124636163,-2.2s : 0.3s,127.86775752531518,6.413475372911635,6.739859592229193,1.430050911535639,4.969797134399414,-5.74018669128418,-4.331014156341553,1.3249902725219727,0.5024070143699646,0.19244110584259033,-0.1342416480169786,-0.8451054139077235,2.457316211007974,-0.7413110733032227,0.13383881747722626,-0.6576816439628601, 102, 43, 285, 68
1731654748642,9i,7.162796124636163,-2.2s : 0.3s,127.86775752531518,6.440492768592702,6.442563202839871,1.9028414453615374,5.160991668701172,-5.280028820037842,-4.390447616577148,1.4037278890609741,1.221269130706787,0.3985665440559387,-0.06856438134501869,-0.8989970244044384,2.467770837562445,-0.7808640003204346,0.06851067394018173,-0.620932936668396, 102, 43, 285, 68
1731654748652,9i,7.162796124636163,-2.2s : 0.3s,127.86775752531518,6.4736310207804815,6.320025359335252,2.6616506577227694,6.176112651824951,-4.91925573348999,-4.3274431228637695,1.4961917400360107,2.0116281509399414,0.8939500451087952,1.6206022630277298e-05,-0.9491981227406635,2.4864080031676936,-0.8129488229751587,-1.6206022337428294e-05,-0.5823351740837097, 102, 43, 285, 68
1731654748662,9i,7.162796124636163,-2.2s : 0.3s,127.86775752531518,6.51491941232576,6.290795393765614,3.2270020123679353,6.919580459594727,-4.700303554534912,-4.10650634765625,1.5435853004455566,2.40693736076355,1.4958405494689941,0.0720538689601404,-0.9982710722762941,2.517524763348904,-0.8383546471595764,-0.07199154049158096,-0.540350615978241, 102, 43, 285, 68
1731654748672,9i,7.162796124636163,-2.2s : 0.3s,127.86775752531518,6.563989748892569,6.1238650824255645,3.301803721403666,6.0323686599731445,-4.5745439529418945,-3.9690136909484863,1.6492342948913574,2.11544132232666,1.9253160953521729,0.14028451079940646,-1.048275168587997,2.5524699708217917,-0.8580508828163147,-0.13982483744621277,-0.4941638112068176, 102, 43, 285, 68
1731654748682,9i,7.162796124636163,-2.2s : 0.3s,127.86775752531518,6.618570096297421,5.880119165221165,3.0856214887012947,5.4931488037109375,-4.293458461761475,-3.7471237182617188,1.6789616346359253,1.4266152381896973,2.1603047847747803,0.20148958500346556,-1.0982123329933704,2.58464149775811,-0.8723820447921753,-0.20012900233268738,-0.44597992300987244, 102, 43, 285, 68
1731654748692,9i,7.162796124636163,-2.2s : 0.3s,127.86775752531518,6.67438521249691,5.429326259207708,2.6396401305483668,4.098981857299805,-3.7558164596557617,-3.451775312423706,1.6347060203552246,0.44703906774520874,2.023756980895996,0.2550945161120445,-1.1450081226420266,2.6137788104175583,-0.8812423944473267,-0.25233685970306396,-0.39967262744903564, 102, 43, 285, 68
1731654748702,9i,7.162796124636163,-2.2s : 0.3s,127.86775752531518,6.728158874082248,4.975402094969407,2.33611530113229,3.7512152194976807,-3.260749340057373,-3.0709176063537598,1.6513245105743408,-0.16489773988723755,1.6441930532455444,0.2996653186601024,-1.1863639522573617,2.6364741213328595,-0.8856995701789856,-0.2952004671096802,-0.35831981897354126, 102, 43, 285, 68
1731654748711,9i,7.162796124636163,-2.2s : 0.3s,127.86775752531518,6.7795110687379205,4.596173980770346,2.2122742629156575,3.895359516143799,-2.6584417819976807,-2.921656847000122,1.486569881439209,-0.25205686688423157,1.618868350982666,0.3413564921538484,-1.2243171336757974,2.6631748363722956,-0.886304497718811,-0.33476561307907104,-0.31999462842941284, 102, 43, 285, 68
1731654748721,9i,7.162796124636163,-2.2s : 0.3s,127.86775752531518,6.827201307461648,4.260118297005385,1.9383715481747514,4.01534366607666,-2.075714111328125,-2.641392230987549,1.3638873100280762,-0.31264016032218933,1.3413991928100586,0.38021639222432757,-1.258476741340981,2.693153226688348,-0.8836627006530762,-0.3711214065551758,-0.28532320261001587, 102, 43, 285, 68
1731654748731,9i,7.162796124636163,-2.2s : 0.3s,127.86775752531518,6.871624113013594,3.967113890544028,1.7310707722787013,4.141296863555908,-1.5135016441345215,-2.360478401184082,1.1520586013793945,-0.07007578015327454,1.2901381254196167,0.41583483710359137,-1.2897772727810128,2.727757116655559,-0.8788956999778748,-0.40395376086235046,-0.25370025634765625, 102, 43, 285, 68
1731654748741,9i,7.162796124636163,-2.2s : 0.3s,127.86775752531518,6.9132603299073985,3.63072769349273,1.685339570245763,3.678755521774292,-0.9409406185150146,-2.1337697505950928,0.9079428315162659,-0.1116017997264862,1.4154696464538574,0.4475977875276776,-1.3166958519347671,2.763053672397011,-0.8725423812866211,-0.432801216840744,-0.22661177814006805, 102, 43, 285, 68
1731654748751,9i,7.162796124636163,-2.2s : 0.3s,127.86775752531518,6.9521860991646145,3.225791442502744,1.6803272935124152,2.9312052726745605,-0.4977223873138428,-1.8442251682281494,0.7335541844367981,-0.3017634153366089,1.4813294410705566,0.4735849727117772,-1.337289316572004,2.793427528927982,-0.8657869100570679,-0.4560796022415161,-0.20592369139194489, 102, 43, 285, 68
1731654748761,9i,7.162796124636163,-2.2s : 0.3s,127.86775752531518,6.988332900048249,2.7932478340032216,1.6535199627394577,2.326667308807373,-0.16191452741622925,-1.465966820716858,0.5935359001159668,-0.4566965699195862,1.474202036857605,0.4949351361898477,-1.3519395203819486,2.8179809565616987,-0.8590083122253418,-0.4749745726585388,-0.19106009602546692, 102, 43, 285, 68
1731654748771,9i,7.162796124636163,-2.2s : 0.3s,127.86775752531518,7.021248780958998,2.363312410805219,1.5650997184306286,1.8014708757400513,0.10870319604873657,-1.1347219944000244,0.4909616708755493,-0.6149218082427979,1.352909803390503,0.5116844739519336,-1.3617902899570353,2.837909927764028,-0.8529459834098816,-0.48964667320251465,-0.18091286718845367, 102, 43, 285, 68
1731654748781,9i,7.162796124636163,-2.2s : 0.3s,127.86775752531518,7.050755512987321,1.9532512930213564,1.4736371253312741,1.3610951900482178,0.3547438681125641,-0.8124039173126221,0.3912530541419983,-0.7079938650131226,1.2317759990692139,0.5242140676686502,-1.3670534432988286,2.8531798153420262,-0.8478113412857056,-0.5005327463150024,-0.1751660406589508, 102, 43, 285, 68
1731654748791,9i,7.162796124636163,-2.2s : 0.3s,127.86775752531518,7.077162947184655,1.5976850077128901,1.392788713894373,1.1242448091506958,0.543551504611969,-0.48870959877967834,0.2825181484222412,-0.6986048221588135,1.171321988105774,0.5329135066264882,-1.3688573873412215,2.8657090374194176,-0.843828022480011,-0.508044958114624,-0.17275644838809967, 102, 43, 285, 68
1731654748801,9i,7.162796124636163,-2.2s : 0.3s,127.86775752531518,7.1005766697146555,1.279029421934555,1.3002054831488103,0.8215824365615845,0.7391529679298401,-0.1763399839401245,0.19374728202819824,-0.7035089135169983,1.0761373043060303,0.5379807898497768,-1.3678241648015494,2.876081089596305,-0.8411168456077576,-0.5124030709266663,-0.1731070578098297, 102, 43, 285, 68
1731654748811,9i,7.162796124636163,-2.2s : 0.3s,127.86775752531518,7.12120895606437,1.016640323408904,1.1948339801338652,0.5917367935180664,0.9281876087188721,0.1392124444246292,0.12395232915878296,-0.671684205532074,0.9803593158721924,0.53939679753107,-1.363506596449319,2.8840160236739747,-0.8396505117416382,-0.513618528842926,-0.17658747732639313, 102, 43, 285, 68
1731654748821,9i,7.162796124636163,-2.2s : 0.3s,127.86775752531518,7.139578123763361,0.8181132724657604,1.1159150760056284,0.29670649766921997,1.103295922279358,0.4126519560813904,0.08850449323654175,-0.618402898311615,0.9246681928634644,0.5374744829158006,-1.35635053681365,2.8898731314744857,-0.8393285274505615,-0.511968195438385,-0.1828012615442276, 102, 43, 285, 68
1731654748831,9i,7.162796124636163,-2.2s : 0.3s,127.86775752531518,7.156122601365333,0.6854467998032253,1.0594019833094017,-0.09863919764757156,1.1500331163406372,0.6238154768943787,0.08691060543060303,-0.6020221710205078,0.8673802018165588,0.5324643648309823,-1.3462621875612155,2.892301426494729,-0.8399319052696228,-0.507658064365387,-0.19182798266410828, 102, 43, 285, 68
1731654748841,9i,7.162796124636163,-2.2s : 0.3s,127.86775752531518,7.171325692471153,0.6428047430987712,1.0312536145654085,-0.43259480595588684,1.1059623956680298,0.8370739221572876,0.08756017684936523,-0.5846063494682312,0.845016360282898,0.5246427423163147,-1.3344950345086257,2.8912829075736126,-0.8414510488510132,-0.500903844833374,-0.2026214301586151, 102, 43, 285, 68
1731654748851,9i,7.162796124636163,-2.2s : 0.3s,127.86775752531518,7.185348458301467,0.709045387700899,1.003002968634981,-0.7612473964691162,1.1414802074432373,1.0348255634307861,0.05449634790420532,-0.5766321420669556,0.8188653588294983,0.513984722289658,-1.3213160956728067,2.887186175398812,-0.8438335061073303,-0.4916509985923767,-0.21499894559383392, 102, 43, 285, 68
1731654748861,9i,7.162796124636163,-2.2s : 0.3s,127.86775752531518,7.198268598474561,0.847792222344901,0.9374825238790367,-1.0008000135421753,1.1986286640167236,1.1841808557510376,-0.0035514235496520996,-0.5085299611091614,0.7875646948814392,0.5008408868123875,-1.306471852034328,2.880650801911952,-0.8467141389846802,-0.4801633059978485,-0.22916945815086365, 102, 43, 285, 68
1731654748871,9i,7.162796124636163,-2.2s : 0.3s,127.86775752531518,7.210167927577164,1.0076318160714484,0.8544921551760234,-1.191542148590088,1.2382731437683105,1.3094203472137451,-0.045072078704833984,-0.42119449377059937,0.7421054840087891,0.4857792334036108,-1.2904793668228831,2.8725258081727643,-0.8497949242591858,-0.466897577047348,-0.2446538507938385, 102, 43, 285, 68
1731654748881,9i,7.162796124636163,-2.2s : 0.3s,127.86775752531518,7.221062585979244,1.1669637156588548,0.7536845925794458,-1.404788851737976,1.2607622146606445,1.4061211347579956,-0.05556994676589966,-0.346235990524292,0.6671379804611206,0.4689173788600649,-1.273608264625792,2.862908412920453,-0.8529536128044128,-0.4519207775592804,-0.26122379302978516, 102, 43, 285, 68
1731654748891,9i,7.162796124636163,-2.2s : 0.3s,127.86775752531518,7.2313401275695535,1.3075167482619792,0.6722374548624866,-1.5879231691360474,1.2376374006271362,1.4464552402496338,-0.03189682960510254,-0.2361173927783966,0.6285971403121948,0.4506764099907018,-1.256225460111829,2.8518137689696634,-0.8559816479682922,-0.4355745017528534,-0.2785148620605469, 102, 43, 285, 68
1731654748901,9i,7.162796124636163,-2.2s : 0.3s,127.86775752531518,7.241392284897237,1.4348299636617843,0.6322553694017429,-1.7522897720336914,1.2486356496810913,1.4751936197280884,-0.0049474239349365234,-0.13896694779396057,0.616774320602417,0.43143768054474135,-1.238639139152295,2.8394919483512164,-0.8587152361869812,-0.41817718744277954,-0.2962026000022888, 102, 43, 285, 68
1731654748911,9i,7.162796124636163,-2.2s : 0.3s,127.86775752531518,7.2514014013562695,1.5610710765768265,0.616646770028594,-1.981425166130066,1.276524543762207,1.4925448894500732,0.0016525983810424805,-0.07119420170783997,0.6125209331512451,0.411164183192137,-1.2204783727642865,2.8257575423503583,-0.8609817624092102,-0.39967674016952515,-0.3145931363105774, 102, 43, 285, 68
1731654748921,9i,7.162796124636163,-2.2s : 0.3s,127.86775752531518,7.261591992407907,1.6894959571637642,0.6295773628157986,-2.2256338596343994,1.2927335500717163,1.5170354843139648,0.0083998441696167,-0.007577955722808838,0.6294757127761841,0.3896262203627667,-1.2016153548301425,2.810165103681266,-0.8627241253852844,-0.3798426687717438,-0.33380627632141113, 102, 43, 285, 68
1731654748931,9i,7.162796124636163,-2.2s : 0.3s,127.86775752531518,7.272113668686964,1.813477300405735,0.6531741172576256,-2.4040348529815674,1.3211477994918823,1.5489166975021362,0.036069393157958984,0.06152784824371338,0.649268627166748,0.3667690337531471,-1.1823229415228504,2.793115671403713,-0.8639349937438965,-0.35860124230384827,-0.353583961725235, 102, 43, 285, 68
1731654748941,9i,7.162796124636163,-2.2s : 0.3s,127.86775752531518,7.282846567928948,1.9300847896916722,0.6627008404059399,-2.5852596759796143,1.3501334190368652,1.53556227684021,0.0762212872505188,0.12385249137878418,0.6465471982955933,0.34279151949105463,-1.1627791082062715,2.7750368204018137,-0.8645055890083313,-0.3361175060272217,-0.3737049102783203, 102, 43, 285, 68
1731654748951,9i,7.162796124636163,-2.2s : 0.3s,127.86775752531518,7.29383622069458,2.0308514258693635,0.6727585283239983,-2.68291974067688,1.3849202394485474,1.5318994522094727,0.11531293392181396,0.16031518578529358,0.6431220769882202,0.31807128142312485,-1.1430048607805203,2.7561366162255485,-0.864244818687439,-0.3127351701259613,-0.39405298233032227, 102, 43, 285, 68
1731654748961,9i,7.162796124636163,-2.2s : 0.3s,127.86775752531518,7.305077969785742,2.1179039597768714,0.664198532436024,-2.7465808391571045,1.4260621070861816,1.55406653881073,0.14948582649230957,0.1655614674091339,0.6256221532821655,0.2925976922524386,-1.1233354420973092,2.7373111095248324,-0.8632309436798096,-0.288440465927124,-0.41428810358047485, 102, 43, 285, 68
1731654748971,9i,7.162796124636163,-2.2s : 0.3s,127.86775752531518,7.316547747478126,2.2073168844092774,0.6428031066868866,-2.914700746536255,1.4492707252502441,1.550540566444397,0.19572114944458008,0.1593480110168457,0.5911829471588135,0.26617873465446495,-1.1036916754692732,2.718087085025708,-0.8614315986633301,-0.2630466818809509,-0.43444475531578064, 102, 43, 285, 68
1731654748981,9i,7.162796124636163,-2.2s : 0.3s,127.86775752531518,7.328288895472868,2.2950322834949985,0.655786916480279,-3.0637340545654297,1.4380362033843994,1.5690463781356812,0.24926573038101196,0.1602364331483841,0.5850191116333008,0.23865196371340935,-1.0843518164711898,2.6980851441009124,-0.8589458465576172,-0.236393004655838,-0.45423611998558044, 102, 43, 285, 68
1731654748991,9i,7.162796124636163,-2.2s : 0.3s,127.86775752531518,7.340990559020951,2.395033483018785,0.6853591519473948,-3.269510507583618,1.4754468202590942,1.587244987487793,0.2990281581878662,0.14843080937862396,0.5985546112060547,0.20968691340162166,-1.0652155059130308,2.6772793746866133,-0.8557298183441162,-0.20815367996692657,-0.47370731830596924, 102, 43, 285, 68
1731654749001,9i,7.162796124636163,-2.2s : 0.3s,127.86775752531518,7.354654966889927,2.4748276732889143,0.7235517755465396,-3.3117129802703857,1.511680006980896,1.5796477794647217,0.33908611536026,0.17141437530517578,0.6157636642456055,0.17962666284752501,-1.0461959278837107,2.6559485051069123,-0.85159832239151,-0.1786622554063797,-0.49280846118927, 102, 43, 285, 68
1731654749011,9i,7.162796124636163,-2.2s : 0.3s,127.86775752531518,7.369091991139954,2.512453955921865,0.7367050485691228,-3.17726469039917,1.5595871210098267,1.5778586864471436,0.35922783613204956,0.21901322901248932,0.6047502756118774,0.14953196847770994,-1.0276178412267807,2.6357478336326823,-0.8465172648429871,-0.14897534251213074,-0.511091947555542, 102, 43, 285, 68
1731654749021,9i,7.162796124636163,-2.2s : 0.3s,127.86775752531518,7.38388060794506,2.5150777323344413,0.7143754909432748,-2.9965879917144775,1.6625843048095703,1.5735052824020386,0.365259051322937,0.24988403916358948,0.560781717300415,0.11993754782504822,-1.0091145342951657,2.6175669816290994,-0.8402804136276245,-0.1196502074599266,-0.5287841558456421, 102, 43, 285, 68
1731654749031,9i,7.162796124636163,-2.2s : 0.3s,127.86775752531518,7.398661430334149,2.492478918743258,0.6700182334297954,-2.816406726837158,1.7062616348266602,1.55872642993927,0.35902440547943115,0.26497337222099304,0.4998149871826172,0.091087987521431,-0.9905128412076373,2.601561201712204,-0.8328402638435364,-0.09096208214759827,-0.545988142490387, 102, 43, 285, 68
1731654749041,9i,7.162796124636163,-2.2s : 0.3s,127.86775752531518,7.413146745671324,2.4696298099783163,0.6297473567309968,-2.807356834411621,1.6542047262191772,1.5375866889953613,0.365100622177124,0.2596232295036316,0.44258224964141846,0.06270378344737439,-0.9726219185601166,2.5868871206410886,-0.8247410655021667,-0.06266270577907562,-0.5620281100273132, 102, 43, 285, 68
1731654749051,9i,7.162796124636163,-2.2s : 0.3s,127.86775752531518,7.427605586946745,2.477930341915428,0.6459066569703095,-2.9553401470184326,1.6346651315689087,1.5627961158752441,0.3745471239089966,0.24699874222278595,0.46465200185775757,0.033671890655459606,-0.9555474098836438,2.5721148801120317,-0.8161669373512268,-0.033665526658296585,-0.5768346786499023, 102, 43, 285, 68
1731654749061,9i,7.162796124636163,-2.2s : 0.3s,127.86775752531518,7.442281055911572,2.5204950060195976,0.6923144441341968,-3.136366128921509,1.6671123504638672,1.6204922199249268,0.3633604049682617,0.23021532595157623,0.5424660444259644,0.002950832011410793,-0.9387924307514806,2.556671645346579,-0.8068417906761169,-0.0029508278239518404,-0.5907602310180664, 102, 43, 285, 68
1731654749071,9i,7.162796124636163,-2.2s : 0.3s,127.86775752531518,7.4572257561942905,2.589461276545718,0.7089197525067905,-3.312870502471924,1.7602134943008423,1.6517502069473267,0.3326870799064636,0.21229979395866394,0.5889102816581726,-0.02934268359681451,-0.9220152247321421,2.540734264343799,-0.7964779138565063,0.029338473454117775,-0.6039555668830872, 102, 43, 285, 68
1731654749081,9i,7.162796124636163,-2.2s : 0.3s,127.86775752531518,7.472289786107393,2.6852189773758566,0.7128570751023464,-3.549058198928833,1.9058111906051636,1.608309268951416,0.28905874490737915,0.21219909191131592,0.6161020994186401,-0.06324904851628152,-0.9044716059256974,2.5235592465284773,-0.7845268845558167,0.06320688873529434,-0.6168651580810547, 102, 43, 285, 68
1731654749091,9i,7.162796124636163,-2.2s : 0.3s,127.86775752531518,7.48729407894499,2.7264396036214853,0.6803898016684399,-3.375857353210449,1.9844447374343872,1.5450900793075562,0.24838972091674805,0.2643885612487793,0.5756140351295471,-0.09732211503334164,-0.8864338114967402,2.5060634124880146,-0.7711557149887085,0.09716855734586716,-0.6291877031326294, 102, 43, 285, 68
1731654749101,9i,7.162796124636163,-2.2s : 0.3s,127.86775752531518,7.501428422570411,2.7244278848068,0.5760445228357156,-3.144815683364868,2.0668442249298096,1.4779549837112427,0.22671622037887573,0.28209859132766724,0.4481600522994995,-0.1296105442886958,-0.8679300817746657,2.4907694138962677,-0.756592869758606,0.12924796342849731,-0.6409854292869568, 102, 43, 285, 68
1731654749111,9i,7.162796124636163,-2.2s : 0.3s,127.86775752531518,7.514511937994104,2.7331690038490506,0.5158199671484428,-3.299445629119873,2.065164089202881,1.3279151916503906,0.23442310094833374,0.29847481846809387,0.3493262529373169,-0.16125338324784202,-0.8495076925872587,2.4754906411966844,-0.7412131428718567,0.16055545210838318,-0.6517860889434814, 102, 43, 285, 68
1731654749121,9i,7.162796124636163,-2.2s : 0.3s,127.86775752531518,7.527475361913384,2.7254211464559193,0.6254115885222465,-3.1708905696868896,2.1630682945251465,1.254679799079895,0.2232208251953125,0.43312186002731323,0.3920683264732361,-0.1925470168825738,-0.8312363388664527,2.4595361140976597,-0.7251128554344177,0.19135946035385132,-0.6615081429481506, 102, 43, 285, 68
1731654749131,9i,7.162796124636163,-2.2s : 0.3s,127.86775752531518,7.540439656491302,2.684892434309962,0.6988978272059195,-2.921294927597046,2.2260727882385254,1.2372382879257202,0.21999919414520264,0.4977267384529114,0.43855059146881104,-0.22226918980213412,-0.8120822526635275,2.445566400519028,-0.7078683972358704,0.22044356167316437,-0.6710640788078308, 102, 43, 285, 68
1731654749141,9i,7.162796124636163,-2.2s : 0.3s,127.86775752531518,7.553268998520949,2.6538324429891103,0.6367030529213844,-2.9980757236480713,2.1004104614257812,1.1923717260360718,0.24734532833099365,0.4776437282562256,0.3406868577003479,-0.2514535635937532,-0.7935053887673101,2.4325092497684224,-0.6903993487358093,0.24881207942962646,-0.6792947053909302, 102, 43, 285, 68
1731654749151,9i,7.162796124636163,-2.2s : 0.3s,127.86775752531518,7.565876118301151,2.667562512042503,0.6319906453411582,-3.262669324874878,2.0951991081237793,1.0951006412506104,0.2368861436843872,0.5164577960968018,0.2767100930213928,-0.28167044883281583,-0.7765368116084623,2.4180151392265223,-0.6731958985328674,0.2779606580734253,-0.6852337121963501, 102, 43, 285, 68
1731654749161,9i,7.162796124636163,-2.2s : 0.3s,127.86775752531518,7.578118160983226,2.6915111861900543,0.6405119814787715,-3.3533191680908203,2.196718215942383,0.8990573287010193,0.17477893829345703,0.5794544219970703,0.20961987972259521,-0.3124934743951695,-0.7600381412714727,2.40137915389637,-0.6555833220481873,0.30743229389190674,-0.6897072196006775, 102, 43, 285, 68
1731654749171,9i,7.162796124636163,-2.2s : 0.3s,127.86775752531518,7.589713741331418,2.703072506842204,0.6099499347065238,-3.348236560821533,2.2532196044921875,0.6690974831581116,0.09601116180419922,0.5972374081611633,0.07828319072723389,-0.34230004175717427,-0.7435533494458489,2.3833624456378177,-0.6376370191574097,0.3356545865535736,-0.6933650374412537, 102, 43, 285, 68
1731654749181,9i,7.162796124636163,-2.2s : 0.3s,127.86775752531518,7.600097906984234,2.666458363293466,0.5773684970998896,-3.1394174098968506,2.221682071685791,0.4513353407382965,0.058725833892822266,0.5740195512771606,-0.02017951011657715,-0.3702493875205616,-0.7277877524536689,2.3643939248924952,-0.6201423406600952,0.3618479371070862,-0.6960528492927551, 102, 43, 285, 68
1731654749191,9i,7.162796124636163,-2.2s : 0.3s,127.86775752531518,7.6093098290920045,2.5937867284648903,0.5999681105146925,-2.89387845993042,2.160576581954956,0.3745843172073364,0.0679970383644104,0.5857106447219849,-0.110820472240448,-0.39571242565392434,-0.7126603658661892,2.346160034758944,-0.6033209562301636,0.3854656517505646,-0.6981547474861145, 102, 43, 285, 68
1731654749201,9i,7.162796124636163,-2.2s : 0.3s,127.86775752531518,7.615939131488458,2.4774779674186433,0.6518360291128193,-2.5488176345825195,2.073275089263916,0.33061420917510986,0.07907670736312866,0.6088122725486755,-0.21905410289764404,-0.418595039795957,-0.6979731525343754,2.329950505462701,-0.5871790051460266,0.4064771831035614,-0.6999980211257935, 102, 43, 285, 68
1731654749211,9i,7.162796124636163,-2.2s : 0.3s,127.86775752531518,7.620160435396559,2.3806515859413295,0.6880198556615116,-2.478097677230835,2.034625291824341,0.29862117767333984,0.05291855335235596,0.6076824069023132,-0.3182656764984131,-0.43975661328162036,-0.6836761819409816,2.3151901650256743,-0.5715494155883789,0.4257192611694336,-0.7014945149421692, 102, 43, 285, 68
1731654749221,9i,7.162796124636163,-2.2s : 0.3s,127.86775752531518,7.622165174575698,2.337688590472941,0.6604400051734098,-2.6548728942871094,1.9981634616851807,0.30757471919059753,-0.03324902057647705,0.5642857551574707,-0.3415510058403015,-0.46167631318144653,-0.6702332472595657,2.2998725937232725,-0.5561368465423584,0.445449560880661,-0.7016314268112183, 102, 43, 285, 68
1731654749231,9i,7.162796124636163,-2.2s : 0.3s,127.86775752531518,7.622228255106619,2.2978120094732755,0.6143584994454699,-2.5311782360076904,2.0761635303497314,0.31337711215019226,-0.15367096662521362,0.5103643536567688,-0.3055320382118225,-0.48412647937403924,-0.6568903797594718,2.2846273690851304,-0.5404817461967468,0.4654353857040405,-0.70089191198349, 102, 43, 285, 68
1731654749241,9i,7.162796124636163,-2.2s : 0.3s,127.86775752531518,7.6201922486527,2.2390856660236422,0.6022033331935571,-2.261691093444824,2.169443368911743,0.278616726398468,-0.25182271003723145,0.4237339496612549,-0.3459533452987671,-0.5051635491092941,-0.6422677475160866,2.2707491449134345,-0.5241934061050415,0.48395055532455444,-0.7007233500480652, 102, 43, 285, 68
1731654749251,9i,7.162796124636163,-2.2s : 0.3s,127.86775752531518,7.615620033431279,2.1099189345413447,0.696327946822034,-1.5259912014007568,2.3379242420196533,0.12020030617713928,-0.3108975887298584,0.37762778997421265,-0.4955931305885315,-0.5217285572471727,-0.6251414869405028,2.259675535790191,-0.5073548555374146,0.4983794689178467,-0.703000009059906, 102, 43, 285, 68
1731654749260,9i,7.162796124636163,-2.2s : 0.3s,127.86775752531518,7.608562398508113,1.9661844926739873,0.8130665320187032,-0.9969395995140076,2.403221845626831,-0.05307268351316452,-0.28380441665649414,0.3799591064453125,-0.6604266166687012,-0.5319532023399909,-0.6054271878193991,2.2517068547566685,-0.4904721975326538,0.5072175860404968,-0.7086377143859863, 102, 43, 285, 68
1731654749270,9i,7.162796124636163,-2.2s : 0.3s,127.86775752531518,7.600033605685741,1.8519548547686435,0.8298278438869421,-0.7913764715194702,2.3708417415618896,-0.14326749742031097,-0.191414475440979,0.4123343229293823,-0.6942299008369446,-0.5387169875446238,-0.5850860827732894,2.244918105297177,-0.47405168414115906,0.5130351185798645,-0.7155906558036804, 102, 43, 285, 68
1731654749280,9i,7.162796124636163,-2.2s : 0.3s,127.86775752531518,7.591108584294004,1.7559283055731896,0.793093121774649,-0.7148300409317017,2.2468936443328857,-0.2128891795873642,-0.1077468991279602,0.4434412121772766,-0.6486502885818481,-0.5440652889785311,-0.5653617262734226,2.238472311768742,-0.45836931467056274,0.5176185965538025,-0.7224739789962769, 102, 43, 285, 68
1731654749290,9i,7.162796124636163,-2.2s : 0.3s,127.86775752531518,7.581845746600916,1.6591882981630237,0.7643313791289075,-0.569390594959259,2.1066365242004395,-0.319345086812973,-0.08871656656265259,0.3806893825531006,-0.6568161249160767,-0.5480739016306775,-0.5471787458648478,2.2317495330956585,-0.444074422121048,0.5210441946983337,-0.7289108037948608, 102, 43, 285, 68
1731654749300,9i,7.162796124636163,-2.2s : 0.3s,127.86775752531518,7.572282453375078,1.5566077579578745,0.7484189918534319,-0.22152796387672424,2.020491123199463,-0.37005379796028137,-0.1537725329399109,0.27903640270233154,-0.6772176027297974,-0.5499507994875453,-0.5296644772652509,2.225785079075049,-0.4307457506656647,0.5226452946662903,-0.7357309460639954, 102, 43, 285, 68
1731654749310,9i,7.162796124636163,-2.2s : 0.3s,127.86775752531518,7.562452299895703,1.4592805963051485,0.7313809681741702,0.45359113812446594,1.9900199174880981,-0.5446468591690063,-0.21233093738555908,0.24987566471099854,-0.6537551879882812,-0.547091079735558,-0.5124617248676209,2.221644271493863,-0.4187571704387665,0.5202050805091858,-0.7443313002586365, 102, 43, 285, 68
1731654749320,9i,7.162796124636163,-2.2s : 0.3s,127.86775752531518,7.552480381032297,1.4585525024751442,0.7143593391311186,0.5888482928276062,2.1699588298797607,-0.7350977659225464,-0.21273890137672424,0.3000416159629822,-0.6123940348625183,-0.5396632642432481,-0.49277061076617495,2.218035684815334,-0.4058369994163513,0.5138471126556396,-0.7558157444000244, 102, 43, 285, 68
1731654749330,9i,7.162796124636163,-2.2s : 0.3s,127.86775752531518,7.542518099926673,1.4864182484188424,0.7072420880465444,0.7226394414901733,2.1581737995147705,-0.9105859398841858,-0.18799659609794617,0.3677114248275757,-0.574140191078186,-0.5299123475472607,-0.47342865872493967,2.2130958826487728,-0.3934088945388794,0.5054576992988586,-0.7679466009140015, 102, 43, 285, 68
1731654749340,9i,7.162796124636163,-2.2s : 0.3s,127.86775752531518,7.533209056579742,1.4983992025485235,0.6113721595697987,0.9138232469558716,1.9800801277160645,-0.9985408186912537,-0.16453424096107483,0.36698877811431885,-0.46046024560928345,-0.5185324176651903,-0.4558290668399489,2.2073400312405504,-0.38234058022499084,0.495606005191803,-0.7798656821250916, 102, 43, 285, 68
1731654749350,9i,7.162796124636163,-2.2s : 0.3s,127.86775752531518,7.524551556652282,1.5115333901628447,0.6084892251813758,1.1288272142410278,1.8652483224868774,-1.022731900215149,-0.02899068593978882,0.3186066746711731,-0.5175987482070923,-0.504965159364912,-0.43937653332828475,2.202006300091133,-0.37228477001190186,0.4837769567966461,-0.7920631170272827, 102, 43, 285, 68
1731654749360,9i,7.162796124636163,-2.2s : 0.3s,127.86775752531518,7.516439595851889,1.5197437582368867,0.5932298358601089,1.1902066469192505,1.714350700378418,-1.1414580345153809,0.04979163408279419,0.24210259318351746,-0.53928542137146,-0.4900110675057509,-0.42431683370650414,2.1964058649115663,-0.36325281858444214,0.47063565254211426,-0.8040830492973328, 102, 43, 285, 68
1731654749370,9i,7.162796124636163,-2.2s : 0.3s,127.86775752531518,7.508619533928168,1.528613262931225,0.5769687859825942,1.275242567062378,1.563787817955017,-1.2759394645690918,0.03937429189682007,0.20712444186210632,-0.5370680689811707,-0.47412121553042386,-0.41115424948698137,2.1894353355366367,-0.35558202862739563,0.4565567672252655,-0.8155472874641418, 102, 43, 285, 68
1731654749380,9i,7.162796124636163,-2.2s : 0.3s,127.86775752531518,7.500671120190777,1.5573630283449191,0.5802485912084449,1.3080655336380005,1.5745911598205566,-1.3761861324310303,-0.020525097846984863,0.1761772334575653,-0.552475094795227,-0.4574894171492155,-0.39939807925659143,2.181256942619089,-0.3488747477531433,0.4416970908641815,-0.8265531659126282, 102, 43, 285, 68
1731654749390,9i,7.162796124636163,-2.2s : 0.3s,127.86775752531518,7.492527152901179,1.6035702018601632,0.6135150623595158,1.4782805442810059,1.5268144607543945,-1.487777590751648,-0.08161452412605286,0.1469244658946991,-0.5900449156761169,-0.4394570471075588,-0.38873744746202976,2.1723401215612945,-0.3430069088935852,0.4254481792449951,-0.8374605178833008, 102, 43, 285, 68
1731654749400,9i,7.162796124636163,-2.2s : 0.3s,127.86775752531518,7.484081243179768,1.6549437670830627,0.5293367835526144,1.6783603429794312,1.3846309185028076,-1.5970343351364136,-0.1113869845867157,0.11796972155570984,-0.5038586258888245,-0.41964508696918007,-0.37869881856233284,2.162858001042665,-0.33763325214385986,0.4074363708496094,-0.8485278487205505, 102, 43, 285, 68
1731654749410,9i,7.162796124636163,-2.2s : 0.3s,127.86775752531518,7.4756969167667435,1.700232872620156,0.517678172801517,1.7851130962371826,1.2886940240859985,-1.6210585832595825,-0.058709800243377686,0.13043883442878723,-0.4975234270095825,-0.3978581530811999,-0.3693716293016568,2.1532231321125312,-0.3328305780887604,0.3874446749687195,-0.8597153425216675, 102, 43, 285, 68
1731654749420,9i,7.162796124636163,-2.2s : 0.3s,127.86775752531518,7.467843273195759,1.7527555675148416,0.4810785639872101,2.0345163345336914,1.264683723449707,-1.5157177448272705,-0.00078621506690979,0.15312889218330383,-0.45605647563934326,-0.37463143010466643,-0.36000089352851083,2.144634815224305,-0.32784217596054077,0.3659295439720154,-0.8709851503372192, 102, 43, 285, 68
1731654749430,9i,7.162796124636163,-2.2s : 0.3s,127.86775752531518,7.4604915333192245,1.7612112212091893,0.4341724272621955,2.012697696685791,1.0674089193344116,-1.4298362731933594,0.012133479118347168,0.10049989819526672,-0.42220640182495117,-0.350349268248211,-0.35088454770736394,2.1375752376769053,-0.3228480815887451,0.3432258665561676,-0.8820233345031738, 102, 43, 285, 68
1731654749440,9i,7.162796124636163,-2.2s : 0.3s,127.86775752531518,7.453767143607803,1.742734095864651,0.3494759012344975,1.9105204343795776,0.8626115918159485,-1.4767787456512451,0.0028142929077148438,0.0598071813583374,-0.34430885314941406,-0.32721110206765125,-0.34379042288276784,2.130182986651975,-0.3191746175289154,0.3214033544063568,-0.8915309309959412, 102, 43, 285, 68
1731654749450,9i,7.162796124636163,-2.2s : 0.3s,127.86775752531518,7.44796475271096,1.7652966697700305,0.30647324796015163,2.1018424034118652,0.7892929315567017,-1.572572112083435,0.00710982084274292,0.13228845596313477,-0.2763603925704956,-0.3034541651490428,-0.3382214968746839,2.1220623643177623,-0.31664949655532837,0.29881832003593445,-0.9002448320388794, 102, 43, 285, 68
1731654749460,9i,7.162796124636163,-2.2s : 0.3s,127.86775752531518,7.442969166721717,1.8321316900139861,0.28308601297363206,2.390455961227417,0.7611510157585144,-1.6313062906265259,0.013487398624420166,0.13301220536231995,-0.24952661991119385,-0.2770113155212769,-0.33288581313074,2.1139366146546896,-0.3143142759799957,0.2734821140766144,-0.9090732336044312, 102, 43, 285, 68
1731654749470,9i,7.162796124636163,-2.2s : 0.3s,127.86775752531518,7.438642778938116,1.9233357832087057,0.22844774975198148,2.6616451740264893,0.7385641932487488,-1.6361241340637207,-0.010549843311309814,0.11000612378120422,-0.1999393105506897,-0.24794988027407605,-0.3273154715722967,2.1064203633158067,-0.31166988611221313,0.245417058467865,-0.9179500937461853, 102, 43, 285, 68
1731654749480,9i,7.162796124636163,-2.2s : 0.3s,127.86775752531518,7.435106848620504,2.0419567769382763,0.22895703096698058,2.9631824493408203,0.7310221195220947,-1.6704493761062622,-0.01876509189605713,0.1717521995306015,-0.1502344012260437,-0.21614221040613202,-0.3216041753810538,2.0995278175947227,-0.3087341785430908,0.21446320414543152,-0.9266546368598938, 102, 43, 285, 68
1731654749490,9i,7.162796124636163,-2.2s : 0.3s,127.86775752531518,7.432473536338401,2.170780000113173,0.23343743108251602,3.227642297744751,0.6369558572769165,-1.7088011503219604,-0.005405902862548828,0.20875395834445953,-0.10433405637741089,-0.18149268937599078,-0.31602917472610015,2.0930717946112156,-0.30569013953208923,0.180497944355011,-0.9348657727241516, 102, 43, 285, 68
1731654749500,9i,7.162796124636163,-2.2s : 0.3s,127.86775752531518,7.430665456760591,2.2978468223239483,0.21376761966353808,3.423428535461426,0.630190908908844,-1.719905972480774,0.016078174114227295,0.19782602787017822,-0.07939112186431885,-0.14464272856765864,-0.3108767027818641,2.0869318671158856,-0.30269911885261536,0.144138902425766,-0.9421237707138062, 102, 43, 285, 68
1731654749510,9i,7.162796124636163,-2.2s : 0.3s,127.86775752531518,7.429064821891957,2.411135457942749,0.22536078571875792,3.5629169940948486,0.5922362208366394,-1.7175261974334717,0.048501402139663696,0.19660282135009766,-0.09890615940093994,-0.10613251596029437,-0.3055357549796827,2.08116708059261,-0.29911160469055176,0.10593338310718536,-0.9483197331428528, 102, 43, 285, 68
1731654749520,9i,7.162796124636163,-2.2s : 0.3s,127.86775752531518,7.428122265577067,2.4813449584796143,0.19786815008763614,3.5191731452941895,0.48464930057525635,-1.7283730506896973,0.05678856372833252,0.17351630330085754,-0.0762820839881897,-0.06719607245053283,-0.30081945375040736,2.0753441600461255,-0.29563426971435547,0.06714551895856857,-0.9529385566711426, 102, 43, 285, 68
1731654749530,9i,7.162796124636163,-2.2s : 0.3s,127.86775752531518,7.427888034722752,2.5129392391191407,0.1791037322041323,3.394155740737915,0.45094284415245056,-1.7787755727767944,0.05662330985069275,0.16821984946727753,-0.023958921432495117,-0.0291263766520987,-0.2965481554985815,2.0687525066796013,-0.2920968234539032,0.029122259467840195,-0.9559452533721924, 102, 43, 285, 68
1731654749540,9i,7.162796124636163,-2.2s : 0.3s,127.86775752531518,7.427909920872103,2.5192858062588526,0.20029954111511555,3.282015085220337,0.3785272240638733,-1.8429454565048218,0.056208133697509766,0.19096873700618744,0.022169649600982666,0.00793945462929372,-0.2924225166255431,2.061122070991213,-0.2882636487483978,-0.007939371280372143,-0.9575181603431702, 102, 43, 285, 68
1731654749550,9i,7.162796124636163,-2.2s : 0.3s,127.86775752531518,7.428257206708338,2.5218264456923176,0.19637493420694005,3.2476625442504883,0.29840362071990967,-1.9163306951522827,0.030739277601242065,0.15669582784175873,0.11430060863494873,0.04439027800917139,-0.28886558605127155,2.052457829701702,-0.2845843732357025,-0.0443757027387619,-0.9576233625411987, 102, 43, 285, 68
1731654749560,9i,7.162796124636163,-2.2s : 0.3s,127.86775752531518,7.428879251549682,2.5345735409624206,0.1900301471156664,3.282857894897461,0.3847464919090271,-1.9217488765716553,0.039928555488586426,0.1601012647151947,0.09425896406173706,0.08118021995092668,-0.2851036570829859,2.0433165559393163,-0.2803306579589844,-0.08109108358621597,-0.9564721584320068, 102, 43, 285, 68
1731654749570,9i,7.162796124636163,-2.2s : 0.3s,127.86775752531518,7.429625720907731,2.5372756399803915,0.1840052570547005,3.258350133895874,0.35159146785736084,-1.930161714553833,0.037790119647979736,0.17954881489276886,0.01385873556137085,0.11791679783911792,-0.28056171986978806,2.0339495590073025,-0.2749726474285126,-0.11764372885227203,-0.9542274475097656, 102, 43, 285, 68
1731654749580,9i,7.162796124636163,-2.2s : 0.3s,127.86775752531518,7.4304012266962145,2.4980007429532534,0.14237384980201861,3.013904571533203,0.24376702308654785,-1.941004753112793,0.02679598331451416,0.13795582950115204,-0.02281397581100464,0.15343429760582783,-0.27628469427575847,2.0239320914911243,-0.2695784866809845,-0.1528329849243164,-0.9507731199264526, 102, 43, 285, 68
1731654749590,9i,7.162796124636163,-2.2s : 0.3s,127.86775752531518,7.431072620061734,2.4083288483940497,0.17219832461422965,2.6728718280792236,0.17777450382709503,-1.9087775945663452,0.07965883612632751,0.09428659081459045,-0.12006986141204834,0.18593205100707705,-0.27237366787411005,2.012961050212412,-0.26438164710998535,-0.18486259877681732,-0.9465348124504089, 102, 43, 285, 68
1731654749600,9i,7.162796124636163,-2.2s : 0.3s,127.86775752531518,7.431471063545451,2.2770938415955624,0.22782238077522268,2.285693883895874,0.11166471987962723,-1.8754425048828125,0.14559480547904968,0.06492263078689575,-0.1627582311630249,0.21470048141880002,-0.26853431316096094,2.001132551386423,-0.25922691822052,-0.21305479109287262,-0.9420239329338074, 102, 43, 285, 68
1731654749610,9i,7.162796124636163,-2.2s : 0.3s,127.86775752531518,7.431956906753683,2.122159526962259,0.13098388534201477,1.8857015371322632,0.1766081154346466,-1.8675071001052856,0.11247378587722778,-0.06074301898479462,-0.02857816219329834,0.23974950803113365,-0.2642275473157761,1.9883464675827818,-0.25369375944137573,-0.23745930194854736,-0.9376847147941589, 102, 43, 285, 68
1731654749620,9i,7.162796124636163,-2.2s : 0.3s,127.86775752531518,7.432926538697897,1.9362361438060265,0.250070620926361,1.3279922008514404,0.10486389696598053,-1.916280746459961,0.019127532839775085,-0.1750243604183197,0.17758357524871826,0.2600878083262508,-0.2593325789231147,1.9737947051523086,-0.24781091511249542,-0.25716540217399597,-0.934053361415863, 102, 43, 285, 68
1731654749630,9i,7.162796124636163,-2.2s : 0.3s,127.86775752531518,7.435221537950261,1.8085016033006593,0.40146249679771445,1.303234338760376,0.2231752723455429,-1.8882856369018555,-0.04516229033470154,-0.06767147779464722,0.39313238859176636,0.2771564267507416,-0.2538846238910724,1.9580589648274502,-0.2415807992219925,-0.27362170815467834,-0.9310047626495361, 102, 43, 285, 68
1731654749640,9i,7.162796124636163,-2.2s : 0.3s,127.86775752531518,7.438953559735505,1.7360665053426603,0.3953577130383843,1.3954750299453735,0.49042826890945435,-1.8492980003356934,0.013962239027023315,0.1619352102279663,0.3604022264480591,0.2950741347541773,-0.24596796884140815,1.9428208483228688,-0.23297154903411865,-0.29081079363822937,-0.9279835224151611, 102, 43, 285, 68
1731654749650,9i,7.162796124636163,-2.2s : 0.3s,127.86775752531518,7.443073223918458,1.6335285628614535,0.2508940745689377,1.0371630191802979,0.48979461193084717,-1.793089747428894,0.07496710121631622,0.14906609058380127,0.18736881017684937,0.31132794974019246,-0.23640133050805764,1.9273894622800831,-0.22294676303863525,-0.30632302165031433,-0.9254517555236816, 102, 43, 285, 68
1731654749660,9i,7.162796124636163,-2.2s : 0.3s,127.86775752531518,7.4472226806480375,1.5066372271681658,0.22683761821337825,0.690220832824707,0.42257991433143616,-1.6882145404815674,0.053200721740722656,0.011240184307098389,0.22022408246994019,0.32360601389772053,-0.22698150487204719,1.9116920981419485,-0.2133568972349167,-0.31798747181892395,-0.923776388168335, 102, 43, 285, 68
1731654749670,9i,7.162796124636163,-2.2s : 0.3s,127.86775752531518,7.451666824492493,1.3874380398059516,0.28365455651981586,0.4647621810436249,0.45195499062538147,-1.6034168004989624,0.07576729357242584,-0.05171725153923035,0.26841115951538086,0.3327297247960894,-0.21770080905031372,1.8961295946224266,-0.20413941144943237,-0.3266242444515228,-0.9228454232215881, 102, 43, 285, 68
1731654749680,9i,7.162796124636163,-2.2s : 0.3s,127.86775752531518,7.45624421238943,1.294806704715059,0.2560813698071635,0.3467519283294678,0.49307501316070557,-1.5613032579421997,0.10926738381385803,-0.03354519605636597,0.2291572093963623,0.3399378800345087,-0.20791693766749733,1.8807036255363514,-0.19460971653461456,-0.3334285318851471,-0.9224708676338196, 102, 43, 285, 68
1731654749690,9i,7.162796124636163,-2.2s : 0.3s,127.86775752531518,7.4608755911480005,1.2281455715891474,0.23523852499953488,0.2934219241142273,0.5224024653434753,-1.531520962715149,0.11476829648017883,0.03038284182548523,0.20308196544647217,0.3460882278622228,-0.19779023792624392,1.8653517377653706,-0.18485185503959656,-0.3392205834388733,-0.9223660826683044, 102, 43, 285, 68
1731654749700,9i,7.162796124636163,-2.2s : 0.3s,127.86775752531518,7.465578517470778,1.1765745639036327,0.24443082630666058,0.2439180165529251,0.5484598875045776,-1.490127444267273,0.11094331741333008,0.06339633464813232,0.2083720564842224,0.35153677785146786,-0.18731358776000365,1.8501637751320135,-0.1748317927122116,-0.3443410098552704,-0.9224224090576172, 102, 43, 285, 68
1731654749710,9i,7.162796124636163,-2.2s : 0.3s,127.86775752531518,7.470292530613061,1.1346732074288814,0.2187858201444861,0.25518670678138733,0.539533257484436,-1.4413819313049316,0.10336419939994812,0.0688672661781311,0.18011212348937988,0.35653979713058,-0.17682440806664299,1.8353343316801827,-0.16484180092811584,-0.34903374314308167,-0.9224980473518372, 102, 43, 285, 68
1731654749720,9i,7.162796124636163,-2.2s : 0.3s,127.86775752531518,7.474967266895396,1.09390622593276,0.201522713225378,0.2739550769329071,0.5076442956924438,-1.377548336982727,0.10866546630859375,0.06811404228210449,0.15544676780700684,0.3615047154107986,-0.16670041865696542,1.821032301202192,-0.1552046835422516,-0.35368210077285767,-0.9223993420600891, 102, 43, 285, 68
1731654749730,9i,7.162796124636163,-2.2s : 0.3s,127.86775752531518,7.4794703644146425,1.0494788515521667,0.18532668467782223,0.33928653597831726,0.45755085349082947,-1.289333701133728,0.13071906566619873,0.07717153429985046,0.10631585121154785,0.3665600122295847,-0.15722527989335444,1.8075303367671103,-0.14617615938186646,-0.35840609669685364,-0.9220507740974426, 102, 43, 285, 68
1731654749740,9i,7.162796124636163,-2.2s : 0.3s,127.86775752531518,7.4837797132884525,0.9964067007318773,0.1780731836995796,0.3265553116798401,0.3607979416847229,-1.206451654434204,0.1495324671268463,0.08049416542053223,0.053579747676849365,0.3717423770454387,-0.14874328417378624,1.7949681257594872,-0.13807305693626404,-0.3632393479347229,-0.9214081764221191, 102, 43, 285, 68
1731654749750,9i,7.162796124636163,-2.2s : 0.3s,127.86775752531518,7.487870668772391,0.9375474176594034,0.17058200742421356,0.3313251733779907,0.2583118677139282,-1.120140790939331,0.15992942452430725,0.05896574258804321,0.006621301174163818,0.3765309540138275,-0.1416023007923177,1.7832381120396665,-0.13124284148216248,-0.3676966726779938,-0.9206380844116211, 102, 43, 285, 68
1731654749760,9i,7.162796124636163,-2.2s : 0.3s,127.86775752531518,7.491738895562956,0.8788470405927099,0.1895033056870154,0.3207116723060608,0.16611509025096893,-1.0531530380249023,0.1711575984954834,0.061035722494125366,-0.05377006530761719,0.3812060133539531,-0.13560779407573673,1.772263385939519,-0.12548796832561493,-0.37204018235206604,-0.9196950197219849, 102, 43, 285, 68
1731654749770,9i,7.162796124636163,-2.2s : 0.3s,127.86775752531518,7.495100636342577,0.8187809927982744,0.20228848121725757,0.29562482237815857,0.050302740186452866,-0.982181966304779,0.17387007176876068,0.04052621126174927,-0.09511810541152954,0.385498441836129,-0.13083924900971264,1.7619192308288436,-0.1208914965391159,-0.37602105736732483,-0.9186911582946777, 102, 43, 285, 68
1731654749780,9i,7.162796124636163,-2.2s : 0.3s,127.86775752531518,7.497717119317675,0.766754549496971,0.19904656069355614,0.3059925138950348,-0.03349095955491066,-0.932653546333313,0.16928312182426453,0.029064953327178955,-0.10058820247650146,0.38958368714089053,-0.12727294145314622,1.7521653544055364,-0.11741843819618225,-0.379803329706192,-0.9175850749015808, 102, 43, 285, 68
1731654749790,9i,7.162796124636163,-2.2s : 0.3s,127.86775752531518,7.4998256216033985,0.7273489684028998,0.19530899587641776,0.36892521381378174,-0.09287811815738678,-0.8926172256469727,0.164598748087883,0.038949400186538696,-0.0976514220237732,0.3940213181477527,-0.12455955306023811,1.7429489275137078,-0.11471771448850632,-0.38390469551086426,-0.9162188768386841, 102, 43, 285, 68
1731654749800,9i,7.162796124636163,-2.2s : 0.3s,127.86775752531518,7.501597962024319,0.6891457477002341,0.1901046414800498,0.3532349169254303,-0.11924687772989273,-0.8312734365463257,0.15587684512138367,0.043885648250579834,-0.09958028793334961,0.39864456377245805,-0.12245622523179303,1.7341736661306195,-0.11257234215736389,-0.3881695568561554,-0.9146867394447327, 102, 43, 285, 68
1731654749810,9i,7.162796124636163,-2.2s : 0.3s,127.86775752531518,7.503306871577878,0.6576450535810429,0.17799356626224258,0.4232976734638214,-0.12378419935703278,-0.7701926827430725,0.1524408757686615,0.04790177941322327,-0.07841497659683228,0.403421157388647,-0.12076388440670598,1.7262685909435111,-0.11079958826303482,-0.39256715774536133,-0.91302490234375, 102, 43, 285, 68
1731654749819,9i,7.162796124636163,-2.2s : 0.3s,127.86775752531518,7.504986509428474,0.6115496198362566,0.169371227487279,0.29846760630607605,-0.17906102538108826,-0.680649995803833,0.16180092096328735,-0.029445677995681763,-0.04049724340438843,0.40785433182979275,-0.11954551721949977,1.718895673470527,-0.10947848111391068,-0.3966405689716339,-0.9114223718643188, 102, 43, 285, 68
1731654749829,9i,7.162796124636163,-2.2s : 0.3s,127.86775752531518,7.506645245424448,0.5657033477433301,0.19737421843927033,0.29307788610458374,-0.20350174605846405,-0.5992154479026794,0.1626124083995819,-0.11185607314109802,0.0014162063598632812,0.4114834009474306,-0.11900022408169342,1.7124219973188977,-0.10880986601114273,-0.39996933937072754,-0.9100466966629028, 102, 43, 285, 68
1731654749839,9i,7.162796124636163,-2.2s : 0.3s,127.86775752531518,7.5083824022167205,0.5155565791005261,0.19526998242406512,0.27194786071777344,-0.19949369132518768,-0.5028252601623535,0.15884438157081604,-0.11087572574615479,0.0246049165725708,0.41483630998123516,-0.11895879625256299,1.7069288073572846,-0.10861239582300186,-0.4030401408672333,-0.9087144732475281, 102, 43, 285, 68
1731654749849,9i,7.162796124636163,-2.2s : 0.3s,127.86775752531518,7.51013902371485,0.47867985605257174,0.18835328034403534,0.2708679139614105,-0.18481764197349548,-0.4913068115711212,0.16982915997505188,-0.08143815398216248,-0.0016857385635375977,0.41814364095220674,-0.11894710755755719,1.7019455576964622,-0.1084429994225502,-0.4060647189617157,-0.9073871970176697, 102, 43, 285, 68
1731654749859,9i,7.162796124636163,-2.2s : 0.3s,127.86775752531518,7.511975330592657,0.4432833334541286,0.18617348135160527,0.1762429028749466,-0.1862325668334961,-0.47856253385543823,0.18018117547035217,-0.045450359582901,0.011383056640625,0.42092542772116426,-0.11891750157175343,1.697004637873444,-0.108281709253788,-0.40860527753829956,-0.9062653183937073, 102, 43, 285, 68
1731654749869,9i,7.162796124636163,-2.2s : 0.3s,127.86775752531518,7.513884512132499,0.4110732523955454,0.18214354990958634,0.08343333005905151,-0.17793406546115875,-0.47451865673065186,0.17725205421447754,-0.03735285997390747,0.019045889377593994,0.4227430293701554,-0.11883027463335258,1.692080682411083,-0.10811442881822586,-0.4102635383605957,-0.9055358171463013, 102, 43, 285, 68
1731654749879,9i,7.162796124636163,-2.2s : 0.3s,127.86775752531518,7.515849300425841,0.3867062857355299,0.1633620414452291,0.025609178468585014,-0.165253683924675,-0.4800820052623749,0.15702685713768005,-0.03441879153251648,0.02907007932662964,0.4237854156969112,-0.11857483563452943,1.6870134629015245,-0.10783246904611588,-0.4112139344215393,-0.9051382541656494, 102, 43, 285, 68
1731654749889,9i,7.162796124636163,-2.2s : 0.3s,127.86775752531518,7.517851657012591,0.3691000958715411,0.1472407778454118,-0.008589337579905987,-0.1245834082365036,-0.4887419641017914,0.13955122232437134,-0.031236648559570312,0.035065293312072754,0.4244307584313161,-0.1179808710718327,1.6817806108133528,-0.10726357251405716,-0.41180211305618286,-0.9049383997917175, 102, 43, 285, 68
1731654749899,9i,7.162796124636163,-2.2s : 0.3s,127.86775752531518,7.519902982708009,0.35862288255027663,0.12073867769052811,-0.01773436740040779,-0.09365851432085037,-0.5002979636192322,0.11529181152582169,-0.004387527704238892,0.03558617830276489,0.42480894431747424,-0.11694103624271354,1.6764280174007187,-0.1063043475151062,-0.4121467173099518,-0.9048947691917419, 102, 43, 285, 68
1731654749909,9i,7.162796124636163,-2.2s : 0.3s,127.86775752531518,7.521943465366088,0.35591183470551585,0.10476562796509815,-0.08277002722024918,-0.08979994803667068,-0.5002256035804749,0.09786656498908997,0.009040772914886475,0.03627997636795044,0.4248933033928111,-0.11568118707252946,1.6710082487395095,-0.10516022145748138,-0.41222357749938965,-0.9049934148788452, 102, 43, 285, 68
1731654749919,9i,7.162796124636163,-2.2s : 0.3s,127.86775752531518,7.523981762364328,0.35082768432025446,0.10255636648843122,-0.09329483658075333,-0.07688042521476746,-0.48909175395965576,0.09221003949642181,0.0012755990028381348,0.04487192630767822,0.42447633407191365,-0.11438316713535904,1.665575373698951,-0.10400503873825073,-0.4118436574935913,-0.9052998423576355, 102, 43, 285, 68
1731654749929,9i,7.162796124636163,-2.2s : 0.3s,127.86775752531518,7.526013385037766,0.34022455396842827,0.10271405685923347,-0.04134741798043251,-0.04733611270785332,-0.4725891649723053,0.09526418894529343,0.006680786609649658,0.0378190279006958,0.42432958862771286,-0.11292887679507208,1.6602868692476453,-0.10269517451524734,-0.41170990467071533,-0.9055101871490479, 102, 43, 285, 68
1731654749939,9i,7.162796124636163,-2.2s : 0.3s,127.86775752531518,7.527921723253191,0.3251830220831399,0.09291980329240022,-0.03217842057347298,-0.035050682723522186,-0.4331136643886566,0.08955037593841553,-0.018498122692108154,0.01651179790496826,0.4244614272202252,-0.11141132304882403,1.6553471421914312,-0.10131485760211945,-0.4118300676345825,-0.9056110382080078, 102, 43, 285, 68
1731654749949,9i,7.162796124636163,-2.2s : 0.3s,127.86775752531518,7.529651842368303,0.3073515187247124,0.08621671630118588,-0.016462573781609535,-0.024830004200339317,-0.3966226279735565,0.07108867913484573,-0.04474946856498718,0.019421815872192383,0.4246723064731832,-0.10999137684570473,1.6508642133664757,-0.10001930594444275,-0.4120222330093384,-0.9056676030158997, 102, 43, 285, 68
1731654749959,9i,7.162796124636163,-2.2s : 0.3s,127.86775752531518,7.531287129891996,0.28743821456575586,0.08786041773621382,-7.507833652198315e-05,0.0015946784988045692,-0.36191150546073914,0.06731437891721725,-0.05403798818588257,0.01637446880340576,0.4249447488134339,-0.10851634604777301,1.646757504765083,-0.09867114573717117,-0.4122704565525055,-0.905702531337738, 102, 43, 285, 68
1731654749969,9i,7.162796124636163,-2.2s : 0.3s,127.86775752531518,7.532814609790421,0.2664772497820435,0.09135802356504949,0.011604413390159607,0.008133893832564354,-0.32619988918304443,0.06408844143152237,-0.06502687931060791,0.0032349824905395508,0.4254109325339278,-0.10704958636445848,1.6430708103946563,-0.09732204675674438,-0.41269510984420776,-0.9056551456451416, 102, 43, 285, 68
1731654749979,9i,7.162796124636163,-2.2s : 0.3s,127.86775752531518,7.53425038055087,0.2466840728944019,0.08604019971763371,0.023443762212991714,0.003035804023966193,-0.2993038296699524,0.06130886822938919,-0.0599590539932251,0.007003605365753174,0.4258653744120875,-0.10575464017869822,1.639713429189208,-0.0961293876171112,-0.4131090044975281,-0.9055938124656677, 102, 43, 285, 68
1731654749989,9i,7.162796124636163,-2.2s : 0.3s,127.86775752531518,7.53556725687349,0.22813877595133242,0.07511674492245837,0.05441239848732948,0.004057303536683321,-0.2738715410232544,0.06709668040275574,-0.03325328230857849,-0.005897462368011475,0.42657238391830254,-0.10454675792901257,1.6366624817260806,-0.09500496089458466,-0.4137527644634247,-0.9054185748100281, 102, 43, 285, 68
1731654749999,9i,7.162796124636163,-2.2s : 0.3s,127.86775752531518,7.536786989005398,0.21182297257462615,0.07394249964852256,0.03906406834721565,-0.006535951979458332,-0.2566606104373932,0.06521613895893097,-0.03225025534629822,-0.013201117515563965,0.42732227851708804,-0.10348272538321783,1.6338667314444875,-0.09400943666696548,-0.41443535685539246,-0.9052102565765381, 102, 43, 285, 68
1731654750009,9i,7.162796124636163,-2.2s : 0.3s,127.86775752531518,7.537868308867394,0.19810449339252295,0.06477648860939239,0.023216526955366135,-0.008000246249139309,-0.24629098176956177,0.05581752955913544,-0.031717658042907715,-0.008624792098999023,0.4278740489317914,-0.1025318542678059,1.6311871735790817,-0.09312523156404495,-0.41493743658065796,-0.9050716161727905, 102, 43, 285, 68
1731654750019,9i,7.162796124636163,-2.2s : 0.3s,127.86775752531518,7.538807051689846,0.1845496027630353,0.05570784530557876,0.022813592106103897,-0.0016094592865556479,-0.22679583728313446,0.049836136400699615,-0.02339625358581543,-0.00850522518157959,0.4283495830297196,-0.10159309998819017,1.6286791609763394,-0.09225553274154663,-0.41537007689476013,-0.9049622416496277, 102, 43, 285, 68
1731654750029,9i,7.162796124636163,-2.2s : 0.3s,127.86775752531518,7.539647581297505,0.17281837757853152,0.050959993081134976,0.01058409083634615,-0.006741281598806381,-0.2165079116821289,0.04492911696434021,-0.02375677227973938,-0.0037297606468200684,0.4287248470997369,-0.10074065650930318,1.6263321255061984,-0.09146838635206223,-0.4157114028930664,-0.9048854112625122, 102, 43, 285, 68
1731654750039,9i,7.162796124636163,-2.2s : 0.3s,127.86775752531518,7.5404533434465035,0.16057967801483541,0.05162017216990763,0.002899272833019495,-0.01846345141530037,-0.19647908210754395,0.04334072023630142,-0.026998162269592285,0.007571220397949219,0.4290029725408601,-0.10004357879247312,1.6241358537478676,-0.09082603454589844,-0.4159643352031708,-0.9048338532447815, 102, 43, 285, 68
1731654750049,9i,7.162796124636163,-2.2s : 0.3s,127.86775752531518,7.541237838015429,0.14669263769970406,0.053331289723109784,0.024463221430778503,-0.017685452476143837,-0.16827775537967682,0.045662589371204376,-0.026671499013900757,0.006912708282470703,0.4292782839713031,-0.09948560231876082,1.6221904938825389,-0.09030976891517639,-0.4162146747112274,-0.9047704339027405, 102, 43, 285, 68
1731654750059,9i,7.162796124636163,-2.2s : 0.3s,127.86775752531518,7.542005840592882,0.13478635980801487,0.049131982618595596,0.06912070512771606,-0.010012353770434856,-0.15157654881477356,0.04621972143650055,-0.01604178547859192,0.004511117935180664,0.42990985228191675,-0.0990170425897123,1.6205367154034203,-0.08985982090234756,-0.41678884625434875,-0.9045509099960327, 102, 43, 285, 68
1731654750069,9i,7.162796124636163,-2.2s : 0.3s,127.86775752531518,7.542733793193287,0.1288814847400483,0.04197568552014173,0.09739728271961212,-0.020989105105400085,-0.1387844830751419,0.04140660911798477,-0.006573021411895752,-0.0020606517791748047,0.43089284085008056,-0.09866644576397353,1.619090692364064,-0.08950228244066238,-0.4176822006702423,-0.9041742086410522, 102, 43, 285, 68
1731654750079,9i,7.162796124636163,-2.2s : 0.3s,127.86775752531518,7.543448539605991,0.11378923310997555,0.04139895694902255,0.1310577690601349,-0.0518074706196785,-0.06433235853910446,0.04115478694438934,0.004433155059814453,0.0007101297378540039,0.4321073616462123,-0.09854445513141698,1.6179646021004546,-0.08934199810028076,-0.4187853932380676,-0.903679609298706, 102, 43, 285, 68
1731654750089,9i,7.162796124636163,-2.2s : 0.3s,127.86775752531518,7.5441545456254975,0.11581921346879417,0.0418375789163943,0.18182815611362457,-0.03519272059202194,-0.09647291898727417,0.04171590507030487,0.0027908384799957275,0.00154191255569458,0.43399638531056045,-0.09850870906687721,1.6173336369316196,-0.08923173695802689,-0.4205000400543213,-0.9028939008712769, 102, 43, 285, 68
1731654750099,9i,7.162796124636163,-2.2s : 0.3s,127.86775752531518,7.544811848363382,0.11441007491263071,0.05320442070885241,0.08999782055616379,-0.06027516722679138,-0.11182417720556259,0.03933544456958771,-0.035025179386138916,-0.007527947425842285,0.4361112207697501,-0.09682970497606067,1.6155620866905114,-0.08762947469949722,-0.42241787910461426,-0.902155339717865, 102, 43, 285, 68
1731654750109,9i,7.162796124636163,-2.2s : 0.3s,127.86775752531518,7.545448593171759,0.11454050562606803,0.053145156307978225,0.11672863364219666,-0.06665601581335068,-0.11557930707931519,0.04262388497591019,-0.03162917494773865,0.002684652805328369,0.43807436247227477,-0.09533626331756104,1.613743118292241,-0.0862029567360878,-0.4241964519023895,-0.9014579653739929, 102, 43, 285, 68
1731654750119,9i,7.162796124636163,-2.2s : 0.3s,127.86775752531518,7.546070576411239,0.11439554047482972,0.0559415734221994,0.10396650433540344,-0.0636940449476242,-0.12017405778169632,0.05186004936695099,-0.01961854100227356,-0.007423460483551025,0.4403525087252463,-0.0939527016546135,1.6118942685555238,-0.0848647728562355,-0.426258385181427,-0.9006118774414062, 102, 43, 285, 68
1731654750129,9i,7.162796124636163,-2.2s : 0.3s,127.86775752531518,7.546662492183256,0.12723439327261774,0.05621366550561672,0.1661599576473236,-0.05911669507622719,-0.1566532999277115,0.049262456595897675,-0.02304193377494812,-0.014221668243408203,0.4427431270909916,-0.09247789387367539,1.609888584321285,-0.08344210684299469,-0.42841970920562744,-0.8997188210487366, 102, 43, 285, 68
1731654750139,9i,7.162796124636163,-2.2s : 0.3s,127.86775752531518,7.547229795282738,0.13884473195993274,0.042064761546451196,0.2036098688840866,-0.043942004442214966,-0.14187142252922058,0.03770401328802109,-0.018064647912979126,-0.004638969898223877,0.44511184268689175,-0.09092722448285077,1.6077595242876164,-0.0819544643163681,-0.43055883049964905,-0.8988340497016907, 102, 43, 285, 68
1731654750149,9i,7.162796124636163,-2.2s : 0.3s,127.86775752531518,7.547806762813124,0.13912324287421712,0.03567707696758823,0.2039368450641632,-0.040227245539426804,-0.08417793363332748,0.033829912543296814,0.0006364285945892334,0.011313080787658691,0.4469655163465002,-0.08968464810467298,1.6062059613268198,-0.08076591044664383,-0.4322311580181122,-0.898138701915741, 102, 43, 285, 68
1731654750159,9i,7.162796124636163,-2.2s : 0.3s,127.86775752531518,7.548387747033405,0.13677432641920725,0.032374123322767505,0.2287340611219406,-0.0402621328830719,0.0012868978083133698,0.0295540913939476,-0.0019488036632537842,0.013070642948150635,0.4484478295759892,-0.08891189105884223,1.6054360418267377,-0.08001486212015152,-0.4335673749446869,-0.8975616693496704, 102, 43, 285, 68
1731654750169,9i,7.162796124636163,-2.2s : 0.3s,127.86775752531518,7.548954228240371,0.1326188233781931,0.039410589891443595,0.19237905740737915,-0.035048287361860275,0.04534227401018143,0.0279388427734375,-0.02508905529975891,0.011964738368988037,0.44996357812821103,-0.08843510800131757,1.6055531711332633,-0.07952877879142761,-0.43493273854255676,-0.8969441056251526, 102, 43, 285, 68
1731654750179,9i,7.162796124636163,-2.2s : 0.3s,127.86775752531518,7.549507258919201,0.1316537969423337,0.042118419031947525,0.2316175401210785,-0.03701343387365341,0.07016107439994812,0.030280746519565582,-0.027343928813934326,0.01045691967010498,0.45264653631268614,-0.08813278361977564,1.6058964450239432,-0.0791546180844307,-0.43734708428382874,-0.8958024978637695, 102, 43, 285, 68
1731654750189,9i,7.162796124636163,-2.2s : 0.3s,127.86775752531518,7.550068164172601,0.16052107637003413,0.04152844312703874,0.30744725465774536,-0.19522890448570251,0.06598147004842758,0.03868766874074936,-0.011579662561416626,0.009684383869171143,0.4557731010347253,-0.08814761279698413,1.6064574524007034,-0.07904713600873947,-0.44015663862228394,-0.8944348692893982, 102, 43, 285, 68
1731654750199,9i,7.162796124636163,-2.2s : 0.3s,127.86775752531518,7.5506745726800295,0.15237828401349168,0.054793392609683696,0.15429764986038208,0.07378684729337692,0.18899767100811005,0.05234663188457489,0.006957739591598511,0.014619708061218262,0.4583384446459478,-0.08846678637460612,1.6071600555508008,-0.0792325884103775,-0.4424586594104767,-0.893281877040863, 102, 43, 285, 68
1731654750209,9i,7.162796124636163,-2.2s : 0.3s,127.86775752531518,7.551694361884801,0.09489220112252175,0.1011942670763317,-0.05572802200913429,0.021282097324728966,0.0196793545037508,0.0907234475016594,-0.0029780566692352295,0.04472881555557251,0.4585060320652133,-0.0874844060213638,1.607855059799198,-0.07834852486848831,-0.44260895252227783,-0.8932854533195496, 102, 43, 285, 68
1731654750219,9i,7.162796124636163,-2.2s : 0.3s,127.86775752531518,7.552614014788368,0.06674162698815526,0.046752599153441037,0.014764254912734032,0.06078849360346794,0.002958430675789714,-0.020766399800777435,0.04173889756202698,0.0035251379013061523,0.4585668105285592,-0.08602493521024977,1.607313468751202,-0.07704240828752518,-0.44266343116760254,-0.8933719992637634, 102, 43, 285, 68
1731654750229,9i,7.162796124636163,-2.2s : 0.3s,127.86775752531518,7.553259338493305,0.06189990083408427,0.0803106665926999,0.03438922017812729,0.08605878800153732,-0.008361135609447956,-0.047233179211616516,-0.06078919768333435,0.022880196571350098,0.45863008669281063,-0.08477180268564581,1.607203463898246,-0.0759204626083374,-0.4427201747894287,-0.8934399485588074, 102, 43, 285, 68
1731654750239,9i,7.162796124636163,-2.2s : 0.3s,127.86775752531518,7.553883021247763,0.062357283370104585,0.023172802556355197,0.0991130918264389,0.027815986424684525,0.005707545205950737,0.018016979098320007,0.01335841417312622,0.005824089050292969,0.45933364492568945,-0.08384866086724897,1.6069945797358134,-0.07506955415010452,-0.4433509111404419,-0.89319908618927, 102, 43, 285, 68
1731654750249,9i,7.162796124636163,-2.2s : 0.3s,127.86775752531518,7.55472880217289,0.07496930969675793,0.07958835889998823,0.14861325919628143,-0.04916028678417206,0.04199231415987015,0.06458626687526703,0.04509347677230835,0.011379778385162354,0.4608116066985601,-0.08385834113823,1.6072628007105543,-0.07502323389053345,-0.4446752071380615,-0.8925443887710571, 102, 43, 285, 68
1731654750259,9i,7.162796124636163,-2.2s : 0.3s,127.86775752531518,7.55586667145016,0.09978937118020155,0.10356790685515259,0.2294657677412033,0.031905535608530045,0.06268614530563354,0.09367462247610092,0.04130324721336365,0.015665829181671143,0.46300365487620565,-0.08392161807979069,1.6078851174061326,-0.07499782741069794,-0.4466375410556793,-0.8915661573410034, 102, 43, 285, 68