timestamp,club,max_speed,tempo,w.rotation,l.speed,t.spped,acc,rotation.x,rotation.y,rotation.z,userAcceleration.x,userAcceleration.y,userAcceleration.z,pitch,roll,yaw,gravity.x,gravity.y,gravity.z,impactIndex,minDownIndex,StartIndex,endIndex
1731649788236,9i,6.9863058954812365,1.6s : 0.4s,-1.71389794194819,4.97937750803481e-05,0.05085766274581147,0.026683990552534478,-0.2177974134683609,-0.022015705704689026,0.12607163190841675,-0.020223677158355713,-0.015773534774780273,-0.007364362478256226,-0.31671132287719145,1.9163921782657778,2.918065119050732,0.8940794467926025,0.31144315004348755,0.3219092786312103, 211, 146, 18, 175
1731649788246,9i,6.9863058954812365,1.6s : 0.4s,-1.71389794194819,0.00018374388042126434,0.08598521447428475,0.024501118184075257,-0.21626371145248413,-0.015044969506561756,0.12512461841106415,-0.021861135959625244,0.0023077428340911865,-0.010819882154464722,-0.3118020698704949,1.918433774204532,2.9202461214848325,0.8948471546173096,0.3067743182182312,0.3242509365081787, 211, 146, 18, 175
1731649788256,9i,6.9863058954812365,1.6s : 0.4s,-1.71389794194819,0.00035199827674402756,0.11337796407379551,0.021855835687725034,-0.23556017875671387,-0.01549238059669733,0.11913063377141953,-0.020982563495635986,-0.002337813377380371,-0.005651921033859253,-0.3077239027493117,1.9203171758703839,2.92251631668469,0.8954028487205505,0.30289024114608765,0.32636144757270813, 211, 146, 18, 175
1731649788266,9i,6.9863058954812365,1.6s : 0.4s,-1.71389794194819,0.0005526921958743369,0.1271477803112669,0.024857297046510244,-0.1989358514547348,-0.017354995012283325,0.12910602986812592,-0.022279024124145508,0.004485875368118286,-0.010070115327835083,-0.3042162244991455,1.92181277920854,2.9245609306768574,0.8959056735038757,0.2995454668998718,0.3280634582042694, 211, 146, 18, 175
1731649788276,9i,6.9863058954812365,1.6s : 0.4s,-1.71389794194819,0.0008736329252519211,0.1283845679491545,0.048496687482740164,-0.16666179895401,-0.02610001713037491,0.12399303168058395,-0.02285635471343994,0.035611122846603394,-0.023693114519119263,-0.301581253386524,1.9225801716736814,2.9260618979081197,0.8963914513587952,0.2970304787158966,0.329021692276001, 211, 146, 18, 175
1731649788286,9i,6.9863058954812365,1.6s : 0.4s,-1.71389794194819,0.0015008992935752778,0.12828939543750276,0.0706276502528921,-0.15281760692596436,-0.024073263630270958,0.11174649000167847,-0.02729976177215576,0.0560879111289978,-0.033123016357421875,-0.2997765459369479,1.9229361344158762,2.927277961982896,0.8967761397361755,0.2953067123889923,0.3295251429080963, 211, 146, 18, 175
1731649788296,9i,6.9863058954812365,1.6s : 0.4s,-1.71389794194819,0.0024973035498142143,0.12936080788403134,0.08315300060069379,-0.1697196364402771,-0.028565747663378716,0.11625921726226807,-0.0326838493347168,0.06689906120300293,-0.03702300786972046,-0.2981076468462489,1.9230463572078198,2.9284534689687156,0.8972009420394897,0.2937118411064148,0.3297935128211975, 211, 146, 18, 175
1731649788306,9i,6.9863058954812365,1.6s : 0.4s,-1.71389794194819,0.003810824827506359,0.13195451134714012,0.09350411722177854,-0.18575280904769897,-0.036341115832328796,0.10875968635082245,-0.03088289499282837,0.07986104488372803,-0.037569671869277954,-0.29642440574179135,1.923108908032931,2.9297701815165524,0.8976430892944336,0.2921024262905121,0.3300197720527649, 211, 146, 18, 175
1731649788316,9i,6.9863058954812365,1.6s : 0.4s,-1.71389794194819,0.005332559212396959,0.13831452802063413,0.09735722184452601,-0.2086983323097229,-0.039151549339294434,0.09696214646100998,-0.022779524326324463,0.08665716648101807,-0.03807961940765381,-0.29496666542644706,1.9230718204412256,2.9313110180196835,0.8980541825294495,0.29070794582366943,0.3301331102848053, 211, 146, 18, 175
1731649788326,9i,6.9863058954812365,1.6s : 0.4s,-1.71389794194819,0.006947570084637466,0.1411554352010705,0.09484085134851357,-0.21224333345890045,-0.032452188432216644,0.08990061283111572,-0.023619234561920166,0.08404415845870972,-0.03706073760986328,-0.29374283750685937,1.92310908888093,2.9330131631484284,0.8983751535415649,0.2895367741584778,0.3302890956401825, 211, 146, 18, 175
1731649788336,9i,6.9863058954812365,1.6s : 0.4s,-1.71389794194819,0.008625706493822547,0.1434428527029207,0.09499971886407298,-0.22078515589237213,-0.03174858167767525,0.07548278570175171,-0.03151899576187134,0.08369907736778259,-0.03203067183494568,-0.2924935254454832,1.9233160558758728,2.934822628347069,0.8986455798149109,0.2883407473564148,0.33059966564178467, 211, 146, 18, 175
1731649788346,9i,6.9863058954812365,1.6s : 0.4s,-1.71389794194819,0.010348717439032509,0.14451586991276824,0.09347502577836964,-0.2177116721868515,-0.020789051428437233,0.07622764259576797,-0.036786019802093506,0.08089467883110046,-0.0289900004863739,-0.29135893173466987,1.9235423486387393,2.9366949958327333,0.8988772630691528,0.2872541546821594,0.3309158384799957, 211, 146, 18, 175
1731649788356,9i,6.9863058954812365,1.6s : 0.4s,-1.71389794194819,0.012097488954115275,0.1406865596152673,0.08814898757338989,-0.2115270048379898,0.06227920204401016,-0.06949067860841751,-0.037072837352752686,0.07595199346542358,-0.025042831897735596,-0.2911505389383997,1.9238134804037372,2.93853831886695,0.8988433480262756,0.28705453872680664,0.3311801254749298, 211, 146, 18, 175
1731649788366,9i,6.9863058954812365,1.6s : 0.4s,-1.71389794194819,0.01386852778838953,0.16655581066538827,0.0886210393529594,-0.20167197287082672,0.3818451166152954,-0.5538825988769531,-0.04460310935974121,0.07244372367858887,-0.024822533130645752,-0.29114923931345393,1.9236530298528027,2.940227412135611,0.8988967537879944,0.28705328702926636,0.3310360312461853, 211, 146, 18, 175
1731649788376,9i,6.9863058954812365,1.6s : 0.4s,-1.71389794194819,0.01563705751595896,0.2672709944067893,0.08719338974048892,-0.1708618700504303,0.485506534576416,-0.6561333537101746,-0.003772914409637451,0.08587604761123657,-0.014620423316955566,-0.2900137320293583,1.924060853018034,2.9419038664551294,0.8990671634674072,0.2859653830528259,0.33151522278785706, 211, 146, 18, 175
1731649788386,9i,6.9863058954812365,1.6s : 0.4s,-1.71389794194819,0.017457759212092694,0.22585600545115897,0.10140775575671865,-0.15148158371448517,0.12265200167894363,-0.07305774837732315,-0.052179157733917236,0.08443072438240051,-0.020792335271835327,-0.2893246552273191,1.9244174281595212,2.9435299206974515,0.8991336822509766,0.2853050231933594,0.33190399408340454, 211, 146, 18, 175
1731649788396,9i,6.9863058954812365,1.6s : 0.4s,-1.71389794194819,0.019293826651111998,0.17548128554205453,0.09060882072431009,-0.1308407485485077,0.031186796724796295,0.011039286851882935,-0.044767141342163086,0.07719653844833374,-0.015702098608016968,-0.2888486893958774,1.924881246486404,2.9447764497475313,0.8991068601608276,0.28484880924224854,0.33236804604530334, 211, 146, 18, 175
1731649788406,9i,6.9863058954812365,1.6s : 0.4s,-1.71389794194819,0.021109508519395182,0.12959586964121853,0.07813974804969448,-0.08119563013315201,-0.005806197412312031,0.03481775522232056,-0.028287947177886963,0.07280969619750977,-0.0020881593227386475,-0.2881403291455506,1.9251733579433303,2.9456548635745503,0.8991987705230713,0.2841697037220001,0.33270058035850525, 211, 146, 18, 175
1731649788416,9i,6.9863058954812365,1.6s : 0.4s,-1.71389794194819,0.02293498869250047,0.09142386557152879,0.09224921717323241,-0.018163667991757393,0.014309191145002842,0.03993901237845421,-0.040471017360687256,0.08289554715156555,0.0005857348442077637,-0.28767894880805617,1.9253394363439948,2.9460363290413305,0.8992660641670227,0.2837273180484772,0.33289530873298645, 211, 146, 18, 175
1731649788426,9i,6.9863058954812365,1.6s : 0.4s,-1.71389794194819,0.024768100189261236,0.06781646986928301,0.08871193465191772,-0.026855161413550377,0.014687448740005493,0.02927131950855255,-0.02840244770050049,0.083762526512146,-0.006851822137832642,-0.2873477055648409,1.9254630615795565,2.9460784119000962,0.8993130922317505,0.2834096848964691,0.3330391049385071, 211, 146, 18, 175
1731649788436,9i,6.9863058954812365,1.6s : 0.4s,-1.71389794194819,0.026596433979458454,0.050824304946359554,0.08234443049987036,-0.020627358928322792,0.011169945821166039,0.029276113957166672,-0.03660929203033447,0.07344850897789001,-0.0067588090896606445,-0.290833136192107,1.9249624258851088,2.9460247399193316,0.8985477685928345,0.286750465631485,0.33224427700042725, 211, 146, 18, 175
1731649788446,9i,6.9863058954812365,1.6s : 0.4s,-1.71389794194819,0.028409986389264695,0.043539547708132335,0.0770757721892537,-0.03610531613230705,0.009704940021038055,0.013360165059566498,-0.025054931640625,0.07245591282844543,-0.007941395044326782,-0.29457901184894797,1.9245386045465926,2.9460641019330702,0.8976744413375854,0.2903370261192322,0.3314889371395111, 211, 146, 18, 175
1731649788456,9i,6.9863058954812365,1.6s : 0.4s,-1.71389794194819,0.030209273288007595,0.04302998912049098,0.07479202978272816,-0.05825269967317581,0.014147359877824783,-0.00016922550275921822,-0.023936033248901367,0.06895723938941956,-0.01630377769470215,-0.29798186497744616,1.9240892663508515,2.94630491607048,0.8968913555145264,0.29359161853790283,0.33074188232421875, 211, 146, 18, 175
1731649788466,9i,6.9863058954812365,1.6s : 0.4s,-1.71389794194819,0.03197800430520605,0.04472957464361147,0.06714077062379442,-0.08471926301717758,0.017368009313941002,-0.011007525026798248,-0.016657531261444092,0.06256267428398132,-0.01778542995452881,-0.3018641922142203,1.9242955755070925,2.946999664644899,0.8957469463348389,0.29730063676834106,0.3305298089981079, 211, 146, 18, 175
1731649788476,9i,6.9863058954812365,1.6s : 0.4s,-1.71389794194819,0.03365462835444024,0.051857774081273296,0.05414496452102279,-0.10185350477695465,0.01916937157511711,-0.021833542734384537,-0.008944153785705566,0.04998725652694702,-0.01878705620765686,-0.3049683238439136,1.924733573932546,2.9479575498962363,0.8947321176528931,0.3002629578113556,0.33060064911842346, 211, 146, 18, 175
1731649788486,9i,6.9863058954812365,1.6s : 0.4s,-1.71389794194819,0.03521536363890034,0.05727226347469436,0.04741731856335919,-0.10355233401060104,0.026143833994865417,-0.03289245069026947,-0.00880521535873413,0.043633997440338135,-0.016338437795639038,-0.30742273960392785,1.925592708985404,2.949179211330099,0.8937540650367737,0.30260321497917175,0.33111223578453064, 211, 146, 18, 175
1731649788496,9i,6.9863058954812365,1.6s : 0.4s,-1.71389794194819,0.036684733184548346,0.058011211473193935,0.044343846644209456,-0.08522872626781464,0.029340960085392,-0.04063905403017998,-0.013260483741760254,0.03959116339683533,-0.014935731887817383,-0.31033698816860866,1.926724933903995,2.9503980919671178,0.8925482034683228,0.3053795397281647,0.331815242767334, 211, 146, 18, 175
1731649788506,9i,6.9863058954812365,1.6s : 0.4s,-1.71389794194819,0.03811051717402991,0.07080182125500016,0.0466796788255873,-0.04399506375193596,0.1025993749499321,-0.1652289628982544,-0.010662615299224854,0.04342252016067505,-0.013408422470092773,-0.31336555922967896,1.9275144383807181,2.9513223605542893,0.8914151787757874,0.30826205015182495,0.33219531178474426, 211, 146, 18, 175
1731649788516,9i,6.9863058954812365,1.6s : 0.4s,-1.71389794194819,0.03949601925076848,0.23511594078431183,0.046628704111215946,-0.017850279808044434,0.5506274700164795,-0.7970194220542908,-0.010046720504760742,0.04439052939414978,-0.010138064622879028,-0.3160222851233613,1.9281053223096625,2.9517966857003333,0.890448272228241,0.3107883036136627,0.3324343264102936, 211, 146, 18, 175
1731649788526,9i,6.9863058954812365,1.6s : 0.4s,-1.71389794194819,0.04082084093053428,0.448497704154259,0.05767377611642684,0.009422486647963524,0.9360686540603638,-1.0674397945404053,0.028620660305023193,0.049660444259643555,-0.006400197744369507,-0.3160164089917026,1.9284823386959247,2.951898234823199,0.8903247714042664,0.31078270077705383,0.3327707350254059, 211, 146, 18, 175
1731649788536,9i,6.9863058954812365,1.6s : 0.4s,-1.71389794194819,0.04211782727624629,0.41661631938519766,0.046732005019731244,-0.000122549245133996,0.387703001499176,-0.34043624997138977,-0.014558136463165283,0.043080687522888184,-0.01077011227607727,-0.3167102173135773,1.9288481381777258,2.952131519423399,0.8900009393692017,0.3114420771598816,0.33302077651023865, 211, 146, 18, 175
1731649788545,9i,6.9863058954812365,1.6s : 0.4s,-1.71389794194819,0.043262116338524136,0.3100139849374964,0.027647376928156265,-0.021693620830774307,0.06661766767501831,-0.06175629049539566,-0.01659214496612549,0.01741078495979309,-0.013636082410812378,-0.3176625921447683,1.9295108920444708,2.9524872954160157,0.8895018696784973,0.3123469650745392,0.3335062563419342, 211, 146, 18, 175
1731649788555,9i,6.9863058954812365,1.6s : 0.4s,-1.71389794194819,0.04422212757881012,0.23138998694206078,0.018113397795315643,0.005473284516483545,0.01926000788807869,-0.07822075486183167,-0.005001544952392578,0.011271029710769653,-0.013268142938613892,-0.31826291253181666,1.9299263529839352,2.9527424283373076,0.8891873359680176,0.31291717290878296,0.3338097631931305, 211, 146, 18, 175
1731649788565,9i,6.9863058954812365,1.6s : 0.4s,-1.71389794194819,0.045142931472758885,0.17470573836745731,0.028473157595672333,0.04216771572828293,0.020169299095869064,-0.0659848228096962,7.539987564086914e-05,0.022867530584335327,-0.01696440577507019,-0.3190665414117637,1.93016727283569,2.952795908955805,0.8888712525367737,0.31368035078048706,0.3339354693889618, 211, 146, 18, 175
1731649788575,9i,6.9863058954812365,1.6s : 0.4s,-1.71389794194819,0.046033696838037305,0.12874957892367703,0.03359388613353042,0.03374519944190979,-0.01668139174580574,-0.050441283732652664,0.006264030933380127,0.02759772539138794,-0.01810184121131897,-0.31990228132484294,1.9302805652126938,2.952663003151067,0.8885875344276428,0.31447380781173706,0.33394375443458557, 211, 146, 18, 175
1731649788585,9i,6.9863058954812365,1.6s : 0.4s,-1.71389794194819,0.046876225794593294,0.08385199828416849,0.02364892427978058,0.04040210694074631,-0.06169680878520012,0.004899102728813887,0.0006276965141296387,0.014040380716323853,-0.019019603729248047,-0.32068190557918946,1.9303973544388477,2.9525675048267535,0.8883188366889954,0.31521376967430115,0.3339611887931824, 211, 146, 18, 175
1731649788595,9i,6.9863058954812365,1.6s : 0.4s,-1.71389794194819,0.04764625498116678,0.04030661619650206,0.017574037340520373,0.07387644052505493,-0.14457491040229797,0.09648734331130981,-0.0034618377685546875,0.00031185150146484375,-0.017226874828338623,-0.32157773878194373,1.930518240891723,2.952244104115724,0.8880137205123901,0.3160638213157654,0.33396899700164795, 211, 146, 18, 175
1731649788605,9i,6.9863058954812365,1.6s : 0.4s,-1.71389794194819,0.04836855474757112,0.06411545828248812,0.025628528863839123,0.1071997806429863,-0.22273372113704681,0.21648044884204865,-0.007942914962768555,0.002622365951538086,-0.024225085973739624,-0.32255216787270274,1.9305826294652433,2.9516321627532482,0.8877034783363342,0.31698814034461975,0.3339175581932068, 211, 146, 18, 175
1731649788615,9i,6.9863058954812365,1.6s : 0.4s,-1.71389794194819,0.04905705564992776,0.12608257862681566,0.029764155913985433,0.11869318783283234,-0.28575846552848816,0.28378361463546753,-0.010051310062408447,0.005074590444564819,-0.02755221724510193,-0.32365120664414027,1.9306015559394343,2.950743813089163,0.8873708248138428,0.31803029775619507,0.33381158113479614, 211, 146, 18, 175
1731649788625,9i,6.9863058954812365,1.6s : 0.4s,-1.71389794194819,0.04970328511613742,0.17008117689817628,0.030979996640313864,0.09195724874734879,-0.2690334618091583,0.29943132400512695,-0.011848747730255127,-0.0022512078285217285,-0.028535932302474976,-0.32479580620174814,1.9306855669646412,2.950049429929052,0.8870014548301697,0.3191152811050415,0.3337577283382416, 211, 146, 18, 175
1731649788635,9i,6.9863058954812365,1.6s : 0.4s,-1.71389794194819,0.05031045176466694,0.17770167717625546,0.031142240391963543,0.07123492658138275,-0.17828333377838135,0.2221679389476776,-0.01467585563659668,-0.003682643175125122,-0.027219414710998535,-0.32587162137430026,1.930851762807603,2.9495520068157033,0.8866240978240967,0.3201346695423126,0.33378395438194275, 211, 146, 18, 175
1731649788645,9i,6.9863058954812365,1.6s : 0.4s,-1.71389794194819,0.05087204258789156,0.1362496561852238,0.021434079625947084,0.0710398480296135,-0.004090677015483379,0.046861834824085236,-0.007686913013458252,-0.003514021635055542,-0.01969727873802185,-0.32688571329993016,1.9309470876702042,2.9491627493496386,0.8862881064414978,0.32109522819519043,0.33375394344329834, 211, 146, 18, 175
1731649788655,9i,6.9863058954812365,1.6s : 0.4s,-1.71389794194819,0.05137548395364102,0.05410894435638939,0.023925167640023115,0.05474262684583664,0.23794858157634735,-0.20432032644748688,0.00662684440612793,-0.007608085870742798,-0.021693676710128784,-0.3278414720248099,1.9309114051294678,2.948803962729263,0.8860124945640564,0.3220002055168152,0.3336140513420105, 211, 146, 18, 175
1731649788665,9i,6.9863058954812365,1.6s : 0.4s,-1.71389794194819,0.051831519426567725,0.13217078081699454,0.031781950217972074,0.0664166584610939,0.5052731037139893,-0.4867529273033142,0.012410104274749756,-0.005798995494842529,-0.028678447008132935,-0.32863846163442884,1.9307855584599811,2.9483680048055225,0.8858140110969543,0.3227546513080597,0.3334120512008667, 211, 146, 18, 175
1731649788675,9i,6.9863058954812365,1.6s : 0.4s,-1.71389794194819,0.05224680562753192,0.2875958571681945,0.024585508456564074,0.0729035884141922,0.6838259696960449,-0.701877236366272,0.007305026054382324,-0.004903435707092285,-0.02295735478401184,-0.32930437526410766,1.9304759524746735,2.94775476633635,0.8857154846191406,0.3233848512172699,0.33306190371513367, 211, 146, 18, 175
1731649788685,9i,6.9863058954812365,1.6s : 0.4s,-1.71389794194819,0.05260717382724865,0.41432250298802037,0.024149734605303685,0.05665591359138489,0.7186611890792847,-0.7797996997833252,0.005300939083099365,-0.013820737600326538,-0.019081324338912964,-0.32987539307072206,1.9301699340797722,2.9471649193180434,0.8856446146965027,0.3239251375198364,0.33272597193717957, 211, 146, 18, 175
1731649788695,9i,6.9863058954812365,1.6s : 0.4s,-1.71389794194819,0.05292824640533519,0.4870383108044281,0.013243711047934533,0.061920713633298874,0.6485260725021362,-0.7317967414855957,-0.004397213459014893,-0.00848737359046936,-0.009166508913040161,-0.33023781154968374,1.9298586902348718,2.9466069671775243,0.8856379985809326,0.32426801323890686,0.33240893483161926, 211, 146, 18, 175
1731649788705,9i,6.9863058954812365,1.6s : 0.4s,-1.71389794194819,0.05324015185672533,0.49035094558221065,0.015155714730131473,0.04293131083250046,0.4711243212223053,-0.5876044034957886,-0.005966901779174805,0.0025645792484283447,-0.01369360089302063,-0.3305073158675283,1.9295261705921147,2.9459613947752086,0.8856669068336487,0.3245229423046112,0.3320838510990143, 211, 146, 18, 175
1731649788715,9i,6.9863058954812365,1.6s : 0.4s,-1.71389794194819,0.05355117542344022,0.4269934564769945,0.015505010364760907,-0.006278046872466803,0.23717600107192993,-0.3476176857948303,-0.005431532859802246,0.007084459066390991,-0.012677311897277832,-0.33045537263082636,1.929302207480687,2.945734492396895,0.8857569098472595,0.3244737982749939,0.33189135789871216, 211, 146, 18, 175
1731649788725,9i,6.9863058954812365,1.6s : 0.4s,-1.71389794194819,0.05385823056702618,0.3110133466604124,0.013019119227966718,-0.050498105585575104,-0.013860128819942474,-0.09233803302049637,-0.002667725086212158,0.0077170729637146,-0.010140389204025269,-0.3301898919928812,1.9292292446452408,2.9459763323859955,0.885861873626709,0.3242226541042328,0.33185696601867676, 211, 146, 18, 175
1731649788735,9i,6.9863058954812365,1.6s : 0.4s,-1.71389794194819,0.05413122051811239,0.16157682820616565,0.019420391509080794,-0.09843314439058304,-0.25260481238365173,0.16668793559074402,-0.0010115504264831543,-0.010424554347991943,-0.016354113817214966,-0.32978546252008645,1.9293017324314694,2.9467062278151754,0.8859602212905884,0.32384005188941956,0.3319670557975769, 211, 146, 18, 175
1731649788745,9i,6.9863058954812365,1.6s : 0.4s,-1.71389794194819,0.05436801576360472,0.04417893688346481,0.014331239562683772,-0.1024453267455101,-0.42788881063461304,0.39713385701179504,-0.005285143852233887,-0.011080026626586914,-0.007394909858703613,-0.3291720079788645,1.9294444048624908,2.9476573646659867,0.8860988020896912,0.3232595920562744,0.33216315507888794, 211, 146, 18, 175
1731649788755,9i,6.9863058954812365,1.6s : 0.4s,-1.71389794194819,0.054600391293326604,0.16736504542805905,0.010668390310404799,-0.12055561691522598,-0.5382675528526306,0.5443081259727478,-0.0031629204750061035,0.003627091646194458,-0.009521275758743286,-0.3283844635760841,1.9295220140077478,2.948628686439188,0.8863110542297363,0.32251423597335815,0.3323211669921875, 211, 146, 18, 175
1731649788765,9i,6.9863058954812365,1.6s : 0.4s,-1.71389794194819,0.05481978120951036,0.28220435556671797,0.010612493751155137,-0.16153134405612946,-0.5531864762306213,0.5905689597129822,0.0008715391159057617,2.9206275939941406e-05,-0.010576605796813965,-0.32746241715677815,1.9295965084070184,2.949868727378166,0.8865644335746765,0.32164132595062256,0.3324914872646332, 211, 146, 18, 175
1731649788775,9i,6.9863058954812365,1.6s : 0.4s,-1.71389794194819,0.05499595331736336,0.35120429429125494,0.018730867060670498,-0.20379731059074402,-0.4776158034801483,0.5635719299316406,-0.0010973215103149414,-0.01658812165260315,-0.008629918098449707,-0.32630287230208926,1.9298176397888807,2.9515382289523573,0.8868395090103149,0.32054316997528076,0.3328183889389038, 211, 146, 18, 175
1731649788785,9i,6.9863058954812365,1.6s : 0.4s,-1.71389794194819,0.05512958664267444,0.3658739235851755,0.024211002402960598,-0.19618107378482819,-0.34842801094055176,0.44705018401145935,0.00040411949157714844,-0.020288735628128052,-0.013205170631408691,-0.32503899104302286,1.930101968553417,2.9533728003736197,0.8871234059333801,0.31934574246406555,0.3332127034664154, 211, 146, 18, 175
1731649788795,9i,6.9863058954812365,1.6s : 0.4s,-1.71389794194819,0.055232877115546426,0.33502253169298324,0.021280741890666272,-0.20182403922080994,-0.18762792646884918,0.2967224717140198,0.005900561809539795,-0.014573782682418823,-0.014340788125991821,-0.32377468524886654,1.9303279090376027,2.955083675493372,0.8874252438545227,0.31814736127853394,0.3335548937320709, 211, 146, 18, 175
1731649788805,9i,6.9863058954812365,1.6s : 0.4s,-1.71389794194819,0.055331383024318184,0.2744139377918252,0.014712427163144914,-0.21866874396800995,-0.024055952206254005,0.1373932957649231,0.008605003356933594,-0.0003458857536315918,-0.011928528547286987,-0.32223904218425187,1.9305628658943823,2.9569208445852393,0.8878032565116882,0.31669116020202637,0.33393505215644836, 211, 146, 18, 175
1731649788815,9i,6.9863058954812365,1.6s : 0.4s,-1.71389794194819,0.05541772077251913,0.19823924514821772,0.013525019806868965,-0.20816975831985474,0.12938687205314636,-0.033082835376262665,0.011941313743591309,-0.00034165382385253906,-0.006341487169265747,-0.3206423488342239,1.9307725308636652,2.9587263920714597,0.8882051110267639,0.31517624855041504,0.3342988193035126, 211, 146, 18, 175
1731649788825,9i,6.9863058954812365,1.6s : 0.4s,-1.71389794194819,0.05544949065821352,0.1409864380960976,0.03129953256712517,-0.19005461037158966,0.24447298049926758,-0.15482015907764435,0.0042417049407958984,-0.02917802333831787,-0.010502934455871582,-0.31909634587384034,1.9310558920577732,2.960430193978212,0.8885653614997864,0.31370866298675537,0.3347218632698059, 211, 146, 18, 175
1731649788835,9i,6.9863058954812365,1.6s : 0.4s,-1.71389794194819,0.05539781515590016,0.13211060613981954,0.04145305996560546,-0.14792846143245697,0.30313628911972046,-0.22809703648090363,-0.0054700374603271484,-0.036615848541259766,-0.018647104501724243,-0.31765751822651306,1.9313362189349017,2.9617847896715,0.8888928890228271,0.3123421370983124,0.33512982726097107, 211, 146, 18, 175
1731649788845,9i,6.9863058954812365,1.6s : 0.4s,-1.71389794194819,0.05532755630659476,0.154220405948319,0.03466319411783732,-0.1182466596364975,0.2934843599796295,-0.23381493985652924,-0.005416274070739746,-0.027503281831741333,-0.020390450954437256,-0.31628928680475915,1.9315489071231646,2.962753071077014,0.8892204761505127,0.31104207038879395,0.3354693651199341, 211, 146, 18, 175
1731649788855,9i,6.9863058954812365,1.6s : 0.4s,-1.71389794194819,0.05524253343050656,0.16949618719510812,0.028251857954730977,-0.10195610672235489,0.24540792405605316,-0.1949242651462555,-0.0001965165138244629,-0.022745996713638306,-0.01675555109977722,-0.31502488447678245,1.931646679732003,2.9634678024435614,0.8895552158355713,0.3098401427268982,0.3356949985027313, 211, 146, 18, 175
1731649788865,9i,6.9863058954812365,1.6s : 0.4s,-1.71389794194819,0.05512532091443631,0.1651973877477722,0.0378121090311654,-0.07701306790113449,0.16935425996780396,-0.12488972395658493,0.0007572174072265625,-0.03351700305938721,-0.017486929893493652,-0.313899870314053,1.9317304265205404,2.963961535075881,0.8898525834083557,0.3087702989578247,0.33589234948158264, 211, 146, 18, 175
1731649788875,9i,6.9863058954812365,1.6s : 0.4s,-1.71389794194819,0.0549291955259554,0.13349385645159764,0.05043206073918045,-0.043948326259851456,0.06999065726995468,-0.03352944552898407,-0.007140517234802246,-0.045362651348114014,-0.02084791660308838,-0.31295858730120985,1.9317397892221615,2.964252442142338,0.8901209235191345,0.307874858379364,0.3360031545162201, 211, 146, 18, 175
1731649788885,9i,6.9863058954812365,1.6s : 0.4s,-1.71389794194819,0.0547142554544644,0.0872161066001576,0.04866949884018515,-0.005018238443881273,-0.0034217804204672575,0.08451024442911148,-0.012349963188171387,-0.04092887043952942,-0.0232599675655365,-0.31213162573857345,1.931657400294341,2.9640848581962067,0.8903866410255432,0.3070879578590393,0.3360196650028229, 211, 146, 18, 175
1731649788895,9i,6.9863058954812365,1.6s : 0.4s,-1.71389794194819,0.05453089526124388,0.04559516160842859,0.03968745260304607,0.0315413698554039,-0.07261709123849869,0.15897196531295776,-0.008044898509979248,-0.021165668964385986,-0.03259429335594177,-0.31131082221596895,1.9315015930878876,2.963582440000832,0.8906744122505188,0.30630671977996826,0.3359697461128235, 211, 146, 18, 175
1731649788905,9i,6.9863058954812365,1.6s : 0.4s,-1.71389794194819,0.05437900313502787,0.04839740470733202,0.04012382293383419,0.07592527568340302,-0.09762080013751984,0.18779824674129486,-0.00027698278427124023,-0.018710076808929443,-0.03549334406852722,-0.31076697442061635,1.9313327574237527,2.962663214022523,0.8908868432044983,0.30578896403312683,0.33587807416915894, 211, 146, 18, 175
1731649788915,9i,6.9863058954812365,1.6s : 0.4s,-1.71389794194819,0.05423712969135177,0.07663842283708237,0.04993288184707331,0.09833098948001862,-0.09121590107679367,0.19572646915912628,-0.007619261741638184,-0.03379756212234497,-0.03595781326293945,-0.3104588268986682,1.9312687441560654,2.9615484626540067,0.8909963965415955,0.30549556016921997,0.3358542323112488, 211, 146, 18, 175
1731649788925,9i,6.9863058954812365,1.6s : 0.4s,-1.71389794194819,0.05411312608793452,0.09389954212106766,0.042118862373822785,0.10145574063062668,-0.06517782062292099,0.1673101931810379,-0.013915598392486572,-0.02794736623764038,-0.028271883726119995,-0.310324267146341,1.9313089226099762,2.960325404599488,0.8910214900970459,0.30536743998527527,0.3359045684337616, 211, 146, 18, 175
1731649788935,9i,6.9863058954812365,1.6s : 0.4s,-1.71389794194819,0.054021868101758054,0.09357076813072167,0.042195511031798714,0.05541687831282616,-0.032905105501413345,0.11904331296682358,-0.007874071598052979,-0.0213889479637146,-0.03551018238067627,-0.3102791704264462,1.9314810405726401,2.9593698215489868,0.8909764885902405,0.3053244948387146,0.33606278896331787, 211, 146, 18, 175
1731649788945,9i,6.9863058954812365,1.6s : 0.4s,-1.71389794194819,0.05395975644400982,0.08295573619189914,0.03689563845593155,0.012796844355762005,-0.00332492939196527,0.0892597958445549,-0.0016647577285766602,-0.01748219132423401,-0.032448261976242065,-0.3100864121212083,1.9318231375516297,2.9589823711823775,0.890916645526886,0.3051409423351288,0.33638837933540344, 211, 146, 18, 175
1731649788955,9i,6.9863058954812365,1.6s : 0.4s,-1.71389794194819,0.05392959764566821,0.06958655507822839,0.013780821668917883,0.03091086819767952,0.027050819247961044,0.05499236285686493,0.0021569132804870605,0.0003775060176849365,-0.013605743646621704,-0.30866945883227176,1.93163739370587,2.958505003440665,0.8913827538490295,0.30379125475883484,0.3363752067089081, 211, 146, 18, 175
1731649788965,9i,6.9863058954812365,1.6s : 0.4s,-1.71389794194819,0.05397507964167399,0.05818203230962739,0.03430906990659559,0.024555832147598267,0.040584027767181396,0.04172639176249504,0.0010933876037597656,0.01727062463760376,-0.029625028371810913,-0.30756281917986,1.9314504418360057,2.9579794303097207,0.8917595744132996,0.30273672938346863,0.3363269567489624, 211, 146, 18, 175
1731649788975,9i,6.9863058954812365,1.6s : 0.4s,-1.71389794194819,0.054102223800276565,0.05710018285066352,0.03591943763714761,0.06192504242062569,0.04290390387177467,0.04663592949509621,-0.008140981197357178,0.027978748083114624,-0.021002858877182007,-0.307038263512076,1.9309759948430458,2.957192932448386,0.8920674920082092,0.30223673582077026,0.3359597623348236, 211, 146, 18, 175
1731649788985,9i,6.9863058954812365,1.6s : 0.4s,-1.71389794194819,0.054296427988893184,0.05693901510896341,0.03824225860687949,0.06350968778133392,0.03203750029206276,0.05756264552474022,-0.008222460746765137,0.036900877952575684,-0.005760788917541504,-0.3065145206580662,1.9301285811209465,2.9561158107035967,0.8924998641014099,0.3017374575138092,0.33525925874710083, 211, 146, 18, 175
1731649788995,9i,6.9863058954812365,1.6s : 0.4s,-1.71389794194819,0.054548458711150064,0.057312660070856315,0.04128902883285562,0.06043347343802452,0.020338231697678566,0.06817667931318283,-0.013580143451690674,0.038987040519714355,0.0006117820739746094,-0.3054948448263464,1.929159524942523,2.9549678826685923,0.8931120038032532,0.30076515674591064,0.3345019817352295, 211, 146, 18, 175
1731649789005,9i,6.9863058954812365,1.6s : 0.4s,-1.71389794194819,0.05491828260083929,0.061198897470727605,0.056069698908341584,0.07135343551635742,-0.00048449099995195866,0.0912444069981575,-0.017606496810913086,0.0498882532119751,0.018573760986328125,-0.3045442730054366,1.9284129563663555,2.953851350163953,0.8936288952827454,0.2998584508895874,0.333935022354126, 211, 146, 18, 175
1731649789015,9i,6.9863058954812365,1.6s : 0.4s,-1.71389794194819,0.055436723901783946,0.060956753212889625,0.06800939096578491,0.03711077198386192,-0.007006838917732239,0.08105169236660004,-0.01021111011505127,0.06418773531913757,0.020023614168167114,-0.303790572152575,1.9275220273170852,2.9528141565319923,0.8941376805305481,0.2991393506526947,0.333217591047287, 211, 146, 18, 175
1731649789025,9i,6.9863058954812365,1.6s : 0.4s,-1.71389794194819,0.055978298553891484,0.059937523219264835,0.04823672448444491,0.010939888656139374,-0.0031435685232281685,0.08118325471878052,-0.013495922088623047,0.04528313875198364,0.009699434041976929,-0.30298992679082765,1.9268077793585499,2.9521692648193576,0.894599437713623,0.29837527871131897,0.3326621651649475, 211, 146, 18, 175
1731649789035,9i,6.9863058954812365,1.6s : 0.4s,-1.71389794194819,0.056533484680390475,0.058945113877531416,0.04372867484185912,-0.00671553798019886,-0.0025486182421445847,0.08724061399698257,-0.027468383312225342,0.03280997276306152,0.00901058316230774,-0.30235763541848953,1.926481102806231,2.9517827711019415,0.8948848843574524,0.29777172207832336,0.33243560791015625, 211, 146, 18, 175
1731649789045,9i,6.9863058954812365,1.6s : 0.4s,-1.71389794194819,0.057126567659321864,0.05751962380921692,0.047968167997519885,-0.027117149904370308,-0.006310777273029089,0.08456283807754517,-0.024953842163085938,0.04092302918434143,-0.0018858909606933594,-0.302074750014191,1.9258364973095359,2.951460491578962,0.8951779007911682,0.29750165343284607,0.3318879306316376, 211, 146, 18, 175
1731649789055,9i,6.9863058954812365,1.6s : 0.4s,-1.71389794194819,0.057741651355338056,0.0555424283102901,0.039678509826181416,-0.05017346516251564,-0.0013301335275173187,0.0763041079044342,-0.018475890159606934,0.03485599160194397,-0.004252701997756958,-0.3021004423347396,1.9255175282448767,2.9514480974863107,0.8952763080596924,0.29752618074417114,0.3315996527671814, 211, 146, 18, 175
1731649789065,9i,6.9863058954812365,1.6s : 0.4s,-1.71389794194819,0.0583482579032155,0.053365540239130406,0.027703298219249294,-0.05320620536804199,-0.0007545356638729572,0.06459369510412216,-0.0207061767578125,0.018289148807525635,-0.002057671546936035,-0.30236780296573595,1.9256532074208559,2.951726238770563,0.8951568603515625,0.29778143763542175,0.33169353008270264, 211, 146, 18, 175
1731649789075,9i,6.9863058954812365,1.6s : 0.4s,-1.71389794194819,0.05895034647449457,0.05216107202280292,0.026612714716329717,-0.067841075360775,-0.01465357281267643,0.07462023198604584,-0.018978357315063477,0.017015576362609863,-0.007650405168533325,-0.30301460903480265,1.9259927344253005,2.952184902016582,0.8948633074760437,0.29839882254600525,0.33193033933639526, 211, 146, 18, 175
1731649789085,9i,6.9863058954812365,1.6s : 0.4s,-1.71389794194819,0.059549539911014755,0.052471324482715104,0.027851758996863485,-0.05947362631559372,-0.026086967438459396,0.08019958436489105,-0.009332895278930664,0.026069074869155884,-0.0030034780502319336,-0.3043845766758251,1.9270471698036,2.952869348057775,0.8941290378570557,0.2997061014175415,0.3327309191226959, 211, 146, 18, 175
1731649789095,9i,6.9863058954812365,1.6s : 0.4s,-1.71389794194819,0.060157124093247194,0.0523607254338879,0.03614141456919202,-0.061063267290592194,-0.025051264092326164,0.06947902590036392,0.0025394558906555176,0.03520652651786804,-0.007762312889099121,-0.30608307254660083,1.9278589512671154,2.9534467174471497,0.8933804035186768,0.30132609605789185,0.33327823877334595, 211, 146, 18, 175
1731649789104,9i,6.9863058954812365,1.6s : 0.4s,-1.71389794194819,0.0607671328614981,0.05383947893228904,0.030668530624344433,-0.08658467233181,-0.02484007552266121,0.06548438966274261,0.0015807747840881348,0.023270756006240845,-0.01991310715675354,-0.30699885494430235,1.9282800744171449,2.9540783926839156,0.8929809331893921,0.30219918489456177,0.33355769515037537, 211, 146, 18, 175
1731649789114,9i,6.9863058954812365,1.6s : 0.4s,-1.71389794194819,0.06136323203629315,0.054074801483615605,0.026415211652275696,-0.08400166779756546,-0.02538868598639965,0.051449794322252274,-0.0041484832763671875,0.007736325263977051,-0.024913907051086426,-0.30754423438884015,1.9289383956608943,2.954943297364027,0.892606794834137,0.30271899700164795,0.33408769965171814, 211, 146, 18, 175
1731649789124,9i,6.9863058954812365,1.6s : 0.4s,-1.71389794194819,0.06193725869960844,0.053718177975670495,0.02727234456775688,-0.09244488924741745,-0.024633945897221565,0.032339513301849365,0.0014411211013793945,0.003889918327331543,-0.026955008506774902,-0.30850623723733317,1.9290489569473899,2.9556830386922157,0.8922966718673706,0.30363574624061584,0.33408409357070923, 211, 146, 18, 175
1731649789134,9i,6.9863058954812365,1.6s : 0.4s,-1.71389794194819,0.06247191741678121,0.055048918206126785,0.029823344009640224,-0.10732077807188034,-0.020951326936483383,0.026339147239923477,0.002950727939605713,-0.00772172212600708,-0.02865484356880188,-0.3091305208711899,1.9290619757706933,2.956566426527121,0.8921144604682922,0.3042304813861847,0.3340291380882263, 211, 146, 18, 175
1731649789144,9i,6.9863058954812365,1.6s : 0.4s,-1.71389794194819,0.06295500676364305,0.05441566594074491,0.032799868645181446,-0.09145312756299973,-0.013240765780210495,0.008232714608311653,0.0013713836669921875,-0.017264485359191895,-0.02785477042198181,-0.3092970743042527,1.9292626515612112,2.9574984479272346,0.8920003175735474,0.3043891489505768,0.3341905176639557, 211, 146, 18, 175
1731649789154,9i,6.9863058954812365,1.6s : 0.4s,-1.71389794194819,0.06339078764753436,0.053596882770243784,0.04182199912494689,-0.07902947813272476,-0.021293099969625473,0.008953898213803768,0.0007950663566589355,-0.022689342498779297,-0.035123229026794434,-0.30946564087320577,1.9292203624562214,2.9582476859230105,0.8919661641120911,0.3045496940612793,0.33413469791412354, 211, 146, 18, 175
1731649789164,9i,6.9863058954812365,1.6s : 0.4s,-1.71389794194819,0.06377775966591905,0.05339965224830281,0.029233774981109,-0.06558831036090851,-0.039813876152038574,0.0300624780356884,0.001421213150024414,-0.01817852258682251,-0.02285027503967285,-0.3097600527728969,1.929061874667638,2.958902366552273,0.8919351696968079,0.3048301041126251,0.3339618742465973, 211, 146, 18, 175
1731649789174,9i,6.9863058954812365,1.6s : 0.4s,-1.71389794194819,0.06412319141900638,0.04797944594451388,0.0059827850557432494,0.002304455963894725,-0.0342036634683609,0.04000991955399513,0.0056414008140563965,0.0016838610172271729,0.001064389944076538,-0.3103576669336659,1.9283932563447967,2.958947846508627,0.8919873237609863,0.30539923906326294,0.3333016037940979, 211, 146, 18, 175
1731649789184,9i,6.9863058954812365,1.6s : 0.4s,-1.71389794194819,0.06447101029803748,0.04358637046563504,0.01871519275346667,0.020127328112721443,-0.026810992509126663,0.03594483807682991,0.001257479190826416,0.012759894132614136,-0.013633131980895996,-0.31076025868400803,1.927299307502625,2.958445271279954,0.8922361731529236,0.3057825565338135,0.332282692193985, 211, 146, 18, 175
1731649789194,9i,6.9863058954812365,1.6s : 0.4s,-1.71389794194819,0.06481372795581135,0.03992153448085445,0.024241781023637738,0.04770356044173241,-0.02829677239060402,0.04080084711313248,-0.012793004512786865,-0.0032106339931488037,-0.020339488983154297,-0.31080268875255085,1.9261674623468596,2.9577906585054574,0.8925995230674744,0.3058229684829712,0.3312680721282959, 211, 146, 18, 175
1731649789204,9i,6.9863058954812365,1.6s : 0.4s,-1.71389794194819,0.06513233305498349,0.03676316554440979,0.017464448272292737,0.05768755450844765,-0.033695973455905914,0.03611624240875244,-0.012620329856872559,-0.007261842489242554,-0.009643644094467163,-0.31079468672509175,1.9248510474970468,2.956859719641347,0.8930373191833496,0.30581533908843994,0.3300936818122864, 211, 146, 18, 175
1731649789214,9i,6.9863058954812365,1.6s : 0.4s,-1.71389794194819,0.06544576330866697,0.0336256223388901,0.017018046487552084,0.06476117670536041,-0.023907525464892387,0.03231404721736908,-0.004470169544219971,0.0018225014209747314,-0.01631900668144226,-0.310436471543964,1.9235015785693506,2.955880124906032,0.893584668636322,0.30547428131103516,0.32892605662345886, 211, 146, 18, 175
1731649789224,9i,6.9863058954812365,1.6s : 0.4s,-1.71389794194819,0.06576409216036366,0.0309375445672637,0.023018807032808536,0.058561138808727264,-0.013920582830905914,0.01847509853541851,-0.009512066841125488,0.0016283690929412842,-0.02089819312095642,-0.30993529759632893,1.9223858331661015,2.9549458187967144,0.894094705581665,0.3049970269203186,0.32798153162002563, 211, 146, 18, 175
1731649789234,9i,6.9863058954812365,1.6s : 0.4s,-1.71389794194819,0.06607281493891874,0.029060937433335283,0.03166169897113721,0.04577183723449707,-0.016391996294260025,0.01625828444957733,-0.018681466579437256,-0.012463361024856567,-0.02231884002685547,-0.309350748106245,1.921176043587456,2.95409951763667,0.894658088684082,0.3044402599334717,0.3269607424736023, 211, 146, 18, 175
1731649789244,9i,6.9863058954812365,1.6s : 0.4s,-1.71389794194819,0.06637234869303761,0.028192405964954204,0.022309817874226662,0.05702629312872887,-0.017644569277763367,0.022976741194725037,-0.016506314277648926,-0.005818963050842285,-0.01383507251739502,-0.3088310516014213,1.920348352248959,2.9533957764978727,0.8950768709182739,0.3039452135562897,0.32627424597740173, 211, 146, 18, 175
1731649789254,9i,6.9863058954812365,1.6s : 0.4s,-1.71389794194819,0.06667699607579991,0.027751400326619893,0.017359110846289563,0.05554664134979248,-0.017265334725379944,0.01987016387283802,-0.009649157524108887,0.006068915128707886,-0.013092011213302612,-0.30886178261599667,1.9201525579185124,2.952785956464174,0.8951320648193359,0.3039744794368744,0.3260958194732666, 211, 146, 18, 175
1731649789264,9i,6.9863058954812365,1.6s : 0.4s,-1.71389794194819,0.06700288995546734,0.027737555638753127,0.025528596707059932,0.05708181485533714,-0.004960021935403347,0.02587299421429634,-0.012537479400634766,0.009411364793777466,-0.020148128271102905,-0.30919730303339205,1.9197045220345477,2.9520998463411874,0.8951822519302368,0.3042941093444824,0.3256598711013794, 211, 146, 18, 175
1731649789274,9i,6.9863058954812365,1.6s : 0.4s,-1.71389794194819,0.06733915061744102,0.027397038731387727,0.023584428581834495,0.04344882816076279,-0.0069605885073542595,0.019345318898558617,-0.01722109317779541,0.005332589149475098,-0.015206009149551392,-0.30926625184827183,1.9192712625468815,2.9514346225405,0.8953032493591309,0.3043597936630249,0.32526475191116333, 211, 146, 18, 175
1731649789284,9i,6.9863058954812365,1.6s : 0.4s,-1.71389794194819,0.06765956626856372,0.02722905944091809,0.01946198157958906,0.025580350309610367,-0.015848267823457718,0.025463799014687538,-0.015974044799804688,-0.005286484956741333,-0.009780168533325195,-0.30916905766843905,1.9190624733111874,2.951039978915927,0.8953991532325745,0.30426719784736633,0.3250879645347595, 211, 146, 18, 175
1731649789294,9i,6.9863058954812365,1.6s : 0.4s,-1.71389794194819,0.06797755016804133,0.02823821027288208,0.020213014819909905,0.04299795627593994,-0.012223705649375916,0.03858226537704468,-0.018276333808898926,0.008590251207351685,0.000865548849105835,-0.30908211503672306,1.9185808580451935,2.950548709851392,0.8955802917480469,0.3041843771934509,0.3246656358242035, 211, 146, 18, 175
1731649789304,9i,6.9863058954812365,1.6s : 0.4s,-1.71389794194819,0.06832251178688577,0.029060269305387434,0.03207899592888211,0.0459810271859169,-0.017267022281885147,0.03088190034031868,-0.020536363124847412,0.02464357018470764,0.00011923909187316895,-0.30909707562106065,1.9179506634753065,2.9498904725236037,0.895780622959137,0.30419862270355225,0.32409971952438354, 211, 146, 18, 175
1731649789314,9i,6.9863058954812365,1.6s : 0.4s,-1.71389794194819,0.06869763538316188,0.030130585044452013,0.03374835638698471,0.04574454203248024,-0.017910707741975784,0.0363570936024189,-0.026715755462646484,0.019123196601867676,-0.007715135812759399,-0.30882134548415435,1.9173473006506518,2.949277695840302,0.8960549831390381,0.3039359450340271,0.32358768582344055, 211, 146, 18, 175
1731649789324,9i,6.9863058954812365,1.6s : 0.4s,-1.71389794194819,0.06909267700859065,0.03152138139152748,0.03299528467880034,0.05207447335124016,-0.019194794818758965,0.035684045404195786,-0.028378963470458984,0.016236603260040283,-0.0044380128383636475,-0.30866387165560866,1.9168733130649194,2.948651244106467,0.8962529301643372,0.30378592014312744,0.3231790363788605, 211, 146, 18, 175
1731649789334,9i,6.9863058954812365,1.6s : 0.4s,-1.71389794194819,0.0695006811275199,0.034402063573930136,0.03171138406110826,0.06581558287143707,-0.009594099596142769,0.03536286950111389,-0.028731048107147217,0.012441068887710571,-0.005035728216171265,-0.30869190397225366,1.9164197313825881,2.947927193955639,0.8963916897773743,0.3038126230239868,0.3227697014808655, 211, 146, 18, 175
1731649789344,9i,6.9863058954812365,1.6s : 0.4s,-1.71389794194819,0.0699255535901434,0.0399876198905231,0.035216501284590446,0.08579328656196594,-0.0025021019391715527,0.02403644658625126,-0.032232463359832764,0.01289549469947815,-0.005914092063903809,-0.30890360050971016,1.915925992553124,2.946971692336811,0.8964903354644775,0.30401432514190674,0.32230526208877563, 211, 146, 18, 175
1731649789354,9i,6.9863058954812365,1.6s : 0.4s,-1.71389794194819,0.0703553865615752,0.047810878341000645,0.034751758375510124,0.09961775690317154,-0.000545477494597435,0.024190643802285194,-0.03367459774017334,0.008234173059463501,-0.0024299323558807373,-0.30916766107933974,1.9155251088081344,2.945971045792161,0.8965439796447754,0.3042658567428589,0.3219187557697296, 211, 146, 18, 175
1731649789364,9i,6.9863058954812365,1.6s : 0.4s,-1.71389794194819,0.07078545630206343,0.05616879943629513,0.03473471245439942,0.11520284414291382,0.01651419885456562,0.017152441665530205,-0.030753493309020996,0.014408677816390991,0.007287859916687012,-0.30934942049557423,1.9152417896369223,2.9447904710814576,0.8965830206871033,0.3044390082359314,0.3216460347175598, 211, 146, 18, 175
1731649789374,9i,6.9863058954812365,1.6s : 0.4s,-1.71389794194819,0.07123718249881673,0.05993797860686851,0.0400119144689022,0.11148001253604889,0.0368996299803257,-0.018300624564290047,-0.028090596199035645,0.027865558862686157,0.005948305130004883,-0.3098955565576728,1.9153009583290466,2.9437058673557406,0.8964072465896606,0.30495917797088623,0.32164284586906433, 211, 146, 18, 175
1731649789384,9i,6.9863058954812365,1.6s : 0.4s,-1.71389794194819,0.07173644019786933,0.06479603462701404,0.05133981220736348,0.09886115044355392,0.0771503821015358,-0.07831122726202011,-0.031347453594207764,0.038133859634399414,0.014103978872299194,-0.31113033602411677,1.915741385588725,2.942877879915727,0.8959103226661682,0.3061349093914032,0.32190999388694763, 211, 146, 18, 175
1731649789394,9i,6.9863058954812365,1.6s : 0.4s,-1.71389794194819,0.07244694700133276,0.0778264007853153,0.07177526713352478,0.06039099395275116,0.1305622160434723,-0.15724119544029236,-0.033863067626953125,0.06240934133529663,0.010490745306015015,-0.3128953045907981,1.916675477263037,2.942478675429292,0.8950995802879333,0.30781465768814087,0.3225630521774292, 211, 146, 18, 175
1731649789404,9i,6.9863058954812365,1.6s : 0.4s,-1.71389794194819,0.07363760287359114,0.11660609354214144,0.12897856593898682,3.404449671506882e-05,0.23823247849941254,-0.26385533809661865,-0.03342759609222412,0.12452387809753418,0.0034452974796295166,-0.3151777186872502,1.9186618299286324,2.9429258212298914,0.8937945365905762,0.3099854290485382,0.324100136756897, 211, 146, 18, 175
1731649789414,9i,6.9863058954812365,1.6s : 0.4s,-1.71389794194819,0.07530123312660915,0.20369798652682278,0.14717355114691358,-0.024263504892587662,0.394400954246521,-0.4833022952079773,-0.04350072145462036,0.14058652520179749,-0.0017805397510528564,-0.31858711340654516,1.922291184956233,2.944432383304764,0.8916146755218506,0.3132250905036926,0.3269760012626648, 211, 146, 18, 175
1731649789424,9i,6.9863058954812365,1.6s : 0.4s,-1.71389794194819,0.07702547264439709,0.35671708957671877,0.11212923030483268,0.3161364793777466,0.5077943801879883,-0.8983784317970276,-0.06788301467895508,0.08888846635818481,0.007981300354003906,-0.3256181317944077,1.9270379091615006,2.9459522219815484,0.8879666924476624,0.3198944926261902,0.3304283618927002, 211, 146, 18, 175
1731649789434,9i,6.9863058954812365,1.6s : 0.4s,-1.71389794194819,0.07887999919645496,0.48957236248050306,0.19263487416168465,0.003486167173832655,0.7426822185516357,-0.9523348808288574,-0.11543291807174683,0.12245473265647888,0.09374579787254333,-0.33502580639145463,1.934030352924927,2.947269623818832,0.8827823996543884,0.32879355549812317,0.33554524183273315, 211, 146, 18, 175
1731649789444,9i,6.9863058954812365,1.6s : 0.4s,-1.71389794194819,0.0818754729787829,0.6058671796236746,0.4229936961124698,0.24101689457893372,0.73588627576828,-1.055586338043213,-0.08876454830169678,0.37658563256263733,0.17096135020256042,-0.3446437178568277,1.9425296612800156,2.9509392413836184,0.876911461353302,0.3378613591194153,0.3418714702129364, 211, 146, 18, 175
1731649789454,9i,6.9863058954812365,1.6s : 0.4s,-1.71389794194819,0.08712230559134697,0.7819845712937892,0.7530468276691101,1.2299386262893677,0.7860988974571228,-1.260231614112854,0.03308051824569702,0.7107287645339966,0.24667757749557495,-0.35784923109646755,1.9492356357461245,2.9479847140797144,0.8703770041465759,0.35026052594184875,0.3460655212402344, 211, 146, 18, 175
1731649789464,9i,6.9863058954812365,1.6s : 0.4s,-1.71389794194819,0.09557802617432747,1.0324138907687037,0.8755797080599383,1.7269800901412964,0.8213784694671631,-1.607730507850647,0.03502470254898071,0.8643008470535278,0.13563606142997742,-0.37675759486149696,1.9538245660769404,2.9389333463545606,0.862481951713562,0.36790740489959717,0.3475184142589569, 211, 146, 18, 175
1731649789474,9i,6.9863058954812365,1.6s : 0.4s,-1.71389794194819,0.10803478129836998,1.3604850477282875,1.0859423471816534,2.400031805038452,0.9931262731552124,-1.9159506559371948,-0.07998043298721313,1.064024806022644,0.20180466771125793,-0.4006818224286984,1.9578772828069282,2.9255772707421994,0.852670431137085,0.39004623889923096,0.34758830070495605, 211, 146, 18, 175
1731649789484,9i,6.9863058954812365,1.6s : 0.4s,-1.71389794194819,0.12444659644100446,1.7263685338284882,1.247030382723947,2.933533191680908,1.1702848672866821,-2.239811897277832,-0.19874215126037598,1.1832356452941895,0.3399113714694977,-0.4300911827763928,1.9612266709116157,2.9070892868700255,0.8405269384384155,0.4169536828994751,0.3459256589412689, 211, 146, 18, 175
1731649789494,9i,6.9863058954812365,1.6s : 0.4s,-1.71389794194819,0.14433930857366792,2.1124938423317094,1.3075979186881204,3.501176357269287,1.2840502262115479,-2.533707857131958,-0.2914050817489624,1.22367262840271,0.35710039734840393,-0.46427562441841397,1.9637041905276806,2.8844107128071954,0.8260121941566467,0.4477752149105072,0.34234750270843506, 211, 146, 18, 175
1731649789504,9i,6.9863058954812365,1.6s : 0.4s,-1.71389794194819,0.1673602714277109,2.477609636076005,1.3987032894018798,3.8649215698242188,1.4337468147277832,-2.773590087890625,-0.3975095748901367,1.2821155786514282,0.39311152696609497,-0.5030042029586657,1.964662676027406,2.8571126462643726,0.8090542554855347,0.4820598065853119,0.3362281918525696, 211, 146, 18, 175
1731649789514,9i,6.9863058954812365,1.6s : 0.4s,-1.71389794194819,0.1930445400146824,2.821718102640826,1.467624499357348,4.142637729644775,1.60718834400177,-3.0721733570098877,-0.5457891225814819,1.3003835678100586,0.4062492847442627,-0.5451965279428357,1.9649718478239744,2.8272466225112667,0.7894567251205444,0.5185861587524414,0.3283700942993164, 211, 146, 18, 175
1731649789524,9i,6.9863058954812365,1.6s : 0.4s,-1.71389794194819,0.22114673049185143,3.156709060018724,1.5496688022498801,4.31687068939209,1.8032673597335815,-3.5467848777770996,-0.6870374083518982,1.3360519409179688,0.3800239562988281,-0.5918893642093869,1.9651189424166067,2.7956861474307613,0.7662000060081482,0.5579299926757812,0.3188287913799286, 211, 146, 18, 175
1731649789534,9i,6.9863058954812365,1.6s : 0.4s,-1.71389794194819,0.25147909020980586,3.4799727165384695,1.6249032285471394,4.374098300933838,1.9572426080703735,-4.127805709838867,-0.8003746867179871,1.3813207149505615,0.3027605414390564,-0.6439622705628268,1.96582203099513,2.7643424942261468,0.7381342649459839,0.600368857383728,0.307759165763855, 211, 146, 18, 175
1731649789544,9i,6.9863058954812365,1.6s : 0.4s,-1.71389794194819,0.28438474670016856,3.787680016254875,1.7645175154229533,4.393405914306641,2.022442102432251,-4.697888374328613,-0.8385820984840393,1.5235435962677002,0.29852476716041565,-0.7014693721486828,1.967211846981763,2.734412839152391,0.7046557664871216,0.6453408002853394,0.29495084285736084, 211, 146, 18, 175
1731649789554,9i,6.9863058954812365,1.6s : 0.4s,-1.71389794194819,0.3202310759893463,4.102087596375272,1.9083593721691738,4.6126227378845215,2.0008482933044434,-5.19630765914917,-0.7513238191604614,1.7339520454406738,0.266004353761673,-0.7643574930524304,1.9673436504535153,2.7043211070520994,0.6658136248588562,0.6920733451843262,0.27879565954208374, 211, 146, 18, 175
1731649789564,9i,6.9863058954812365,1.6s : 0.4s,-1.71389794194819,0.35871633576454054,4.410253573449708,1.995381168482118,4.814783096313477,1.845056414604187,-5.677853107452393,-0.5537521839141846,1.90367591381073,0.22566023468971252,-0.8326408564360029,1.9633848206967475,2.6717324701647067,0.6217301487922668,0.7397110462188721,0.2574484944343567, 211, 146, 18, 175
1731649789574,9i,6.9863058954812365,1.6s : 0.4s,-1.71389794194819,0.3993786450433653,4.687575035667739,2.079199561511844,4.855071067810059,1.6628738641738892,-6.113772392272949,-0.33076804876327515,2.0396623611450195,0.2311725914478302,-0.9054580647313105,1.9544331109650028,2.6369305509839696,0.5724520087242126,0.7867079973220825,0.2310621440410614, 211, 146, 18, 175
1731649789584,9i,6.9863058954812365,1.6s : 0.4s,-1.71389794194819,0.44193056290680677,4.946783441662702,2.181759623967472,4.925327301025391,1.4280593395233154,-6.539577484130859,-0.1287880539894104,2.158386707305908,0.2912997007369995,-0.9827587257640845,1.9396742142078898,2.5994183746383324,0.5174140930175781,0.8320308923721313,0.20001821219921112, 211, 146, 18, 175
1731649789594,9i,6.9863058954812365,1.6s : 0.4s,-1.71389794194819,0.48558416933203474,5.180731240962332,2.1898311108338,4.838057041168213,1.1634724140167236,-6.99357271194458,0.04678148031234741,2.1593403816223145,0.36113834381103516,-1.0631859690137966,1.9165539715438193,2.557178104745927,0.4573231041431427,0.8739085793495178,0.16474071145057678, 211, 146, 18, 175
1731649789604,9i,6.9863058954812365,1.6s : 0.4s,-1.71389794194819,0.5296403588354973,5.394767244337117,2.16465425390238,4.7510809898376465,0.9952099919319153,-7.377674102783203,0.18985536694526672,2.1191184520721436,0.39877307415008545,-1.146671338472161,1.8835114271366988,2.5083168994446834,0.3915655016899109,0.9113991856575012,0.126602441072464, 211, 146, 18, 175
1731649789614,9i,6.9863058954812365,1.6s : 0.4s,-1.71389794194819,0.5741558008651922,5.616304915877523,2.215800087813074,4.860898494720459,0.8423280715942383,-7.736323356628418,0.31208252906799316,2.150092601776123,0.43528878688812256,-1.2325464017173569,1.8313260201828794,2.4424068558447454,0.3206383287906647,0.9433368444442749,0.08547858893871307, 211, 146, 18, 175
1731649789624,9i,6.9863058954812365,1.6s : 0.4s,-1.71389794194819,0.6192196458713484,5.847121586410688,2.2727166671132992,4.971485137939453,0.6906973719596863,-8.11803913116455,0.43334394693374634,2.184553861618042,0.4529663324356079,-1.3204537360777295,1.7353383034061989,2.3344813143247904,0.24439041316509247,0.9688276052474976,0.040579359978437424, 211, 146, 18, 175
1731649789634,9i,6.9863058954812365,1.6s : 0.4s,-1.71389794194819,0.6647424228084505,6.062047631353014,2.3134860272530595,4.886678695678711,0.656733512878418,-8.47547435760498,0.5677304267883301,2.1906750202178955,0.4804609417915344,-1.406730197896573,1.5322526630668676,2.1204582357531208,0.16321131587028503,0.9865713119506836,-0.006293879356235266, 211, 146, 18, 175
1731649789644,9i,6.9863058954812365,1.6s : 0.4s,-1.71389794194819,0.7109548051664494,6.239164155344619,2.408725527581704,4.721959114074707,0.6418770551681519,-8.7183256149292,0.7171043157577515,2.2335407733917236,0.546823263168335,-1.476150393047439,0.9759826792636497,1.553804025973437,0.07827522605657578,0.9955244064331055,-0.052957095205783844, 211, 146, 18, 175
1731649789653,9i,6.9863058954812365,1.6s : 0.4s,-1.71389794194819,0.7581168553673213,6.412393434499057,2.537143960012532,4.638131618499756,0.4892827272415161,-9.05095386505127,0.8957112431526184,2.276638984680176,0.6720980405807495,-1.4708877193952126,-0.09780792328150578,0.4702921440463419,-0.00974024273455143,0.9950132966041565,-0.09926765412092209, 211, 146, 18, 175
1731649789663,9i,6.9863058954812365,1.6s : 0.4s,-1.71389794194819,0.8060378788579681,6.5495108963127855,2.6220329043206143,4.605221271514893,0.41331756114959717,-9.150433540344238,1.1063477993011475,2.2661092281341553,0.7181922197341919,-1.394158867334053,-0.6003332311014566,-0.04084419719291293,-0.09926779568195343,0.9844401478767395,-0.14499562978744507, 211, 146, 18, 175
1731649789673,9i,6.9863058954812365,1.6s : 0.4s,-1.71389794194819,0.8547419170250662,6.663887965129991,2.724724395814982,4.6576762199401855,0.2618374824523926,-9.226144790649414,1.318475365638733,2.2685093879699707,0.7345821261405945,-1.2997273232641215,-0.7791540560109272,-0.22721972917091746,-0.18815010786056519,0.9634851813316345,-0.19051456451416016, 211, 146, 18, 175
1731649789683,9i,6.9863058954812365,1.6s : 0.4s,-1.71389794194819,0.9042294287227224,6.789512853475309,2.819949377786022,5.195709705352783,0.16488005220890045,-9.192817687988281,1.4958267211914062,2.2370009422302246,0.8428782224655151,-1.198562209552686,-0.8563500513419326,-0.3110789049198228,-0.2747575044631958,0.9315171241760254,-0.2382943034172058, 211, 146, 18, 175
1731649789693,9i,6.9863058954812365,1.6s : 0.4s,-1.71389794194819,0.9542747600114625,6.8629410269031235,2.8361058668055175,4.9372148513793945,-0.1914282590150833,-9.259465217590332,1.6025294065475464,2.1672565937042236,0.8822668790817261,-1.0952953236732086,-0.9011013721057972,-0.3594343386363572,-0.35890763998031616,0.8890634775161743,-0.28416791558265686, 211, 146, 18, 175
1731649789703,9i,6.9863058954812365,1.6s : 0.4s,-1.71389794194819,1.0048381231026018,6.878112710238513,2.8746256691900074,4.9322686195373535,-0.5633624792098999,-9.0518217086792,1.6971242427825928,2.1033005714416504,0.9794737100601196,-0.9928231976396583,-0.9333455997931064,-0.3919900596418822,-0.4390372335910797,0.8375716805458069,-0.3251460790634155, 211, 146, 18, 175
1731649789713,9i,6.9863058954812365,1.6s : 0.4s,-1.71389794194819,1.054933388682692,6.8594856938165725,2.8579728600371492,4.884196758270264,-0.9489557147026062,-8.890024185180664,1.8881134986877441,1.9034650325775146,0.9898773431777954,-0.891537061718743,-0.9584187643619373,-0.4132362558559557,-0.5140596032142639,0.7780382633209229,-0.3611082434654236, 211, 146, 18, 175
1731649789723,9i,6.9863058954812365,1.6s : 0.4s,-1.71389794194819,1.1043718990099594,6.811691513596193,2.863910969970451,4.875494956970215,-1.237182378768921,-8.66260814666748,2.0441763401031494,1.7866873741149902,0.9116344451904297,-0.7916260640910929,-0.9799432725003077,-0.42693317044946144,-0.5835594534873962,0.7114968299865723,-0.39144688844680786, 211, 146, 18, 175
1731649789733,9i,6.9863058954812365,1.6s : 0.4s,-1.71389794194819,1.1541055277207497,6.724320364006991,2.9046082861190645,4.748754024505615,-1.4305555820465088,-8.38896369934082,2.07369065284729,1.8301422595977783,0.8872066736221313,-0.6941161667217333,-0.9992513290040352,-0.43520680877953444,-0.6464598774909973,0.6397063732147217,-0.4157709777355194, 211, 146, 18, 175
1731649789743,9i,6.9863058954812365,1.6s : 0.4s,-1.71389794194819,1.2042082094305615,6.600181825947476,2.866071265826047,4.396423816680908,-1.6096709966659546,-8.186247825622559,2.0520265102386475,1.7907403707504272,0.8926368951797485,-0.5997713136680007,-1.0185031000748304,-0.441446386566712,-0.7027376294136047,0.5644537210464478,-0.4330725371837616, 211, 146, 18, 175
1731649789753,9i,6.9863058954812365,1.6s : 0.4s,-1.71389794194819,1.2538765568997654,6.448084310865679,2.7508828002522945,4.032870292663574,-1.7343984842300415,-7.977954387664795,2.0299460887908936,1.6346250772476196,0.8801567554473877,-0.5089168283618399,-1.038671324637185,-0.44751954566855123,-0.7525261044502258,0.48723164200782776,-0.44306862354278564, 211, 146, 18, 175
1731649789763,9i,6.9863058954812365,1.6s : 0.4s,-1.71389794194819,1.3024448456006692,6.243970935418089,2.643347874651934,3.643606185913086,-1.8205267190933228,-7.598388195037842,2.0274674892425537,1.4694980382919312,0.846899688243866,-0.422407552284799,-1.059160980788081,-0.45335611199047826,-0.7953051328659058,0.4099575877189636,-0.44656994938850403, 211, 146, 18, 175
1731649789773,9i,6.9863058954812365,1.6s : 0.4s,-1.71389794194819,1.3500308202281344,6.039145714722354,2.5926954848577117,3.2689783573150635,-1.9921424388885498,-7.388760089874268,2.0251221656799316,1.3991212844848633,0.8144996762275696,-0.34022300422549423,-1.0804292198956278,-0.45892088553784227,-0.8315949440002441,0.3336973190307617,-0.44395509362220764, 211, 146, 18, 175
1731649789783,9i,6.9863058954812365,1.6s : 0.4s,-1.71389794194819,1.3964988584527103,5.8054307265039515,2.5161958252611596,2.7818496227264404,-2.040926694869995,-7.083962440490723,2.0012197494506836,1.2977756261825562,0.8013359904289246,-0.26211557319620027,-1.102713511606472,-0.46547606857286633,-0.8619529604911804,0.2591244578361511,-0.43576580286026, 211, 146, 18, 175
1731649789793,9i,6.9863058954812365,1.6s : 0.4s,-1.71389794194819,1.4413259800558866,5.558859347788798,2.3767490815542107,2.388721227645874,-2.0919172763824463,-6.761439800262451,1.9478123188018799,1.1602234840393066,0.7133336067199707,-0.18873437832718112,-1.125030609617934,-0.47256891599966655,-0.8862586617469788,0.18761590123176575,-0.42349281907081604, 211, 146, 18, 175
1731649789803,9i,6.9863058954812365,1.6s : 0.4s,-1.71389794194819,1.483981912600687,5.312827514953536,2.2400592500191587,2.1650819778442383,-2.1054763793945312,-6.420469284057617,1.9094078540802002,1.0015431642532349,0.6074029803276062,-0.11945302540912234,-1.147087217421973,-0.4794008983386149,-0.905074417591095,0.11916914582252502,-0.40821459889411926, 211, 146, 18, 175
1731649789813,9i,6.9863058954812365,1.6s : 0.4s,-1.71389794194819,1.5244513042716914,5.066887496138061,2.1281202404688466,1.9066925048828125,-2.142664670944214,-6.085327625274658,1.8564136028289795,0.9050230979919434,0.5133785009384155,-0.054140310342192285,-1.1688670764853435,-0.4854079258417355,-0.9189595580101013,0.05411386489868164,-0.3906213939189911, 211, 146, 18, 175
1731649789823,9i,6.9863058954812365,1.6s : 0.4s,-1.71389794194819,1.5631264207152353,4.8024308438625205,2.043636291694202,1.592044711112976,-2.1173696517944336,-5.6821746826171875,1.7891662120819092,0.8691006898880005,0.4690389633178711,0.006872341024670037,-1.1902729020944933,-0.49133749686079753,-0.928448498249054,-0.006872287020087242,-0.3713977634906769, 211, 146, 18, 175
1731649789833,9i,6.9863058954812365,1.6s : 0.4s,-1.71389794194819,1.5997892017351463,4.541621327321585,1.940079515852724,1.2896279096603394,-2.1514954566955566,-5.338906764984131,1.7333422899246216,0.7466000914573669,0.44946783781051636,0.06329273364711817,-1.2113697811478015,-0.49744850883215463,-0.9342243075370789,-0.06325048208236694,-0.35103318095207214, 211, 146, 18, 175
1731649789843,9i,6.9863058954812365,1.6s : 0.4s,-1.71389794194819,1.6337783728266926,4.27550003976393,1.8285232141345575,0.9949343204498291,-2.166261672973633,-4.944301128387451,1.699190378189087,0.5388462543487549,0.40730077028274536,0.11547296637951743,-1.2323765596745826,-0.5039712227557627,-0.9369986653327942,-0.11521651595830917,-0.32978594303131104, 211, 146, 18, 175
1731649789853,9i,6.9863058954812365,1.6s : 0.4s,-1.71389794194819,1.6646438895608506,3.9943696432258573,1.7306608156173477,0.7103800773620605,-2.167785406112671,-4.476762771606445,1.6643198728561401,0.3404681086540222,0.33061712980270386,0.16268751442255913,-1.252976867459246,-0.5108725371314906,-0.9373759627342224,-0.1619708091020584,-0.30836963653564453, 211, 146, 18, 175
1731649789863,9i,6.9863058954812365,1.6s : 0.4s,-1.71389794194819,1.692488371949488,3.709047580812079,1.6784083645386614,0.524791955947876,-2.1957318782806396,-3.9946234226226807,1.643593668937683,0.1977412849664688,0.27668190002441406,0.20478491396025802,-1.2734366337536023,-0.5175982932188395,-0.9361352920532227,-0.2033565789461136,-0.28687459230422974, 211, 146, 18, 175
1731649789873,9i,6.9863058954812365,1.6s : 0.4s,-1.71389794194819,1.717532928058436,3.4359930642985583,1.6469703790323964,0.43781578540802,-2.215562105178833,-3.5673415660858154,1.6271178722381592,0.06935521960258484,0.24533388018608093,0.24221849211525137,-1.2941532701915088,-0.5235998534282078,-0.9338959455490112,-0.23985694348812103,-0.26515480875968933, 211, 146, 18, 175
1731649789883,9i,6.9863058954812365,1.6s : 0.4s,-1.71389794194819,1.7397438730906705,3.169582261907856,1.600399523445386,0.2936508059501648,-2.1300127506256104,-3.1854984760284424,1.5804662704467773,-0.08542299270629883,0.23687109351158142,0.27542205717671064,-1.3145922584458132,-0.5287166316891145,-0.9308996200561523,-0.27195310592651367,-0.2438594549894333, 211, 146, 18, 175
1731649789893,9i,6.9863058954812365,1.6s : 0.4s,-1.71389794194819,1.7590567224947986,2.8933147512018946,1.529780013382762,0.08567924052476883,-1.9612821340560913,-2.772416353225708,1.491100549697876,-0.23354792594909668,0.24960249662399292,0.30445922081493343,-1.3334908895628692,-0.5340763034097553,-0.9272732138633728,-0.2997772991657257,-0.2242727428674698, 211, 146, 18, 175
1731649789903,9i,6.9863058954812365,1.6s : 0.4s,-1.71389794194819,1.775780942847267,2.6092220796671852,1.470781463379672,-0.08129163086414337,-1.775351881980896,-2.3517448902130127,1.4142751693725586,-0.3194584250450134,0.2469213902950287,0.32924991275656307,-1.3502749026870708,-0.539905266765687,-0.9233694076538086,-0.3233333230018616,-0.20698894560337067, 211, 146, 18, 175
1731649789913,9i,6.9863058954812365,1.6s : 0.4s,-1.71389794194819,1.7903702908175867,2.3242555013241537,1.4530255183916025,-0.11190680414438248,-1.5844892263412476,-1.943900227546692,1.3914906978607178,-0.3734469711780548,0.18861111998558044,0.34989657954619663,-1.3650632156981868,-0.5455561633495712,-0.9195976257324219,-0.34280064702033997,-0.1919068992137909, 211, 146, 18, 175
1731649789923,9i,6.9863058954812365,1.6s : 0.4s,-1.71389794194819,1.8034300167161343,2.05169714441052,1.454991483828281,-0.037323180586099625,-1.4052551984786987,-1.6041548252105713,1.398193120956421,-0.3867751359939575,0.11162978410720825,0.36704723906240083,-1.3784797519877776,-0.5497035437456963,-0.9161832332611084,-0.35886090993881226,-0.1784021109342575, 211, 146, 18, 175
1731649789933,9i,6.9863058954812365,1.6s : 0.4s,-1.71389794194819,1.8154213602862688,1.7800800835375512,1.4416723821675173,-0.07180126011371613,-1.1705281734466553,-1.2682279348373413,1.3859193325042725,-0.39192402362823486,0.06358003616333008,0.381006213148867,-1.3901574169855193,-0.5527584736759289,-0.9131869077682495,-0.3718547224998474,-0.16677503287792206, 211, 146, 18, 175
1731649789943,9i,6.9863058954812365,1.6s : 0.4s,-1.71389794194819,1.8266001186900662,1.5121793489372857,1.3903001903954746,-0.17974558472633362,-0.9317619800567627,-0.9564866423606873,1.3269741535186768,-0.40431493520736694,0.09275585412979126,0.39174593906689986,-1.3993848830922988,-0.555883201403244,-0.9106991291046143,-0.38180267810821533,-0.15765132009983063, 211, 146, 18, 175
1731649789953,9i,6.9863058954812365,1.6s : 0.4s,-1.71389794194819,1.8369606425527765,1.2448144870691737,1.3296157156551527,-0.323776513338089,-0.6546305418014526,-0.6514460444450378,1.238666296005249,-0.4480559229850769,0.18118953704833984,0.399193179086917,-1.4057067074577119,-0.559563309216177,-0.9088476300239563,-0.38867509365081787,-0.15141944587230682, 211, 146, 18, 175
1731649789963,9i,6.9863058954812365,1.6s : 0.4s,-1.71389794194819,1.8464670640612768,0.9920831541998274,1.274655342057647,-0.4706309139728546,-0.37016186118125916,-0.4155549705028534,1.1438813209533691,-0.49114373326301575,0.2739700675010681,0.4037551606101037,-1.4088067803400146,-0.5644628591344357,-0.9075533747673035,-0.3928743302822113,-0.1483137160539627, 211, 146, 18, 175
1731649789973,9i,6.9863058954812365,1.6s : 0.4s,-1.71389794194819,1.855293726767561,0.7376043255368592,1.2045947071026397,-0.607361912727356,-0.025519803166389465,-0.08377810567617416,1.0459589958190918,-0.4851013422012329,0.3488479256629944,0.4053484235784526,-1.408304916906816,-0.570477214039095,-0.906859815120697,-0.3943389654159546,-0.14866769313812256, 211, 146, 18, 175
1731649789983,9i,6.9863058954812365,1.6s : 0.4s,-1.71389794194819,1.8636043834603817,0.49617683742676133,1.1212451845671714,-0.5944182276725769,0.29896292090415955,0.26572859287261963,0.9569125771522522,-0.4536840617656708,0.3683474659919739,0.40343914947438025,-1.4044207991085496,-0.5764853610103488,-0.907016396522522,-0.3925836980342865,-0.15231332182884216, 211, 146, 18, 175
1731649789993,9i,6.9863058954812365,1.6s : 0.4s,-1.71389794194819,1.8715545162832405,0.3520455438920551,1.0639585504305196,-0.676968514919281,0.6141557693481445,0.5702690482139587,0.9136092066764832,-0.42619454860687256,0.34012383222579956,0.3982280014511413,-1.3975300080284896,-0.5821691881964337,-0.9079483151435852,-0.3877856135368347,-0.15891027450561523, 211, 146, 18, 175
1731649790003,9i,6.9863058954812365,1.6s : 0.4s,-1.71389794194819,1.8794294891961447,0.4271279178472198,1.0292196559236686,-0.799132227897644,0.9020170569419861,0.8573721647262573,0.8950573205947876,-0.38694843649864197,0.3292968273162842,0.3899163083561773,-1.3874993915480291,-0.5883316524522738,-0.9094465374946594,-0.3801110088825226,-0.16859109699726105, 211, 146, 18, 175
1731649790013,9i,6.9863058954812365,1.6s : 0.4s,-1.71389794194819,1.887228172806887,0.6592415419883765,1.010215050461919,-1.0286935567855835,1.182686448097229,1.1532450914382935,0.8695092797279358,-0.3873710632324219,0.33827757835388184,0.3783346429497432,-1.3741943634067106,-0.5957153233890202,-0.9113795757293701,-0.3693734109401703,-0.18152384459972382, 211, 146, 18, 175
1731649790023,9i,6.9863058954812365,1.6s : 0.4s,-1.71389794194819,1.8947336840381173,0.9203483035808194,1.0089827280419597,-1.1293889284133911,1.4161566495895386,1.4796967506408691,0.8445693254470825,-0.4304954409599304,0.34557557106018066,0.3632858188882223,-1.358131065255397,-0.6039941723095749,-0.9136764407157898,-0.35534751415252686,-0.19729049503803253, 211, 146, 18, 175
1731649790033,9i,6.9863058954812365,1.6s : 0.4s,-1.71389794194819,1.9019405104293996,1.174458843423727,1.0019430368328806,-1.1036005020141602,1.6573455333709717,1.7865458726882935,0.8356234431266785,-0.44741231203079224,0.3247237801551819,0.3448918830882594,-1.3400772601504576,-0.6116458420488357,-0.9161747097969055,-0.33809491991996765,-0.21521124243736267, 211, 146, 18, 175
1731649790043,9i,6.9863058954812365,1.6s : 0.4s,-1.71389794194819,1.9091396271774579,1.4220889454758197,0.9850270689500191,-1.0715035200119019,1.8962725400924683,2.08054780960083,0.8468608260154724,-0.4142952561378479,0.28541988134384155,0.3235919082239999,-1.320266319589857,-0.6177985530457729,-0.9185009598731995,-0.3179740905761719,-0.23505041003227234, 211, 146, 18, 175
1731649790053,9i,6.9863058954812365,1.6s : 0.4s,-1.71389794194819,1.9167348517839253,1.6687540137564478,0.9786596828290103,-1.0483266115188599,2.0923314094543457,2.4259932041168213,0.868895411491394,-0.3584958016872406,0.2725367844104767,0.2991761602416648,-1.2989412075085145,-0.622221679186723,-0.9204855561256409,-0.29473304748535156,-0.25659123063087463, 211, 146, 18, 175
1731649790063,9i,6.9863058954812365,1.6s : 0.4s,-1.71389794194819,1.9246727916195592,1.9189255687217726,1.0149037610774174,-1.0976301431655884,2.27775239944458,2.7641186714172363,0.9139054417610168,-0.35092732310295105,0.2676873207092285,0.2713320407867956,-1.2762216006017009,-0.6252467127066772,-0.9219164252281189,-0.26801496744155884,-0.2797110378742218, 211, 146, 18, 175
1731649790073,9i,6.9863058954812365,1.6s : 0.4s,-1.71389794194819,1.9333926365026948,2.169270025418373,1.0699077603967577,-1.1562180519104004,2.4323060512542725,3.111018657684326,0.9794855117797852,-0.3481108248233795,0.2532382309436798,0.2400020756459108,-1.2522247398508826,-0.6270318254177768,-0.9224634766578674,-0.23770464956760406,-0.30423295497894287, 211, 146, 18, 175
1731649790083,9i,6.9863058954812365,1.6s : 0.4s,-1.71389794194819,1.9432009256655216,2.4221004488378632,1.1323327860181414,-1.252202033996582,2.5539767742156982,3.483994483947754,1.0623207092285156,-0.3156653642654419,0.23239541053771973,0.20497788835870107,-1.2271839176112491,-0.6276557244513247,-0.9218331575393677,-0.20354551076889038,-0.3298379182815552, 211, 146, 18, 175
1731649790093,9i,6.9863058954812365,1.6s : 0.4s,-1.71389794194819,1.9544067039136397,2.667769968052959,1.2093608787050956,-1.207396149635315,2.6571991443634033,3.8644402027130127,1.1580336093902588,-0.2768820524215698,0.21177399158477783,0.16631222557719183,-1.2013940534601324,-0.6264406755246789,-0.9196760654449463,-0.16554659605026245,-0.3560762107372284, 211, 146, 18, 175
1731649790103,9i,6.9863058954812365,1.6s : 0.4s,-1.71389794194819,1.9670869389775096,2.89810510058435,1.2894027505011922,-1.0699193477630615,2.722264528274536,4.22582483291626,1.2470107078552246,-0.26464900374412537,0.19360953569412231,0.1246352414279298,-1.1753095569310663,-0.6217512548404913,-0.9156510233879089,-0.12431281059980392,-0.382269024848938, 211, 146, 18, 175
1731649790113,9i,6.9863058954812365,1.6s : 0.4s,-1.71389794194819,1.9813070733671,3.129283732402957,1.3551279456006318,-0.970139741897583,2.8267147541046143,4.602756500244141,1.3158817291259766,-0.24761240184307098,0.20860278606414795,0.08014063874447602,-1.1484184355470366,-0.6136026755797338,-0.9091893434524536,-0.0800548791885376,-0.4086148738861084, 211, 146, 18, 175
1731649790123,9i,6.9863058954812365,1.6s : 0.4s,-1.71389794194819,1.9970991901347812,3.362674334444744,1.4111458347264174,-0.9930765628814697,2.926037073135376,4.951502799987793,1.3666892051696777,-0.23395852744579315,0.2622147798538208,0.032832062032923444,-1.1203561801217001,-0.6021255798231951,-0.8997704386711121,-0.03282616287469864,-0.43512722849845886, 211, 146, 18, 175
1731649790133,9i,6.9863058954812365,1.6s : 0.4s,-1.71389794194819,2.014359362218872,3.6133468604450227,1.5095298669585444,-1.0855984687805176,3.057741403579712,5.3589887619018555,1.4518696069717407,-0.28016945719718933,0.30374354124069214,-0.01782599288811538,-1.0905937563901758,-0.5883024232091791,-0.8867605328559875,0.01782504841685295,-0.4618854820728302, 211, 146, 18, 175
1731649790143,9i,6.9863058954812365,1.6s : 0.4s,-1.71389794194819,2.0337180024461845,3.8765029991145443,1.6362962224574766,-0.9972963333129883,3.2037010192871094,5.8016133308410645,1.5836503505706787,-0.22117748856544495,0.3472713828086853,-0.0718404370277141,-1.0584967109543342,-0.5710025334596347,-0.8693712949752808,0.07177865505218506,-0.4889185428619385, 211, 146, 18, 175
1731649790153,9i,6.9863058954812365,1.6s : 0.4s,-1.71389794194819,2.0559088591779884,4.134608073008188,1.7874296142874548,-0.8923430442810059,3.3211288452148438,6.1770734786987305,1.7414981126785278,-0.12186539173126221,0.38371574878692627,-0.1281822879188506,-1.0236922891362215,-0.5487447307965503,-0.8470280170440674,0.12783154845237732,-0.5159482359886169, 211, 146, 18, 175
1731649790163,9i,6.9863058954812365,1.6s : 0.4s,-1.71389794194819,2.0812500523450224,4.399476978142136,1.9259991253435191,-0.8674032688140869,3.500460147857666,6.558308124542236,1.8817155361175537,-0.04352562129497528,0.40831947326660156,-0.18651182312886305,-0.9854182206338212,-0.5217959019253333,-0.8190478682518005,0.1854323446750641,-0.542932391166687, 211, 146, 18, 175
1731649790173,9i,6.9863058954812365,1.6s : 0.4s,-1.71389794194819,2.1096572531033404,4.6719834125335336,2.0553191774372284,-0.9293829798698425,3.7053651809692383,6.929310321807861,1.9988995790481567,-0.03452645242214203,0.4770171046257019,-0.24689659557416777,-0.9426369414632289,-0.4900130897358588,-0.7845747470855713,0.24439585208892822,-0.5698361992835999, 211, 146, 18, 175
1731649790183,9i,6.9863058954812365,1.6s : 0.4s,-1.71389794194819,2.1407014048245636,4.9675383487448395,2.1946681046069667,-1.1893765926361084,4.0702223777771,7.28591251373291,2.12198543548584,-0.12582874298095703,0.5458140969276428,-0.3095992879180741,-0.8940449775863559,-0.4540126027860909,-0.7425453066825867,0.30467700958251953,-0.5964884161949158, 211, 146, 18, 175
1731649790193,9i,6.9863058954812365,1.6s : 0.4s,-1.71389794194819,2.174520877710579,5.309580121272996,2.3586603511767175,-1.4341024160385132,4.541927814483643,7.75870943069458,2.2636466026306152,-0.15596458315849304,0.6440945267677307,-0.37528305006679263,-0.8372467522985229,-0.4131961897853093,-0.6911064982414246,0.36653590202331543,-0.6229152083396912, 211, 146, 18, 175
1731649790203,9i,6.9863058954812365,1.6s : 0.4s,-1.71389794194819,2.2118881607536878,5.67240148384264,2.5571379317463117,-1.6490285396575928,4.972573280334473,8.186503410339355,2.4295918941497803,-0.07995331287384033,0.7935017943382263,-0.4433326724839453,-0.7704054133448359,-0.3652792290349671,-0.6291006803512573,0.42895233631134033,-0.6482532024383545, 211, 146, 18, 175
1731649790212,9i,6.9863058954812365,1.6s : 0.4s,-1.71389794194819,2.2538045047799216,6.091157327135907,2.8174576603081922,-1.8294142484664917,5.482992649078369,8.810624122619629,2.662257432937622,0.0397263765335083,0.9213440418243408,-0.5128050153986805,-0.6916694511376891,-0.307654629144065,-0.5557816624641418,0.4906233847141266,-0.6711151003837585, 211, 146, 18, 175
1731649790222,9i,6.9863058954812365,1.6s : 0.4s,-1.71389794194819,2.3017223044545605,6.5908208090548985,3.168214349547051,-2.2043569087982178,5.9991068840026855,9.636802673339844,2.9932587146759033,0.23972898721694946,1.0102051496505737,-0.5840519483291506,-0.5966980386457729,-0.2357400053923936,-0.4687685966491699,0.5514087080955505,-0.6900756359100342, 211, 146, 18, 175
1731649790232,9i,6.9863058954812365,1.6s : 0.4s,-1.71389794194819,2.357181526439255,7.143765307003628,3.599919307686701,-2.8510167598724365,6.342373847961426,10.484319686889648,3.394240617752075,0.4966222047805786,1.0917490720748901,-0.6573979381238328,-0.482459284374006,-0.14583025631716004,-0.3672631084918976,0.6110591888427734,-0.7012308239936829, 211, 146, 18, 175
1731649790242,9i,6.9863058954812365,1.6s : 0.4s,-1.71389794194819,2.4207902509152204,7.683780513823451,4.0343240512424146,-3.522164821624756,6.709937572479248,10.99291706085205,3.775351047515869,0.5755010843276978,1.3004974126815796,-0.7296109416167604,-0.34625271626974163,-0.03474790040781223,-0.25298184156417847,0.6665796637535095,-0.70119309425354, 211, 146, 18, 175
1731649790252,9i,6.9863058954812365,1.6s : 0.4s,-1.71389794194819,2.4917515339309073,8.275067701817244,4.393906595929495,-4.376130104064941,7.328161716461182,11.630022048950195,4.112543106079102,0.3763692378997803,1.5005834102630615,-0.7973453227939988,-0.18195232661001665,0.10111015058304211,-0.1264132410287857,0.7155040502548218,-0.687076210975647, 211, 146, 18, 175
1731649790262,9i,6.9863058954812365,1.6s : 0.4s,-1.71389794194819,2.570659019168238,8.923655238527218,4.756200649615912,-4.858911514282227,7.717884540557861,12.62629508972168,4.46435022354126,0.5435758233070374,1.547755479812622,-0.8533427168628284,0.02059501392852284,0.2733752534641055,0.013539609499275684,0.7534823417663574,-0.6573287844657898, 211, 146, 18, 175
1731649790272,9i,6.9863058954812365,1.6s : 0.4s,-1.71389794194819,2.65929581378267,9.49223833577235,5.1828512462314515,-5.530739784240723,7.57741117477417,13.153202056884766,4.869323253631592,1.2312606573104858,1.2789195775985718,-0.886514987739522,0.25743107202875404,0.482556682958097,0.16093501448631287,0.7748734951019287,-0.6112864017486572, 211, 146, 18, 175
1731649790282,9i,6.9863058954812365,1.6s : 0.4s,-1.71389794194819,2.758078968617374,9.936249599942945,5.576949013769963,-7.27696418762207,7.136023998260498,12.967124938964844,5.129318714141846,1.849874496459961,1.1706469058990479,-0.8958506697991758,0.5113395729129273,0.7134950269165915,0.30577021837234497,0.7807409167289734,-0.5449296236038208, 211, 146, 18, 175
1731649790292,9i,6.9863058954812365,1.6s : 0.4s,-1.71389794194819,2.866184065644892,10.301033276469678,5.865007575410261,-10.54747200012207,5.844180107116699,12.255794525146484,5.285641670227051,2.108041286468506,1.4200239181518555,-0.8910491213517744,0.7681556726613884,0.9586629600905765,0.4367552101612091,0.7777316570281982,-0.4520825147628784, 211, 146, 18, 175
1731649790302,9i,6.9863058954812365,1.6s : 0.4s,-1.71389794194819,2.9837932588087894,10.785293246244219,6.276150439178476,-14.290366172790527,4.079319000244141,11.62287712097168,5.524056911468506,2.454257011413574,1.6886332035064697,-0.8743118982773199,1.027786060466339,1.2289009958941066,0.549246072769165,0.7671022415161133,-0.33148592710494995, 211, 146, 18, 175
1731649790312,9i,6.9863058954812365,1.6s : 0.4s,-1.71389794194819,3.112186660636225,11.716843113431429,6.8714188599703645,-19.2867488861084,1.6538364887237549,11.21048355102539,5.850032806396484,3.1345937252044678,1.779841423034668,-0.8372230555452062,1.2853927165287344,1.531237435626479,0.6424446105957031,0.7427867650985718,-0.18850219249725342, 211, 146, 18, 175
1731649790322,9i,6.9863058954812365,1.6s : 0.4s,-1.71389794194819,3.251362636696269,13.118150641451983,7.362597985639371,-23.541093826293945,-0.3766644299030304,10.85804557800293,6.005269527435303,3.7921559810638428,1.9401391744613647,-0.7604655115954836,1.529148422239843,1.861719981429981,0.723887026309967,0.6892588138580322,-0.030165819451212883, 211, 146, 18, 175
1731649790332,9i,6.9863058954812365,1.6s : 0.4s,-1.71389794194819,3.4007718487313277,14.841228838451652,7.801430389109418,-29.17776870727539,-2.4535136222839355,6.926233768463135,5.969770908355713,4.135019302368164,2.8505730628967285,-0.6534910492535122,1.7348076209540444,2.197154455938667,0.7833115458488464,0.607961893081665,0.12963642179965973, 211, 146, 18, 175
1731649790342,9i,6.9863058954812365,1.6s : 0.4s,-1.71389794194819,3.557190557102096,17.40233100068019,8.009445316401118,-35.966636657714844,-5.684136867523193,4.426253795623779,5.537419319152832,3.967083215713501,4.213128566741943,-0.5175698933142744,1.8954262742138444,2.559668661515143,0.8236339688301086,0.49476978182792664,0.2771822512149811, 211, 146, 18, 175
1731649790352,9i,6.9863058954812365,1.6s : 0.4s,-1.71389794194819,3.72031068319284,19.40110965853868,9.279967938638773,-37.12785339355469,-6.810435771942139,-1.8892537355422974,4.887977600097656,3.859435796737671,6.879697322845459,-0.36542457657581723,1.9913805573299133,2.9333482131926867,0.8525770306587219,0.3573458790779114,0.3813350796699524, 211, 146, 18, 175
1731649790362,9i,6.9863058954812365,1.6s : 0.4s,-1.71389794194819,3.8841721532319005,19.32762413208288,10.904158032674982,-28.713253021240234,-7.6178154945373535,-5.011427402496338,3.5056724548339844,2.5828824043273926,9.996981620788574,-0.2589294253678117,2.022834360224014,-3.0123047418524966,0.8695716261863708,0.2560458183288574,0.42223888635635376, 211, 146, 18, 175
1731649790372,9i,6.9863058954812365,1.6s : 0.4s,-1.71389794194819,4.046849318821035,17.371730654138297,12.532128459190623,-17.100858688354492,-12.370478630065918,-2.348129987716675,1.902578592300415,2.448902130126953,12.142376899719238,-0.20001184570100702,1.974247853502021,-2.789987844386117,0.901376485824585,0.19868093729019165,0.3847684860229492, 211, 146, 18, 175
1731649790382,9i,6.9863058954812365,1.6s : 0.4s,-1.71389794194819,4.231392687489552,14.904051384882745,13.755621587470081,-11.517102241516113,-9.042275428771973,-1.8255186080932617,3.023625373840332,7.401219844818115,11.193603515625,-0.16506512513443794,1.893189421599672,-2.655608092191291,0.935588002204895,0.1643165647983551,0.3125307559967041, 211, 146, 18, 175
1731649790392,9i,6.9863058954812365,1.6s : 0.4s,-1.71389794194819,4.414647806401517,13.206691846699117,9.12418893232481,-11.801971435546875,-6.93243932723999,-6.360642910003662,3.179694652557373,7.71966028213501,3.6806535720825195,-0.1702446405886829,1.8364118193136922,-2.5304836903309322,0.9509815573692322,0.16942346096038818,0.25870832800865173, 211, 146, 18, 175
1731649790402,9i,6.9863058954812365,1.6s : 0.4s,-1.71389794194819,4.55198749635976,12.011425808995472,1.975139716943945,-10.324405670166016,-7.730098247528076,-8.523427963256836,0.44698989391326904,-0.12493330240249634,1.9198355674743652,-0.21733847396713107,1.7876784862655186,-2.4013193325952122,0.9535992741584778,0.21563147008419037,0.21012364327907562, 211, 146, 18, 175
1731649790412,9i,6.9863058954812365,1.6s : 0.4s,-1.71389794194819,4.663048008768693,10.723611165441842,4.653998144479288,-6.1949238777160645,-8.388343811035156,-8.85024642944336,0.6260740756988525,-0.8073362112045288,4.540477752685547,-0.2877143565561836,1.7327686902850379,-2.300189180252859,0.9463440775871277,0.28376126289367676,0.15463624894618988, 211, 146, 18, 175
1731649790422,9i,6.9863058954812365,1.6s : 0.4s,-1.71389794194819,4.767007073653649,9.782163405679828,4.858283843183954,-3.773789882659912,-8.841829299926758,-9.632485389709473,1.1068520545959473,2.163550615310669,4.206762313842773,-0.37865135878091216,1.6703241416087622,-2.2369335752718764,0.924565851688385,0.3696677088737488,0.09232506901025772, 211, 146, 18, 175
1731649790432,9i,6.9863058954812365,1.6s : 0.4s,-1.71389794194819,4.861985782633907,9.306504757226671,4.13425922850983,-3.085526466369629,-8.467782974243164,-10.48675537109375,0.6612729430198669,2.50748872756958,3.219831943511963,-0.48232474075687437,1.6063898738767364,-2.1922498542114255,0.8853580355644226,0.46383994817733765,0.0315263494849205, 211, 146, 18, 175
1731649790442,9i,6.9863058954812365,1.6s : 0.4s,-1.71389794194819,4.947430877366809,9.056368132957576,3.4521330663887033,-2.2095727920532227,-7.7142767906188965,-11.241981506347656,0.8097445368766785,1.4577916860580444,3.022644519805908,-0.5919566869424552,1.5426780073867516,-2.1612932444390833,0.8295225501060486,0.5579858422279358,-0.0233309306204319, 211, 146, 18, 175
1731649790452,9i,6.9863058954812365,1.6s : 0.4s,-1.71389794194819,5.024270162460716,8.84697634162424,3.1807836902188975,-0.5629863142967224,-7.211961269378662,-11.347694396972656,1.260358452796936,0.296295702457428,2.905355453491211,-0.70548940792462,1.4734858481653292,-2.1524516034281485,0.7576929330825806,0.6484065055847168,-0.07396508008241653, 211, 146, 18, 175
1731649790462,9i,6.9863058954812365,1.6s : 0.4s,-1.71389794194819,5.093610965395079,8.610584491821495,3.1777880088882537,1.4974039793014526,-6.836405277252197,-11.119502067565918,1.2199790477752686,-0.1302562952041626,2.9313855171203613,-0.8157622387547568,1.3832872440288202,-2.1813773406437114,0.6733012199401855,0.7282481789588928,-0.12775082886219025, 211, 146, 18, 175
1731649790472,9i,6.9863058954812365,1.6s : 0.4s,-1.71389794194819,5.156929759225943,8.356476065331687,3.251578467933404,3.035069227218628,-6.392192840576172,-10.38451099395752,1.1647322177886963,-0.39718925952911377,3.0097179412841797,-0.9146450945297556,1.2602416208640033,-2.2560191892446912,0.5808886289596558,0.7923461198806763,-0.186429962515831, 211, 146, 18, 175
1731649790482,9i,6.9863058954812365,1.6s : 0.4s,-1.71389794194819,5.2150520896117065,8.05980247165484,3.4704694555849644,5.115879058837891,-6.177646636962891,-9.109244346618652,1.1109083890914917,-0.8504198789596558,3.175976514816284,-0.9891473527036003,1.0928263717825146,-2.384427130063587,0.48783138394355774,0.8355578184127808,-0.2527129054069519, 211, 146, 18, 175
1731649790492,9i,6.9863058954812365,1.6s : 0.4s,-1.71389794194819,5.268240114442928,7.873678008084808,3.527844642032277,6.878488063812256,-6.200575828552246,-8.065838813781738,1.061604619026184,-1.3446862697601318,3.0839102268218994,-1.0269083227780047,0.875837769075942,-2.5675504789511434,0.3974562883377075,0.8557032346725464,-0.33136194944381714, 211, 146, 18, 175
1731649790502,9i,6.9863058954812365,1.6s : 0.4s,-1.71389794194819,5.313996259907945,7.768066344358476,3.5210469939054168,7.228065013885498,-6.31223726272583,-7.176998138427734,0.6686379909515381,-1.7796798944473267,2.963685989379883,-1.0258400913897132,0.6425662310173462,-2.7649844780087776,0.31064072251319885,0.8551499843597412,-0.41499534249305725, 211, 146, 18, 175
1731649790512,9i,6.9863058954812365,1.6s : 0.4s,-1.71389794194819,5.352569961861394,7.61144437884672,3.687801914963385,6.9897141456604,-6.160154342651367,-6.297264099121094,0.08400814235210419,-1.8748292922973633,3.1745615005493164,-0.9968774678333738,0.4341674692609944,-2.9350957956265393,0.22838515043258667,0.839779794216156,-0.4925546646118164, 211, 146, 18, 175
1731649790522,9i,6.9863058954812365,1.6s : 0.4s,-1.71389794194819,5.382072964887716,7.345752466632386,3.4453348615113786,6.832767486572266,-5.604273319244385,-5.375685691833496,-0.652103066444397,-1.823269248008728,2.849698781967163,-0.9522273140244915,0.26287556504964044,-3.0704969508002815,0.15068408846855164,0.8147090673446655,-0.5599495768547058, 211, 146, 18, 175
1731649790532,9i,6.9863058954812365,1.6s : 0.4s,-1.71389794194819,5.399963177263357,7.11831825585148,2.9620915888596104,6.934787750244141,-5.041614532470703,-5.20568323135376,-1.3134487867355347,-1.6529467105865479,2.0776443481445312,-0.8953106189981028,0.1238011359291967,3.104527977970722,0.07721235603094101,0.7804033160209656,-0.6204909086227417, 211, 146, 18, 175
1731649790542,9i,6.9863058954812365,1.6s : 0.4s,-1.71389794194819,5.40887298614216,6.985104769862962,2.3027819561604277,6.990710735321045,-5.121662616729736,-5.1181111335754395,-1.3017383813858032,-1.2209556102752686,1.4551801681518555,-0.8293102327320447,0.007720726663301656,3.0184563559475706,0.005214408505707979,0.7374656796455383,-0.6753645539283752, 211, 146, 18, 175
1731649790552,9i,6.9863058954812365,1.6s : 0.4s,-1.71389794194819,5.414661241029476,6.872798546672435,1.5490793391909963,6.761324405670166,-5.302060604095459,-4.929309368133545,-0.7448711395263672,-0.6752627491950989,1.17848801612854,-0.7583564565437699,-0.09232095122590658,2.9511980550792725,-0.06692682951688766,0.6877292394638062,-0.7228757739067078, 211, 146, 18, 175
1731649790562,9i,6.9863058954812365,1.6s : 0.4s,-1.71389794194819,5.420620975265154,6.72681686784136,1.1043564983396834,6.372913837432861,-5.433418273925781,-4.588742733001709,-0.310637503862381,-0.3186241388320923,1.0107355117797852,-0.6870014608193138,-0.17967425298984604,2.900204428085088,-0.13816915452480316,0.6342217326164246,-0.7607050538063049, 211, 146, 18, 175
1731649790572,9i,6.9863058954812365,1.6s : 0.4s,-1.71389794194819,5.427073626225796,6.58274678262594,0.9036036088890899,6.023015022277832,-5.55385684967041,-4.461470127105713,-0.16849926114082336,-0.1997193694114685,0.8649969100952148,-0.6168928682920503,-0.25790270152433903,2.8618068664793617,-0.20804175734519958,0.5785035490989685,-0.7887029647827148, 211, 146, 18, 175
1731649790582,9i,6.9863058954812365,1.6s : 0.4s,-1.71389794194819,5.433945567380533,6.429830402213133,0.7459309878960722,5.770273208618164,-5.708669185638428,-4.074268341064453,-0.07435572147369385,-0.12602365016937256,0.7314385175704956,-0.5479475719627269,-0.3300122771335102,2.8319993841212074,-0.2766115963459015,0.5209363698959351,-0.8075340986251831, 211, 146, 18, 175
1731649790592,9i,6.9863058954812365,1.6s : 0.4s,-1.71389794194819,5.442054364647763,6.27040322031217,0.6919193228868161,5.6332688331604,-5.700448036193848,-3.694326162338257,0.07611909508705139,0.03829410672187805,0.6866526007652283,-0.4801926893740254,-0.3955376463887414,2.809688679567857,-0.34172874689102173,0.4619500935077667,-0.8184275031089783, 211, 146, 18, 175
1731649790602,9i,6.9863058954812365,1.6s : 0.4s,-1.71389794194819,5.4525760915363986,6.140249839039887,0.7947964460819118,5.567887306213379,-5.634898662567139,-3.6350479125976562,0.34277692437171936,0.1383289396762848,0.7036124467849731,-0.4123173811018524,-0.4561733607182956,2.7955977397320946,-0.4035983979701996,0.4007335603237152,-0.8225089311599731, 211, 146, 18, 175
1731649790612,9i,6.9863058954812365,1.6s : 0.4s,-1.71389794194819,5.465405622900505,6.013404524783177,0.9054798829757201,5.460131645202637,-5.526165008544922,-3.5237784385681152,0.5679793953895569,-0.00744512677192688,0.7051509022712708,-0.34606817941877493,-0.5140872834370874,2.789338744792951,-0.4625868499279022,0.3392017185688019,-0.8191187977790833, 211, 146, 18, 175
1731649790622,9i,6.9863058954812365,1.6s : 0.4s,-1.71389794194819,5.479818594135763,5.86578036800071,0.9894564786513559,5.278660297393799,-5.465524673461914,-3.195035696029663,0.5796425342559814,-0.15532755851745605,0.7867096066474915,-0.28302276426025835,-0.5693792205304812,2.7880572061309814,-0.5176612138748169,0.27925941348075867,-0.808728039264679, 211, 146, 18, 175
1731649790632,9i,6.9863058954812365,1.6s : 0.4s,-1.71389794194819,5.495510899055181,5.666233538546926,0.9825940546909161,4.923495769500732,-5.2560648918151855,-2.900343894958496,0.5537386536598206,-0.08234848082065582,0.8075167536735535,-0.22365860762631729,-0.6222424667295745,2.7914711406623987,-0.5683412551879883,0.2217985838651657,-0.7923343181610107, 211, 146, 18, 175
1731649790642,9i,6.9863058954812365,1.6s : 0.4s,-1.71389794194819,5.5127643298315085,5.3981058374690996,0.9809217493345768,4.545889854431152,-4.911623001098633,-2.4573006629943848,0.6455231308937073,0.12457790970802307,0.7280025482177734,-0.16983169135127907,-0.6715723580476355,2.7987580977781037,-0.6132659912109375,0.16901646554470062,-0.7715817093849182, 211, 146, 18, 175
1731649790652,9i,6.9863058954812365,1.6s : 0.4s,-1.71389794194819,5.532108095913467,5.069906729775883,1.0951993964509819,3.939703941345215,-4.640609264373779,-2.0928242206573486,0.7854161262512207,0.2883661091327667,0.7067023515701294,-0.12260058934641434,-0.7178538621861702,2.808773218567271,-0.6528324484825134,0.12229368835687637,-0.7475654482841492, 211, 146, 18, 175
1731649790662,9i,6.9863058954812365,1.6s : 0.4s,-1.71389794194819,5.553127410829692,4.674545198886924,1.1546159992340963,3.1920485496520996,-4.224399566650391,-1.8746342658996582,0.8495270609855652,0.17858435213565826,0.7612814903259277,-0.08310796642045454,-0.7611894783774311,2.818198662194242,-0.6874023675918579,0.08301232755184174,-0.7215171456336975, 211, 146, 18, 175
1731649790672,9i,6.9863058954812365,1.6s : 0.4s,-1.71389794194819,5.574817260299385,4.230555143663149,1.158825618083002,2.409672975540161,-3.767672061920166,-1.7442411184310913,0.7310643792152405,-0.01489940658211708,0.8989992737770081,-0.05053492973450768,-0.8006230214416095,2.825133326920604,-0.7168737053871155,0.05051342397928238,-0.6953707933425903, 211, 146, 18, 175
1731649790682,9i,6.9863058954812365,1.6s : 0.4s,-1.71389794194819,5.596295095749305,3.7711501920003827,1.1586571257411975,1.9793771505355835,-3.1626763343811035,-1.566330075263977,0.5766810178756714,-0.15220698714256287,0.9933571219444275,-0.02391336181793374,-0.8353102965451238,2.82944282853646,-0.7412927746772766,0.02391108311712742,-0.6707558035850525, 211, 146, 18, 175
1731649790692,9i,6.9863058954812365,1.6s : 0.4s,-1.71389794194819,5.617300761994737,3.3343536516534247,1.143880730934415,1.7434167861938477,-2.6502339839935303,-1.37790846824646,0.4890138506889343,-0.1693447232246399,1.02012300491333,-0.0007198442221921955,-0.8641272824079423,2.8336518284464396,-0.7605286836624146,0.0007198441890068352,-0.6493039131164551, 211, 146, 18, 175
1731649790702,9i,6.9863058954812365,1.6s : 0.4s,-1.71389794194819,5.637504082283021,2.9429175802810548,1.0316547994947314,1.7161822319030762,-2.2065255641937256,-1.1549803018569946,0.492451548576355,-0.1605844795703888,0.8921971321105957,0.019806228729018275,-0.8884281974174115,2.8386792784999444,-0.7759292721748352,-0.019804934039711952,-0.6305089592933655, 211, 146, 18, 175
1731649790712,9i,6.9863058954812365,1.6s : 0.4s,-1.71389794194819,5.656992343657217,2.580782389681757,0.9773970494953172,1.654397964477539,-1.7398607730865479,-0.9913879632949829,0.46519970893859863,-0.11373113095760345,0.8520325422286987,0.038683307276069334,-0.9082879852991732,2.845368207726931,-0.7878620028495789,-0.03867366164922714,-0.6146363615989685, 211, 146, 18, 175
1731649790722,9i,6.9863058954812365,1.6s : 0.4s,-1.71389794194819,5.67547445734283,2.223401826317514,0.9410454912254015,1.4059234857559204,-1.2648663520812988,-0.8957309722900391,0.3664814233779907,-0.14201273024082184,0.8550382256507874,0.05538802681667674,-0.9235939511345004,2.85179279087442,-0.7965503334999084,-0.05535971000790596,-0.6020322442054749, 211, 146, 18, 175
1731649790732,9i,6.9863058954812365,1.6s : 0.4s,-1.71389794194819,5.692616837037766,1.867363667408785,0.9429460460197288,1.049185872077942,-0.8905168175697327,-0.745108425617218,0.2601395845413208,-0.234932541847229,0.875374972820282,0.06926099283908907,-0.9345551353751032,2.8567742265067477,-0.8024064302444458,-0.0692056342959404,-0.5927517414093018, 211, 146, 18, 175
1731649790742,9i,6.9863058954812365,1.6s : 0.4s,-1.71389794194819,5.70844498418308,1.506674043183336,0.9489181643183554,0.6218693852424622,-0.5559031963348389,-0.5686754584312439,0.20089411735534668,-0.368084579706192,0.8512349724769592,0.07930993734541904,-0.9419757876475867,2.8595499757540597,-0.8061797618865967,-0.07922682166099548,-0.586342453956604, 211, 146, 18, 175
1731649790752,9i,6.9863058954812365,1.6s : 0.4s,-1.71389794194819,5.722897571584525,1.178058472736633,0.9240434898918218,0.41599076986312866,-0.2783786952495575,-0.3976578712463379,0.19601154327392578,-0.3703867495059967,0.823559045791626,0.08597217968256783,-0.9461843311649817,2.8608634917554,-0.8081941604614258,-0.08586630970239639,-0.5826228260993958, 211, 146, 18, 175
1731649790761,9i,6.9863058954812365,1.6s : 0.4s,-1.71389794194819,5.736402460278727,0.8941775633592248,0.8393561220638109,0.29247602820396423,-0.06647522747516632,-0.2597266137599945,0.1960727572441101,-0.27962055802345276,0.7667375802993774,0.09037546160911684,-0.9479583530599729,2.8617764706462685,-0.8089115023612976,-0.09025248140096664,-0.5809619426727295, 211, 146, 18, 175
1731649790771,9i,6.9863058954812365,1.6s : 0.4s,-1.71389794194819,5.74906459147204,0.6544407054400032,0.7642389942357021,0.25746583938598633,0.13099630177021027,-0.09671267867088318,0.17638355493545532,-0.22506839036941528,0.708727240562439,0.09272189335106143,-0.9477237832336951,2.862938425836299,-0.8086009621620178,-0.09258908778429031,-0.5810264348983765, 211, 146, 18, 175
1731649790781,9i,6.9863058954812365,1.6s : 0.4s,-1.71389794194819,5.760730075029873,0.4588191453774606,0.7088991995683597,0.19732454419136047,0.2745736837387085,0.01782086119055748,0.13161951303482056,-0.22582784295082092,0.6589508056640625,0.09278668637459482,-0.9458527876265015,2.864632566863616,-0.8075075745582581,-0.09265360236167908,-0.5825348496437073, 211, 146, 18, 175
1731649790791,9i,6.9863058954812365,1.6s : 0.4s,-1.71389794194819,5.771304676066155,0.293238645518412,0.682264709471165,0.030575508251786232,0.4216989576816559,0.07793213427066803,0.09841412305831909,-0.26271867752075195,0.621915340423584,0.09273033151775138,-0.9425487008100079,2.865890352039207,-0.8055826425552368,-0.09259749203920364,-0.5852028131484985, 211, 146, 18, 175
1731649790801,9i,6.9863058954812365,1.6s : 0.4s,-1.71389794194819,5.780897455336301,0.17774405533911689,0.6777653465572089,-0.16514365375041962,0.5677117109298706,0.14890004694461823,0.05966663360595703,-0.2742021083831787,0.6169432401657104,0.09121976781359224,-0.9376195373604815,2.865997762514547,-0.802800178527832,-0.09109331667423248,-0.5892485976219177, 211, 146, 18, 175
1731649790811,9i,6.9863058954812365,1.6s : 0.4s,-1.71389794194819,5.789654685663602,0.19676169822493128,0.6397203294517684,-0.2898949086666107,0.6780813336372375,0.20955780148506165,0.028529763221740723,-0.23964570462703705,0.5924509167671204,0.08827347639974473,-0.9313414698673697,2.8652300827042634,-0.7992969155311584,-0.08815888315439224,-0.5944345593452454, 211, 146, 18, 175
1731649790831,9i,6.9863058954812365,1.6s : 0.4s,-1.71389794194819,5.805291635514517,0.3101549526126448,0.4328380147670294,-0.37441685795783997,0.8266053199768066,0.3146839141845703,0.03597307205200195,-0.10785584896802902,0.41763836145401,0.07988166888468243,-0.9159740451590217,2.8632492776537988,-0.7906269431114197,-0.07979673892259598,-0.6070762276649475, 211, 146, 18, 175
1731649790841,9i,6.9863058954812365,1.6s : 0.4s,-1.71389794194819,5.812271443098605,0.41580343090305844,0.36884711041423074,-0.442941278219223,0.8486916422843933,0.35141223669052124,0.03772324323654175,-0.08213507384061813,0.35760170221328735,0.07470320749176106,-0.9075260393416332,2.8620593799583975,-0.7857853174209595,-0.07463374733924866,-0.6139799356460571, 211, 146, 18, 175
1731649790851,9i,6.9863058954812365,1.6s : 0.4s,-1.71389794194819,5.818420068533095,0.5096206964504106,0.33062745310720665,-0.5704501867294312,0.8634018898010254,0.40149909257888794,0.030954718589782715,-0.09280120581388474,0.31582313776016235,0.06856845354370733,-0.8988731081412307,2.8604533146599724,-0.7807868719100952,-0.06851473450660706,-0.6210294961929321, 211, 146, 18, 175
1731649790861,9i,6.9863058954812365,1.6s : 0.4s,-1.71389794194819,5.823756214309601,0.5938375598730563,0.31593380796581505,-0.7272829413414001,0.8486226201057434,0.44909659028053284,0.025146126747131348,-0.1272919476032257,0.2880600690841675,0.06113113721960848,-0.8901925647274884,2.8580519582790442,-0.7757412195205688,-0.06109306961297989,-0.6280869841575623, 211, 146, 18, 175
1731649790871,9i,6.9863058954812365,1.6s : 0.4s,-1.71389794194819,5.828419153477753,0.6642121343029334,0.30124752071905087,-0.8095408082008362,0.8208080530166626,0.4966316223144531,0.024969756603240967,-0.1350107192993164,0.2681393027305603,0.052528689496537925,-0.8817030647757562,2.855029973123325,-0.7707582712173462,-0.052504535764455795,-0.6349605917930603, 211, 146, 18, 175
1731649790881,9i,6.9863058954812365,1.6s : 0.4s,-1.71389794194819,5.832572614631729,0.7137515085581241,0.2730837805352797,-0.7994864583015442,0.7986434102058411,0.5248574614524841,0.03005039691925049,-0.11875539273023605,0.24406737089157104,0.04338286095239767,-0.8734996222736225,2.852082426898686,-0.7658596038818359,-0.04336925223469734,-0.6415435671806335, 211, 146, 18, 175
1731649790891,9i,6.9863058954812365,1.6s : 0.4s,-1.71389794194819,5.836369600068742,0.7541803738744475,0.23893567059574766,-0.8549220561981201,0.7789424061775208,0.5315055251121521,0.03507763147354126,-0.0865212082862854,0.2199406623840332,0.034014526410178644,-0.865554661294726,2.8492499108170635,-0.7610145211219788,-0.0340079665184021,-0.6478429436683655, 211, 146, 18, 175
1731649790901,9i,6.9863058954812365,1.6s : 0.4s,-1.71389794194819,5.840005919023596,0.7952758085275405,0.21910789867204333,-0.9306547045707703,0.7911557555198669,0.5377880930900574,0.0408896803855896,-0.045145027339458466,0.21047145128250122,0.024132232254674025,-0.8576458627567687,2.8458957583710482,-0.7560843229293823,-0.02412988990545273,-0.6540292501449585, 211, 146, 18, 175
1731649790911,9i,6.9863058954812365,1.6s : 0.4s,-1.71389794194819,5.843643852203338,0.8325057013999699,0.23887801660354924,-0.975576639175415,0.7808730602264404,0.5749804973602295,0.04009217023849487,-0.036157965660095215,0.23269706964492798,0.013601372587706585,-0.8497484442462185,2.84235747346839,-0.7510449290275574,-0.013600952923297882,-0.6601110696792603, 211, 146, 18, 175
1731649790921,9i,6.9863058954812365,1.6s : 0.4s,-1.71389794194819,5.84725444487943,0.8613492718790764,0.2451436354176471,-1.00626802444458,0.7555834054946899,0.5873595476150513,0.038831353187561035,-0.05766867846250534,0.23507839441299438,0.002649325452880807,-0.8420388947852895,2.838811043650926,-0.745999813079834,-0.0026493223849684,-0.6659408211708069, 211, 146, 18, 175
1731649790931,9i,6.9863058954812365,1.6s : 0.4s,-1.71389794194819,5.850769703109825,0.8788157262981311,0.22202486286863468,-0.9851919412612915,0.752147912979126,0.5886578559875488,0.040453433990478516,-0.04609496518969536,0.21338653564453125,-0.008451632980308906,-0.8345517840254226,2.8353387713083182,-0.740969181060791,0.008451532572507858,-0.671485960483551, 211, 146, 18, 175
1731649790941,9i,6.9863058954812365,1.6s : 0.4s,-1.71389794194819,5.854206103901349,0.8845644411518767,0.19717123534834183,-0.9527742862701416,0.7546007037162781,0.5746471285820007,0.04031181335449219,-0.014455104246735573,0.19246429204940796,-0.019262810891659585,-0.827082283062429,2.8320963944733943,-0.7358226180076599,0.019261619076132774,-0.676900327205658, 211, 146, 18, 175
1731649790951,9i,6.9863058954812365,1.6s : 0.4s,-1.71389794194819,5.857582277718345,0.8850127007555594,0.18541613957094083,-0.9324139356613159,0.7361447215080261,0.587783932685852,0.0492938756942749,-0.00868399627506733,0.17853248119354248,-0.029928698954730288,-0.8197227040628682,2.8291432250670625,-0.7306293249130249,0.02992423065006733,-0.6821183562278748, 211, 146, 18, 175
1731649790961,9i,6.9863058954812365,1.6s : 0.4s,-1.71389794194819,5.860993433281802,0.9047350305821675,0.1960467544899148,-1.0372120141983032,0.7664541006088257,0.5891428589820862,0.06809097528457642,-0.005880068987607956,0.18374812602996826,-0.04094093855291831,-0.8123795340322241,2.826087326220544,-0.7253175377845764,0.04092950373888016,-0.687196671962738, 211, 146, 18, 175
1731649790971,9i,6.9863058954812365,1.6s : 0.4s,-1.71389794194819,5.864602404561826,0.9423104635596743,0.24145801673750017,-1.163581371307373,0.8052148222923279,0.6007776856422424,0.08745211362838745,0.020619720220565796,0.22411811351776123,-0.05287598497796137,-0.8047338520814964,2.8221949976312604,-0.719639003276825,0.052851349115371704,-0.6923341155052185, 211, 146, 18, 175
1731649790981,9i,6.9863058954812365,1.6s : 0.4s,-1.71389794194819,5.868817792313706,0.9931174496627387,0.29836097237850373,-1.2804677486419678,0.8551463484764099,0.6181979179382324,0.09329521656036377,0.02002672851085663,0.28269100189208984,-0.06575980114650731,-0.7967385317882454,2.8176341248131247,-0.7135344743728638,0.06571241468191147,-0.6975317597389221, 211, 146, 18, 175
1731649790991,9i,6.9863058954812365,1.6s : 0.4s,-1.71389794194819,5.8733942370570364,1.0368421282808733,0.3045819924448835,-1.2976174354553223,0.8905141949653625,0.6369156837463379,0.09322047233581543,-0.017773061990737915,0.28942054510116577,-0.07936451988307511,-0.7883727967672053,2.8128008658209005,-0.7069746851921082,0.07928123325109482,-0.7027811408042908, 211, 146, 18, 175
1731649791001,9i,6.9863058954812365,1.6s : 0.4s,-1.71389794194819,5.878072693363119,1.0647910809758483,0.2952124690880029,-1.2637056112289429,0.909572184085846,0.6413583159446716,0.10492771863937378,-0.057777777314186096,0.2698190212249756,-0.09294572612347209,-0.7797922364495554,2.8082694861421174,-0.7000967860221863,0.0928119570016861,-0.7079904675483704, 211, 146, 18, 175
1731649791011,9i,6.9863058954812365,1.6s : 0.4s,-1.71389794194819,5.882830581647486,1.0936376507375236,0.3120754770087414,-1.3042857646942139,0.9420552849769592,0.6364714503288269,0.1149408221244812,-0.09155501425266266,0.27531325817108154,-0.10655758057202844,-0.771017987264546,2.803872995269734,-0.6929131746292114,0.10635603964328766,-0.7131337523460388, 211, 146, 18, 175
1731649791021,9i,6.9863058954812365,1.6s : 0.4s,-1.71389794194819,5.887842102363028,1.1171516523662637,0.3329190613636629,-1.3086484670639038,0.9704780578613281,0.6302285194396973,0.11881279945373535,-0.06800578534603119,0.3034696578979492,-0.12040527946124786,-0.7620000825682192,2.7992697272364704,-0.6853715777397156,0.12011456489562988,-0.7182188630104065, 211, 146, 18, 175
1731649791031,9i,6.9863058954812365,1.6s : 0.4s,-1.71389794194819,5.893234574785271,1.1284052225306713,0.3376963683800812,-1.251160979270935,0.9831185340881348,0.6566958427429199,0.13191485404968262,-0.021327048540115356,0.3101329803466797,-0.134094276971071,-0.7527879763844175,2.7951386950753845,-0.6775385737419128,0.13369277119636536,-0.723234236240387, 211, 146, 18, 175
1731649791041,9i,6.9863058954812365,1.6s : 0.4s,-1.71389794194819,5.898918262873214,1.1415433361557272,0.3408123200111534,-1.272000789642334,0.9944634437561035,0.6672672033309937,0.156829833984375,-0.008217036724090576,0.3024730086326599,-0.14779254944316864,-0.7434439509564871,2.791451909774786,-0.669448733329773,0.14725510776042938,-0.7281169295310974, 211, 146, 18, 175
1731649791051,9i,6.9863058954812365,1.6s : 0.4s,-1.71389794194819,5.904721950761721,1.1637434734411967,0.33454835435695385,-1.3306256532669067,1.0253270864486694,0.6776817440986633,0.16872406005859375,0.021403878927230835,0.28809142112731934,-0.16191994509616356,-0.7340156988325387,2.7876132664764137,-0.6610946655273438,0.16121333837509155,-0.7327783703804016, 211, 146, 18, 175
1731649791071,9i,6.9863058954812365,1.6s : 0.4s,-1.71389794194819,5.917472532532558,1.2457495973584904,0.40128193422914765,-1.712829351425171,1.1450468301773071,0.6154434680938721,0.14058595895767212,0.02094489336013794,0.37526535987854004,-0.19249140183246888,-0.7139187220106885,2.7780714853716306,-0.6427068710327148,0.19130487740039825,-0.7418425679206848, 211, 146, 18, 175
1731649791081,9i,6.9863058954812365,1.6s : 0.4s,-1.71389794194819,5.924264389646242,1.3287257462770912,0.4578323674734901,-1.7899219989776611,1.2003300189971924,0.7137678265571594,0.1083253026008606,-0.0353531688451767,0.44342559576034546,-0.21034759071115436,-0.7035413236694469,2.771304020295228,-0.6326630115509033,0.2087998390197754,-0.7457480430603027, 211, 146, 18, 175
1731649791101,9i,6.9863058954812365,1.6s : 0.4s,-1.71389794194819,5.937695153433261,1.3525479906759568,0.36496063031864917,-1.495876669883728,1.2656376361846924,0.7657449245452881,0.15484774112701416,-0.1074652373790741,0.31252145767211914,-0.24527796221538295,-0.6810097613612796,2.7615469658130563,-0.6107345819473267,0.2428259700536728,-0.7536835670471191, 211, 146, 18, 175
1731649791111,9i,6.9863058954812365,1.6s : 0.4s,-1.71389794194819,5.944490655920463,1.3304783734525103,0.3689066275420055,-1.2680716514587402,1.2193313837051392,0.7616513967514038,0.2017955183982849,-0.0038067400455474854,0.3087979555130005,-0.26097037870989637,-0.669333740882707,2.7586870596639637,-0.5994547605514526,0.2580181956291199,-0.7576810717582703, 211, 146, 18, 175
1731649791121,9i,6.9863058954812365,1.6s : 0.4s,-1.71389794194819,5.9514045283858765,1.2841843639804031,0.35675826769322355,-1.050453782081604,1.24740469455719,0.6983099579811096,0.2271580696105957,0.11405816674232483,0.2503325939178467,-0.27444487321405825,-0.6574250715229286,2.7573963460331177,-0.5882114768028259,0.27101263403892517,-0.7619445323944092, 211, 146, 18, 175
1731649791131,9i,6.9863058954812365,1.6s : 0.4s,-1.71389794194819,5.958372079427514,1.2696069163996877,0.32044165482003373,-1.1484344005584717,1.327136754989624,0.5926751494407654,0.1843603253364563,0.1475526988506317,0.21661561727523804,-0.2869730144957146,-0.6450270400064005,2.755890853117428,-0.5766332149505615,0.2830503284931183,-0.7664050459861755, 211, 146, 18, 175
1731649791091,9i,6.9863058954812365,1.6s : 0.4s,-1.71389794194819,5.930701502549127,1.3283033527551622,0.43044814899927514,-1.6421911716461182,1.2407488822937012,0.7568487524986267,0.09960752725601196,-0.0800919234752655,0.41103434562683105,-0.22821649825552015,-0.6924889275029528,2.76583619032213,-0.6219006180763245,0.2262406200170517,-0.7497031688690186, 211, 146, 18, 175
1731649791141,9i,6.9863058954812365,1.6s : 0.4s,-1.71389794194819,5.964104186733345,1.351195995666816,0.30026782728640644,-1.430018424987793,1.4481561183929443,0.5324668288230896,0.0948219895362854,0.161435067653656,0.23475152254104614,-0.3006386422811592,-0.6321135124127649,2.7525784812039897,-0.5643501281738281,0.2961302697658539,-0.7705944776535034, 211, 146, 18, 175
1731649791151,9i,6.9863058954812365,1.6s : 0.4s,-1.71389794194819,5.97071633501357,1.414341865772557,0.3227321840710333,-1.7538976669311523,1.466425895690918,0.495896577835083,0.042129695415496826,0.14721056818962097,0.2840954065322876,-0.3164973470460655,-0.6191046532456417,2.747248390633578,-0.5514832735061646,0.3112398087978363,-0.7739483714103699, 211, 146, 18, 175
1731649791181,9i,6.9863058954812365,1.6s : 0.4s,-1.71389794194819,5.990263711564004,1.4338476942289033,0.3494295634697476,-1.6525447368621826,1.4395451545715332,0.34388574957847595,0.05600476264953613,0.3039594888687134,0.16301262378692627,-0.3705546171690129,-0.5847771079582633,2.7240866448586627,-0.5145465731620789,0.3621324598789215,-0.777239978313446, 211, 146, 18, 175
1731649791191,9i,6.9863058954812365,1.6s : 0.4s,-1.71389794194819,5.996454955962992,1.452802248416203,0.33316766720140156,-1.751598596572876,1.4070076942443848,0.183633491396904,0.05540400743484497,0.32817342877388,-0.015273869037628174,-0.3859581201673623,-0.5734109302164655,2.7166103661155785,-0.5025932192802429,0.3764469623565674,-0.7782594561576843, 211, 146, 18, 175
1731649791201,9i,6.9863058954812365,1.6s : 0.4s,-1.71389794194819,6.001417002962855,1.5007506833057613,0.35310409570829,-1.9869195222854614,1.3942314386367798,0.10903245955705643,0.007758885622024536,0.3483830392360687,-0.05702245235443115,-0.4025269274131365,-0.5630767182629002,2.7069377157034418,-0.49112674593925476,0.39174455404281616,-0.7780300974845886, 211, 146, 18, 175
1731649791211,9i,6.9863058954812365,1.6s : 0.4s,-1.71389794194819,6.0055757378152625,1.540010293337227,0.4305748466133186,-2.078592300415039,1.29556405544281,0.11316542327404022,-0.01903778314590454,0.4259384274482727,-0.06007260084152222,-0.4203795978594273,-0.5539047805484438,2.6962233823667687,-0.4802144467830658,0.40810704231262207,-0.7764295339584351, 211, 146, 18, 175
1731649791221,9i,6.9863058954812365,1.6s : 0.4s,-1.71389794194819,6.008934606961736,1.5556836749974032,0.42429523792944507,-2.0896363258361816,1.1629027128219604,0.07587873935699463,0.007113248109817505,0.4039384424686432,-0.12965178489685059,-0.43872073383685434,-0.5463349641981357,2.685094248566521,-0.47035476565361023,0.4247817099094391,-0.7735159397125244, 211, 146, 18, 175
1731649791231,9i,6.9863058954812365,1.6s : 0.4s,-1.71389794194819,6.011239379542924,1.5537081178341428,0.3778564298588906,-2.0370986461639404,1.0838841199874878,0.024526599794626236,-0.03515198826789856,0.33848264813423157,-0.16422337293624878,-0.45667564160621715,-0.5400346055190351,2.673769669611989,-0.4614757299423218,0.4409668743610382,-0.769797682762146, 211, 146, 18, 175
1731649791241,9i,6.9863058954812365,1.6s : 0.4s,-1.71389794194819,6.012126082286255,1.5113414540939123,0.39815520422024403,-1.8254402875900269,1.0664159059524536,-0.028260216116905212,-0.13502410054206848,0.3134552240371704,-0.20504117012023926,-0.47335810756152,-0.5344245379012428,2.6626028524901186,-0.45333948731422424,0.45587772130966187,-0.7659366130828857, 211, 146, 18, 175
1731649791251,9i,6.9863058954812365,1.6s : 0.4s,-1.71389794194819,6.011445654015642,1.4348942786370316,0.4540595113931281,-1.5455125570297241,1.0677815675735474,-0.09579424560070038,-0.22028475999832153,0.3096408545970917,-0.2485300898551941,-0.4876226183926486,-0.5285028786798827,2.652401857065982,-0.4454713761806488,0.4685269296169281,-0.7629140615463257, 211, 146, 18, 175
1731649791261,9i,6.9863058954812365,1.6s : 0.4s,-1.71389794194819,6.009285400602673,1.3638912677575648,0.4859674970769646,-1.39263916015625,1.1303874254226685,-0.22091278433799744,-0.25874507427215576,0.29298993945121765,-0.2887426018714905,-0.49949554410135455,-0.5221608296234304,2.6425271212192976,-0.4378185570240021,0.4789827764034271,-0.7608485221862793, 211, 146, 18, 175
1731649791271,9i,6.9863058954812365,1.6s : 0.4s,-1.71389794194819,6.005913738101272,1.3204998129271666,0.5050903077040432,-1.3638639450073242,1.1976690292358398,-0.3135652244091034,-0.28467175364494324,0.28871631622314453,-0.30119943618774414,-0.5101137193607651,-0.5155912110836234,2.6321045609785454,-0.4302786886692047,0.48827648162841797,-0.7592406272888184, 211, 146, 18, 175
1731649791281,9i,6.9863058954812365,1.6s : 0.4s,-1.71389794194819,6.001787993882844,1.289485169133032,0.4933642154352115,-1.3571892976760864,1.1781432628631592,-0.33348792791366577,-0.29158252477645874,0.28884825110435486,-0.2737783193588257,-0.5203430522473326,-0.5091538165592393,2.6211421503519263,-0.4229254424571991,0.4971778094768524,-0.7575937509536743, 211, 146, 18, 175
1731649791291,9i,6.9863058954812365,1.6s : 0.4s,-1.71389794194819,5.9973932829849845,1.2840929851545173,0.4708883432068135,-1.409657597541809,1.2006232738494873,-0.38814690709114075,-0.24371671676635742,0.29340577125549316,-0.2761359214782715,-0.5306319786204022,-0.5031019102688463,2.609886917305921,-0.4158443510532379,0.5060785412788391,-0.7556176781654358, 211, 146, 18, 175
1731649791301,9i,6.9863058954812365,1.6s : 0.4s,-1.71389794194819,5.992787945310151,1.303048302650808,0.5072290624375029,-1.5963423252105713,1.1348109245300293,-0.5037530660629272,-0.19205617904663086,0.32177549600601196,-0.3418424725532532,-0.5417925530998448,-0.4978604584858724,2.596781410075015,-0.4091552793979645,0.5156726241111755,-0.7527772784233093, 211, 146, 18, 175
1731649791311,9i,6.9863058954812365,1.6s : 0.4s,-1.71389794194819,5.987776963593609,1.3528708669218426,0.570033603732835,-1.544211506843567,1.4808869361877441,-0.5255803465843201,-0.2023087441921234,0.3455132246017456,-0.40574634075164795,-0.5528056361288266,-0.49295810339190066,2.5830284483012496,-0.40274789929389954,0.5250770449638367,-0.7497254610061646, 211, 146, 18, 175
1731649791320,9i,6.9863058954812365,1.6s : 0.4s,-1.71389794194819,5.982565955830876,1.455900701355941,0.5177571496480102,-2.0547525882720947,1.3699240684509277,-0.5836361050605774,-0.22272393107414246,0.2787613868713379,-0.37517809867858887,-0.5665379817131114,-0.48656788598312994,2.5671018423539067,-0.3945397734642029,0.5367141366004944,-0.7458393573760986, 211, 146, 18, 175
1731649791330,9i,6.9863058954812365,1.6s : 0.4s,-1.71389794194819,5.976520463160357,1.4981989047756072,0.5457338393241817,-1.9943019151687622,1.155016303062439,-0.6595255136489868,-0.2678910195827484,0.23102045059204102,-0.4155591130256653,-0.5817075220371458,-0.4834794180658893,2.5491290479468063,-0.38840463757514954,0.5494514107704163,-0.7397601008415222, 211, 146, 18, 175
1731649791340,9i,6.9863058954812365,1.6s : 0.4s,-1.71389794194819,5.969677776541766,1.5657596948722257,0.5617334054169507,-2.0606229305267334,1.3173890113830566,-0.8127558827400208,-0.2855742275714874,0.21053433418273926,-0.4355078339576721,-0.596159771431076,-0.4814744644059033,2.530737471898872,-0.3832031190395355,0.5614688396453857,-0.7334222197532654, 211, 146, 18, 175
1731649791350,9i,6.9863058954812365,1.6s : 0.4s,-1.71389794194819,5.962576422953581,1.650212773835232,0.5994206661032575,-2.167708158493042,1.341270089149475,-1.094954013824463,-0.22144457697868347,0.28652042150497437,-0.47767508029937744,-0.6107105680820789,-0.4811466460467922,2.508890637456086,-0.37914130091667175,0.5734497308731079,-0.7262281179428101, 211, 146, 18, 175
1731649791360,9i,6.9863058954812365,1.6s : 0.4s,-1.71389794194819,5.955298512874805,1.689199630094865,0.6488327196894276,-1.8076865673065186,1.5467464923858643,-1.2648216485977173,-0.2968228757381439,0.36472564935684204,-0.4470517635345459,-0.6229770777374908,-0.48089686538150644,2.4851993660629663,-0.3756776452064514,0.5834555625915527,-0.7200319766998291, 211, 146, 18, 175
1731649791370,9i,6.9863058954812365,1.6s : 0.4s,-1.71389794194819,5.947890041612461,1.7149288666333145,0.5912323576866969,-1.6470310688018799,1.6149311065673828,-1.385141372680664,-0.3188175559043884,0.25126421451568604,-0.42985737323760986,-0.6319267866858114,-0.47929440876011836,2.461642611276548,-0.3721003234386444,0.5907005667686462,-0.7159708738327026, 211, 146, 18, 175
1731649791380,9i,6.9863058954812365,1.6s : 0.4s,-1.71389794194819,5.940096216883673,1.7315769764606816,0.49616865943252003,-1.6286463737487793,1.5038211345672607,-1.4858828783035278,-0.2343158721923828,0.09953618049621582,-0.4258778691291809,-0.6400761483611846,-0.4788698034061078,2.436574204895169,-0.36956587433815,0.5972565412521362,-0.7118327021598816, 211, 146, 18, 175
1731649791390,9i,6.9863058954812365,1.6s : 0.4s,-1.71389794194819,5.932700755133905,1.687945298797785,0.37076219064223515,-1.2282211780548096,1.5306698083877563,-1.3943241834640503,-0.16267332434654236,0.06852144002914429,-0.32604724168777466,-0.6463610386159531,-0.4785897399156665,2.4125764662074687,-0.3676305115222931,0.6022855043411255,-0.7085901498794556, 211, 146, 18, 175
1731649791400,9i,6.9863058954812365,1.6s : 0.4s,-1.71389794194819,5.925575013320952,1.615346338347668,0.3572747347372213,-0.7180819511413574,1.6547725200653076,-1.3728214502334595,-0.11854267120361328,0.007785797119140625,-0.33694547414779663,-0.6487404897382651,-0.4753665953766655,2.3923898669168415,-0.36468780040740967,0.6041832566261292,-0.7084951996803284, 211, 146, 18, 175
1731649791410,9i,6.9863058954812365,1.6s : 0.4s,-1.71389794194819,5.918737900707975,1.5486176402296836,0.3184720516899801,-0.4965772330760956,1.556501865386963,-1.442041039466858,-0.09559863805770874,-0.05625218152999878,-0.2985314726829529,-0.6477029357816296,-0.47100018290052426,2.3737685076689607,-0.3618750274181366,0.6033561825752258,-0.7106390595436096, 211, 146, 18, 175
