timestamp,club,max_speed,tempo,w.rotation,l.speed,t.spped,acc,rotation.x,rotation.y,rotation.z,userAcceleration.x,userAcceleration.y,userAcceleration.z,pitch,roll,yaw,gravity.x,gravity.y,gravity.z,impactIndex,minDownIndex,StartIndex,endIndex
1731654907541,9i,6.614238288706411,1.6s : 0.4s,-0.004685352695929623,0.0004998550547134317,0.06340826399542905,0.03006652932035264,-0.0004578414373099804,-0.005294297821819782,-0.007106454111635685,-0.008819937705993652,-0.026797771453857422,0.010396361351013184,-0.255442571136188,2.0429801469574094,2.984690057384029,0.8616794943809509,0.2526736557483673,0.44007372856140137, 194, 133, 0, 158
1731654907551,9i,6.614238288706411,1.6s : 0.4s,-0.004685352695929623,0.0014392665960522898,0.04337260567966207,0.029204569335339894,-0.00971046183258295,0.0089799789711833,-0.013553434051573277,-0.010620594024658203,-0.027136892080307007,-0.0019232630729675293,-0.2551780491733959,2.0432881100185196,2.9848331356118303,0.8616034388542175,0.2524176836013794,0.44036948680877686, 194, 133, 0, 158
1731654907561,9i,6.614238288706411,1.6s : 0.4s,-0.004685352695929623,0.002338952344794124,0.03807082355046776,0.03495762314737482,-0.03674514219164848,0.007653991691768169,-0.018359707668423653,-0.011503875255584717,-0.03283068537712097,0.0034412741661071777,-0.2550227094505513,2.0437177407652127,2.985177252576883,0.8614490628242493,0.25226739048957825,0.44075748324394226, 194, 133, 0, 158
1731654907571,9i,6.614238288706411,1.6s : 0.4s,-0.004685352695929623,0.0032023906694136415,0.0357548945362833,0.033945264599150565,-0.07194600254297256,0.001520997961051762,-0.01738312654197216,-0.009798288345336914,-0.030344456434249878,0.011639952659606934,-0.2548659682666977,2.044205164971123,2.9858166311969008,0.8612692356109619,0.2521156966686249,0.4411953091621399, 194, 133, 0, 158
1731654907581,9i,6.614238288706411,1.6s : 0.4s,-0.004685352695929623,0.004038693606710946,0.034563166107703255,0.03631634384765429,-0.06367383152246475,-0.008722584694623947,-0.013732665218412876,-0.005847632884979248,-0.029851973056793213,0.019837886095046997,-0.25419936753346023,2.0446786063185804,2.9866193817045246,0.8612094521522522,0.2514705955982208,0.4416795074939728, 194, 133, 0, 158
1731654907591,9i,6.614238288706411,1.6s : 0.4s,-0.004685352695929623,0.004833336840972595,0.0336791472898427,0.02696474183338185,-0.0542030930519104,-0.009802496992051601,-0.01667279377579689,-0.006456613540649414,-0.021031826734542847,0.015590757131576538,-0.25341062973822764,2.0452529246845756,2.987343872892394,0.8611319065093994,0.25070711970329285,0.442264586687088, 194, 133, 0, 158
1731654907601,9i,6.614238288706411,1.6s : 0.4s,-0.004685352695929623,0.005570393517998733,0.032682160227815026,0.016925640004885556,-0.03834543377161026,-0.014383222907781601,-0.012593964114785194,-0.009231865406036377,-0.012533098459243774,0.006646156311035156,-0.25268610780395884,2.0456562576078428,2.987930344657919,0.8611148595809937,0.25000566244125366,0.44269484281539917, 194, 133, 0, 158
1731654907611,9i,6.614238288706411,1.6s : 0.4s,-0.004685352695929623,0.006257131130674148,0.03213639210591615,0.01638886470782524,-0.03101428598165512,-0.01881978288292885,-0.027051733806729317,-0.006963670253753662,-0.011984139680862427,0.008745431900024414,-0.2520403865861451,2.045967955852804,2.988404304352228,0.8611201643943787,0.24938039481639862,0.4430370032787323, 194, 133, 0, 158
1731654907621,9i,6.614238288706411,1.6s : 0.4s,-0.004685352695929623,0.006913628582540454,0.031091870425753943,0.020678785741370897,-0.02395644225180149,-0.015432951040565968,-0.02027854695916176,-0.00655210018157959,-0.019586041569709778,0.0010339915752410889,-0.25166534820553477,2.046119914538855,2.988862672765368,0.8611357808113098,0.24901719391345978,0.44321054220199585, 194, 133, 0, 158
1731654907631,9i,6.614238288706411,1.6s : 0.4s,-0.004685352695929623,0.007522194318413423,0.029108916079698746,0.017408025181244808,-0.012004176154732704,-0.006290053948760033,-0.021283891052007675,-0.012605905532836914,-0.01189357042312622,-0.0016350746154785156,-0.25137968800274874,2.0461338016570583,2.989114139428822,0.8611929416656494,0.2487405240535736,0.44325509667396545, 194, 133, 0, 158
1731654907641,9i,6.614238288706411,1.6s : 0.4s,-0.004685352695929623,0.008091039035616978,0.02797475987440447,0.025137262582983003,-0.026173589751124382,0.0005834763869643211,-0.026951530948281288,-0.017903149127960205,-0.015552863478660583,-0.008334726095199585,-0.2510301587491162,2.0463368983428323,2.9894565864647578,0.8611800074577332,0.2484019547700882,0.44346967339515686, 194, 133, 0, 158
1731654907651,9i,6.614238288706411,1.6s : 0.4s,-0.004685352695929623,0.008649829444554499,0.027422515838699552,0.03192651250687362,-0.03614500164985657,-0.0007579580415040255,-0.023137351498007774,-0.018093883991241455,-0.026226088404655457,-0.002026289701461792,-0.25061244412427225,2.0466994471252535,2.989963519640201,0.8611112833023071,0.24799731373786926,0.44382935762405396, 194, 133, 0, 158
1731654907661,9i,6.614238288706411,1.6s : 0.4s,-0.004685352695929623,0.009217072309289925,0.02715444526039017,0.03331285556977755,-0.039036791771650314,0.0037566327955573797,-0.027752676978707314,-0.010676085948944092,-0.03150290250778198,-0.0018261075019836426,-0.2502158836991377,2.0471411611882138,2.9904931194125353,0.861002504825592,0.24761313199996948,0.4442547559738159, 194, 133, 0, 158
1731654907671,9i,6.614238288706411,1.6s : 0.4s,-0.004685352695929623,0.009780373822440737,0.027306819473316958,0.030115038634278883,-0.04817169904708862,0.006449621170759201,-0.02454276941716671,-0.012359261512756348,-0.02656644582748413,-0.006956160068511963,-0.2499243479822221,2.0475494626091155,2.9910842147042067,0.8608854413032532,0.2473306655883789,0.44463950395584106, 194, 133, 0, 158
1731654907681,9i,6.614238288706411,1.6s : 0.4s,-0.004685352695929623,0.010334373928854295,0.026788569003936866,0.024877230535125125,-0.021126700565218925,-0.0006913789547979832,-0.03332117944955826,-0.010983169078826904,-0.02229614555835724,0.0010623037815093994,-0.24987927029801715,2.0478182177060975,2.9915505294542237,0.8607755303382874,0.24728697538375854,0.4448758363723755, 194, 133, 0, 158
1731654907691,9i,6.614238288706411,1.6s : 0.4s,-0.004685352695929623,0.010886264304212467,0.026210203627627583,0.02604412038339137,-0.013819785788655281,-0.0011441162787377834,-0.036968376487493515,-0.002254664897918701,-0.02419637143611908,-0.009367406368255615,-0.24996647016193943,2.048016286107501,2.991939108315715,0.8606685400009155,0.24737146496772766,0.44503656029701233, 194, 133, 0, 158
1731654907701,9i,6.614238288706411,1.6s : 0.4s,-0.004685352695929623,0.011409402120752232,0.024640020816830584,0.02481356186431192,0.00780102051794529,0.008468208834528923,-0.03804006800055504,-0.0012892484664916992,-0.012861236929893494,-0.021181106567382812,-0.2500788957170655,2.0481415012380273,2.992125143318169,0.8605879545211792,0.24748040735721588,0.44513148069381714, 194, 133, 0, 158
1731654907711,9i,6.614238288706411,1.6s : 0.4s,-0.004685352695929623,0.01188839494490149,0.023765414336931304,0.02799373670563855,0.0018033153610303998,0.014785226434469223,-0.04177834838628769,-0.007170975208282471,-0.0057057589292526245,-0.026451289653778076,-0.2503633352775484,2.0483277476810224,2.9922949452335437,0.8604426383972168,0.2477559894323349,0.4452594518661499, 194, 133, 0, 158
1731654907721,9i,6.614238288706411,1.6s : 0.4s,-0.004685352695929623,0.012345923802783895,0.023378523253111627,0.02654865546667246,-0.004711908288300037,0.020767483860254288,-0.041556406766176224,-0.006744503974914551,-0.012977167963981628,-0.02215707302093506,-0.2506080488636372,2.048547715983609,2.992508106764881,0.8602907061576843,0.24799306690692902,0.4454207718372345, 194, 133, 0, 158
1731654907731,9i,6.614238288706411,1.6s : 0.4s,-0.004685352695929623,0.012802051221680825,0.02303802257421795,0.022661781912620166,0.0028144512325525284,0.016422005370259285,-0.04128316417336464,-0.006430089473724365,-0.019709140062332153,-0.009152054786682129,-0.25065823326626213,2.0488861497173754,2.9927485949244774,0.8601288199424744,0.24804167449474335,0.44570615887641907, 194, 133, 0, 158
1731654907741,9i,6.614238288706411,1.6s : 0.4s,-0.004685352695929623,0.01325334461108807,0.02235364161210964,0.018283078472230988,0.014266310259699821,0.013659242540597916,-0.0368611216545105,-0.005257248878479004,-0.017421767115592957,0.001764744520187378,-0.25067546464560764,2.049146707410191,2.9929103963553656,0.8600087761878967,0.24805836379528046,0.4459282457828522, 194, 133, 0, 158
1731654907751,9i,6.614238288706411,1.6s : 0.4s,-0.004685352695929623,0.013692111205199609,0.021680140576544195,0.01525929985239769,0.024383658543229103,0.013551384210586548,-0.035884007811546326,-0.005724310874938965,-0.01409381628036499,-0.0012011826038360596,-0.2508156389477911,2.049296170451224,2.9929065985610106,0.859911322593689,0.24819415807724,0.4460407793521881, 194, 133, 0, 158
1731654907761,9i,6.614238288706411,1.6s : 0.4s,-0.004685352695929623,0.014114388985329022,0.02144176180927654,0.018800313897108224,0.037312641739845276,0.015432019717991352,-0.038778796792030334,-0.013734579086303711,-0.012674286961555481,-0.002043426036834717,-0.25102000353774234,2.0495043446145984,2.992850541162687,0.859773576259613,0.24839212000370026,0.4461964964866638, 194, 133, 0, 158
1731654907771,9i,6.614238288706411,1.6s : 0.4s,-0.004685352695929623,0.014510074678630115,0.023228930081338806,0.019676157221786568,0.06415677070617676,0.01351960375905037,-0.027122939005494118,-0.018032312393188477,-0.007547780871391296,-0.0022400617599487305,-0.2512882257704494,2.049520268389686,2.992542398483867,0.8597071170806885,0.24865193665027618,0.44617941975593567, 194, 133, 0, 158
1731654907781,9i,6.614238288706411,1.6s : 0.4s,-0.004685352695929623,0.014865395637089558,0.030264976077252898,0.013106503919034796,0.07354148477315903,0.012256733141839504,-0.02815278246998787,-0.011454284191131592,0.0006766915321350098,-0.006334185600280762,-0.251760875855557,2.0493580600033723,2.9919929970662604,0.8596751689910889,0.24910971522331238,0.4459858238697052, 194, 133, 0, 158
1731654907791,9i,6.614238288706411,1.6s : 0.4s,-0.004685352695929623,0.015176414264830013,0.03303879295046904,0.01095197596146698,0.06879839301109314,0.009208211675286293,-0.022278914228081703,-0.007174372673034668,0.0047082602977752686,-0.0068048834800720215,-0.2523247754224145,2.049128899337585,2.9914063378885882,0.8596525192260742,0.2496557980775833,0.44572409987449646, 194, 133, 0, 158
1731654907801,9i,6.614238288706411,1.6s : 0.4s,-0.004685352695929623,0.015463640816520328,0.03376513431033289,0.006598835114312807,0.05910029262304306,0.004162232391536236,-0.020121455192565918,-0.006039738655090332,-0.002456963062286377,-0.0010146498680114746,-0.2526963756226538,2.048921845516691,2.990891763795185,0.8596623539924622,0.25001561641693115,0.4455033540725708, 194, 133, 0, 158
1731654907811,9i,6.614238288706411,1.6s : 0.4s,-0.004685352695929623,0.015757455701906172,0.03424133589986835,0.01649957166838145,0.05777963250875473,-0.0002034876961261034,-0.017144840210676193,-0.0046367645263671875,-0.015122413635253906,0.004695624113082886,-0.2528703575410698,2.0487990656390482,2.9904127864096455,0.8596782684326172,0.2501840591430664,0.4453777074813843, 194, 133, 0, 158
1731654907821,9i,6.614238288706411,1.6s : 0.4s,-0.004685352695929623,0.01606578939178916,0.052098006748663564,0.020903343337045254,0.05754793807864189,0.06794005632400513,-0.12554748356342316,-0.008035480976104736,-0.019166260957717896,0.002243936061859131,-0.25326462841347225,2.0489881249916873,2.9901017211675196,0.859506368637085,0.250565767288208,0.44549480080604553, 194, 133, 0, 158
1731654907831,9i,6.614238288706411,1.6s : 0.4s,-0.004685352695929623,0.016366285952663262,0.15372180992717388,0.020885569442125364,0.07399243116378784,0.3003690540790558,-0.5173666477203369,-0.018366634845733643,-0.009917885065078735,-0.000713646411895752,-0.25346794943890544,2.0487816088252893,2.989581290617329,0.8595530986785889,0.25076261162757874,0.4452938437461853, 194, 133, 0, 158
1731654907841,9i,6.614238288706411,1.6s : 0.4s,-0.004685352695929623,0.016634045703992136,0.2004293516888611,0.030896394655650077,0.14556148648262024,0.0865749940276146,-0.4414505362510681,0.030113816261291504,0.002226322889328003,0.006541311740875244,-0.2536747007027265,2.0489254587425343,2.9892222094960013,0.8594430088996887,0.2509627342224121,0.4453936219215393, 194, 133, 0, 158
1731654907851,9i,6.614238288706411,1.6s : 0.4s,-0.004685352695929623,0.016878823819897706,0.14410144364214816,0.02572803163626308,0.12352435290813446,-0.1682375818490982,-0.011856833472847939,-0.025568664073944092,-0.001523733139038086,-0.0024193525314331055,-0.2539705373002504,2.0491471362865714,2.9891568020802324,0.8592784404754639,0.2512491047382355,0.44554999470710754, 194, 133, 0, 158
1731654907861,9i,6.614238288706411,1.6s : 0.4s,-0.004685352695929623,0.017133253287747556,0.1097330692769823,0.018924295358976533,0.029000980779528618,-0.033438581973314285,-0.03698379173874855,-0.011328458786010742,-0.014620095491409302,-0.0040059685707092285,-0.2543534102724777,2.049340429286979,2.989111521289505,0.8591068983078003,0.2516196668148041,0.44567179679870605, 194, 133, 0, 158
1731654907871,9i,6.614238288706411,1.6s : 0.4s,-0.004685352695929623,0.017416499723174415,0.07774134999084364,0.025597577548394913,-0.014994971454143524,-0.0024255404714494944,-0.012472590431571007,0.007473409175872803,-0.023650050163269043,-0.006329238414764404,-0.2544604167960085,2.0494305285881946,2.9892032990853123,0.8590428233146667,0.2517232298851013,0.4457367956638336, 194, 133, 0, 158
1731654907881,9i,6.614238288706411,1.6s : 0.4s,-0.004685352695929623,0.017723640003567027,0.05439822216325517,0.02510779136627526,-0.018102746456861496,0.01445543859153986,-0.0066516525112092495,-0.010399997234344482,-0.022787541151046753,-0.0017231404781341553,-0.2544835452127713,2.049578129030527,2.9894499143254127,0.8589716553688049,0.2517456114292145,0.44586077332496643, 194, 133, 0, 158
1731654907891,9i,6.614238288706411,1.6s : 0.4s,-0.004685352695929623,0.018042427856737753,0.03973316326267882,0.02211607594907409,-0.002284369897097349,0.008497681468725204,-0.008736641146242619,0.011211514472961426,-0.018750280141830444,-0.0034423470497131348,-0.25417486235269104,2.049743846162886,2.989563750436633,0.8589668273925781,0.2514468729496002,0.44603902101516724, 194, 133, 0, 158
1731654907901,9i,6.614238288706411,1.6s : 0.4s,-0.004685352695929623,0.018363278405939383,0.028594272097276913,0.015460681967722482,0.009827019646763802,-0.006732049398124218,-0.0010778559371829033,0.002044677734375,-0.01493784785270691,-0.003422379493713379,-0.25389339834533853,2.0498246888363463,2.989580451039357,0.8589935898780823,0.2511744499206543,0.4461410641670227, 194, 133, 0, 158
1731654907911,9i,6.614238288706411,1.6s : 0.4s,-0.004685352695929623,0.01868886151517365,0.025382996883049302,0.018669411814218183,0.02449304796755314,-0.012584878131747246,0.016402866691350937,0.006079256534576416,-0.016797691583633423,0.005424678325653076,-0.25374977000985277,2.049773418306747,2.9894287501384507,0.8590484857559204,0.2510354220867157,0.446113646030426, 194, 133, 0, 158
1731654907921,9i,6.614238288706411,1.6s : 0.4s,-0.004685352695929623,0.019015331458774435,0.023135866736689405,0.018473225027308433,0.06005603447556496,-0.008042857982218266,0.021739942952990532,0.006424903869628906,-0.015468508005142212,0.007791399955749512,-0.25370075205183956,2.0494096357028013,2.98889049786854,0.8592215180397034,0.2509879469871521,0.44580671191215515, 194, 133, 0, 158
1731654907931,9i,6.614238288706411,1.6s : 0.4s,-0.004685352695929623,0.0193495245563974,0.022776780551580042,0.018080792163737525,0.057100459933280945,0.0003381103742867708,0.024878211319446564,9.524822235107422e-05,-0.018057405948638916,-0.0009143650531768799,-0.2538372974994573,2.0493133393958374,2.9882456175450365,0.8592339158058167,0.25112012028694153,0.44570815563201904, 194, 133, 0, 158
1731654907941,9i,6.614238288706411,1.6s : 0.4s,-0.004685352695929623,0.019704191100635583,0.021272477937670894,0.026393940802812595,0.02280200645327568,0.0037647110875695944,0.02173721231520176,-0.011547684669494629,-0.023685425519943237,-0.001513838768005371,-0.2536141023772509,2.0492529079176784,2.987778880276244,0.8593107461929321,0.2509040832519531,0.4456821084022522, 194, 133, 0, 158
1731654907951,9i,6.614238288706411,1.6s : 0.4s,-0.004685352695929623,0.020091716711374996,0.017707367362612057,0.03184529557494822,-0.01727110892534256,0.0018754645716398954,0.014668118208646774,-0.009423911571502686,-0.030041486024856567,-0.0047772228717803955,-0.2530868603234563,2.0491798057039396,2.987655748400794,0.8594605326652527,0.25039365887641907,0.44568005204200745, 194, 133, 0, 158
1731654907961,9i,6.614238288706411,1.6s : 0.4s,-0.004685352695929623,0.020513288106617997,0.013065446477953777,0.0327813530809605,-0.04179316386580467,-0.0055934591218829155,0.010613087564706802,-0.0013303160667419434,-0.03230367600917816,-0.005414783954620361,-0.25250780022532787,2.049311438630664,2.987912804174112,0.8595305681228638,0.24983301758766174,0.4458599388599396, 194, 133, 0, 158
1731654907971,9i,6.614238288706411,1.6s : 0.4s,-0.004685352695929623,0.020940704218584127,0.02128440575050826,0.022256557036286557,-0.03923865780234337,0.02431197464466095,-0.08589453995227814,0.005021035671234131,-0.021679237484931946,-0.00039267539978027344,-0.25214088394030243,2.049331105541316,2.9883617275524172,0.8596029877662659,0.24947771430015564,0.4459189772605896, 194, 133, 0, 158
1731654907981,9i,6.614238288706411,1.6s : 0.4s,-0.004685352695929623,0.02133753140380025,0.16556285116331296,0.009524139999240872,-0.0038331313990056515,0.40229761600494385,-0.6355984807014465,0.0069945454597473145,-0.005589336156845093,-0.003247290849685669,-0.2517868573869481,2.0491077167032943,2.988560774065502,0.8597809076309204,0.2491348683834076,0.4457675516605377, 194, 133, 0, 158
1731654907991,9i,6.614238288706411,1.6s : 0.4s,-0.004685352695929623,0.021660085735883492,0.3436854525048636,0.04569659032666546,0.08694736659526825,0.6831021308898926,-0.9023763537406921,0.045484721660614014,-0.0007683634757995605,-0.004327595233917236,-0.2513781214799896,2.049156138028309,2.988590708079911,0.8598499298095703,0.24873900413513184,0.4458561837673187, 194, 133, 0, 158
1731654908000,9i,6.614238288706411,1.6s : 0.4s,-0.004685352695929623,0.02197412969374685,0.31149218554030494,0.01945247075810136,0.0707588866353035,0.23430000245571136,-0.260346382856369,-0.013653934001922607,-0.009205952286720276,-0.010354667901992798,-0.2510467093992475,2.0489876734076247,2.9887695882110634,0.8599979281425476,0.24841798841953278,0.44574907422065735, 194, 133, 0, 158
1731654908010,9i,6.614238288706411,1.6s : 0.4s,-0.004685352695929623,0.0223093458777484,0.2180957511219934,0.029825871894556995,-0.017262853682041168,-0.006570395547896624,-0.006783645134419203,-0.01705378293991089,-0.022303253412246704,-0.010065585374832153,-0.25084737296535076,2.0492637424882374,2.989237925009336,0.8599187135696411,0.2482248991727829,0.44600924849510193, 194, 133, 0, 158
1731654908020,9i,6.614238288706411,1.6s : 0.4s,-0.004685352695929623,0.022685370916393482,0.1512905083014211,0.03502961867914301,-0.06387723237276077,-0.008973809890449047,-0.00011735362932085991,-0.004404604434967041,-0.03236715495586395,-0.012650728225708008,-0.2501315680286902,2.049513418279257,2.9898046664022053,0.8599651455879211,0.24753142893314362,0.4463058412075043, 194, 133, 0, 158
1731654908030,9i,6.614238288706411,1.6s : 0.4s,-0.004685352695929623,0.023081665400613776,0.10768943170790976,0.03027859962645096,-0.08777377754449844,0.007848046720027924,0.005414297804236412,-0.011924505233764648,-0.024753957986831665,-0.01272168755531311,-0.24936083133728104,2.0497954398285634,2.9905978880807598,0.8600080013275146,0.24678461253643036,0.44663599133491516, 194, 133, 0, 158
1731654908040,9i,6.614238288706411,1.6s : 0.4s,-0.004685352695929623,0.023459683392002332,0.06879870493133432,0.014045602487956926,-0.08623286336660385,-0.04469967260956764,0.045489147305488586,-0.006970763206481934,-0.008701875805854797,-0.00854194164276123,-0.24841637744461897,2.049938212273149,2.991340252603365,0.8601506948471069,0.24586926400661469,0.4468660354614258, 194, 133, 0, 158
1731654908050,9i,6.614238288706411,1.6s : 0.4s,-0.004685352695929623,0.023805687796187074,0.034235579017135184,0.011398771893839373,-0.05077793821692467,-0.14697250723838806,0.11825602501630783,-0.010759472846984863,-0.0019429177045822144,-0.0032234787940979004,-0.24766149962696332,2.0499887785932076,2.991970370158657,0.8602924942970276,0.24513748288154602,0.44699496030807495, 194, 133, 0, 158
1731654908060,9i,6.614238288706411,1.6s : 0.4s,-0.004685352695929623,0.02412291857973223,0.0715800837344211,0.006246387366231127,-0.021480901166796684,-0.260794073343277,0.21758387982845306,-0.005502164363861084,-0.002170354127883911,-0.0020082592964172363,-0.247329505224316,2.0498273569424095,2.9923455354138446,0.8604367971420288,0.24481560289859772,0.4468935430049896, 194, 133, 0, 158
1731654908070,9i,6.614238288706411,1.6s : 0.4s,-0.004685352695929623,0.024399321832079674,0.13964980069931027,0.011958275363235682,0.005399981513619423,-0.3383421301841736,0.31088027358055115,-0.008475720882415771,0.004989326000213623,-0.0068021416664123535,-0.24713731689273352,2.049344331355099,2.9923646576349654,0.8606944680213928,0.24462926387786865,0.44649964570999146, 194, 133, 0, 158
1731654908080,9i,6.614238288706411,1.6s : 0.4s,-0.004685352695929623,0.024626690423886904,0.1926981833764807,0.02068477663005658,0.005698255263268948,-0.32747358083724976,0.3451375663280487,-0.01661306619644165,0.01077522337436676,-0.005980014801025391,-0.24713443903937193,2.049062420365446,2.9921514270224048,0.8608210682868958,0.2446264624595642,0.4462573528289795, 194, 133, 0, 158
1731654908090,9i,6.614238288706411,1.6s : 0.4s,-0.004685352695929623,0.02482433742519676,0.20682881598830058,0.021134319950951077,-0.040026888251304626,-0.20313698053359985,0.29893624782562256,-0.01827341318130493,0.0048253536224365234,-0.009458214044570923,-0.24721196487345187,2.048894297257054,2.9919544119059927,0.8608790040016174,0.24470163881778717,0.4461037814617157, 194, 133, 0, 158
1731654908100,9i,6.614238288706411,1.6s : 0.4s,-0.004685352695929623,0.025020883958136425,0.1679411162159255,0.02036258473946764,-0.09393259882926941,0.021335981786251068,0.1492517590522766,-0.01655787229537964,-0.006475463509559631,-0.00992673635482788,-0.24722154641330676,2.048801795092623,2.9920110698400952,0.8609181046485901,0.24471092224121094,0.44602304697036743, 194, 133, 0, 158
1731654908110,9i,6.614238288706411,1.6s : 0.4s,-0.004685352695929623,0.025232156136150038,0.08923539462471156,0.020826798706615135,-0.1184571161866188,0.3297617435455322,-0.09068360179662704,-0.01448822021484375,-0.013745337724685669,-0.005908697843551636,-0.24721269021360115,2.0487593440458878,2.9922787477345625,0.8609389066696167,0.24470233917236328,0.4459874629974365, 194, 133, 0, 158
1731654908120,9i,6.614238288706411,1.6s : 0.4s,-0.004685352695929623,0.02544438761260088,0.1421460839533505,0.015143697238931345,-0.1003279834985733,0.6466447710990906,-0.3695933222770691,-0.009999394416809082,-0.008070588111877441,-0.00801306962966919,-0.24719860366566984,2.048738188863862,2.992534848860031,0.8609517216682434,0.24468868970870972,0.44597098231315613, 194, 133, 0, 158
1731654908130,9i,6.614238288706411,1.6s : 0.4s,-0.004685352695929623,0.02563627821948454,0.31456078579296554,0.011097638582775054,-0.0705983117222786,0.9070478677749634,-0.6525738835334778,-0.005279421806335449,0.0015263259410858154,-0.00964134931564331,-0.24723090198158554,2.048631064393527,2.9926554783401165,0.8609922528266907,0.244719997048378,0.44587498903274536, 194, 133, 0, 158
1731654908140,9i,6.614238288706411,1.6s : 0.4s,-0.004685352695929623,0.025791185478620113,0.47297588052785905,0.012515070673406185,-0.0030600824393332005,0.9909085631370544,-0.8000615239143372,-0.0030198097229003906,0.009647578001022339,-0.007377803325653076,-0.24714852411552557,2.048366126612412,2.9926059541310472,0.8611282706260681,0.24464012682437897,0.4456561505794525, 194, 133, 0, 158
1731654908150,9i,6.614238288706411,1.6s : 0.4s,-0.004685352695929623,0.025897762488980725,0.5615632864635637,0.01590585889094883,0.04793998599052429,0.8470907211303711,-0.7879614233970642,-0.003347456455230713,0.015487819910049438,0.001385033130645752,-0.2471683251503821,2.0481688169367955,2.9924072925016816,0.8612120151519775,0.24465931951999664,0.44548407196998596, 194, 133, 0, 158
1731654908160,9i,6.614238288706411,1.6s : 0.4s,-0.004685352695929623,0.025985082829435277,0.5658258846562193,0.00919463927699727,0.049840882420539856,0.5745067596435547,-0.6570102572441101,-0.007453203201293945,0.004603862762451172,0.002792060375213623,-0.24709420878147909,2.0480313431098365,2.9924591600057067,0.8612894415855408,0.2445874661207199,0.445374071598053, 194, 133, 0, 158
1731654908170,9i,6.614238288706411,1.6s : 0.4s,-0.004685352695929623,0.026062202988501215,0.4899355948842814,0.014780403478387045,0.08305662125349045,0.23613590002059937,-0.4290039539337158,-0.008210420608520508,0.00024372339248657227,0.012287795543670654,-0.24693280319312055,2.0479515698201167,2.9926355203945856,0.8613597750663757,0.24443095922470093,0.4453233480453491, 194, 133, 0, 158
1731654908180,9i,6.614238288706411,1.6s : 0.4s,-0.004685352695929623,0.02613038589613318,0.35161161345508285,0.009827549280029782,0.0753813311457634,-0.11280034482479095,-0.1544197052717209,-0.00965815782546997,0.0017926394939422607,-0.00029522180557250977,-0.24678316438492004,2.0479258097758968,2.992848224313003,0.8614037036895752,0.24428585171699524,0.44531795382499695, 194, 133, 0, 158
1731654908190,9i,6.614238288706411,1.6s : 0.4s,-0.004685352695929623,0.026183629090312244,0.1814702840580229,0.017457127125271067,0.07494563609361649,-0.4167439937591553,0.13388851284980774,-0.014881432056427002,0.006296679377555847,-0.0066065192222595215,-0.2465758845325135,2.0480159925906136,2.9931514140309163,0.8614087104797363,0.24408484995365143,0.44541898369789124, 194, 133, 0, 158
1731654908200,9i,6.614238288706411,1.6s : 0.4s,-0.004685352695929623,0.02621001039363903,0.09521512745560295,0.02046534932052761,0.05870288610458374,-0.6380159258842468,0.37291595339775085,-0.015051007270812988,0.012550771236419678,-0.005897104740142822,-0.24643634149779464,2.0481485969530175,2.9933523251151892,0.8613799214363098,0.2439495176076889,0.4455488324165344, 194, 133, 0, 158
1731654908210,9i,6.614238288706411,1.6s : 0.4s,-0.004685352695929623,0.026237408244580155,0.22295588543427983,0.014207804962859344,0.023205343633890152,-0.7495664358139038,0.5319583415985107,-0.011036098003387451,0.0013436228036880493,-0.008846521377563477,-0.24631785647111337,2.0482445940702596,2.9935365140021637,0.8613626956939697,0.24383461475372314,0.4456447660923004, 194, 133, 0, 158
1731654908220,9i,6.614238288706411,1.6s : 0.4s,-0.004685352695929623,0.026283905708109425,0.34177531182693927,0.014464982198862577,-0.01918099634349346,-0.7285134196281433,0.6100146174430847,-0.012110292911529541,-0.00790475308895111,0.00030231475830078125,-0.24619360206139718,2.0483598654676407,2.993724240299964,0.8613382577896118,0.2437141090631485,0.44575798511505127, 194, 133, 0, 158
1731654908230,9i,6.614238288706411,1.6s : 0.4s,-0.004685352695929623,0.026341736627443747,0.4057546842403939,0.016849928903024912,-0.03258521854877472,-0.6045880317687988,0.5831001996994019,-0.015124380588531494,-0.005454391241073608,0.0050421059131622314,-0.24601124989020887,2.0483959262179545,2.993767048206336,0.8613614439964294,0.24353724718093872,0.44580936431884766, 194, 133, 0, 158
1731654908240,9i,6.614238288706411,1.6s : 0.4s,-0.004685352695929623,0.026405124984438873,0.4053151036564568,0.012851045253681134,-0.05890517309308052,-0.39329618215560913,0.4711398780345917,-0.011294543743133545,-0.0021505653858184814,-0.0057408809661865234,-0.24590873304434205,2.048376815376737,2.9936667464073943,0.8613922595977783,0.24343782663345337,0.4458044469356537, 194, 133, 0, 158
1731654908250,9i,6.614238288706411,1.6s : 0.4s,-0.004685352695929623,0.026477138365449186,0.34546199376562314,0.01879620679854187,-0.07674488425254822,-0.14749814569950104,0.2969158887863159,-0.008787453174591064,-0.0024549365043640137,-0.016433238983154297,-0.24576638423035174,2.0483536574957943,2.9935438149719347,0.8614335656166077,0.24329975247383118,0.4458005130290985, 194, 133, 0, 158
1731654908260,9i,6.614238288706411,1.6s : 0.4s,-0.004685352695929623,0.026550324006860745,0.24326168401925113,0.012554395734191594,-0.09028147161006927,0.10305747389793396,0.09857523441314697,-0.006556868553161621,-0.0004606693983078003,-0.010696172714233398,-0.24558232036252,2.0483123196331734,2.9934745533664384,0.8614916205406189,0.2431212216615677,0.44578543305397034, 194, 133, 0, 158
1731654908270,9i,6.614238288706411,1.6s : 0.4s,-0.004685352695929623,0.026635545583033365,0.16213978592545525,0.010377787543800072,-0.06537532061338425,0.31334492564201355,-0.09030679613351822,-0.001647353172302246,-0.006625369191169739,-0.007815957069396973,-0.24539377210883634,2.0482922546617464,2.9933343156520453,0.8615413308143616,0.2429383248090744,0.44578924775123596, 194, 133, 0, 158
1731654908280,9i,6.614238288706411,1.6s : 0.4s,-0.004685352695929623,0.026725526987028427,0.06298744219351364,0.0069446782950935045,-0.0357401967048645,0.44792184233665466,-0.2430715709924698,0.00014793872833251953,-0.004616275429725647,-0.005186200141906738,-0.24527309758133467,2.048270452012676,2.9930886708176296,0.8615769147872925,0.24282126128673553,0.4457838535308838, 194, 133, 0, 158
1731654908290,9i,6.614238288706411,1.6s : 0.4s,-0.004685352695929623,0.026803573666980395,0.12907649524536008,0.003546637184965569,-0.007979939691722393,0.49880099296569824,-0.3261864483356476,0.0016912221908569336,0.0020203590393066406,-0.0023741424083709717,-0.2451796487435535,2.0482177963112593,2.9927733995860906,0.8616204261779785,0.24273060262203217,0.44574883580207825, 194, 133, 0, 158
1731654908300,9i,6.614238288706411,1.6s : 0.4s,-0.004685352695929623,0.026873795760913644,0.20246926406394658,0.006631489171787533,0.0057161650620400906,0.45927274227142334,-0.3541870415210724,0.002112150192260742,0.0011421144008636475,-0.006181508302688599,-0.24506259415550516,2.048123261265118,2.992465526961509,0.8616878390312195,0.24261705577373505,0.4456804692745209, 194, 133, 0, 158
1731654908310,9i,6.614238288706411,1.6s : 0.4s,-0.004685352695929623,0.02694735605855661,0.23717072057505564,0.0063871987735971405,0.037418168038129807,0.3645875155925751,-0.3170170485973358,-0.0020690560340881348,-0.0031251907348632812,-0.0051718950271606445,-0.24493145899174648,2.048014864371942,2.9922882309616776,0.8617645502090454,0.24248982965946198,0.4456017315387726, 194, 133, 0, 158
1731654908320,9i,6.614238288706411,1.6s : 0.4s,-0.004685352695929623,0.027026322367849173,0.23511759876107508,0.010125145559634863,0.08054086565971375,0.23214150965213776,-0.23317113518714905,-0.008928120136260986,-0.0033120065927505493,-0.0034406185150146484,-0.2449195610265067,2.047934323068653,2.9919106447489705,0.8618029356002808,0.24247828125953674,0.4455336332321167, 194, 133, 0, 158
1731654908330,9i,6.614238288706411,1.6s : 0.4s,-0.004685352695929623,0.02711503748628692,0.1932934481800374,0.013431929740419228,0.09090696275234222,0.08407934755086899,-0.11787890642881393,-0.009370386600494385,-0.004519596695899963,-0.008496224880218506,-0.24496893734014713,2.04791107292619,2.9914303916830494,0.8618025779724121,0.24252618849277496,0.44550803303718567, 194, 133, 0, 158
1731654908340,9i,6.614238288706411,1.6s : 0.4s,-0.004685352695929623,0.02720716611092018,0.13088154759848572,0.009892532560423663,0.11381474137306213,-0.05831703543663025,-0.0003730170428752899,-0.005990386009216309,-0.005230173468589783,0.005884110927581787,-0.24504078151364228,2.0478595878642936,2.9908410611912988,0.861810028553009,0.2425958812236786,0.4454556703567505, 194, 133, 0, 158
1731654908350,9i,6.614238288706411,1.6s : 0.4s,-0.004685352695929623,0.02731179067511232,0.09378811822729122,0.00947329384132825,0.12173045426607132,-0.16127164661884308,0.09307783097028732,-0.002053380012512207,-0.00922471284866333,-0.0006569623947143555,-0.24522619375378948,2.0477361718993463,2.9900352954554608,0.861825168132782,0.24277575314044952,0.4453287124633789, 194, 133, 0, 158
1731654908360,9i,6.614238288706411,1.6s : 0.4s,-0.004685352695929623,0.02744249823091975,0.05197051026632445,0.021156591294817128,0.09848099201917648,-0.2059708535671234,0.15649698674678802,-0.007569849491119385,-0.012256965041160583,-0.015494048595428467,-0.24544206053402975,2.0476820520265626,2.9892518863339657,0.8618028163909912,0.24298515915870667,0.44525808095932007, 194, 133, 0, 158
1731654908370,9i,6.614238288706411,1.6s : 0.4s,-0.004685352695929623,0.027594036714666894,0.07356586481389867,0.02265229031116159,0.07316125184297562,-0.2185063511133194,0.1797730177640915,-0.01735389232635498,-0.009829491376876831,-0.010740101337432861,-0.24561373004893447,2.0476944819005554,2.98858240666683,0.861760139465332,0.2431516796350479,0.44524961709976196, 194, 133, 0, 158
1731654908380,9i,6.614238288706411,1.6s : 0.4s,-0.004685352695929623,0.027767059345441394,0.09800970048249438,0.01882280391272586,0.02825469709932804,-0.1962972730398178,0.16560098528862,-0.01011723279953003,-0.012643754482269287,-0.00959557294845581,-0.2457149268035121,2.0476543148018895,2.9881299182597396,0.861755907535553,0.2432498335838318,0.445203572511673, 194, 133, 0, 158
1731654908390,9i,6.614238288706411,1.6s : 0.4s,-0.004685352695929623,0.027968086283781793,0.10784892957158732,0.020766741084533875,0.03979550302028656,-0.1362568438053131,0.13998350501060486,-0.004331350326538086,-0.017827272415161133,-0.009730637073516846,-0.24578902313222892,2.0475903999648635,2.9877593852581286,0.8617686629295349,0.2433217167854309,0.44514036178588867, 194, 133, 0, 158
1731654908400,9i,6.614238288706411,1.6s : 0.4s,-0.004685352695929623,0.02817989041928691,0.10266426805947172,0.017036904475273888,0.052813634276390076,-0.07179058343172073,0.09224636852741241,-0.008079767227172852,-0.009970441460609436,-0.011205524206161499,-0.2459634781373919,2.0474830978693843,2.987135127885101,0.8617783784866333,0.24349091947078705,0.44502827525138855, 194, 133, 0, 158
1731654908410,9i,6.614238288706411,1.6s : 0.4s,-0.004685352695929623,0.028398109184719106,0.090356941296686,0.02009969476888302,0.09248621016740799,-0.018118837848305702,0.06269779801368713,-0.01267099380493164,-0.00669136643409729,-0.014095008373260498,-0.2462483647954907,2.047313943272928,2.9862667254994077,0.861792266368866,0.24376721680164337,0.4448508024215698, 194, 133, 0, 158
1731654908420,9i,6.614238288706411,1.6s : 0.4s,-0.004685352695929623,0.028592474386333527,0.0867381252866533,0.010843719226539638,0.1634424775838852,0.016796624287962914,0.03657061979174614,-0.008396029472351074,0.004500448703765869,-0.005180627107620239,-0.2466972657864217,2.047032037166049,2.9848564166170988,0.8618201017379761,0.24420255422592163,0.4445575177669525, 194, 133, 0, 158
1731654908430,9i,6.614238288706411,1.6s : 0.4s,-0.004685352695929623,0.028746778953310313,0.09351731601977317,0.011107731834090173,0.18987461924552917,0.017044831067323685,0.03661536052823067,-0.0009663105010986328,0.010885491967201233,-0.0019884705543518066,-0.24730395006462835,2.0466293256477703,2.982991606949258,0.861867368221283,0.24479082226753235,0.44414255023002625, 194, 133, 0, 158
1731654908440,9i,6.614238288706411,1.6s : 0.4s,-0.004685352695929623,0.02886566528772377,0.10766774869329855,0.00966079483224648,0.21737521886825562,0.007740721572190523,0.03955948352813721,-2.4437904357910156e-05,0.009521350264549255,0.0016353130340576172,-0.24801853603092403,2.0462004439558505,2.9809307352216434,0.861902117729187,0.2454836070537567,0.44369274377822876, 194, 133, 0, 158
1731654908450,9i,6.614238288706411,1.6s : 0.4s,-0.004685352695929623,0.028970016748611854,0.12108560495272856,0.004395324132644976,0.23115894198417664,0.01459889393299818,0.03086692839860916,-0.0007442831993103027,0.0008411705493927002,0.004249393939971924,-0.24878766496345453,2.045746340439936,2.978696568285051,0.8619349598884583,0.2462291270494461,0.44321465492248535, 194, 133, 0, 158
1731654908460,9i,6.614238288706411,1.6s : 0.4s,-0.004685352695929623,0.029092651322259737,0.12288886154331856,0.013151749201411824,0.2013287991285324,0.03433141112327576,0.021134771406650543,-0.0036746859550476074,-0.01088610291481018,-0.0063998401165008545,-0.24926878328495947,2.045506721736126,2.9765951008120433,0.8619356751441956,0.246695414185524,0.442953884601593, 194, 133, 0, 158
1731654908470,9i,6.614238288706411,1.6s : 0.4s,-0.004685352695929623,0.029225421588045534,0.12324702590837947,0.014305879207887439,0.19006548821926117,0.047434959560632706,0.017468132078647614,-0.012459754943847656,-0.006704926490783691,-0.002111077308654785,-0.24953624257017337,2.0454520213145715,2.974722983156848,0.8619013428688049,0.24695459008216858,0.4428766369819641, 194, 133, 0, 158
1731654908480,9i,6.614238288706411,1.6s : 0.4s,-0.004685352695929623,0.029344066463695154,0.12595230568701296,0.0138655168578354,0.20476114749908447,0.06293047219514847,0.0013144947588443756,-0.010323703289031982,0.0011336207389831543,0.009186327457427979,-0.2501235434993517,2.0455045080173466,2.972870368628784,0.8617490530014038,0.24752366542816162,0.442855566740036, 194, 133, 0, 158
1731654908490,9i,6.614238288706411,1.6s : 0.4s,-0.004685352695929623,0.029434613779711686,0.14264390711621974,0.02307881900272647,0.26297545433044434,0.10549551248550415,-0.02098734863102436,-0.011055707931518555,0.006246387958526611,0.019271373748779297,-0.2511304596882524,2.0457620165630237,2.9707916047221206,0.8614128232002258,0.24849911034107208,0.44296321272850037, 194, 133, 0, 158
1731654908500,9i,6.614238288706411,1.6s : 0.4s,-0.004685352695929623,0.029305100900401677,0.1744294879757278,0.052625508929753824,0.33516907691955566,0.1827172338962555,-0.05797552689909935,-0.021452128887176514,0.02708151936531067,0.03969687223434448,-0.25287234596450453,2.046531576169752,2.9681752426083294,0.8606857061386108,0.2501859962940216,0.4434271454811096, 194, 133, 0, 158
1731654908510,9i,6.614238288706411,1.6s : 0.4s,-0.004685352695929623,0.028788475179972847,0.22251661880413948,0.1025830086879639,0.4046722650527954,0.3000587821006775,-0.1228109821677208,-0.02877289056777954,0.05906432867050171,0.07878324389457703,-0.2554258378804663,2.0481413500600594,2.965226603134377,0.8594003319740295,0.2526574432849884,0.44451701641082764, 194, 133, 0, 158
1731654908520,9i,6.614238288706411,1.6s : 0.4s,-0.004685352695929623,0.027670445163879644,0.2784295041480568,0.17135314544669716,0.4274604916572571,0.4204461872577667,-0.1989133059978485,-0.0280764102935791,0.10731390118598938,0.13060376048088074,-0.258816687633913,2.050966394610235,2.962042278627869,0.8573763370513916,0.2559368312358856,0.4465447664260864, 194, 133, 0, 158
1731654908530,9i,6.614238288706411,1.6s : 0.4s,-0.004685352695929623,0.02580327863665589,0.33832796140144566,0.2550889218984732,0.44678544998168945,0.5223467350006104,-0.24135316908359528,-0.022975027561187744,0.1665479838848114,0.1918444037437439,-0.26278130718177506,2.0549163069205405,2.9592318010416654,0.8547012805938721,0.2597673833370209,0.44945216178894043, 194, 133, 0, 158
1731654908540,9i,6.614238288706411,1.6s : 0.4s,-0.004685352695929623,0.023216451396307507,0.43355749871192817,0.34401432706844576,0.6775108575820923,0.6476635336875916,-0.2789023816585541,-0.029917776584625244,0.24361705780029297,0.24104255437850952,-0.2677177653047629,2.0597532758666786,2.955414273075466,0.8513748645782471,0.2645311951637268,0.45297321677207947, 194, 133, 0, 158
1731654908549,9i,6.614238288706411,1.6s : 0.4s,-0.004685352695929623,0.020676517337259243,0.5579303432412083,0.3725946334846662,0.9111840724945068,0.8202052116394043,-0.30848076939582825,-0.06314128637313843,0.27521514892578125,0.24309784173965454,-0.274150358062475,2.0654948846676504,2.949576404396951,0.8472448587417603,0.270729124546051,0.4570366144180298, 194, 133, 0, 158
1731654908559,9i,6.614238288706411,1.6s : 0.4s,-0.004685352695929623,0.019605069375719156,0.6960464296410487,0.4299099023212209,1.1180239915847778,0.9775528907775879,-0.31771448254585266,-0.10992163419723511,0.28848305344581604,0.2991943955421448,-0.2817744929588063,2.0723617930533877,2.9418621940187046,0.8422521352767944,0.27806058526039124,0.46183791756629944, 194, 133, 0, 158
1731654908569,9i,6.614238288706411,1.6s : 0.4s,-0.004685352695929623,0.02176185229238475,0.8403098005941515,0.5372785898354647,1.3059968948364258,1.113085150718689,-0.36549559235572815,-0.14312392473220825,0.32653433084487915,0.40194422006607056,-0.2907020610069599,2.0801640716913368,2.932501755709458,0.8364224433898926,0.2866249084472656,0.46716612577438354, 194, 133, 0, 158
1731654908579,9i,6.614238288706411,1.6s : 0.4s,-0.004685352695929623,0.027747633492101974,0.9851203310092136,0.5982790187029123,1.4336811304092407,1.2822364568710327,-0.43297135829925537,-0.17002183198928833,0.3593980073928833,0.44706088304519653,-0.30096300470720827,2.0890403096740258,2.922116102913427,0.8296442031860352,0.296440064907074,0.4730900824069977, 194, 133, 0, 158
1731654908589,9i,6.614238288706411,1.6s : 0.4s,-0.004685352695929623,0.036963103653658104,1.1432322599852314,0.6751845493690414,1.6394442319869995,1.4462589025497437,-0.547012209892273,-0.2156873345375061,0.404013454914093,0.4961111545562744,-0.31293756943544687,2.0992221766249854,2.91070231360983,0.8216596841812134,0.30785486102104187,0.47968852519989014, 194, 133, 0, 158
1731654908599,9i,6.614238288706411,1.6s : 0.4s,-0.004685352695929623,0.04871965714899267,1.2939383671669198,0.755881100760576,1.7446532249450684,1.5856319665908813,-0.6814565658569336,-0.2748343348503113,0.46032780408859253,0.5328420400619507,-0.3270254104217966,2.1105518604663245,2.898645181694451,0.8123711943626404,0.3212275207042694,0.48668941855430603, 194, 133, 0, 158
1731654908609,9i,6.614238288706411,1.6s : 0.4s,-0.004685352695929623,0.06288177022179074,1.4603465208839241,0.8859008653406596,1.9594461917877197,1.7742592096328735,-0.7791045904159546,-0.33429187536239624,0.5718941688537598,0.5882230401039124,-0.3430758358104364,2.1231472737304027,2.886077816939442,0.8016840219497681,0.3363852798938751,0.494113564491272, 194, 133, 0, 158
1731654908619,9i,6.614238288706411,1.6s : 0.4s,-0.004685352695929623,0.0797947352713365,1.656649843143424,1.0560404744230076,2.317455768585205,1.9411834478378296,-0.8948930501937866,-0.3910439610481262,0.6981327533721924,0.6891420483589172,-0.3618679427306099,2.136643592255456,2.871358535234281,0.789466142654419,0.354021817445755,0.5014098286628723, 194, 133, 0, 158
1731654908629,9i,6.614238288706411,1.6s : 0.4s,-0.004685352695929623,0.09929170283417367,1.8697242139595907,1.1477208960838812,2.612593650817871,2.1183197498321533,-1.070302128791809,-0.44391894340515137,0.7467216849327087,0.7500706315040588,-0.3836865850121431,2.150824816870946,2.8548115633384876,0.7756296992301941,0.37434154748916626,0.5081996917724609, 194, 133, 0, 158
1731654908639,9i,6.614238288706411,1.6s : 0.4s,-0.004685352695929623,0.12110637007431692,2.1022047993526525,1.2182689355214964,2.874633550643921,2.38171648979187,-1.2697139978408813,-0.4982532858848572,0.7659600973129272,0.805746853351593,-0.4086989541408429,2.166388671516151,2.8370697877972137,0.7596362829208374,0.39741578698158264,0.5147945880889893, 194, 133, 0, 158
1731654908649,9i,6.614238288706411,1.6s : 0.4s,-0.004685352695929623,0.14485927509151628,2.3380138805308346,1.2659598927061553,3.028745412826538,2.6539466381073,-1.5346232652664185,-0.5487877130508423,0.7775089144706726,0.8348451256752014,-0.4369969578530833,2.1841747734324453,2.8191272023513116,0.7408654093742371,0.42322054505348206,0.5215392708778381, 194, 133, 0, 158
1731654908659,9i,6.614238288706411,1.6s : 0.4s,-0.004685352695929623,0.170075597363083,2.57837315245096,1.2863553327206312,3.19974946975708,2.90362811088562,-1.8157589435577393,-0.5830433368682861,0.7967851161956787,0.8245629072189331,-0.4687601892517929,2.204424361117819,2.8019453215635024,0.7189533710479736,0.4517805576324463,0.528205156326294, 194, 133, 0, 158
1731654908669,9i,6.614238288706411,1.6s : 0.4s,-0.004685352695929623,0.196212331855671,2.813347784517184,1.276292172890492,3.3008310794830322,3.1548988819122314,-2.0901410579681396,-0.5804699063301086,0.8263401389122009,0.7804731726646423,-0.5038701311209182,2.2271487036373823,2.785898855489824,0.6937664747238159,0.4828183054924011,0.5343921184539795, 194, 133, 0, 158
1731654908679,9i,6.614238288706411,1.6s : 0.4s,-0.004685352695929623,0.22290910556481613,3.04500346175698,1.2657471261006403,3.4222397804260254,3.375896692276001,-2.362081289291382,-0.5378352999687195,0.8580893278121948,0.7592968344688416,-0.5421334863906356,2.252562663383029,2.771409833236133,0.6651241779327393,0.5159647464752197,0.5398061275482178, 194, 133, 0, 158
1731654908689,9i,6.614238288706411,1.6s : 0.4s,-0.004685352695929623,0.24998670879247117,3.262508253236679,1.2642064793674685,3.4384138584136963,3.564980983734131,-2.6922779083251953,-0.4830382466316223,0.882679283618927,0.7653557062149048,-0.5834960902966925,2.280777500413972,2.75937092020838,0.6328946948051453,0.5509449243545532,0.5439704060554504, 194, 133, 0, 158
1731654908699,9i,6.614238288706411,1.6s : 0.4s,-0.004685352695929623,0.27754272826999327,3.4870477775104236,1.3018037574663777,3.504342794418335,3.784769296646118,-3.065948486328125,-0.4288036823272705,0.9407803416252136,0.7910453677177429,-0.627977649663176,2.312780428085491,2.7511056777438054,0.5964977741241455,0.5875094532966614,0.5468300580978394, 194, 133, 0, 158
1731654908709,9i,6.614238288706411,1.6s : 0.4s,-0.004685352695929623,0.30586173524146937,3.732994388550852,1.3807753080059084,3.7508931159973145,3.9544918537139893,-3.4209415912628174,-0.3682922124862671,1.0442934036254883,0.8248348832130432,-0.6763674456454419,2.3485189967577718,2.7462570637589385,0.5556549429893494,0.6259642839431763,0.5471898913383484, 194, 133, 0, 158
1731654908719,9i,6.614238288706411,1.6s : 0.4s,-0.004685352695929623,0.33485536580658126,3.9720817609898957,1.4177580511183874,3.9638404846191406,4.0199055671691895,-3.7266457080841064,-0.2730746865272522,1.0956459045410156,0.8573378324508667,-0.7288698477431795,2.387215995271913,2.744440056337839,0.5108371376991272,0.6660270690917969,0.5435565114021301, 194, 133, 0, 158
1731654908729,9i,6.614238288706411,1.6s : 0.4s,-0.004685352695929623,0.36422309124311936,4.183664480409206,1.4209621856803252,4.121367931365967,3.9717817306518555,-4.005265235900879,-0.1536165177822113,1.0936450958251953,0.8941341638565063,-0.7846634751092981,2.4287851262636817,2.7468230189986915,0.46275970339775085,0.7065870761871338,0.535339891910553, 194, 133, 0, 158
1731654908739,9i,6.614238288706411,1.6s : 0.4s,-0.004685352695929623,0.39369103459352645,4.379151119955681,1.415264655831805,4.156745433807373,4.0174880027771,-4.330977916717529,-0.05353400111198425,1.0823450088500977,0.9102952480316162,-0.8431720162756956,2.4745464469098155,2.754977999539827,0.41147467494010925,0.7467565536499023,0.5225356221199036, 194, 133, 0, 158
1731654908749,9i,6.614238288706411,1.6s : 0.4s,-0.004685352695929623,0.42308911423768175,4.573775763021759,1.3971846975126987,4.17067813873291,4.163300514221191,-4.654449462890625,0.008641034364700317,1.0538194179534912,0.9173412919044495,-0.9032663823980386,2.528718020248975,2.7724099701520686,0.3560898005962372,0.7853531241416931,0.5063802599906921, 194, 133, 0, 158
1731654908759,9i,6.614238288706411,1.6s : 0.4s,-0.004685352695929623,0.4524281063596962,4.766231725665651,1.4024330221261203,4.151169300079346,4.332943439483643,-4.965271472930908,0.0643501877784729,1.0400011539459229,0.9386559724807739,-0.9644027676857673,2.5946162748999924,2.801597772884645,0.296413391828537,0.8217086791992188,0.4867593050003052, 194, 133, 0, 158
1731654908769,9i,6.614238288706411,1.6s : 0.4s,-0.004685352695929623,0.48181989449084106,4.928943353978943,1.441037859729147,3.8433821201324463,4.520517826080322,-5.277318477630615,0.15151064097881317,0.985237717628479,1.040644645690918,-1.0243218160633907,2.677762816384716,2.8474105361708224,0.23249202966690063,0.8543619513511658,0.4647723138332367, 194, 133, 0, 158
1731654908779,9i,6.614238288706411,1.6s : 0.4s,-0.004685352695929623,0.5114714242475389,5.062343449593554,1.5228448733516398,3.7699382305145264,4.51927375793457,-5.46497917175293,0.2799116373062134,0.9689439535140991,1.1409879922866821,-1.0802685550282531,2.7830531380595884,2.9159932817457324,0.16530926525592804,0.8820843696594238,0.44113484025001526, 194, 133, 0, 158
1731654908789,9i,6.614238288706411,1.6s : 0.4s,-0.004685352695929623,0.5413105133410402,5.164093200324863,1.5898823562926527,3.951201915740967,4.2074809074401855,-5.635639190673828,0.44904306530952454,0.9830924272537231,1.1660255193710327,-1.1327085041582408,2.9107239474409012,3.0091523702239367,0.09706898033618927,0.9055644869804382,0.4129542410373688, 194, 133, 0, 158
1731654908799,9i,6.614238288706411,1.6s : 0.4s,-0.004685352695929623,0.5711464913302464,5.23453906292509,1.6264083594187861,3.7429120540618896,3.833972692489624,-6.06441068649292,0.5938512086868286,0.9590990543365479,1.1716116666793823,-1.1809024817822362,3.0680461347327017,3.136892695567325,0.02792912721633911,0.9249494075775146,0.37906283140182495, 194, 133, 0, 158
1731654908809,9i,6.614238288706411,1.6s : 0.4s,-0.004685352695929623,0.6013985274332861,5.308267950251188,1.667916922308115,3.573988199234009,3.753901243209839,-6.37183141708374,0.6280702948570251,1.089704155921936,1.0954539775848389,-1.21463666305311,-3.016138951295123,-2.973463243719736,-0.04362819343805313,0.9372427463531494,0.34593695402145386, 194, 133, 0, 158
1731654908819,9i,6.614238288706411,1.6s : 0.4s,-0.004685352695929623,0.6336893569769179,5.460563667020004,1.9042240957147194,3.797292947769165,4.076328754425049,-6.660623073577881,0.613871157169342,1.4606356620788574,1.056302547454834,-1.2349578341276801,-2.7768294879617637,-2.7610288672156877,-0.11756381392478943,0.9441342949867249,0.3078790307044983, 194, 133, 0, 158
1731654908829,9i,6.614238288706411,1.6s : 0.4s,-0.004685352695929623,0.6688880164336534,5.711705591250845,2.0988740233537047,4.435305118560791,4.343698024749756,-7.043724060058594,0.6287500858306885,1.6249511241912842,1.1702475547790527,-1.2379073942708672,-2.5054590962284826,-2.518769667983854,-0.19413407146930695,0.9451022744178772,0.26285794377326965, 194, 133, 0, 158
1731654908839,9i,6.614238288706411,1.6s : 0.4s,-0.004685352695929623,0.7065606502709241,6.010615074852244,2.179571381291209,5.209374904632568,4.308109760284424,-7.389625072479248,0.715127170085907,1.694281816482544,1.1698434352874756,-1.221500651291622,-2.2205472198712912,-2.2630829428697914,-0.27250024676322937,0.9396139979362488,0.20704880356788635, 194, 133, 0, 158
1731654908849,9i,6.614238288706411,1.6s : 0.4s,-0.004685352695929623,0.7456484731178276,6.24794474247586,2.196417541678226,5.540283203125,4.11403751373291,-7.458194255828857,0.9121227860450745,1.6303932666778564,1.1550323963165283,-1.1836439133045125,-1.9614814339573499,-2.030878873162582,-0.34910401701927185,0.9259878993034363,0.14378058910369873, 194, 133, 0, 158
1731654908859,9i,6.614238288706411,1.6s : 0.4s,-0.004685352695929623,0.7861514422323423,6.428574126649952,2.3510619740350087,5.798413276672363,3.772367477416992,-7.552714824676514,1.1782689094543457,1.6040863990783691,1.2514318227767944,-1.127504595634565,-1.7506427334737364,-1.8441450111019637,-0.4219975173473358,0.9033446907997131,0.07672373205423355, 194, 133, 0, 158
1731654908869,9i,6.614238288706411,1.6s : 0.4s,-0.004685352695929623,0.82755884987613,6.530930479780295,2.432232654444375,5.8472700119018555,3.2445106506347656,-7.614563465118408,1.408307433128357,1.5535178184509277,1.232480525970459,-1.057662863471238,-1.589141080775469,-1.702120538342687,-0.49082693457603455,0.871210515499115,0.009005109779536724, 194, 133, 0, 158
1731654908879,9i,6.614238288706411,1.6s : 0.4s,-0.004685352695929623,0.8691561977961754,6.572629139821253,2.4351709544346023,5.9522576332092285,2.697150945663452,-7.570083141326904,1.5694172382354736,1.4667284488677979,1.147037386894226,-0.9793158085400399,-1.469060907298928,-1.5962403683635618,-0.5547077655792236,0.8301160931587219,-0.05662893131375313, 194, 133, 0, 158
1731654908889,9i,6.614238288706411,1.6s : 0.4s,-0.004685352695929623,0.9105004907271329,6.568043273366596,2.4268644537053836,5.924781799316406,2.1770288944244385,-7.514009475708008,1.6933300495147705,1.3597357273101807,1.0832465887069702,-0.8961125280838875,-1.3795945228799402,-1.5157249502114818,-0.6132672429084778,0.7809045314788818,-0.11870791763067245, 194, 133, 0, 158
1731654908899,9i,6.614238288706411,1.6s : 0.4s,-0.004685352695929623,0.9508888034156374,6.495232299331425,2.344720092131464,5.619395732879639,1.6950304508209229,-7.498090744018555,1.7581661939620972,1.1802663803100586,1.0067448616027832,-0.8101811250386267,-1.3147213677138951,-1.4553914433570476,-0.6668881177902222,0.7244120240211487,-0.17460671067237854, 194, 133, 0, 158
1731654908909,9i,6.614238288706411,1.6s : 0.4s,-0.004685352695929623,0.9914104599014711,6.357760058817313,2.2691232839838893,5.051819324493408,1.255066990852356,-7.447093963623047,1.781219720840454,1.036645531654358,0.9494960904121399,-0.7237399360626431,-1.2703134814640913,-1.412911234504854,-0.7157596349716187,0.6621917486190796,-0.22178912162780762, 194, 133, 0, 158
1731654908919,9i,6.614238288706411,1.6s : 0.4s,-0.004685352695929623,1.0302951175345163,6.1721182344051115,2.217901820821721,4.547295093536377,0.8827913999557495,-7.290600299835205,1.7948002815246582,0.9608097672462463,0.8801278471946716,-0.6388889336754079,-1.2412729425552895,-1.3838362972661686,-0.7595678567886353,0.5963038802146912,-0.25976645946502686, 194, 133, 0, 158
1731654908929,9i,6.614238288706411,1.6s : 0.4s,-0.004685352695929623,1.0677956034113705,5.966582372766042,2.180693344042481,4.2153000831604,0.5333484411239624,-7.077627182006836,1.8129169940948486,0.9029425978660583,0.808362603187561,-0.5567784070250761,-1.2223677473419239,-1.3629853101399751,-0.7979483008384705,0.5284539461135864,-0.28985369205474854, 194, 133, 0, 158
1731654908939,9i,6.614238288706411,1.6s : 0.4s,-0.004685352695929623,1.1043237898444354,5.757959677100114,2.166858899000519,3.919518232345581,0.2687813639640808,-6.879512786865234,1.831064224243164,0.8634533882141113,0.7726121544837952,-0.47739655599117836,-1.2105671505060354,-1.3472222330548158,-0.8311864137649536,0.45946836471557617,-0.3130784332752228, 194, 133, 0, 158
1731654908949,9i,6.614238288706411,1.6s : 0.4s,-0.004685352695929623,1.1405232003994616,5.550522647120869,2.158139464226377,3.6975061893463135,0.052618712186813354,-6.643815517425537,1.8158674240112305,0.8519376516342163,0.796488344669342,-0.4007537216891618,-1.2035046305087436,-1.3344072997081058,-0.8593551516532898,0.3901124596595764,-0.33063748478889465, 194, 133, 0, 158
1731654908959,9i,6.614238288706411,1.6s : 0.4s,-0.004685352695929623,1.1765977236494927,5.321734603088252,2.126130726855209,3.3071799278259277,-0.1545141339302063,-6.378164768218994,1.7849578857421875,0.7797375917434692,0.8522713780403137,-0.3274629694678673,-1.2005207259182102,-1.3245119812183725,-0.8826905488967896,0.32164186239242554,-0.34264302253723145, 194, 133, 0, 158
1731654908969,9i,6.614238288706411,1.6s : 0.4s,-0.004685352695929623,1.2123531496695725,5.070118243716514,2.07010150346603,2.864459753036499,-0.2871166467666626,-6.083309650421143,1.7503223419189453,0.6712074279785156,0.8781642913818359,-0.25827487364614987,-1.2008710725451217,-1.3180260381405056,-0.9014301896095276,0.2554130256175995,-0.34955403208732605, 194, 133, 0, 158
1731654908979,9i,6.614238288706411,1.6s : 0.4s,-0.004685352695929623,1.2473454481549582,4.804255012514004,1.9807469346022484,2.5137414932250977,-0.4081069827079773,-5.739735126495361,1.6877461671829224,0.5243313312530518,0.8943980932235718,-0.1935807289819467,-1.2034451979048768,-1.3142283727968347,-0.9158498644828796,0.19237396121025085,-0.352436363697052, 194, 133, 0, 158
1731654908989,9i,6.614238288706411,1.6s : 0.4s,-0.004685352695929623,1.2807339185933855,4.511068959105582,1.844641107266138,2.1106622219085693,-0.4875999391078949,-5.321514129638672,1.6002795696258545,0.3276614546775818,0.8569971323013306,-0.13371990024148378,-1.2076422585823943,-1.3123434517352737,-0.926436185836792,0.13332174718379974,-0.3520532250404358, 194, 133, 0, 158
1731654908999,9i,6.614238288706411,1.6s : 0.4s,-0.004685352695929623,1.3116803779045019,4.190796131790304,1.6980044416021287,1.6806260347366333,-0.5021630525588989,-4.867763042449951,1.517784595489502,0.14904668927192688,0.7465481162071228,-0.07944563311833043,-1.212628390889965,-1.312598411689999,-0.9335867166519165,0.07936208695173264,-0.349453330039978, 194, 133, 0, 158
1731654909009,9i,6.614238288706411,1.6s : 0.4s,-0.004685352695929623,1.3397227366385989,3.854590045115248,1.5749355108987466,1.3493871688842773,-0.5263631939888,-4.380556106567383,1.4527485370635986,0.0158366821706295,0.6080236434936523,-0.0309058846771918,-1.2178693603319943,-1.3146086476262586,-0.9379169940948486,0.03090096451342106,-0.3454808294773102, 194, 133, 0, 158
1731654909019,9i,6.614238288706411,1.6s : 0.4s,-0.004685352695929623,1.3645626778323396,3.5067284388456295,1.4786405155938362,1.036454200744629,-0.5130670070648193,-3.883500576019287,1.4026820659637451,-0.10553527623414993,0.455766499042511,0.011911954138442022,-1.2231093711498018,-1.3175681444893925,-0.9400967359542847,-0.011911672540009022,-0.3406999409198761, 194, 133, 0, 158
1731654909029,9i,6.614238288706411,1.6s : 0.4s,-0.004685352695929623,1.3865130120781868,3.1511185497429874,1.4302797132673348,0.6964157223701477,-0.47270411252975464,-3.3972768783569336,1.3666062355041504,-0.1902797371149063,0.37667104601860046,0.048982457071648396,-1.227905411811774,-1.3217124710956185,-0.9406571388244629,-0.048962872475385666,-0.3358078896999359, 194, 133, 0, 158
1731654909039,9i,6.614238288706411,1.6s : 0.4s,-0.004685352695929623,1.4061435624385143,2.812402154588711,1.4074959717074125,0.5474066138267517,-0.4574422240257263,-2.958158493041992,1.350078821182251,-0.23203665018081665,0.32325080037117004,0.08090256648497263,-1.2321984533980888,-1.3265446640780434,-0.9401362538337708,-0.08081433922052383,-0.3310784697532654, 194, 133, 0, 158
1731654909049,9i,6.614238288706411,1.6s : 0.4s,-0.004685352695929623,1.4240495241167819,2.4946435443431527,1.4236225491376793,0.2909814715385437,-0.45186102390289307,-2.5979063510894775,1.358025074005127,-0.289159893989563,0.3144131302833557,0.10843719665560304,-1.2362723254349823,-1.3317854259061601,-0.9390187859535217,-0.10822480916976929,-0.32639119029045105, 194, 133, 0, 158
1731654909059,9i,6.614238288706411,1.6s : 0.4s,-0.004685352695929623,1.440775490894488,2.183479814280478,1.4400742588786075,0.24199946224689484,-0.45451870560646057,-2.1360275745391846,1.3711607456207275,-0.319507896900177,0.3027321994304657,0.13166261101163315,-1.2400450447788023,-1.337160713202173,-0.9376127123832703,-0.13128253817558289,-0.32194292545318604, 194, 133, 0, 158
1731654909069,9i,6.614238288706411,1.6s : 0.4s,-0.004685352695929623,1.457234049487554,1.8897531806217949,1.439245096235921,0.16956575214862823,-0.43449467420578003,-1.7545616626739502,1.3890644311904907,-0.28499555587768555,0.24638178944587708,0.15055489427755187,-1.2439657075562878,-1.3415365488388526,-0.9363514184951782,-0.14998677372932434,-0.3174113929271698, 194, 133, 0, 158
1731654909079,9i,6.614238288706411,1.6s : 0.4s,-0.004685352695929623,1.4734610467463995,1.6100540348893049,1.4277590988890085,0.11924818903207779,-0.3469264507293701,-1.391642451286316,1.3820905685424805,-0.26976296305656433,0.23568972945213318,0.16587213791197822,-1.2471974798763723,-1.344986377176571,-0.9350842833518982,-0.16511255502700806,-0.3136163055896759, 194, 133, 0, 158
1731654909089,9i,6.614238288706411,1.6s : 0.4s,-0.004685352695929623,1.4886711048837213,1.3605192922239895,1.3670337323617319,0.07369348406791687,-0.34492188692092896,-1.1195608377456665,1.3158700466156006,-0.3332356810569763,0.16192969679832458,0.17801804203542382,-1.249855756666575,-1.348191965585146,-0.9339426159858704,-0.17707929015159607,-0.3104739189147949, 194, 133, 0, 158
1731654909099,9i,6.614238288706411,1.6s : 0.4s,-0.004685352695929623,1.502651078946336,1.1055401260042337,1.3423364980758274,-0.13794386386871338,-0.31487134099006653,-0.7369187474250793,1.2567039728164673,-0.44535717368125916,0.15562579035758972,0.1868314462763326,-1.2527194235008616,-1.3513268261452875,-0.9333093762397766,-0.18574641644954681,-0.3072981536388397, 194, 133, 0, 158
1731654909108,9i,6.614238288706411,1.6s : 0.4s,-0.004685352695929623,1.5150607679382875,0.8438896504829763,1.295166042635009,-0.3750557601451874,-0.1904444396495819,-0.33600515127182007,1.163408637046814,-0.5544888973236084,0.1283646523952484,0.1910095356743653,-1.2544452458124389,-1.3555320727958347,-0.9330925941467285,-0.18985016644001007,-0.3054428696632385, 194, 133, 0, 158
1731654909118,9i,6.614238288706411,1.6s : 0.4s,-0.004685352695929623,1.5258700561623728,0.5820606144883708,1.2170982195208973,-0.513704240322113,-0.03825348988175392,0.09520760178565979,1.0660357475280762,-0.5816900134086609,0.08082443475723267,0.19079735170770398,-1.2546483040705323,-1.3602214158311865,-0.9331928491592407,-0.1896418333053589,-0.305265873670578, 194, 133, 0, 158
1731654909128,9i,6.614238288706411,1.6s : 0.4s,-0.004685352695929623,1.535361230173409,0.3485664137855146,1.1491149878279627,-0.5886874198913574,0.1314721554517746,0.5138477087020874,0.9922915697097778,-0.5761805176734924,0.06195729970932007,0.18612275138086815,-1.253329994880857,-1.3646956826569157,-0.9336215853691101,-0.18505001068115234,-0.3067692518234253, 194, 133, 0, 158
1731654909138,9i,6.614238288706411,1.6s : 0.4s,-0.004685352695929623,1.544281291952305,0.2518665379108835,1.1059476079440045,-0.60300612449646,0.26588863134384155,0.8952732086181641,0.9711793661117554,-0.5213955640792847,0.08987444639205933,0.17758018811306142,-1.2507184099295146,-1.368206924696451,-0.9342836737632751,-0.1766483336687088,-0.30969250202178955, 194, 133, 0, 158
1731654909148,9i,6.614238288706411,1.6s : 0.4s,-0.004685352695929623,1.5531811216544624,0.3994190419556306,1.0729640618047054,-0.6325693726539612,0.4067871570587158,1.2937657833099365,0.9559881687164307,-0.47027885913848877,0.12718605995178223,0.16528416055482484,-1.2469023870498335,-1.3706507892401587,-0.9350836873054504,-0.1645326316356659,-0.31392309069633484, 194, 133, 0, 158
1731654909158,9i,6.614238288706411,1.6s : 0.4s,-0.004685352695929623,1.562270460782995,0.6321172457983683,1.0482157011475335,-0.6363403797149658,0.5028157234191895,1.667636513710022,0.9486157894134521,-0.42768794298171997,0.1263616383075714,0.1492356286968344,-1.2421695158423016,-1.3718751241915557,-0.9359661936759949,-0.14868229627609253,-0.31915631890296936, 194, 133, 0, 158
1731654909168,9i,6.614238288706411,1.6s : 0.4s,-0.004685352695929623,1.5716766950044223,0.8819404768948202,1.042652108470823,-0.6994048357009888,0.5799605250358582,2.0220141410827637,0.9507360458374023,-0.40691256523132324,0.1328403353691101,0.12964421067529636,-1.2366855244851622,-1.3722024860806428,-0.9367743134498596,-0.12928134202957153,-0.32517728209495544, 194, 133, 0, 158
1731654909178,9i,6.614238288706411,1.6s : 0.4s,-0.004685352695929623,1.5814647320796227,1.129032347663567,1.0361205969928857,-0.7925863862037659,0.6421560049057007,2.3406894207000732,0.9476125240325928,-0.39319396018981934,0.14482715725898743,0.10664188915416534,-1.2305825350960793,-1.3720823286301975,-0.9373281002044678,-0.10643987357616425,-0.33179301023483276, 194, 133, 0, 158
1731654909188,9i,6.614238288706411,1.6s : 0.4s,-0.004685352695929623,1.5916960428002724,1.3740261237559719,1.0333613510552315,-0.8718833327293396,0.6712542176246643,2.6892549991607666,0.9393299221992493,-0.3924867808818817,0.17733895778656006,0.0802403302572972,-1.2240823723767216,-1.3714932555092199,-0.937468409538269,-0.08015425503253937,-0.3387158215045929, 194, 133, 0, 158
1731654909198,9i,6.614238288706411,1.6s : 0.4s,-0.004685352695929623,1.6023351768030736,1.6305054667478691,1.0319685074450056,-0.9659988284111023,0.7372967600822449,3.095385789871216,0.9233443737030029,-0.4075537919998169,0.2151605784893036,0.05000189060126904,-1.2171394802416318,-1.3703416900360215,-0.9369401335716248,-0.04998105764389038,-0.3458978235721588, 194, 133, 0, 158
1731654909208,9i,6.614238288706411,1.6s : 0.4s,-0.004685352695929623,1.6132935756143159,1.8951818855858982,1.0175593789351711,-0.9482299089431763,0.8297654390335083,3.532755136489868,0.916979968547821,-0.3938014507293701,0.1987341046333313,0.01565356477717929,-1.2094031797312554,-1.3678979067695884,-0.9352905750274658,-0.01565292477607727,-0.35353443026542664, 194, 133, 0, 158
1731654909218,9i,6.614238288706411,1.6s : 0.4s,-0.004685352695929623,1.6245467317149962,2.165222115038042,1.0141527721685173,-0.8503541946411133,0.9572227001190186,3.975710391998291,0.9382027983665466,-0.3542715609073639,0.15090730786323547,-0.02256262401448917,-1.200484319615161,-1.363022215797417,-0.9319772720336914,0.022560710087418556,-0.3618142306804657, 194, 133, 0, 158
1731654909228,9i,6.614238288706411,1.6s : 0.4s,-0.004685352695929623,1.6361354201641907,2.431898012078835,1.0448928464344134,-0.7833421230316162,1.0877723693847656,4.361290454864502,0.9858641624450684,-0.321381151676178,0.12879079580307007,-0.06429955459078,-1.1899067825680552,-1.3554044983689066,-0.9264159798622131,0.0642552599310875,-0.3709782063961029, 194, 133, 0, 158
1731654909238,9i,6.614238288706411,1.6s : 0.4s,-0.004685352695929623,1.6485450661433927,2.684050869585819,1.1075681127103676,-0.7666852474212646,1.1362507343292236,4.687872886657715,1.0594531297683716,-0.29958656430244446,0.12047439813613892,-0.10903705625423878,-1.1779177261090816,-1.3455623899986235,-0.9183246493339539,0.10882112383842468,-0.38057568669319153, 194, 133, 0, 158
1731654909248,9i,6.614238288706411,1.6s : 0.4s,-0.004685352695929623,1.6620297386776377,2.9364289484303083,1.2021777767663804,-0.8882865309715271,1.160748839378357,5.047974109649658,1.1505279541015625,-0.3185989558696747,0.14146214723587036,-0.15693453952173572,-1.1648922592541158,-1.334271010064098,-0.9074554443359375,0.1562911570072174,-0.389997273683548, 194, 133, 0, 158
1731654909258,9i,6.614238288706411,1.6s : 0.4s,-0.004685352695929623,1.6768462415368215,3.200883241704895,1.2935407407874775,-1.0288591384887695,1.1955124139785767,5.467106819152832,1.2383304834365845,-0.3303191065788269,0.17514151334762573,-0.2088482288525756,-1.150885770234799,-1.321993477941384,-0.8932836651802063,0.2073332965373993,-0.3988201320171356, 194, 133, 0, 158
1731654909268,9i,6.614238288706411,1.6s : 0.4s,-0.004685352695929623,1.6933372375438591,3.479357450113982,1.379029931228904,-1.0956884622573853,1.2772372961044312,5.918983459472656,1.3322906494140625,-0.29232293367385864,0.20315629243850708,-0.2649713569369724,-1.1351800200188753,-1.3078531589025826,-0.874969482421875,0.26188161969184875,-0.4072425365447998, 194, 133, 0, 158
1731654909278,9i,6.614238288706411,1.6s : 0.4s,-0.004685352695929623,1.7118090466865785,3.756447153091992,1.483329548937583,-1.019629716873169,1.3428641557693481,6.342888832092285,1.4374678134918213,-0.271357923746109,0.24559664726257324,-0.324798588645421,-1.1170210194785881,-1.2905413193754827,-0.8518048524856567,0.3191179037094116,-0.4154421389102936, 194, 133, 0, 158
1731654909288,9i,6.614238288706411,1.6s : 0.4s,-0.004685352695929623,1.7325180988015454,4.028816826783307,1.6083312183684426,-0.9775307178497314,1.4560383558273315,6.728267669677734,1.5520048141479492,-0.28566670417785645,0.3104913830757141,-0.38755007115239465,-1.0954621986405424,-1.2689642932360305,-0.8231993317604065,0.37792131304740906,-0.4236963093280792, 194, 133, 0, 158
1731654909298,9i,6.614238288706411,1.6s : 0.4s,-0.004685352695929623,1.755481968203859,4.3031134919626846,1.7339985722488347,-0.935834527015686,1.6123758554458618,7.1293535232543945,1.6815098524093628,-0.2918015420436859,0.30680209398269653,-0.4531306306584754,-1.0694655931398753,-1.2429994313502417,-0.7884435057640076,0.4377823770046234,-0.43209198117256165, 194, 133, 0, 158
1731654909308,9i,6.614238288706411,1.6s : 0.4s,-0.004685352695929623,1.7808652261802964,4.585165772301539,1.8731650174105692,-0.886522650718689,1.7412036657333374,7.568716049194336,1.8352537155151367,-0.25377482175827026,0.27602413296699524,-0.5212989709748913,-1.037601290553286,-1.2110760577044735,-0.746798574924469,0.49800699949264526,-0.4407731890678406, 194, 133, 0, 158
1731654909318,9i,6.614238288706411,1.6s : 0.4s,-0.004685352695929623,1.8091227264422565,4.8976987943248815,2.0438641335237153,-0.9202916622161865,1.8907194137573242,8.119321823120117,2.007816791534424,-0.22366732358932495,0.3098794221878052,-0.5926390731935005,-0.998701811928332,-1.1721307050276166,-0.6973921656608582,0.5585519671440125,-0.4490700364112854, 194, 133, 0, 158
1731654909328,9i,6.614238288706411,1.6s : 0.4s,-0.004685352695929623,1.8410367890694286,5.22634744331881,2.2552461380139204,-0.9533380270004272,2.024979829788208,8.647136688232422,2.205763101577759,-0.19432824850082397,0.42776256799697876,-0.6671912806163973,-0.950304269617611,-1.123657334157839,-0.6391280293464661,0.6187819838523865,-0.456754207611084, 194, 133, 0, 158
1731654909338,9i,6.614238288706411,1.6s : 0.4s,-0.004685352695929623,1.877160568785425,5.559630539023917,2.492513207160594,-1.331034779548645,2.1599793434143066,9.097696304321289,2.4188926219940186,-0.2186117172241211,0.5601691603660583,-0.7444682810216601,-0.8914509778193139,-1.0655242075053988,-0.5721672177314758,0.6775808334350586,-0.4620703458786011, 194, 133, 0, 158
1731654909348,9i,6.614238288706411,1.6s : 0.4s,-0.004685352695929623,1.918053231493851,5.928493204789893,2.7492233033338613,-1.720981478691101,2.326791524887085,9.700515747070312,2.655247688293457,-0.21145552396774292,0.6805696487426758,-0.8252389481015914,-0.8190355621714104,-0.9953841124758596,-0.49554920196533203,0.7347099184989929,-0.46328437328338623, 194, 133, 0, 158
1731654909358,9i,6.614238288706411,1.6s : 0.4s,-0.004685352695929623,1.9647432328388144,6.37820668794879,3.082929917931705,-2.312983989715576,2.5150327682495117,10.544683456420898,2.9533915519714355,-0.176072359085083,0.8665643334388733,-0.909979410739728,-0.7260911028359165,-0.9057460237180236,-0.4075084924697876,0.7894911170005798,-0.4589563012123108, 194, 133, 0, 158
1731654909368,9i,6.614238288706411,1.6s : 0.4s,-0.004685352695929623,2.0185574484180626,6.911952972234266,3.5100466896511566,-2.975180149078369,2.4362752437591553,11.560370445251465,3.3292489051818848,-0.13796567916870117,1.1034015417099,-0.9989299722446627,-0.6015307859268714,-0.7842017695783964,-0.3062693476676941,0.8408923745155334,-0.4462054371833801, 194, 133, 0, 158
1731654909378,9i,6.614238288706411,1.6s : 0.4s,-0.004685352695929623,2.081358077650317,7.500272044598988,4.061048295310385,-3.5388383865356445,2.170766592025757,12.590659141540527,3.8138718605041504,-0.02739417552947998,1.3948993682861328,-1.0867545793612665,-0.42528824128593523,-0.6079007651762018,-0.19200003147125244,0.8851212859153748,-0.42390620708465576, 194, 133, 0, 158
1731654909388,9i,6.614238288706411,1.6s : 0.4s,-0.004685352695929623,2.1546389808596866,8.103095781282624,4.665220257443387,-4.2375993728637695,1.8214058876037598,13.453254699707031,4.375241279602051,0.09485328197479248,1.6163374185562134,-1.1622638183170382,-0.1675900865905902,-0.3453965831412659,-0.06626617908477783,0.9177048206329346,-0.3916975259780884, 194, 133, 0, 158
1731654909398,9i,6.614238288706411,1.6s : 0.4s,-0.004685352695929623,2.238998720307941,8.650052814043859,5.2012237109882165,-5.53463077545166,1.4535895586013794,13.756168365478516,4.895819664001465,0.27398836612701416,1.7345340251922607,-1.2100163596709388,0.1885651140134985,0.020446344239279424,0.06617055088281631,0.9356217980384827,-0.34674715995788574, 194, 133, 0, 158
1731654909408,9i,6.614238288706411,1.6s : 0.4s,-0.004685352695929623,2.334374916649102,9.142492714264316,5.669524867768415,-7.36513090133667,0.8258845806121826,13.697338104248047,5.371410846710205,0.5451481342315674,1.7303962707519531,-1.215997420909192,0.6081547694315966,0.45550203421428226,0.19848965108394623,0.9377163648605347,-0.28511425852775574, 194, 133, 0, 158
1731654909418,9i,6.614238288706411,1.6s : 0.4s,-0.004685352695929623,2.4409904140307774,9.604848298533327,6.14814017300477,-9.684669494628906,0.2117179036140442,13.186753273010254,5.799844741821289,1.0421113967895508,1.7536910772323608,-1.17629951881695,1.0093343360807325,0.8800803228460976,0.32533836364746094,0.9231900572776794,-0.2046339362859726, 194, 133, 0, 158
1731654909428,9i,6.614238288706411,1.6s : 0.4s,-0.004685352695929623,2.559454041452701,10.011234889471762,6.625062836672443,-12.16828441619873,-1.0426902770996094,11.950210571289062,6.00683069229126,1.7604154348373413,2.1703410148620605,-1.101659488409858,1.3307494677134395,1.2375462747892836,0.43915295600891113,0.8919588923454285,-0.10748987644910812, 194, 133, 0, 158
1731654909438,9i,6.614238288706411,1.6s : 0.4s,-0.004685352695929623,2.690191023682808,10.52448617142853,7.147552874701976,-14.619048118591309,-2.165257692337036,10.916800498962402,5.983192443847656,2.514136791229248,2.9946680068969727,-1.0035084318754435,1.5725981036270456,1.5344415816524584,0.5373461246490479,0.8433614373207092,0.0009681787923909724, 194, 133, 0, 158
1731654909448,9i,6.614238288706411,1.6s : 0.4s,-0.004685352695929623,2.8346147373994732,11.31689717452325,8.023263176184802,-18.007835388183594,-3.7342207431793213,9.635117530822754,6.155059337615967,3.5943076610565186,3.683605432510376,-0.8860651012034734,1.752478944110865,1.7927698499982438,0.6220554709434509,0.7745890617370605,0.11427681148052216, 194, 133, 0, 158
1731654909458,9i,6.614238288706411,1.6s : 0.4s,-0.004685352695929623,2.9937136101484896,12.51299217017867,9.041899809588458,-22.090368270874023,-6.169809818267822,7.75508451461792,6.092783451080322,4.76533317565918,4.682471752166748,-0.7498589316002352,1.8876887132478528,2.04398597542828,0.6953482031822205,0.681535542011261,0.2280353158712387, 194, 133, 0, 158
1731654909468,9i,6.614238288706411,1.6s : 0.4s,-0.004685352695929623,3.1644093737522603,14.020468921799473,9.588869089689297,-26.075502395629883,-8.405380249023438,4.4547119140625,5.3873491287231445,5.2949604988098145,5.906460285186768,-0.6056881051904804,1.975682221053605,2.303987167426814,0.7556406855583191,0.5693278908729553,0.3238407373428345, 194, 133, 0, 158
1731654909478,9i,6.614238288706411,1.6s : 0.4s,-0.004685352695929623,3.335436317879987,15.920755151440716,8.834097806777551,-31.170520782470703,-8.071085929870605,-0.6572843790054321,3.743839740753174,3.6686508655548096,7.110973834991455,-0.46435917842735885,2.042898372126248,2.595106234802433,0.7963060140609741,0.44784992933273315,0.4066043198108673, 194, 133, 0, 158
1731654909488,9i,6.614238288706411,1.6s : 0.4s,-0.004685352695929623,3.4991133852084078,17.075155293283085,9.479935525304905,-29.432973861694336,-9.490792274475098,-7.104602813720703,1.8966267108917236,0.9346705675125122,9.241124153137207,-0.35319020779666627,2.0830579124060686,2.9129610086068394,0.817835807800293,0.34589284658432007,0.45989498496055603, 194, 133, 0, 158
1731654909498,9i,6.614238288706411,1.6s : 0.4s,-0.004685352695929623,3.666179297972517,17.04053283487104,12.326881319011656,-22.754634857177734,-12.35765266418457,-6.119779109954834,1.2419337034225464,0.7507613897323608,12.241158485412598,-0.2892029125229462,2.0553073621175355,-3.093124737634366,0.8481542468070984,0.28518831729888916,0.44643282890319824, 194, 133, 0, 158
1731654909508,9i,6.614238288706411,1.6s : 0.4s,-0.004685352695929623,3.8484428414253244,15.019147622889294,12.637488302714953,-13.10840129852295,-8.16600513458252,-4.464510440826416,2.0035805702209473,4.919422149658203,11.466955184936523,-0.2536062360139654,2.0036326177043478,-2.9047779298599496,0.8787437081336975,0.25089648365974426,0.40603089332580566, 194, 133, 0, 158
1731654909518,9i,6.614238288706411,1.6s : 0.4s,-0.004685352695929623,4.023450097278746,13.050369660533477,8.578825242394581,-9.32833480834961,-7.237200736999512,-9.025127410888672,2.794001579284668,6.9434709548950195,4.19261360168457,-0.2706517920412948,1.962249647816117,-2.7733936312788665,0.8907061815261841,0.26735955476760864,0.367643266916275, 194, 133, 0, 158
1731654909528,9i,6.614238288706411,1.6s : 0.4s,-0.004685352695929623,4.162866783008707,11.870663449930033,3.1290039584201237,-8.29104232788086,-7.7551422119140625,-11.227540016174316,0.42800915241241455,2.324857711791992,2.0500025749206543,-0.3345784474013487,1.9235663143651178,-2.6473610010567414,0.8863831162452698,0.3283710181713104,0.32634034752845764, 194, 133, 0, 158
1731654909538,9i,6.614238288706411,1.6s : 0.4s,-0.004685352695929623,4.282193095006534,10.957979897916728,4.635963095855031,-5.932304382324219,-7.406632423400879,-12.10808277130127,0.07260251045227051,0.8710949420928955,4.552809715270996,-0.4203163740122846,1.889757756291298,-2.532809483463646,0.8669117093086243,0.4080493152141571,0.28628647327423096, 194, 133, 0, 158
1731654909548,9i,6.614238288706411,1.6s : 0.4s,-0.004685352695929623,4.3917812364698685,10.257712866894709,4.398876209858488,-2.3399813175201416,-7.179460525512695,-13.751045227050781,1.1564868688583374,1.4263285398483276,3.9972786903381348,-0.5310172861586004,1.8566226722309773,-2.4455707321842666,0.8273084759712219,0.5064107775688171,0.24312369525432587, 194, 133, 0, 158
1731654909558,9i,6.614238288706411,1.6s : 0.4s,-0.004685352695929623,4.490529610996493,9.736986042712951,3.5117142729676964,1.230617642402649,-6.645334243774414,-14.155316352844238,1.2171584367752075,1.6647839546203613,2.842385768890381,-0.6650996251420275,1.8158049486957701,-2.39470438378304,0.7633561491966248,0.6171375513076782,0.19086334109306335, 194, 133, 0, 158
1731654909568,9i,6.614238288706411,1.6s : 0.4s,-0.004685352695929623,4.581252083973252,9.405748666059397,3.33960662304308,3.6026694774627686,-6.483539581298828,-13.316117286682129,1.4284238815307617,1.4096075296401978,2.6693789958953857,-0.8045732599969769,1.7541922801981902,-2.3889019510842653,0.6817904710769653,0.7205348014831543,0.1264585703611374, 194, 133, 0, 158
1731654909578,9i,6.614238288706411,1.6s : 0.4s,-0.004685352695929623,4.670331125603295,9.323509690495262,4.000447922907092,4.52410364151001,-6.680951118469238,-12.713946342468262,2.3854081630706787,0.2648586630821228,3.200509548187256,-0.9385810091612002,1.6613057359983274,-2.424451904789198,0.5885146856307983,0.8067203760147095,0.053412046283483505, 194, 133, 0, 158
1731654909588,9i,6.614238288706411,1.6s : 0.4s,-0.004685352695929623,4.758490135631537,9.344663523120987,4.593808316671946,5.189508438110352,-6.697811603546143,-12.229388236999512,2.4671428203582764,-0.8621008396148682,3.777970790863037,-1.0643228351668648,1.5232151855587281,-2.5082373639166935,0.484547883272171,0.8744606375694275,-0.023072756826877594, 194, 133, 0, 158
1731654909598,9i,6.614238288706411,1.6s : 0.4s,-0.004685352695929623,4.841535471534177,9.355919066500428,4.393152354075911,6.462705612182617,-6.788812637329102,-11.358309745788574,1.7572879791259766,-1.4306046962738037,3.7636547088623047,-1.1718736369133098,1.2992883771833437,-2.6820116773837057,0.3741970956325531,0.9214800000190735,-0.1041698306798935, 194, 133, 0, 158
1731654909608,9i,6.614238288706411,1.6s : 0.4s,-0.004685352695929623,4.917812137320844,9.348015434450998,3.9510473269211572,7.952800273895264,-6.808869361877441,-10.26258373260498,1.5318087339401245,-1.5762200355529785,3.283270835876465,-1.238605473215594,0.9384164991538706,-2.99492995135757,0.2630521357059479,0.9453301429748535,-0.19275566935539246, 194, 133, 0, 158
1731654909618,9i,6.614238288706411,1.6s : 0.4s,-0.004685352695929623,4.989867131307189,9.309562838260861,3.9676948500997336,9.254630088806152,-7.280331134796143,-8.570722579956055,1.504762887954712,-1.5186545848846436,3.3424510955810547,-1.2363387587753771,0.4953521530743757,2.892874789921932,0.15603427588939667,0.9445884823799133,-0.2888011336326599, 194, 133, 0, 158
1731654909628,9i,6.614238288706411,1.6s : 0.4s,-0.004685352695929623,5.059421694973711,9.224782851180105,4.041778969810097,9.990328788757324,-7.576174259185791,-6.804794788360596,1.3903528451919556,-1.4914830923080444,3.489752769470215,-1.1704901775864365,0.1422540059445814,2.5883631944706678,0.0552496537566185,0.9209417104721069,-0.385763943195343, 194, 133, 0, 158
1731654909638,9i,6.614238288706411,1.6s : 0.4s,-0.004685352695929623,5.126110515609889,9.134125774980111,3.8438924013389264,10.015064239501953,-7.120341777801514,-6.088155746459961,1.1489253044128418,-1.4045257568359375,3.3886260986328125,-1.0718398197269208,-0.07932408217068515,2.418176197333514,-0.03791753575205803,0.8780823349952698,-0.4770048260688782, 194, 133, 0, 158
1731654909648,9i,6.614238288706411,1.6s : 0.4s,-0.004685352695929623,5.188958982701981,8.978260086203747,3.439477742093805,9.78670883178711,-6.836831092834473,-5.616078853607178,0.8537032008171082,-1.1618390083312988,3.122711658477783,-0.9646646842817896,-0.22018132545811356,2.3333602921372134,-0.12442460656166077,0.8218579292297363,-0.5559390187263489, 194, 133, 0, 158
1731654909657,9i,6.614238288706411,1.6s : 0.4s,-0.004685352695929623,5.2464830383056595,8.789292887629012,2.935969009418173,9.498089790344238,-6.607516288757324,-5.122296333312988,0.4701797366142273,-0.8662194609642029,2.7655937671661377,-0.8574217466851068,-0.3207414193368941,2.2914402997187553,-0.2063094824552536,0.7561578750610352,-0.6210167407989502, 194, 133, 0, 158
1731654909667,9i,6.614238288706411,1.6s : 0.4s,-0.004685352695929623,5.297554045252627,8.565058594292433,2.460285217024198,9.078816413879395,-6.271493434906006,-4.928534030914307,0.13506156206130981,-0.6175156235694885,2.3776955604553223,-0.7529786393122105,-0.3999073217645623,2.27111722601377,-0.2840788960456848,0.6838151812553406,-0.6720834374427795, 194, 133, 0, 158
1731654909677,9i,6.614238288706411,1.6s : 0.4s,-0.004685352695929623,5.3425658899127795,8.292575015121475,2.0718077161938653,8.569466590881348,-5.897342681884766,-4.786965847015381,0.00622066855430603,-0.3303195834159851,2.0452964305877686,-0.6526925597570007,-0.46655778434485295,2.261878796622583,-0.35735589265823364,0.6073276996612549,-0.7095420360565186, 194, 133, 0, 158
1731654909687,9i,6.614238288706411,1.6s : 0.4s,-0.004685352695929623,5.382410835393667,7.993221772894936,1.716495983070636,7.898746013641357,-5.8705830574035645,-4.644197940826416,0.057815343141555786,-0.11074501276016235,1.7119437456130981,-0.5578577576800207,-0.5265483564388946,2.2592596098103095,-0.4263608753681183,0.5293699502944946,-0.7334738969802856, 194, 133, 0, 158
1731654909697,9i,6.614238288706411,1.6s : 0.4s,-0.004685352695929623,5.418072527989388,7.63827367454459,1.37669125568025,6.860880374908447,-5.95521879196167,-4.561713695526123,0.27381017804145813,0.006679803133010864,1.3491709232330322,-0.4707511344150747,-0.5855511082078583,2.2597865771520977,-0.49254491925239563,0.4535558521747589,-0.742756187915802, 194, 133, 0, 158
1731654909707,9i,6.614238288706411,1.6s : 0.4s,-0.004685352695929623,5.451364104773279,7.204213358555259,1.331549604325117,5.5054030418396,-5.655276775360107,-4.916606426239014,0.4773713946342468,0.1442759931087494,1.2346357107162476,-0.3952305191023842,-0.6461656271333789,2.2597627372961457,-0.5557100176811218,0.3850209414958954,-0.7368481755256653, 194, 133, 0, 158
1731654909717,9i,6.614238288706411,1.6s : 0.4s,-0.004685352695929623,5.484606263383901,6.798273690047643,1.553223336419543,4.706532955169678,-5.3992509841918945,-5.163851261138916,0.5867965817451477,0.433622270822525,1.3711835145950317,-0.3278822294539715,-0.7055981139911507,2.2565821887611817,-0.6139419674873352,0.32203879952430725,-0.720670759677887, 194, 133, 0, 158
1731654909727,9i,6.614238288706411,1.6s : 0.4s,-0.004685352695929623,5.517937236883951,6.45919426814725,1.6157370619322806,4.46393346786499,-5.328863620758057,-4.9098663330078125,0.5192233920097351,0.666272759437561,1.3773503303527832,-0.2627186517078791,-0.761807594117966,2.2518788129254528,-0.6665470004081726,0.25970688462257385,-0.6987614035606384, 194, 133, 0, 158
1731654909737,9i,6.614238288706411,1.6s : 0.4s,-0.004685352695929623,5.551061315798376,6.168068332827017,1.5534067341150741,4.480612277984619,-4.916417598724365,-4.798130512237549,0.5513969659805298,0.6417751908302307,1.3027503490447998,-0.19727038722058812,-0.8135289464923884,2.2494757667151126,-0.7126213908195496,0.19599339365959167,-0.6736151576042175, 194, 133, 0, 158
1731654909747,9i,6.614238288706411,1.6s : 0.4s,-0.004685352695929623,5.5845114229523665,5.9212277056701925,1.5709748819749105,4.708569049835205,-4.519477844238281,-4.57437801361084,0.7097265720367432,0.5063106417655945,1.3068664073944092,-0.13198114720202198,-0.8602739112531386,2.2522105610138685,-0.7514288425445557,0.1315983235836029,-0.6465575098991394, 194, 133, 0, 158
1731654909757,9i,6.614238288706411,1.6s : 0.4s,-0.004685352695929623,5.61814102917196,5.734203407925394,1.5815866753166763,5.12753963470459,-4.240580081939697,-4.278418064117432,0.8640400767326355,0.3647579848766327,1.2735002040863037,-0.06670323686393538,-0.9029276509427739,2.26200351752157,-0.783397376537323,0.0666537806391716,-0.6179367303848267, 194, 133, 0, 158
1731654909767,9i,6.614238288706411,1.6s : 0.4s,-0.004685352695929623,5.651909272584057,5.6045660205897505,1.5366236244930431,5.343554496765137,-4.2349958419799805,-4.032888889312744,1.0433735847473145,0.217158243060112,1.1069896221160889,-0.001988528583130386,-0.944632854241573,2.278989791257588,-0.8102802038192749,0.001988527365028858,-0.5860392451286316, 194, 133, 0, 158
1731654909777,9i,6.614238288706411,1.6s : 0.4s,-0.004685352695929623,5.685321034581669,5.47015841048988,1.5046268040603934,5.2567877769470215,-4.157435417175293,-3.789740800857544,1.1789567470550537,0.12715207040309906,0.9261723160743713,0.060232881204172764,-0.9872383756973147,2.300389692850907,-0.8329941630363464,-0.060196466743946075,-0.5499973297119141, 194, 133, 0, 158
1731654909787,9i,6.614238288706411,1.6s : 0.4s,-0.004685352695929623,5.7186567055022985,5.308466306224524,1.5213753881997536,5.1429290771484375,-4.270975112915039,-3.135129928588867,1.2158664464950562,0.09378845244646072,0.9096458554267883,0.11840266289502702,-1.0304910270627154,2.3249933696764784,-0.8515476584434509,-0.11812620609998703,-0.5107963681221008, 194, 133, 0, 158
1731654909807,9i,6.614238288706411,1.6s : 0.4s,-0.004685352695929623,5.785297293392765,4.822444878835046,1.5047793069193858,3.5254170894622803,-3.339378833770752,-2.5880820751190186,1.116173505783081,0.21933527290821075,0.9850936532020569,0.21677174665734827,-1.111224934643954,2.3669377059819396,-0.8752678632736206,-0.21507804095745087,-0.4331832230091095, 194, 133, 0, 158
1731654909797,9i,6.614238288706411,1.6s : 0.4s,-0.004685352695929623,5.752091904069738,4.641963098609103,1.5029683250701604,4.029296875,-4.00506591796875,-2.7378993034362793,1.1937298774719238,0.06445062160491943,0.9109165072441101,0.17128980229520438,-1.0726306728866206,2.3485016318699823,-0.8656049370765686,-0.17045341432094574,-0.4708225131034851, 194, 133, 0, 158
1731654909817,9i,6.614238288706411,1.6s : 0.4s,-0.004685352695929623,5.82051686478911,4.28155574698598,1.6505582056884167,3.2451696395874023,-2.987611770629883,-2.6192750930786133,1.0608006715774536,0.2218497097492218,1.2449204921722412,0.25654544658949396,-1.147706845277779,2.3872282766776687,-0.8819829821586609,-0.2537405788898468,-0.3971422016620636, 194, 133, 0, 158
1731654909827,9i,6.614238288706411,1.6s : 0.4s,-0.004685352695929623,5.854539717129465,3.891018002264864,1.5551020594516127,2.6219451427459717,-2.7107319831848145,-2.362792491912842,1.0696709156036377,-0.17999613285064697,1.11433744430542,0.2912519552363528,-1.1809595449347596,2.4045824930810293,-0.8860161304473877,-0.28715166449546814,-0.36403223872184753, 194, 133, 0, 158
1731654909837,9i,6.614238288706411,1.6s : 0.4s,-0.004685352695929623,5.88824150574175,3.517568328405014,1.5457733574456356,2.437408685684204,-2.3139193058013916,-2.06557297706604,1.001868486404419,-0.3253551125526428,1.1312907934188843,0.3209179258904057,-1.2107914495290146,2.4206159184779747,-0.8881142139434814,-0.31543776392936707,-0.3342936933040619, 194, 133, 0, 158
1731654909847,9i,6.614238288706411,1.6s : 0.4s,-0.004685352695929623,5.920691876559381,3.1588085176087644,1.4941914837371462,2.3137972354888916,-1.8522394895553589,-1.7976337671279907,0.9072093367576599,-0.3688305616378784,1.1285138130187988,0.34709667649570036,-1.237033316364302,2.437277213931077,-0.8884714841842651,-0.3401690721511841,-0.30806398391723633, 194, 133, 0, 158
1731654909857,9i,6.614238288706411,1.6s : 0.4s,-0.004685352695929623,5.951202506859916,2.819905307298777,1.3535556347521185,2.2638604640960693,-1.4142117500305176,-1.481796383857727,0.7709452509880066,-0.3672339916229248,1.0501883029937744,0.3697565584791456,-1.2594387510600669,2.4548023078314194,-0.8875834941864014,-0.3613884449005127,-0.28564658761024475, 194, 133, 0, 158
1731654909867,9i,6.614238288706411,1.6s : 0.4s,-0.004685352695929623,5.979604071148728,2.498234552039484,1.2512898926112053,2.138671636581421,-1.0429580211639404,-1.1818701028823853,0.6573006510734558,-0.3759888708591461,0.9961498975753784,0.38896354259386656,-1.2785178825831547,2.4733452810167393,-0.886060357093811,-0.3792295753955841,-0.26661187410354614, 194, 133, 0, 158
1731654909877,9i,6.614238288706411,1.6s : 0.4s,-0.004685352695929623,6.0054180845770535,2.16877434733714,1.152682226042522,1.8142203092575073,-0.7232186198234558,-0.8779855966567993,0.5713951587677002,-0.4820351302623749,0.8773972988128662,0.40430172313681495,-1.2941270247160008,2.490858493353845,-0.88441401720047,-0.393376886844635,-0.2511308193206787, 194, 133, 0, 158
1731654909887,9i,6.614238288706411,1.6s : 0.4s,-0.004685352695929623,6.028596152541888,1.8280882843507258,1.1047293819585953,1.3950669765472412,-0.4544942080974579,-0.6056555509567261,0.47360050678253174,-0.5685421228408813,0.8202983736991882,0.4155431044664613,-1.3058078890952183,2.5055228991031764,-0.8829633593559265,-0.40368688106536865,-0.23960989713668823, 194, 133, 0, 158
1731654909897,9i,6.614238288706411,1.6s : 0.4s,-0.004685352695929623,6.049278979637115,1.4927848698122272,1.0778711304535724,1.0663431882858276,-0.20708440244197845,-0.3066175580024719,0.37387770414352417,-0.6287846565246582,0.7916132211685181,0.4229594582200735,-1.3139497437169956,2.517228453895619,-0.881964921951294,-0.4104609191417694,-0.23164613544940948, 194, 133, 0, 158
1731654909907,9i,6.614238288706411,1.6s : 0.4s,-0.004685352695929623,6.067598451509994,1.1593219681691818,1.0195806497956221,0.6967646479606628,0.05979016423225403,-0.05246088281273842,0.271958589553833,-0.6324483156204224,0.752058744430542,0.4267428132333875,-1.318440516123849,2.5260962192909266,-0.8814862370491028,-0.413907915353775,-0.2272937297821045, 194, 133, 0, 158
1731654909917,9i,6.614238288706411,1.6s : 0.4s,-0.004685352695929623,6.084195137319046,0.8435649990565146,0.931516160241135,0.37396863102912903,0.3311675190925598,0.1563100963830948,0.1984836459159851,-0.5047609806060791,0.7573261857032776,0.42736501286425527,-1.3189179885907014,2.5318727180301934,-0.8813450336456299,-0.4144742488861084,-0.2268085926771164, 194, 133, 0, 158
1731654909927,9i,6.614238288706411,1.6s : 0.4s,-0.004685352695929623,6.099718119398926,0.5693753274633432,0.8458011870500937,0.11353623867034912,0.5988759398460388,0.35603758692741394,0.15525007247924805,-0.33002206683158875,0.763126790523529,0.4252817245893133,-1.3155769680140459,2.535162031301315,-0.8814159631729126,-0.41257742047309875,-0.22996939718723297, 194, 133, 0, 158
1731654909937,9i,6.614238288706411,1.6s : 0.4s,-0.004685352695929623,6.114431583048368,0.37821634662557824,0.8000038953848021,-0.12981829047203064,0.7184053659439087,0.549652636051178,0.1333443522453308,-0.2567444145679474,0.7458604574203491,0.4206352310724519,-1.30938933583478,2.536391168133706,-0.881818413734436,-0.4083403944969177,-0.23591171205043793, 194, 133, 0, 158
1731654909947,9i,6.614238288706411,1.6s : 0.4s,-0.004685352695929623,6.128231217500341,0.3438641889864668,0.7499951722814727,-0.36222970485687256,0.8207093477249146,0.7418212890625,0.1225554347038269,-0.27181634306907654,0.6881778836250305,0.413546265286706,-1.301392864092908,2.5356303363541732,-0.8826720118522644,-0.4018591642379761,-0.24371987581253052, 194, 133, 0, 158
1731654909967,9i,6.614238288706411,1.6s : 0.4s,-0.004685352695929623,6.153729752622796,0.4806441298866053,0.6901480098099134,-0.930956244468689,0.9323770403862,0.9945849776268005,0.0987921953201294,-0.27860602736473083,0.6236369609832764,0.39234794375360305,-1.2806153622693197,2.526989853859484,-0.8853829503059387,-0.38235899806022644,-0.26438409090042114, 194, 133, 0, 158
1731654909977,9i,6.614238288706411,1.6s : 0.4s,-0.004685352695929623,6.165696741101812,0.6987782716742316,0.6400657003267937,-1.1312625408172607,1.0898756980895996,1.0931315422058105,0.08006900548934937,-0.19746249914169312,0.6035574674606323,0.3790874686420709,-1.2679489275103952,2.5198882253069987,-0.8867248892784119,-0.3700728714466095,-0.27706506848335266, 194, 133, 0, 158
1731654909987,9i,6.614238288706411,1.6s : 0.4s,-0.004685352695929623,6.177137360754118,0.9171060249969897,0.6243814412927781,-1.4382445812225342,1.1790555715560913,1.1463003158569336,0.06976866722106934,-0.14730095863342285,0.6027328968048096,0.3641091931360005,-1.2532246185903995,2.510371043389385,-0.8877161741256714,-0.35611703991889954,-0.29178929328918457, 194, 133, 0, 158
1731654909997,9i,6.614238288706411,1.6s : 0.4s,-0.004685352695929623,6.188041631830174,1.0897484222561797,0.5455552163666894,-1.4780218601226807,1.1968090534210205,1.189594030380249,0.06747972965240479,-0.04649314284324646,0.5393657088279724,0.34788709269784934,-1.2378343610016311,2.4996296821151076,-0.8884636759757996,-0.34091222286224365,-0.3072642385959625, 194, 133, 0, 158
1731654910007,9i,6.614238288706411,1.6s : 0.4s,-0.004685352695929623,6.198193765214351,1.236303246219902,0.4576197057369226,-1.5880790948867798,1.2337685823440552,1.238916039466858,0.07867592573165894,-0.03327202796936035,0.44957631826400757,0.3305484481684859,-1.222499010049651,2.4888527438874553,-0.8890702724456787,-0.32456183433532715,-0.3228215277194977, 194, 133, 0, 158
1731654910017,9i,6.614238288706411,1.6s : 0.4s,-0.004685352695929623,6.2075763481172554,1.3647677007535328,0.4194499771510252,-1.734054684638977,1.2363381385803223,1.2893513441085815,0.08016139268875122,-0.059763967990875244,0.40735819935798645,0.3116665517478542,-1.207056026361543,2.4772928690846103,-0.8895485997200012,-0.30664533376693726,-0.33863258361816406, 194, 133, 0, 158
1731654910027,9i,6.614238288706411,1.6s : 0.4s,-0.004685352695929623,6.2164589451485766,1.4846754524258388,0.4169900482683036,-1.919091820716858,1.2269481420516968,1.3352426290512085,0.0877084732055664,-0.04792770743370056,0.4048343598842621,0.29173370359197254,-1.1915562544100329,2.4647136698172174,-0.8896953463554382,-0.2876130938529968,-0.3545719087123871, 194, 133, 0, 158
1731654910037,9i,6.614238288706411,1.6s : 0.4s,-0.004685352695929623,6.225082187702246,1.590788469145065,0.4183581727730526,-2.054105758666992,1.200744867324829,1.3784453868865967,0.11361312866210938,-0.045286595821380615,0.40008091926574707,0.27124440566082836,-1.1758314425823024,2.4509051623152436,-0.8892632126808167,-0.2679305374622345,-0.3707077205181122, 194, 133, 0, 158
1731654910047,9i,6.614238288706411,1.6s : 0.4s,-0.004685352695929623,6.233638598226692,1.6826266466381714,0.42280564704305074,-2.1035590171813965,1.2146073579788208,1.454902172088623,0.13479483127593994,-0.027669087052345276,0.39978668093681335,0.24987105005160648,-1.1603252461249316,2.4369035810281714,-0.8884569406509399,-0.24727901816368103,-0.3866488039493561, 194, 133, 0, 158
1731654910057,9i,6.614238288706411,1.6s : 0.4s,-0.004685352695929623,6.242226630051401,1.7484360213271908,0.4186959739599907,-2.075328826904297,1.2291046380996704,1.4910143613815308,0.16039502620697021,-0.004683107137680054,0.38672706484794617,0.2277650836647861,-1.1450299594405937,2.423416651038665,-0.8872016668319702,-0.22580088675022125,-0.4023520052433014, 194, 133, 0, 158
1731654910067,9i,6.614238288706411,1.6s : 0.4s,-0.004685352695929623,6.250892086163864,1.7859691057799214,0.41086358398371103,-2.0078773498535156,1.240269660949707,1.492096185684204,0.19398784637451172,0.03336973488330841,0.3606439530849457,0.2056069177636452,-1.1301114864547834,2.4109667342778405,-0.8854093551635742,-0.20416133105754852,-0.4175744652748108, 194, 133, 0, 158
1731654910077,9i,6.614238288706411,1.6s : 0.4s,-0.004685352695929623,6.259620444902001,1.8338817821756104,0.42224039618429243,-2.109283447265625,1.2870841026306152,1.5169332027435303,0.22491592168807983,0.041572004556655884,0.3549247086048126,0.18314277849135072,-1.1152020103550382,2.398812963142885,-0.8829817175865173,-0.182120680809021,-0.43263769149780273, 194, 133, 0, 158
1731654910097,9i,6.614238288706411,1.6s : 0.4s,-0.004685352695929623,6.278911281564716,1.9217232918085676,0.5352050606849217,-2.397500991821289,1.2848408222198486,1.6326149702072144,0.3046188950538635,0.04308110475540161,0.4379449784755707,0.13472051932769108,-1.0855252090216856,2.3725663624069653,-0.876533567905426,-0.13431337475776672,-0.4622216820716858, 194, 133, 0, 158
1731654910107,9i,6.614238288706411,1.6s : 0.4s,-0.004685352695929623,6.289556737822597,2.010529267122242,0.5888493206666496,-2.525393009185791,1.3260313272476196,1.673880934715271,0.34772294759750366,0.0426233634352684,0.47330278158187866,0.10849463689064807,-1.0708054869632566,2.358633981079629,-0.8724269866943359,-0.10828191041946411,-0.4765986502170563, 194, 133, 0, 158
1731654910117,9i,6.614238288706411,1.6s : 0.4s,-0.004685352695929623,6.301224846944957,2.087501713644106,0.6344079603200293,-2.5392212867736816,1.4133856296539307,1.722928524017334,0.3722267746925354,0.07272418588399887,0.5085586309432983,0.08134350008763058,-1.0558690797017396,2.3446014159800637,-0.8674508333206177,-0.08125382661819458,-0.49084317684173584, 194, 133, 0, 158
1731654910127,9i,6.614238288706411,1.6s : 0.4s,-0.004685352695929623,6.313738391828882,2.122957807042759,0.6509489153938711,-2.334322214126587,1.4666534662246704,1.7956674098968506,0.3837663531303406,0.10667146742343903,0.5148583054542542,0.053871572683107424,-1.040633693150886,2.3322080153911293,-0.8614733219146729,-0.053845521062612534,-0.5049400925636292, 194, 133, 0, 158
1731654910137,9i,6.614238288706411,1.6s : 0.4s,-0.004685352695929623,6.326795666845904,2.1339776215588655,0.641662978232945,-2.206799268722534,1.5143264532089233,1.7977838516235352,0.4095621109008789,0.12526768445968628,0.4778056740760803,0.02685168761791722,-1.0253737562714402,2.3220031190250783,-0.8545999526977539,-0.026848461478948593,-0.518592357635498, 194, 133, 0, 158
1731654910147,9i,6.614238288706411,1.6s : 0.4s,-0.004685352695929623,6.340342534978257,2.1581124094803514,0.6585855385946217,-2.2587051391601562,1.6012948751449585,1.8020366430282593,0.4345749020576477,0.12150844931602478,0.47970330715179443,-7.360300259258044e-05,-1.0097511681973648,2.312555842508481,-0.846699595451355,7.36030051484704e-05,-0.5320714712142944, 194, 133, 0, 158
1731654910157,9i,6.614238288706411,1.6s : 0.4s,-0.004685352695929623,6.35441249189179,2.2113222806590427,0.685844588212946,-2.408815383911133,1.6765908002853394,1.8725366592407227,0.4375596046447754,0.1109018474817276,0.5163576006889343,-0.02806365015200874,-0.9935339078136364,2.3027792357027064,-0.8376298546791077,0.02805996686220169,-0.5455171465873718, 194, 133, 0, 158
1731654910167,9i,6.614238288706411,1.6s : 0.4s,-0.004685352695929623,6.369131542528635,2.2876376872859057,0.7315465758508995,-2.563112497329712,1.7397782802581787,1.9760541915893555,0.45308881998062134,0.08221058547496796,0.568429708480835,-0.05777520773355012,-0.9769328554116051,2.292803292442829,-0.8274022340774536,0.057743072509765625,-0.55863356590271, 194, 133, 0, 158
1731654910177,9i,6.614238288706411,1.6s : 0.4s,-0.004685352695929623,6.384556592662007,2.395212208896364,0.7777733310921201,-2.8309974670410156,1.8103556632995605,2.0645864009857178,0.47385478019714355,0.03143310546875,0.615958571434021,-0.08965868671538932,-0.9600706761504384,2.2819853235707575,-0.8159416317939758,0.08953861147165298,-0.571158766746521, 194, 133, 0, 158
1731654910187,9i,6.614238288706411,1.6s : 0.4s,-0.004685352695929623,6.400671718352573,2.510988562004426,0.8154309655279707,-2.9661006927490234,1.889796495437622,2.192619562149048,0.46699589490890503,0.0061296746134757996,0.6684346795082092,-0.12382522524072817,-0.9428507485861494,2.270628539746913,-0.8030402660369873,0.12350904196500778,-0.5829854607582092, 194, 133, 0, 158
1731654910197,9i,6.614238288706411,1.6s : 0.4s,-0.004685352695929623,6.417529539969621,2.6290154167833144,0.8580261769264916,-3.0504157543182373,2.0177853107452393,2.3141722679138184,0.4615439176559448,0.011455044150352478,0.7232253551483154,-0.15978681816655185,-0.9249244437200577,2.259750874673809,-0.7884024977684021,0.1591077446937561,-0.5942275524139404, 194, 133, 0, 158
1731654910207,9i,6.614238288706411,1.6s : 0.4s,-0.004685352695929623,6.434988282750538,2.748180030737008,0.8606097759963819,-3.161013603210449,2.1622989177703857,2.381711721420288,0.45841532945632935,0.07025094330310822,0.7249616384506226,-0.19721459262133287,-0.90594718029578,2.2494457335442863,-0.7717546224594116,0.19593867659568787,-0.6049817204475403, 194, 133, 0, 158
1731654910216,9i,6.614238288706411,1.6s : 0.4s,-0.004685352695929623,6.452738242365034,2.8531438900668333,0.8347122242726105,-3.160053014755249,2.3438241481781006,2.4211654663085938,0.43440645933151245,0.15755745768547058,0.6951339244842529,-0.23574879531698945,-0.8855671279154081,2.239435132916374,-0.7528573870658875,0.2335711270570755,-0.6153457164764404, 194, 133, 0, 158
1731654910266,9i,6.614238288706411,1.6s : 0.4s,-0.004685352695929623,6.540831551510991,3.102788803900757,0.7713177099181516,-3.672872304916382,2.9097416400909424,2.874842882156372,0.4574050307273865,0.1466924250125885,0.603484034538269,-0.44484586091618294,-0.7674985962056858,2.20135022417449,-0.626762330532074,0.4303187429904938,-0.6496112942695618, 194, 133, 0, 158
1731654910276,9i,6.614238288706411,1.6s : 0.4s,-0.004685352695929623,6.558495254552858,3.332899996810294,0.809074780691443,-3.915874719619751,3.035510778427124,2.9543099403381348,0.48790407180786133,0.1553100049495697,0.6264426708221436,-0.4924516029528255,-0.7402339996850268,2.1960006677748294,-0.5943189263343811,0.4727875888347626,-0.6505820751190186, 194, 133, 0, 158
1731654910286,9i,6.614238288706411,1.6s : 0.4s,-0.004685352695929623,6.5765677635896,3.504347485040639,0.8605876532604624,-3.8258965015411377,3.1834096908569336,3.0214805603027344,0.49898040294647217,0.2982947826385498,0.6345469951629639,-0.541291040418173,-0.7111854835766163,2.1920615581144216,-0.5594205260276794,0.515242874622345,-0.6492869853973389, 194, 133, 0, 158
1731654910296,9i,6.614238288706411,1.6s : 0.4s,-0.004685352695929623,6.594980719648014,3.629540841980422,0.8901237749667863,-3.7437241077423096,3.35815691947937,2.992222547531128,0.5049698352813721,0.40699654817581177,0.6096553206443787,-0.5896218339921437,-0.6792482210787523,2.1907444783669856,-0.5221360325813293,0.556046724319458,-0.6466731429100037, 194, 133, 0, 158
1731654910306,9i,6.614238288706411,1.6s : 0.4s,-0.004685352695929623,6.613293923450985,3.7298772694644775,0.8569411284826934,-3.7455530166625977,3.5422751903533936,2.905388355255127,0.5162147879600525,0.4625994563102722,0.5038572549819946,-0.6370789848932187,-0.6445574801002184,2.191170375577581,-0.4829811751842499,0.5948499441146851,-0.6425596475601196, 194, 133, 0, 158
1731654910336,9i,6.614238288706411,1.6s : 0.4s,-0.004685352695929623,6.664844039465775,3.85480730420506,0.7726794595374753,-4.071218967437744,3.64274263381958,2.898102283477783,0.49185875058174133,0.5084956288337708,0.31071001291275024,-0.7821725824572625,-0.5305264625429188,2.1980693327622824,-0.35893940925598145,0.704822301864624,-0.6118726134300232, 194, 133, 0, 158
1731654910346,9i,6.614238288706411,1.6s : 0.4s,-0.004685352695929623,6.680862430213808,3.9358598995290373,0.8281390250643456,-4.039226055145264,3.5682215690612793,2.957249164581299,0.4972105026245117,0.6449746489524841,0.15034514665603638,-0.8318531116962038,-0.48851757400410456,2.2064184085897445,-0.3160886764526367,0.7391807436943054,-0.5947268009185791, 194, 133, 0, 158
1731654910356,9i,6.614238288706411,1.6s : 0.4s,-0.004685352695929623,6.695378617607323,3.9600076070074075,0.8910565491861445,-3.8299670219421387,3.592561960220337,2.876356601715088,0.44449758529663086,0.7699694633483887,0.059587717056274414,-0.8802189720206343,-0.443249312729384,2.2191715006766692,-0.27318713068962097,0.7708783745765686,-0.5754262804985046, 194, 133, 0, 158
1731654910376,9i,6.614238288706411,1.6s : 0.4s,-0.004685352695929623,6.719203008865462,3.8623199278454847,1.1008657624249143,-3.0846779346466064,3.874480724334717,2.3238208293914795,0.21665385365486145,1.0684514045715332,-0.15289908647537231,-0.9628107534616801,-0.33916377473634496,2.256488854022163,-0.19004249572753906,0.8208003640174866,-0.5386748909950256, 194, 133, 0, 158
1731654910386,9i,6.614238288706411,1.6s : 0.4s,-0.004685352695929623,6.72843197842715,3.741952259474276,1.3293156547468572,-2.7484912872314453,3.894817352294922,2.116758108139038,0.19431595504283905,1.26112961769104,-0.3726573586463928,-0.9975748398973543,-0.2823489717469937,2.277921087580545,-0.15110303461551666,0.8401581645011902,-0.5208666920661926, 194, 133, 0, 158
1731654910396,9i,6.614238288706411,1.6s : 0.4s,-0.004685352695929623,6.7353999474684105,3.5622790330301335,1.4494786786138947,-2.1444756984710693,3.723906993865967,2.0298824310302734,0.2683975100517273,1.3193137645721436,-0.5369938611984253,-1.026321495783064,-0.22186465739386876,2.3043161097214426,-0.11397852748632431,0.8553994297981262,-0.5052729249000549, 194, 133, 0, 158
1731654910406,9i,6.614238288706411,1.6s : 0.4s,-0.004685352695929623,6.740310570931985,3.3662737468361725,1.3457818122290364,-1.8729329109191895,3.5784964561462402,1.7306963205337524,0.3242696523666382,1.141339659690857,-0.635076105594635,-1.0494397639987565,-0.1604059335432081,2.333420062722996,-0.0795491561293602,0.8671443462371826,-0.4916633367538452, 194, 133, 0, 158
1731654910416,9i,6.614238288706411,1.6s : 0.4s,-0.004685352695929623,6.742618206812152,3.1520092979733176,1.3548692488975407,-1.4401943683624268,3.5193746089935303,1.3708491325378418,0.2559884488582611,1.0657110214233398,-0.7964926958084106,-1.0682978529188039,-0.10173208677245582,2.3600885822413997,-0.04891141876578331,0.8763819932937622,-0.47912678122520447, 194, 133, 0, 158
1731654910426,9i,6.614238288706411,1.6s : 0.4s,-0.004685352695929623,6.741836835161443,2.8970634627625507,1.5127845585406265,-0.5931618213653564,3.416012763977051,1.0876139402389526,0.16326728463172913,1.1226332187652588,-1.0007774829864502,-1.0792599675215948,-0.045984587091041314,2.3840851232060016,-0.021696196869015694,0.881608784198761,-0.47148191928863525, 194, 133, 0, 158
1731654910436,9i,6.614238288706411,1.6s : 0.4s,-0.004685352695929623,6.737887370416122,2.677414747747368,1.6413106211504667,-0.21577247977256775,3.3448822498321533,0.7986228466033936,0.1434895098209381,1.1146841049194336,-1.196156620979309,-1.083282365747463,0.005285994548689109,2.403837966417668,0.0024761129170656204,0.8835000991821289,-0.46842458844184875, 194, 133, 0, 158
1731654910446,9i,6.614238288706411,1.6s : 0.4s,-0.004685352695929623,6.731250239841519,2.4532765970154964,1.7188151336544062,0.5188080072402954,3.120072841644287,0.5808164477348328,0.129892960190773,1.1227474212646484,-1.2949484586715698,-1.0817719892644018,0.05050906731202717,2.418273968317442,0.023717300966382027,0.8827916383743286,-0.4691658318042755, 194, 133, 0, 158
1731654910486,9i,6.614238288706411,1.6s : 0.4s,-0.004685352695929623,6.69015156320071,1.9849352029072838,1.5344458864750705,1.9235130548477173,1.6680688858032227,-0.288694828748703,-0.13460564613342285,0.7278560400009155,-1.3441097736358643,-1.0411981417144054,0.14688286160633227,2.4186840196654438,0.07393674552440643,0.8630101084709167,-0.4997469186782837, 194, 133, 0, 158
1731654910516,9i,6.614238288706411,1.6s : 0.4s,-0.004685352695929623,6.65066328878217,1.5917941183060924,1.3546998705957334,2.8686137199401855,0.5915350317955017,-0.8530284762382507,-0.3024930953979492,0.4976068139076233,-1.2231504917144775,-0.9716523376116774,0.13524538432871944,2.365298578468772,0.07603742927312851,0.825818657875061,-0.5587862133979797, 194, 133, 0, 158
1731654910526,9i,6.614238288706411,1.6s : 0.4s,-0.004685352695929623,6.636014402018039,1.5241001813640913,1.2509537382093094,3.237549066543579,0.2799014747142792,-1.0038079023361206,-0.25022149085998535,0.4804862141609192,-1.1275670528411865,-0.9425330695726242,0.120952539317183,2.342503340887703,0.07091552019119263,0.8090494871139526,-0.583446741104126, 194, 133, 0, 158
1731654910536,9i,6.614238288706411,1.6s : 0.4s,-0.004685352695929623,6.621136351730649,1.6792584148027045,1.1112932477474136,3.5844874382019043,-0.013239484280347824,-1.1803702116012573,-0.20994490385055542,0.4812251329421997,-0.9794479012489319,-0.9099879080111417,0.10275748889189812,2.318184268871289,0.0629570260643959,0.7894963026046753,-0.6105177998542786, 194, 133, 0, 158
1731654910546,9i,6.614238288706411,1.6s : 0.4s,-0.004685352695929623,6.606857534388452,1.9756613319630112,1.033607741871456,4.10117244720459,-0.26801052689552307,-1.38923180103302,-0.20539319515228271,0.5477483868598938,-0.8521327972412109,-0.8731936089600898,0.08115122878389083,2.2922568357174082,0.0520729161798954,0.7663843631744385,-0.6402682662010193, 194, 133, 0, 158
1731654910556,9i,6.614238288706411,1.6s : 0.4s,-0.004685352695929623,6.593439702835905,2.3630449167958965,1.0156801255776882,4.756253242492676,-0.42270246148109436,-1.5763192176818848,-0.20087940990924835,0.6067322492599487,-0.7893855571746826,-0.8300707611998739,0.05723466649952088,2.2651746481272963,0.03860221803188324,0.7379791140556335,-0.6737185716629028, 194, 133, 0, 158
1731654910566,9i,6.614238288706411,1.6s : 0.4s,-0.004685352695929623,6.5812440992553505,2.669032423356337,0.9302882125770934,4.748476505279541,0.12071556597948074,-1.7393041849136353,-0.17567095160484314,0.6054770946502686,-0.6840857863426208,-0.7824785526243588,0.03490192019317437,2.2381609688777724,0.024746308103203773,0.7050393223762512,-0.7087363600730896, 194, 133, 0, 158
1731654910576,9i,6.614238288706411,1.6s : 0.4s,-0.004685352695929623,6.570766938596863,2.908558575587787,0.8022350497371183,4.806175231933594,-0.25586551427841187,-1.976656436920166,-0.17610682547092438,0.6006602644920349,-0.5017715692520142,-0.7354430560505234,0.014699742221550694,2.2110176203159613,0.010899960063397884,0.6709157824516296,-0.7414534687995911, 194, 133, 0, 158
1731654910586,9i,6.614238288706411,1.6s : 0.4s,-0.004685352695929623,6.561875690243623,3.102648358354932,0.6529552609928565,4.869664669036865,-0.6629795432090759,-2.1097214221954346,-0.2393583506345749,0.5117620825767517,-0.32734954357147217,-0.6872148131254605,-0.00782492745484087,2.1837358547840924,-0.006048731505870819,0.6343866586685181,-0.7729922533035278, 194, 133, 0, 158
1731654910596,9i,6.614238288706411,1.6s : 0.4s,-0.004685352695929623,6.554476844296994,3.228192048809339,0.5187106121684654,4.7584757804870605,-0.6355689167976379,-2.177518129348755,-0.15047410130500793,0.4062139391899109,-0.2853217124938965,-0.6387938158671195,-0.030311187379336496,2.157672694988864,-0.024330565705895424,0.5962275266647339,-0.8024467825889587, 194, 133, 0, 158
1731654910636,9i,6.614238288706411,1.6s : 0.4s,-0.004685352695929623,6.537328140107914,3.3171848433090383,0.4663943715524326,4.566889762878418,-0.3126969337463379,-2.64753794670105,-0.0992455929517746,0.44849878549575806,0.08076423406600952,-0.4429166374820049,-0.10039870255395332,2.0612470075005556,-0.09055846929550171,0.4285764694213867,-0.8989557027816772, 194, 133, 0, 158
1731654910646,9i,6.614238288706411,1.6s : 0.4s,-0.004685352695929623,6.535635256541794,3.3706400516563306,0.43770124744497807,4.4402995109558105,-0.34553319215774536,-2.7553212642669678,-0.09659216552972794,0.37922656536102295,0.19606006145477295,-0.39521861725755253,-0.11347557514477474,2.0371653928691584,-0.10450340062379837,0.3850099742412567,-0.9169767498970032, 194, 133, 0, 158
1731654910656,9i,6.614238288706411,1.6s : 0.4s,-0.004685352695929623,6.536057834280533,3.35725201374727,0.38723995976698605,4.08530855178833,-0.3591805398464203,-2.833994150161743,-0.021424561738967896,0.3148118853569031,0.22447550296783447,-0.34963195933384406,-0.12582786026933876,2.0128630447762657,-0.11790343374013901,0.3425520658493042,-0.9320712685585022, 194, 133, 0, 158
1731654910666,9i,6.614238288706411,1.6s : 0.4s,-0.004685352695929623,6.537569949923191,3.3286809032991127,0.4630510269494488,3.9167699813842773,-0.28447994589805603,-2.9161105155944824,0.05726715922355652,0.3794110119342804,0.25919878482818604,-0.30642261647572266,-0.13699363605540898,1.9883135471323907,-0.13020415604114532,0.3016498386859894,-0.9444862604141235, 194, 133, 0, 158
1731654910676,9i,6.614238288706411,1.6s : 0.4s,-0.004685352695929623,6.541482698404405,3.300853614455555,0.5570335090890707,3.801602840423584,-0.22335703670978546,-2.9997520446777344,0.10222862660884857,0.444814532995224,0.31933629512786865,-0.26403809734870265,-0.14650768625019672,1.9635353183656659,-0.14092490077018738,0.2609808146953583,-0.9550021886825562, 194, 133, 0, 158
1731654910686,9i,6.614238288706411,1.6s : 0.4s,-0.004685352695929623,6.547183457443613,3.2486447377068983,0.5563004435895107,3.5590686798095703,-0.11136499047279358,-3.0488688945770264,0.1146923303604126,0.4264639616012573,0.33829623460769653,-0.22310262689172716,-0.15428385102282555,1.938426143352253,-0.1498638242483139,0.22125642001628876,-0.9636319279670715, 194, 133, 0, 158
1731654910696,9i,6.614238288706411,1.6s : 0.4s,-0.004685352695929623,6.554172370064968,3.175798649178594,0.5517636107796778,3.3233580589294434,-0.046400099992752075,-3.0417630672454834,0.12576596438884735,0.41589969396591187,0.34007859230041504,-0.18451074437349477,-0.1601312261752252,1.9132049396833795,-0.15674130618572235,0.1834656000137329,-0.9704496264457703, 194, 133, 0, 158
1731654910706,9i,6.614238288706411,1.6s : 0.4s,-0.004685352695929623,6.562260801408741,3.0861310486764317,0.5493003931262264,3.0758793354034424,-0.05550678074359894,-3.020293712615967,0.14466577768325806,0.3592768907546997,0.3895161747932434,-0.14805359297832438,-0.16475190784849605,1.8881558013019328,-0.16221337020397186,0.14751330018043518,-0.9756672978401184, 194, 133, 0, 158
1731654910716,9i,6.614238288706411,1.6s : 0.4s,-0.004685352695929623,6.571219974740558,2.9905565131739045,0.5319657424702086,2.85998797416687,-0.05448820814490318,-3.001866579055786,0.17228738963603973,0.2693866789340973,0.42512989044189453,-0.11387016016061839,-0.16860234065792595,1.8632030094709924,-0.16671793162822723,0.11362423747777939,-0.979435920715332, 194, 133, 0, 158
1731654910726,9i,6.614238288706411,1.6s : 0.4s,-0.004685352695929623,6.580748164264958,2.885099796835892,0.5278150827547979,2.6412692070007324,-0.003012500936165452,-2.941112995147705,0.20496270060539246,0.24751996994018555,0.4187038540840149,-0.08182550596394417,-0.1713515845613271,1.8384122407099852,-0.16994377970695496,0.08173422515392303,-0.9820583462715149, 194, 133, 0, 158
1731654910736,9i,6.614238288706411,1.6s : 0.4s,-0.004685352695929623,6.5906085890058,2.787604530434303,0.5250864890936721,2.547609329223633,0.0670393779873848,-2.85568904876709,0.2164236456155777,0.25804203748703003,0.40285348892211914,-0.05141364579820595,-0.17264619619878666,1.8142904922516623,-0.1715628057718277,0.05139099806547165,-0.9838318824768066, 194, 133, 0, 158
1731654910746,9i,6.614238288706411,1.6s : 0.4s,-0.004685352695929623,6.600593475278486,2.688030686683453,0.5149459517445854,2.411458730697632,0.11632197350263596,-2.762629747390747,0.22346282005310059,0.24187621474266052,0.39589089155197144,-0.02220951305361073,-0.1726186032073152,1.7909056977814293,-0.17172026634216309,0.02220768667757511,-0.9848954081535339, 194, 133, 0, 158
1731654910756,9i,6.614238288706411,1.6s : 0.4s,-0.004685352695929623,6.610701556348012,2.5937632613249364,0.5159630912505788,2.315803289413452,0.18042674660682678,-2.677626848220825,0.22997257113456726,0.21474646031856537,0.40891867876052856,0.00564000207536551,-0.17138001141888412,1.7682148750221722,-0.17053958773612976,-0.005639972165226936,-0.9853346943855286, 194, 133, 0, 158
1731654910765,9i,6.614238288706411,1.6s : 0.4s,-0.004685352695929623,6.620916739539193,2.5031779539546517,0.5103911450441292,2.211904764175415,0.24339185655117035,-2.599806785583496,0.24086450040340424,0.18880333006381989,0.4084565043449402,0.03233003869016983,-0.16881599276121145,1.7460462161371901,-0.16792748868465424,-0.0323244072496891,-0.9852692484855652, 194, 133, 0, 158
1731654910775,9i,6.614238288706411,1.6s : 0.4s,-0.004685352695929623,6.631199010674439,2.4218976332651865,0.4962192257669596,2.1327595710754395,0.28842368721961975,-2.5442216396331787,0.2381351888179779,0.16074970364570618,0.40457963943481445,0.057998969639383675,-0.1652492766410902,1.724330220032241,-0.1642216145992279,-0.057966459542512894,-0.9847187995910645, 194, 133, 0, 158
1731654910785,9i,6.614238288706411,1.6s : 0.4s,-0.004685352695929623,6.641560901625174,2.3375530623341967,0.5106716853233799,1.976812481880188,0.3627898097038269,-2.489016532897949,0.22868983447551727,0.14580222964286804,0.4326987862586975,0.08232703819461655,-0.16052270769826144,1.702792875635486,-0.15929286181926727,-0.08223406970500946,-0.98380047082901, 194, 133, 0, 158
1731654910795,9i,6.614238288706411,1.6s : 0.4s,-0.004685352695929623,6.651940534532772,2.2537127878526997,0.4830469830188199,1.8734396696090698,0.41619443893432617,-2.403043746948242,0.22696304321289062,0.13454127311706543,0.4046242833137512,0.10513274301541134,-0.15463751972126313,1.6815755122502976,-0.15317153930664062,-0.10493917763233185,-0.9826119542121887, 194, 133, 0, 158
1731654910805,9i,6.614238288706411,1.6s : 0.4s,-0.004685352695929623,6.6621848844312135,2.1589545433300557,0.4550270929560297,1.7228610515594482,0.40208980441093445,-2.2902092933654785,0.22583216428756714,0.0916651040315628,0.38424861431121826,0.12644080165075855,-0.14820724950211175,1.6609717038839822,-0.14648646116256714,-0.12610416114330292,-0.9811419248580933, 194, 133, 0, 158
1731654910815,9i,6.614238288706411,1.6s : 0.4s,-0.004685352695929623,6.672159565595469,2.054995338290469,0.4322170788843717,1.5444952249526978,0.3982449173927307,-2.1883156299591064,0.23723801970481873,0.050349459052085876,0.357763409614563,0.14580568852700804,-0.14151981652038267,1.6410283856105299,-0.13955126702785492,-0.1452896147966385,-0.979498028755188, 194, 133, 0, 158
1731654910825,9i,6.614238288706411,1.6s : 0.4s,-0.004685352695929623,6.681734921499993,1.9441939159511945,0.39407032013054716,1.384892225265503,0.3842310905456543,-2.0684618949890137,0.25808727741241455,0.05125606060028076,0.2933516502380371,0.16313896958608456,-0.13469744210796383,1.6217714921781032,-0.13250742852687836,-0.16241629421710968,-0.9777846336364746, 194, 133, 0, 158
1731654910835,9i,6.614238288706411,1.6s : 0.4s,-0.004685352695929623,6.690768773326288,1.8365277734820815,0.35875842527499824,1.2870004177093506,0.33934155106544495,-1.9564927816390991,0.25418153405189514,0.028017744421958923,0.2516234517097473,0.1789189149429568,-0.12798226611761715,1.6033537071803237,-0.12559571862220764,-0.17796584963798523,-0.9759886860847473, 194, 133, 0, 158
