timestamp,club,max_speed,tempo,w.rotation,l.speed,t.spped,acc,rotation.x,rotation.y,rotation.z,userAcceleration.x,userAcceleration.y,userAcceleration.z,pitch,roll,yaw,gravity.x,gravity.y,gravity.z,impactIndex,minDownIndex,StartIndex,endIndex
1731649494461,9i,6.36091413136442,1.4s : 0.4s,14.909549947295332,0.0005047863261564105,0.09114617376494764,0.06271793582881163,-0.26220637559890747,0.005036951974034309,0.0070772357285022736,-0.00714641809463501,0.055691108107566833,-0.02794581651687622,-0.14800416473209907,2.000255087798821,3.0464848984546706,0.8992516398429871,0.14746440947055817,0.4118267893791199, 210, 134, 33, 169
1731649494471,9i,6.36091413136442,1.4s : 0.4s,14.909549947295332,0.0013720584628723216,0.09935894951072069,0.062395232178893235,-0.3044544756412506,-0.006540074944496155,0.008790180087089539,-0.010214090347290039,0.05024576187133789,-0.03555560111999512,-0.14706108690705316,2.000559350348375,3.049086786951058,0.89925217628479,0.1465315818786621,0.4121580719947815, 210, 134, 33, 169
1731649494481,9i,6.36091413136442,1.4s : 0.4s,14.909549947295332,0.002101691332795586,0.1249897687960524,0.06305553445518133,-0.3065992593765259,-0.02300267294049263,0.017282534390687943,-0.01240772008895874,0.04514037072658539,-0.04224210977554321,-0.14656110531195704,2.0007664686510345,3.0518659155134453,0.8992332220077515,0.14603698253631592,0.4123747646808624, 210, 134, 33, 169
1731649494491,9i,6.36091413136442,1.4s : 0.4s,14.909549947295332,0.002709938203401884,0.1419363336209183,0.0609192231070171,-0.2772376239299774,-0.0292682908475399,0.03074321523308754,-0.007425248622894287,0.050068214535713196,-0.03389972448348999,-0.14696290238542997,2.0007305494688055,3.0544730061957637,0.899194598197937,0.1464344561100006,0.4123179614543915, 210, 134, 33, 169
1731649494501,9i,6.36091413136442,1.4s : 0.4s,14.909549947295332,0.00325453635927884,0.15192453323288496,0.05957829258993218,-0.2616609036922455,-0.028796201571822166,0.025021515786647797,0.0021659135818481445,0.05338089168071747,-0.026369720697402954,-0.14810291391965355,2.0007151725692207,3.0567418639285746,0.8990486264228821,0.14756208658218384,0.4122343063354492, 210, 134, 33, 169
1731649494511,9i,6.36091413136442,1.4s : 0.4s,14.909549947295332,0.0038213969347562597,0.15221138907899126,0.03916392838008779,-0.22892902791500092,-0.024754587560892105,0.05769503861665726,0.0031737089157104492,0.03197292983531952,-0.02239358425140381,-0.14882793794126814,2.000924765067815,3.0588791947291187,0.8988648653030396,0.1482791304588318,0.41237807273864746, 210, 134, 33, 169
1731649494521,9i,6.36091413136442,1.4s : 0.4s,14.909549947295332,0.004352762505016994,0.1448441667171658,0.01548027069397079,-0.18178875744342804,-0.014617797918617725,0.05564730241894722,-0.00157928466796875,0.014883041381835938,0.003954708576202393,-0.14966120320219542,2.001003291997363,3.0604825387635097,0.8987196683883667,0.14910313487052917,0.4123968780040741, 210, 134, 33, 169
1731649494531,9i,6.36091413136442,1.4s : 0.4s,14.909549947295332,0.004814919200405903,0.13775276554785099,0.036378419634675724,-0.17090414464473724,-0.006456274539232254,0.055315740406513214,0.011417746543884277,0.020658746361732483,0.027681052684783936,-0.15108850153909117,2.0005603544498793,3.061776148428226,0.8987078666687012,0.15051431953907013,0.41190966963768005, 210, 134, 33, 169
1731649494541,9i,6.36091413136442,1.4s : 0.4s,14.909549947295332,0.00519335718604135,0.12902200842144732,0.03701408428487615,-0.15127858519554138,0.009785279631614685,0.06992527097463608,0.007395803928375244,-0.016796216368675232,0.03214392066001892,-0.151407273221464,2.000099069349808,3.0629207377482492,0.8988544344902039,0.15082944929599762,0.4114752411842346, 210, 134, 33, 169
1731649494551,9i,6.36091413136442,1.4s : 0.4s,14.909549947295332,0.005474866167425924,0.12146948075310154,0.03896157590945432,-0.14411041140556335,0.007766869850456715,0.05480065196752548,-0.012768685817718506,-0.02752801775932312,0.024437129497528076,-0.15119605402395428,1.9997800574936213,3.063931306437816,0.8990143537521362,0.15062065422534943,0.4112015962600708, 210, 134, 33, 169
1731649494561,9i,6.36091413136442,1.4s : 0.4s,14.909549947295332,0.0056965204032924386,0.1207381784487793,0.029571000630523207,-0.16925638914108276,0.00781791377812624,0.027309969067573547,-0.02363210916519165,-0.017774298787117004,0.00020444393157958984,-0.1509148586537518,1.9995417447389645,3.065096422707528,0.8991509675979614,0.150342658162117,0.4110049903392792, 210, 134, 33, 169
1731649494571,9i,6.36091413136442,1.4s : 0.4s,14.909549947295332,0.0057987397673874425,0.1279959455484073,0.047871554053373455,-0.22646667063236237,0.07386936247348785,-0.11447273194789886,-0.027725934982299805,-0.03759169578552246,-0.010479629039764404,-0.15091105993677623,1.9996805360055698,3.0669536314689974,0.8990944623947144,0.15033890306949615,0.41113004088401794, 210, 134, 33, 169
1731649494581,9i,6.36091413136442,1.4s : 0.4s,14.909549947295332,0.005846204985126926,0.20664655792617467,0.057536838633251604,-0.2515855133533478,0.36273661255836487,-0.631413996219635,-0.01950061321258545,-0.0536629855632782,-0.007106184959411621,-0.15052902649594324,1.9993640912510626,3.069132425940482,0.8992766737937927,0.1499612033367157,0.4108693301677704, 210, 134, 33, 169
1731649494591,9i,6.36091413136442,1.4s : 0.4s,14.909549947295332,0.005923203587596663,0.3251673243072515,0.04964407512282222,-0.2683914005756378,0.4580482244491577,-0.7738073468208313,0.0009425878524780273,-0.04916094243526459,0.006844520568847656,-0.14980298646562576,1.99922443505857,3.0712442656135615,0.8994328379631042,0.1492433249950409,0.4107888638973236, 210, 134, 33, 169
1731649494601,9i,6.36091413136442,1.4s : 0.4s,14.909549947295332,0.005983351359809367,0.27277459777574176,0.0541470800188592,-0.1948956847190857,0.1400914490222931,-0.08313784003257751,-0.026340484619140625,-0.04558037221431732,0.01266944408416748,-0.14905219172333156,1.9992111277308862,3.073266700115401,0.8995399475097656,0.14850090444087982,0.4108233153820038, 210, 134, 33, 169
1731649494611,9i,6.36091413136442,1.4s : 0.4s,14.909549947295332,0.0060798942428659025,0.21432195569196574,0.03251512445478398,-0.16707710921764374,0.06517725437879562,0.021266859024763107,0.013243317604064941,-0.017037883400917053,0.02432197332382202,-0.14841091718681065,1.9994274498838587,3.0748320101326376,0.8995373249053955,0.14786671102046967,0.4110572934150696, 210, 134, 33, 169
1731649494620,9i,6.36091413136442,1.4s : 0.4s,14.909549947295332,0.006191727380070712,0.1731782811911568,0.023221057325340848,-0.1692081093788147,0.004046877846121788,0.007382500916719437,-0.0074623823165893555,-0.01136520504951477,0.018824517726898193,-0.14747353123692492,1.9996228184626763,3.076127218643057,0.8995828628540039,0.14693956077098846,0.41129058599472046, 210, 134, 33, 169
1731649494630,9i,6.36091413136442,1.4s : 0.4s,14.909549947295332,0.006325175936733145,0.14434354895089857,0.042634198678052355,-0.14794090390205383,0.008939903229475021,0.01302653830498457,-0.03659611940383911,-0.02067244052886963,0.00714486837387085,-0.1467324835947741,1.9998514054034693,3.077512056099435,0.8995876312255859,0.14620651304721832,0.4115414023399353, 210, 134, 33, 169
1731649494640,9i,6.36091413136442,1.4s : 0.4s,14.909549947295332,0.00649359758974501,0.1251724971460763,0.019739801138429682,-0.13655608892440796,-0.0045791007578372955,-0.008890446275472641,-0.016557753086090088,-0.010505720973014832,0.002265036106109619,-0.1461111127109637,2.000060585046925,3.0788586540387377,0.8995840549468994,0.14559179544448853,0.4117673337459564, 210, 134, 33, 169
1731649494650,9i,6.36091413136442,1.4s : 0.4s,14.909549947295332,0.006677987064611099,0.09820626670861864,0.03583304544524904,0.010215508751571178,-0.07173709571361542,-0.13123099505901337,-0.034221351146698,0.006048828363418579,-0.008736014366149902,-0.14634369004777198,1.999889099398899,3.0797776358747644,0.8996235728263855,0.14582188427448273,0.4115988612174988, 210, 134, 33, 169
1731649494660,9i,6.36091413136442,1.4s : 0.4s,14.909549947295332,0.006865678540290348,0.0744671087736081,0.038579101860157484,0.14886140823364258,0.011668933555483818,-0.14945654571056366,-0.02644062042236328,0.02236609160900116,-0.01699995994567871,-0.1485130859338408,1.9991812907799527,3.079568804391656,0.8996248841285706,0.14796775579452515,0.41082966327667236, 210, 134, 33, 169
1731649494670,9i,6.36091413136442,1.4s : 0.4s,14.909549947295332,0.006944099391390247,0.09914856012874655,0.06284942202069803,-0.36863765120506287,-0.04105579853057861,0.06076299771666527,-0.04213607311248779,0.03915324807167053,-0.025330305099487305,-0.14817115838359177,1.999530063061379,3.08074582719594,0.8995274305343628,0.14762957394123077,0.41116437315940857, 210, 134, 33, 169
1731649494680,9i,6.36091413136442,1.4s : 0.4s,14.909549947295332,0.0067453222214724365,0.10640925405955581,0.08068819751366688,-0.178281769156456,-0.10450143367052078,-0.013286692090332508,-0.034354448318481445,0.07290343940258026,-0.003930091857910156,-0.1467696598311126,1.9990196538265037,3.0832421085404773,0.8999245166778564,0.14624328911304474,0.41079071164131165, 210, 134, 33, 169
1731649494690,9i,6.36091413136442,1.4s : 0.4s,14.909549947295332,0.0061647663242940225,0.10526246454808004,0.11771247766086343,-0.10307356715202332,-0.06990324705839157,-0.10712876915931702,0.08949768543243408,0.06231312453746796,0.04431101679801941,-0.1467241308463801,1.9984312043725645,3.0848364625475297,0.9001723527908325,0.14619825780391693,0.41026392579078674, 210, 134, 33, 169
1731649494700,9i,6.36091413136442,1.4s : 0.4s,14.909549947295332,0.00577073358874659,0.09543505175046511,0.041634388987879536,-0.10156974196434021,0.05255209654569626,-0.04007865488529205,0.020924806594848633,-0.021067559719085693,-0.029184460639953613,-0.14744040744206394,1.998421881146729,3.0855906270422566,0.9000805020332336,0.1469067931175232,0.4102119207382202, 210, 134, 33, 169
1731649494710,9i,6.36091413136442,1.4s : 0.4s,14.909549947295332,0.005749848957670999,0.1435693952090021,0.11913890569483074,-0.39604929089546204,-0.012394146993756294,0.04014693945646286,-0.10649263858795166,0.024939924478530884,-0.047237664461135864,-0.14604991260680034,1.9990425421056748,3.0882539262495174,0.9000107049942017,0.14553125202655792,0.41085493564605713, 210, 134, 33, 169
1731649494720,9i,6.36091413136442,1.4s : 0.4s,14.909549947295332,0.00597486570053766,0.15822276189260942,0.08412480367388694,-0.24068275094032288,0.043639738112688065,-0.2261122465133667,-0.059535086154937744,0.052087754011154175,-0.028625547885894775,-0.14523007136556726,1.9994324203330585,3.0913906504463107,0.8999585509300232,0.14472007751464844,0.41125521063804626, 210, 134, 33, 169
1731649494730,9i,6.36091413136442,1.4s : 0.4s,14.909549947295332,0.006318992081656282,0.2937613155540687,0.026461484338053884,-0.30947089195251465,0.6377715468406677,-0.8228328824043274,0.02443110942840576,0.00881144404411316,-0.005068480968475342,-0.14538672068325045,2.0000053251325536,3.0940032869790604,0.8997023701667786,0.14487507939338684,0.4117613732814789, 210, 134, 33, 169
1731649494740,9i,6.36091413136442,1.4s : 0.4s,14.909549947295332,0.0070727854283632275,0.5068435510825712,0.08074832514253188,-0.43456190824508667,0.9703888297080994,-1.102844476699829,-0.05569720268249512,-0.023297801613807678,-0.05362206697463989,-0.14364908387853,2.001212572871623,3.0974047371337394,0.8994318246841431,0.1431555598974228,0.4129515588283539, 210, 134, 33, 169
1731649494750,9i,6.36091413136442,1.4s : 0.4s,14.909549947295332,0.008090787088074449,0.4705373649114991,0.11113783081996813,-0.2903994023799896,0.35414132475852966,-0.35583144426345825,-0.10182452201843262,0.03556793928146362,-0.026801228523254395,-0.14288096126204466,2.001675198250873,3.100577085174708,0.8993403911590576,0.14239530265331268,0.41341346502304077, 210, 134, 33, 169
1731649494760,9i,6.36091413136442,1.4s : 0.4s,14.909549947295332,0.008881248088143218,0.3594286079585807,0.02485646129165606,-0.24843215942382812,0.054558075964450836,0.002028048736974597,0.00957334041595459,0.022660762071609497,-0.003561556339263916,-0.1424937761251717,2.0022599179784826,3.103055215114121,0.8991484642028809,0.14201205968856812,0.4139622449874878, 210, 134, 33, 169
1731649494770,9i,6.36091413136442,1.4s : 0.4s,14.909549947295332,0.009681933586810219,0.2742318428835681,0.027618712781557406,-0.19566881656646729,0.014479899778962135,0.015742795541882515,0.001675426959991455,0.004717335104942322,-0.027161240577697754,-0.14144472683988318,2.0027105739707474,3.105012802407782,0.8990967273712158,0.1409735530614853,0.41442957520484924, 210, 134, 33, 169
1731649494780,9i,6.36091413136442,1.4s : 0.4s,14.909549947295332,0.010514037747887188,0.20832271717834885,0.05274962116216588,-0.11914946883916855,0.020395757630467415,0.015577846206724644,-0.046549439430236816,0.02125301957130432,-0.012805521488189697,-0.14069447373114746,2.0030719162298056,3.10638555846462,0.8990429043769836,0.14023075997829437,0.41479870676994324, 210, 134, 33, 169
1731649494790,9i,6.36091413136442,1.4s : 0.4s,14.909549947295332,0.011243154332713362,0.147718009743962,0.018268481757100774,-0.03809430077672005,-0.008499007672071457,0.02810455858707428,-0.006821751594543457,-0.016869202256202698,-0.0016220808029174805,-0.1403304172515988,2.0033890047963476,3.107117701272442,0.898957371711731,0.139870285987854,0.41510504484176636, 210, 134, 33, 169
1731649494800,9i,6.36091413136442,1.4s : 0.4s,14.909549947295332,0.011923332800211092,0.08048274723166511,0.05520473618979489,0.05591142550110817,-0.06673319637775421,0.09259945899248123,-0.027006447315216064,-0.04813548922538757,0.0010905861854553223,-0.14017733786540532,2.003552556221947,3.106889150992934,0.898908793926239,0.13971871137619019,0.41526100039482117, 210, 134, 33, 169
1731649494810,9i,6.36091413136442,1.4s : 0.4s,14.909549947295332,0.012567623984190812,0.031136576727917496,0.0279773509356358,0.09739575535058975,-0.15194475650787354,0.18446625769138336,-0.02156311273574829,-0.017760321497917175,-0.0015281736850738525,-0.14027492646682405,2.003586398082955,3.106015957564361,0.8988823890686035,0.1398153454065323,0.41528570652008057, 210, 134, 33, 169
1731649494820,9i,6.36091413136442,1.4s : 0.4s,14.909549947295332,0.013179109513917115,0.08625903235683641,0.012309068787446364,0.1160433366894722,-0.23195499181747437,0.2908250093460083,-0.0037636160850524902,0.0019580870866775513,-0.011554837226867676,-0.1405790580713067,2.003659024316767,3.1050218779500898,0.8988136649131775,0.14011648297309875,0.41533318161964417, 210, 134, 33, 169
1731649494830,9i,6.36091413136442,1.4s : 0.4s,14.909549947295332,0.013744832010163698,0.16029596495385467,0.02773103996475163,0.1539076268672943,-0.2947733700275421,0.3765857219696045,-0.006662964820861816,-0.025815650820732117,-0.007626771926879883,-0.14110581793748225,2.003754208480934,3.103865589506748,0.8987070322036743,0.14063802361488342,0.41538771986961365, 210, 134, 33, 169
1731649494840,9i,6.36091413136442,1.4s : 0.4s,14.909549947295332,0.014264009555261813,0.22014873590370648,0.03425738078730496,0.1990647166967392,-0.2965361475944519,0.40462517738342285,-0.005772650241851807,-0.033015355467796326,-0.007087379693984985,-0.14184318200170878,2.0037967777574237,3.102438905646244,0.8985951542854309,0.14136803150177002,0.415382444858551, 210, 134, 33, 169
1731649494850,9i,6.36091413136442,1.4s : 0.4s,14.909549947295332,0.014741962831224137,0.24372001178359953,0.017498460175227416,0.24431821703910828,-0.20454494655132294,0.3264760673046112,-0.0015778541564941406,-0.015939489006996155,-0.0070455074310302734,-0.1428746458326378,2.0037676253207155,3.1006600778701987,0.8984742164611816,0.14238905906677246,0.41529473662376404, 210, 134, 33, 169
1731649494860,9i,6.36091413136442,1.4s : 0.4s,14.909549947295332,0.015167531944189247,0.21940072821311216,0.005699236648735966,0.2262367606163025,-0.02172284573316574,0.17237694561481476,0.0007012486457824707,-0.004955574870109558,0.002726137638092041,-0.14397167907972053,2.003732190722697,3.0987808953687903,0.898346483707428,0.14347481727600098,0.4151970446109772, 210, 134, 33, 169
1731649494870,9i,6.36091413136442,1.4s : 0.4s,14.909549947295332,0.015540722614212013,0.1933764465380967,0.009259824495253269,0.18929019570350647,0.23338109254837036,-0.09729287773370743,-0.0006911754608154297,-0.00621427595615387,0.006830036640167236,-0.14498154398061647,2.0036990081057766,3.0971221944327,0.8982285261154175,0.14447416365146637,0.4151063859462738, 210, 134, 33, 169
1731649494880,9i,6.36091413136442,1.4s : 0.4s,14.909549947295332,0.015854615606207167,0.11894106047056556,0.018282055296232145,0.12626442313194275,0.5163205862045288,-0.4231175482273102,-0.0033058524131774902,-0.0036406368017196655,0.01760825514793396,-0.14591196655722397,2.003721854040767,3.095828878303966,0.8980964422225952,0.14539477229118347,0.41507023572921753, 210, 134, 33, 169
1731649494890,9i,6.36091413136442,1.4s : 0.4s,14.909549947295332,0.01613357731160986,0.2372165083766015,0.019206346395029144,0.05604751408100128,0.7094868421554565,-0.6784172058105469,-0.011560797691345215,-0.006666243076324463,0.013812780380249023,-0.14662587108535674,2.003715017234616,3.0950078763713122,0.8980048894882202,0.14610104262828827,0.4150204658508301, 210, 134, 33, 169
1731649494900,9i,6.36091413136442,1.4s : 0.4s,14.909549947295332,0.01638995170042144,0.3814999071300913,0.02442805641108463,0.016717150807380676,0.7610588073730469,-0.8050490617752075,-0.018079042434692383,-0.0007515698671340942,0.016410768032073975,-0.14720237945338177,2.003817959896525,3.0945576637161163,0.8978854417800903,0.1466713398694992,0.41507744789123535, 210, 134, 33, 169
1731649494910,9i,6.36091413136442,1.4s : 0.4s,14.909549947295332,0.016611899534320417,0.4797462407734101,0.031966291150305595,-0.024564776569604874,0.7042927742004395,-0.8068549633026123,-0.01737743616104126,0.0036703646183013916,0.026578128337860107,-0.14771460182589677,2.0039835426297348,3.0943956047808063,0.8977484703063965,0.14717800915241241,0.4151945412158966, 210, 134, 33, 169
1731649494920,9i,6.36091413136442,1.4s : 0.4s,14.909549947295332,0.016804727745652847,0.5091898530433404,0.028487354225453246,-0.05170118808746338,0.536758542060852,-0.6837883591651917,-0.014577805995941162,0.005391895771026611,0.023873507976531982,-0.14807214900391663,2.004216490961596,3.0946120916149034,0.8976038098335266,0.147531658411026,0.415381520986557, 210, 134, 33, 169
1731649494930,9i,6.36091413136442,1.4s : 0.4s,14.909549947295332,0.01697405665776081,0.4718113002151564,0.021770119225378633,-0.05087640509009361,0.3106471300125122,-0.49111583828926086,-0.009747684001922607,0.007211551070213318,0.01808077096939087,-0.14846939056201705,2.0044756543160256,3.0950032226421897,0.8974429368972778,0.147924542427063,0.41558948159217834, 210, 134, 33, 169
1731649494940,9i,6.36091413136442,1.4s : 0.4s,14.909549947295332,0.01713249944380119,0.3714389205117424,0.0044460652267008195,-0.09453027695417404,0.05390196293592453,-0.21571069955825806,-0.0032271742820739746,0.0010653436183929443,0.002866685390472412,-0.14875945890570877,2.0048710817137096,3.0957323604806093,0.8972397446632385,0.14821140468120575,0.41592633724212646, 210, 134, 33, 169
1731649494950,9i,6.36091413136442,1.4s : 0.4s,14.909549947295332,0.017296362240424412,0.23410066557983628,0.01037836226211264,-0.0630786120891571,-0.1896585077047348,0.034017108380794525,-0.0016887187957763672,0.0004264414310455322,-0.010231167078018188,-0.14905062670775066,2.0053571103444963,3.0966443538225272,0.8969984650611877,0.14849935472011566,0.4163442552089691, 210, 134, 33, 169
1731649494960,9i,6.36091413136442,1.4s : 0.4s,14.909549947295332,0.017451628300597002,0.0918465537430735,0.008721633194160895,-0.06834328174591064,-0.3838737905025482,0.2691929340362549,0.003298044204711914,0.0038262009620666504,-0.007109850645065308,-0.14939301679569486,2.0058989185520155,3.097592459054333,0.8967261910438538,0.14883793890476227,0.416808545589447, 210, 134, 33, 169
1731649494970,9i,6.36091413136442,1.4s : 0.4s,14.909549947295332,0.01758896915260253,0.10290941799070212,0.013051460071841365,-0.023871688172221184,-0.4880092442035675,0.45330101251602173,0.00839853286743164,-0.005277708172798157,-0.008482396602630615,-0.14969604807977535,2.0063958284572223,3.0984451220844074,0.8964782953262329,0.14913758635520935,0.4172351658344269, 210, 134, 33, 169
1731649494980,9i,6.36091413136442,1.4s : 0.4s,14.909549947295332,0.01769373123115994,0.21257077353540854,0.015371349651152567,0.04075051471590996,-0.5169063210487366,0.5230376124382019,0.009400486946105957,0.01130606234073639,0.004481315612792969,-0.1500380801350033,2.00678439489598,3.0987656724601087,0.896269679069519,0.14947578310966492,0.4175618588924408, 210, 134, 33, 169
1731649494990,9i,6.36091413136442,1.4s : 0.4s,14.909549947295332,0.017767256768909386,0.2861934534044398,0.02463427184521411,0.0546753853559494,-0.4662202298641205,0.5079652070999146,0.013331592082977295,0.020590513944625854,0.0022686421871185303,-0.1504475657825371,2.0069666653759293,3.0987171232999957,0.8961379528045654,0.14988066256046295,0.41769930720329285, 210, 134, 33, 169
1731649495000,9i,6.36091413136442,1.4s : 0.4s,14.909549947295332,0.017813648728317283,0.3058743022460104,0.0216822715593537,0.09693928807973862,-0.361219584941864,0.3758402466773987,0.017222464084625244,0.012164831161499023,-0.0050521790981292725,-0.1509905849080188,2.006899136437533,3.0984786343042265,0.8960921764373779,0.1504175215959549,0.4176042973995209, 210, 134, 33, 169
1731649495010,9i,6.36091413136442,1.4s : 0.4s,14.909549947295332,0.017840713717642696,0.29219221282659724,0.01686024073072206,0.3790556788444519,-0.19285854697227478,0.10104354470968246,0.014758110046386719,0.00358031690120697,-0.007324427366256714,-0.15306831149622077,2.0061604376943225,3.0971061273101634,0.8961151838302612,0.15247128903865814,0.4168095588684082, 210, 134, 33, 169
1731649495020,9i,6.36091413136442,1.4s : 0.4s,14.909549947295332,0.017895108526736505,0.21239626107612372,0.021836756596100508,0.0815649926662445,0.04570093750953674,0.07930688560009003,8.493661880493164e-05,0.0013666599988937378,-0.021793782711029053,-0.15484524210725045,2.0060206801423615,3.0950908716287358,0.895926296710968,0.15422719717025757,0.41656944155693054, 210, 134, 33, 169
1731649495030,9i,6.36091413136442,1.4s : 0.4s,14.909549947295332,0.01828695720553514,0.12274317720917392,0.05720305661447293,0.1470092386007309,0.13580872118473053,-0.14261086285114288,-0.03046351671218872,0.022851422429084778,-0.04268461465835571,-0.15535454261679466,2.005701822510928,3.094346643894402,0.8959879875183105,0.15473037958145142,0.41625067591667175, 210, 134, 33, 169
1731649495040,9i,6.36091413136442,1.4s : 0.4s,14.909549947295332,0.01852629256913463,0.09868718834983652,0.04860507556595995,0.26605719327926636,0.26550957560539246,-0.33175209164619446,0.024301111698150635,0.04102775454521179,0.009414494037628174,-0.15698870579817076,2.0049294425368096,3.092511182715876,0.8960784077644348,0.15634465217590332,0.4154515266418457, 210, 134, 33, 169
1731649495050,9i,6.36091413136442,1.4s : 0.4s,14.909549947295332,0.018614014310564208,0.177756301812161,0.04944184805082792,0.30907708406448364,0.36500871181488037,-0.4204803705215454,0.03220623731613159,-0.03536836802959442,-0.012503325939178467,-0.15900815949204594,2.0044212685404266,3.0902075438857537,0.8960012793540955,0.15833894908428192,0.4148626923561096, 210, 134, 33, 169
1731649495060,9i,6.36091413136442,1.4s : 0.4s,14.909549947295332,0.019003365851400923,0.2367439073925092,0.06054771624636205,0.23941448330879211,0.35977301001548767,-0.390444278717041,-0.02561730146408081,-0.02054525911808014,-0.0508691668510437,-0.16091776487289858,2.004177988585173,3.087431346895056,0.895825982093811,0.16022418439388275,0.4145168960094452, 210, 134, 33, 169
1731649495070,9i,6.36091413136442,1.4s : 0.4s,14.909549947295332,0.019475841591576414,0.24073471425286588,0.04723186130153582,-0.015019141137599945,0.2633756399154663,-0.34656575322151184,-0.023647427558898926,0.024366483092308044,-0.03283172845840454,-0.16165464186327055,2.0039591562993944,3.086436850374003,0.8958091735839844,0.16095149517059326,0.41427114605903625, 210, 134, 33, 169
1731649495080,9i,6.36091413136442,1.4s : 0.4s,14.909549947295332,0.019865492553439886,0.23706359099145685,0.019128403670112617,-0.04031763970851898,0.17662201821804047,-0.2990512549877167,0.017187893390655518,-0.0053871870040893555,0.006438195705413818,-0.16197836745735444,2.0038883880717897,3.0868479262010458,0.8957913517951965,0.16127099096775055,0.4141859710216522, 210, 134, 33, 169
1731649495090,9i,6.36091413136442,1.4s : 0.4s,14.909549947295332,0.01980385493961302,0.2029554992187799,0.09855126267981873,0.03925521671772003,0.0677245631814003,-0.17568671703338623,0.018686771392822266,-0.08895924687385559,0.03807109594345093,-0.1625037119316506,2.0038583196266844,3.087075186876569,0.8957266211509705,0.1617894321680069,0.4141233265399933, 210, 134, 33, 169
1731649495100,9i,6.36091413136442,1.4s : 0.4s,14.909549947295332,0.01976086750018464,0.1630917951844872,0.0785274915632331,0.18230664730072021,-0.03321172297000885,-0.05770096182823181,-0.008567988872528076,-0.07800839841365814,0.0028011202812194824,-0.16335920837894904,2.00365850271384,3.086199815600899,0.8956832885742188,0.16263359785079956,0.41388610005378723, 210, 134, 33, 169
1731649495110,9i,6.36091413136442,1.4s : 0.4s,14.909549947295332,0.01979735990934539,0.14886094536278358,0.02897435283828222,0.1947755664587021,-0.12533392012119293,0.03441804647445679,-0.0038743019104003906,0.020814672112464905,-0.019780099391937256,-0.16443462465995176,2.0032957062775534,3.084595355117395,0.8956743478775024,0.1636946052312851,0.4134877026081085, 210, 134, 33, 169
1731649495120,9i,6.36091413136442,1.4s : 0.4s,14.909549947295332,0.019889445342817846,0.11887033325095223,0.030576355881730088,0.20559844374656677,-0.17461438477039337,0.07451184093952179,0.0028843283653259277,0.01811736822128296,-0.024461299180984497,-0.16559127303193616,2.002801747005512,3.0830256249053694,0.8957059979438782,0.16483554244041443,0.41296568512916565, 210, 134, 33, 169
1731649495130,9i,6.36091413136442,1.4s : 0.4s,14.909549947295332,0.02000238789448824,0.11833584934843185,0.018845730550644448,0.20230677723884583,-0.1595800369977951,0.10223055630922318,0.0029624104499816895,-0.016339540481567383,-0.008910953998565674,-0.16684708077317098,2.002385927316447,3.081404094911812,0.8956888914108276,0.16607403755187988,0.41250625252723694, 210, 134, 33, 169
1731649495140,9i,6.36091413136442,1.4s : 0.4s,14.909549947295332,0.02015267159786464,0.1279744840214308,0.03054928915067678,0.1992742419242859,-0.13170526921749115,0.08448923379182816,-0.007655918598175049,-0.02816617488861084,-0.009017348289489746,-0.16803975941545848,2.0021375854545047,3.0798914440317215,0.8956106305122375,0.16725003719329834,0.4122006595134735, 210, 134, 33, 169
1731649495150,9i,6.36091413136442,1.4s : 0.4s,14.909549947295332,0.02035004512513148,0.14324469123791667,0.03547605575907053,0.24669209122657776,-0.09322046488523483,0.05702725052833557,-0.017532169818878174,-0.03021526336669922,-0.006181538105010986,-0.1693753878181822,2.0018189034920875,3.078127726301742,0.895538330078125,0.16856670379638672,0.4118216037750244, 210, 134, 33, 169
1731649495160,9i,6.36091413136442,1.4s : 0.4s,14.909549947295332,0.02057188204495305,0.15949654735432647,0.0334950281297139,0.28968343138694763,-0.06325635313987732,0.011050006374716759,-0.012477695941925049,-0.03105621039867401,0.0013175010681152344,-0.1708943880530196,2.0013345802353246,3.0759029730353262,0.8955038189888,0.170063778758049,0.41128042340278625, 210, 134, 33, 169
1731649495170,9i,6.36091413136442,1.4s : 0.4s,14.909549947295332,0.02080820908542424,0.1672777743753229,0.02246169457564174,0.279460072517395,-0.02746719680726528,0.005601178389042616,-0.009561419486999512,-0.020263463258743286,0.0015808343887329102,-0.17248463984960075,2.0007752126696006,3.0733589578586296,0.8954867124557495,0.1716306507587433,0.4106661379337311, 210, 134, 33, 169
1731649495180,9i,6.36091413136442,1.4s : 0.4s,14.909549947295332,0.021054072708825398,0.16556282833118813,0.014474314503053217,0.2276407778263092,-0.015042394399642944,0.01374242827296257,-0.014034152030944824,-0.0016259104013442993,0.0031471848487854004,-0.17359327362823232,2.000273499607959,3.0710761639429616,0.8955192565917969,0.172722727060318,0.410137414932251, 210, 134, 33, 169
1731649495189,9i,6.36091413136442,1.4s : 0.4s,14.909549947295332,0.021299289886462295,0.15355515541245704,0.02383827713891954,0.18642622232437134,-0.02572566457092762,-0.011395948007702827,-0.01560598611831665,0.017810001969337463,0.0027423501014709473,-0.17454218570287783,1.9997967282442546,3.069170774115847,0.8955652713775635,0.17365729808807373,0.4096420705318451, 210, 134, 33, 169
1731649495199,9i,6.36091413136442,1.4s : 0.4s,14.909549947295332,0.021542422634642244,0.14153825281582066,0.013891719988817533,0.17040784657001495,-0.00966582726687193,-0.015038219280540943,-0.012613177299499512,-0.0034115612506866455,0.0047168731689453125,-0.17542194110244647,1.9993498251712516,3.0676348622836613,0.8956087827682495,0.17452362179756165,0.40917807817459106, 210, 134, 33, 169
1731649495209,9i,6.36091413136442,1.4s : 0.4s,14.909549947295332,0.021809358599541816,0.13196473763961705,0.03951629776687906,0.16411186754703522,-0.007165918126702309,-0.005264951381832361,-0.014658510684967041,-0.03668318688869476,0.0010048151016235352,-0.1762354067161811,1.9989945421897384,3.0661127953609726,0.8956246972084045,0.17532454431056976,0.40880078077316284, 210, 134, 33, 169
1731649495219,9i,6.36091413136442,1.4s : 0.4s,14.909549947295332,0.022076520169659733,0.11908228713445039,0.019959382744790137,0.13335241377353668,-0.002469167113304138,-1.8224352970719337e-05,-0.011206269264221191,-0.015715807676315308,0.0050803422927856445,-0.17690006106068798,1.998706362958943,3.0647269705176856,0.8956362009048462,0.1759788691997528,0.4084942042827606, 210, 134, 33, 169
1731649495229,9i,6.36091413136442,1.4s : 0.4s,14.909549947295332,0.022301274538696333,0.09717793179272693,0.021913682746888288,0.06804531812667847,-0.004053481388837099,-0.020419634878635406,-0.006212353706359863,0.00429224967956543,0.020571649074554443,-0.1764931987834736,1.9986521234481591,3.0638784709270523,0.8957233428955078,0.17557834088802338,0.40847527980804443, 210, 134, 33, 169
1731649495239,9i,6.36091413136442,1.4s : 0.4s,14.909549947295332,0.022400346268323164,0.0743046256950807,0.05163209477701762,0.03078629821538925,0.010628169402480125,-0.020030714571475983,-0.009109079837799072,-0.020829826593399048,0.04635748267173767,-0.17600344476796767,1.9988865726705891,3.0635593657072695,0.8957056999206543,0.17509616911411285,0.4087209105491638, 210, 134, 33, 169
1731649495249,9i,6.36091413136442,1.4s : 0.4s,14.909549947295332,0.022463461353886115,0.05855264933449905,0.07449979936297267,0.03234211727976799,0.004668015521019697,-0.005858703050762415,-0.016304850578308105,-0.05288107693195343,0.049879491329193115,-0.17539149235533982,1.9992148356652677,3.063408723667565,0.8956689834594727,0.17449364066123962,0.40905943512916565, 210, 134, 33, 169
1731649495259,9i,6.36091413136442,1.4s : 0.4s,14.909549947295332,0.02255702747290154,0.05745763555972617,0.0451018357191515,0.06936784833669662,-0.0025920276530086994,-0.017331168055534363,-0.011699140071868896,-0.033483877778053284,0.027859210968017578,-0.17563610749488856,1.9997478813774292,3.063069555152244,0.8954119682312012,0.17473448812961578,0.4095190465450287, 210, 134, 33, 169
1731649495269,9i,6.36091413136442,1.4s : 0.4s,14.909549947295332,0.022644108109131943,0.049601332495629494,0.011996605444285997,0.0453176386654377,0.0063561936840415,-0.007094775792211294,-0.002850830554962158,-0.0005639791488647461,0.011639297008514404,-0.17711722840049873,2.0002093630607747,3.0626214389802393,0.8949863910675049,0.17619264125823975,0.4098239243030548, 210, 134, 33, 169
1731649495279,9i,6.36091413136442,1.4s : 0.4s,14.909549947295332,0.022745652940450962,0.03679652332476241,0.010608700595731414,-0.04560854285955429,0.011414336040616035,0.009926417842507362,-0.008096575736999512,0.006203457713127136,0.002916693687438965,-0.17690779050440655,2.0007830020383577,3.0627296174626193,0.8947848081588745,0.17598646879196167,0.4103527069091797, 210, 134, 33, 169
1731649495289,9i,6.36091413136442,1.4s : 0.4s,14.909549947295332,0.022850518696209857,0.03050812730697243,0.026753664784950833,-0.0393434539437294,0.024112820625305176,0.009475013241171837,-0.016193628311157227,0.01832762360572815,0.010845422744750977,-0.17486874888392637,2.001288217102512,3.063141427727734,0.8949015736579895,0.17397889494895935,0.4109535813331604, 210, 134, 33, 169
1731649495299,9i,6.36091413136442,1.4s : 0.4s,14.909549947295332,0.022955092585937354,0.02497438631436342,0.02710530185603129,-0.04094008728861809,0.028067436069250107,-0.0005703310016542673,-0.016840875148773193,0.014769956469535828,0.015262067317962646,-0.17406548886939494,2.001914662833244,3.063556183248169,0.8947707414627075,0.17318782210350037,0.4115723967552185, 210, 134, 33, 169
1731649495309,9i,6.36091413136442,1.4s : 0.4s,14.909549947295332,0.02309713450824347,0.021351398848362173,0.018957757390505904,-0.021805807948112488,0.03037799522280693,0.026333987712860107,-0.01658707857131958,-0.009179338812828064,7.161498069763184e-05,-0.17412032154499107,2.003139047085324,3.063941228864126,0.8942573666572571,0.17324182391166687,0.41266360878944397, 210, 134, 33, 169
1731649495319,9i,6.36091413136442,1.4s : 0.4s,14.909549947295332,0.02326148301460924,0.021138993009042737,0.018495760242492738,0.021599458530545235,0.023903850466012955,0.03823552280664444,-0.01806044578552246,0.003989160060882568,-6.854534149169922e-06,-0.17283437283349778,2.0053758631927936,3.064139791696153,0.8935333490371704,0.17197518050670624,0.41475626826286316, 210, 134, 33, 169
1731649495329,9i,6.36091413136442,1.4s : 0.4s,14.909549947295332,0.023413990327682734,0.0209950696459085,0.028491363266050253,0.018954139202833176,0.024675102904438972,0.025882713496685028,-0.01022559404373169,0.026102855801582336,-0.005082905292510986,-0.17033735323004834,2.007679765525783,3.064172811447045,0.8929619193077087,0.16951483488082886,0.41699427366256714, 210, 134, 33, 169
1731649495339,9i,6.36091413136442,1.4s : 0.4s,14.909549947295332,0.023549274079655,0.02149963442103821,0.025149356637938512,0.02872554399073124,0.02904561534523964,0.00874460767954588,-0.007559657096862793,0.02378074824810028,-0.003133326768875122,-0.169148140265475,2.0088360143754587,3.0640396693047616,0.8926612138748169,0.1683427095413208,0.41811177134513855, 210, 134, 33, 169
1731649495349,9i,6.36091413136442,1.4s : 0.4s,14.909549947295332,0.023691721742676843,0.02224856241068341,0.022761308695313807,0.028386790305376053,0.03314528614282608,0.01984492875635624,-0.01850992441177368,0.012748762965202332,0.003595679998397827,-0.1694420815245863,2.009252888849157,3.06373763351721,0.8924418091773987,0.16863244771957397,0.41846272349357605, 210, 134, 33, 169
1731649495359,9i,6.36091413136442,1.4s : 0.4s,14.909549947295332,0.023851362503290084,0.02408932570652182,0.028298247404969903,0.041030947118997574,0.03457939624786377,0.015447517856955528,-0.021434426307678223,0.01710304617881775,-0.006988704204559326,-0.1699938269097038,2.0094281576338586,3.0633104303662315,0.8922842144966125,0.16917626559734344,0.4185796082019806, 210, 134, 33, 169
1731649495369,9i,6.36091413136442,1.4s : 0.4s,14.909549947295332,0.02399129428429299,0.03378687841815076,0.03995712087966932,0.07469090819358826,0.038949646055698395,0.007014884613454342,-0.015457391738891602,0.03586883842945099,-0.008430123329162598,-0.17108020785186454,2.0100028705590693,3.0627641217829895,0.8918765187263489,0.170246884226799,0.4190139174461365, 210, 134, 33, 169
1731649495379,9i,6.36091413136442,1.4s : 0.4s,14.909549947295332,0.02408052177581029,0.04169928418298785,0.046711469768209876,0.07550530135631561,0.05116991326212883,-0.014855394139885902,-0.013108491897583008,0.04409891366958618,-0.00808793306350708,-0.1720346846903929,2.010740785963177,3.0621584872826704,0.8914198279380798,0.1711873561143875,0.4196026027202606, 210, 134, 33, 169
1731649495389,9i,6.36091413136442,1.4s : 0.4s,14.909549947295332,0.024138921266383496,0.05551641213527891,0.052405228364004956,0.09285259991884232,0.09215942025184631,-0.034364379942417145,-0.019378662109375,0.04861906170845032,-0.00263860821723938,-0.17248020063556158,2.011305886190144,3.0615087052517715,0.89111328125,0.1716262698173523,0.42007362842559814, 210, 134, 33, 169
1731649495399,9i,6.36091413136442,1.4s : 0.4s,14.909549947295332,0.02418357920893907,0.08110438515771974,0.06109665255386734,0.15980860590934753,0.1222035214304924,-0.06651425361633301,-0.02618694305419922,0.054799824953079224,0.006635069847106934,-0.1736100318523519,2.0122596274655176,3.0606159567016595,0.890536367893219,0.17273923754692078,0.42084020376205444, 210, 134, 33, 169
1731649495409,9i,6.36091413136442,1.4s : 0.4s,14.909549947295332,0.02425121124651058,0.12498799973617439,0.06432314832324822,0.26406043767929077,0.18069586157798767,-0.11564931273460388,-0.02771461009979248,0.05803149938583374,0.0013087689876556396,-0.17604596185800428,2.0133385897610174,3.0590135514384458,0.8896988034248352,0.17513802647590637,0.42161935567855835, 210, 134, 33, 169
1731649495419,9i,6.36091413136442,1.4s : 0.4s,14.909549947295332,0.024338064242053148,0.1819633422732617,0.06758093366822775,0.36113086342811584,0.23703093826770782,-0.18788152933120728,-0.0279199481010437,0.0605149120092392,0.011207342147827148,-0.1793054341641154,2.014908633757525,3.0568191755785157,0.8885156512260437,0.178346186876297,0.422768235206604, 210, 134, 33, 169
1731649495429,9i,6.36091413136442,1.4s : 0.4s,14.909549947295332,0.024358110717379564,0.24892321002538798,0.10913052561124513,0.47165337204933167,0.2938998341560364,-0.23768983781337738,-0.03519362211227417,0.09352332353591919,0.043866485357284546,-0.18316441259241678,2.017147944584409,3.0538835957927075,0.8869392275810242,0.1821419596672058,0.42445653676986694, 210, 134, 33, 169
1731649495439,9i,6.36091413136442,1.4s : 0.4s,14.909549947295332,0.024253141716769212,0.3090914888157204,0.17440677959127815,0.5085440278053284,0.3246861398220062,-0.2932823896408081,-0.02893996238708496,0.16190114617347717,0.05803638696670532,-0.1876789433093443,2.019575524063791,3.0505951075208397,0.8851565718650818,0.18657910823822021,0.42624738812446594, 210, 134, 33, 169
1731649495449,9i,6.36091413136442,1.4s : 0.4s,14.909549947295332,0.024094234593938675,0.3821946956459282,0.23938358989030184,0.6285691857337952,0.3953683078289032,-0.3573189079761505,-0.009467363357543945,0.2313515841960907,0.06075620651245117,-0.1931255111090224,2.02240867159414,3.0468251462998848,0.8830177783966064,0.1919272392988205,0.4283035397529602, 210, 134, 33, 169
1731649495459,9i,6.36091413136442,1.4s : 0.4s,14.909549947295332,0.02425231366600961,0.4608222385033201,0.2768367398920172,0.7043765187263489,0.48751360177993774,-0.43529337644577026,-0.007951915264129639,0.26587456464767456,0.07672068476676941,-0.19966764352011304,2.025928796674811,3.0424118536476397,0.8803578615188599,0.19834358990192413,0.43084797263145447, 210, 134, 33, 169
1731649495469,9i,6.36091413136442,1.4s : 0.4s,14.909549947295332,0.02525275292721384,0.5423983531435458,0.26556366549642074,0.7490097284317017,0.5892122387886047,-0.5397183299064636,-0.03164505958557129,0.2519468367099762,0.07775244116783142,-0.20720476435041096,2.03039936862394,3.038029233843548,0.877058207988739,0.2057252675294876,0.4341038763523102, 210, 134, 33, 169
1731649495479,9i,6.36091413136442,1.4s : 0.4s,14.909549947295332,0.02727781835932885,0.6455090709974924,0.2716190862728241,0.8659140467643738,0.7647417187690735,-0.6475188136100769,-0.05711168050765991,0.23661018908023834,0.12054377794265747,-0.21614930166746918,2.0360944867469204,3.033333475058679,0.8728922605514526,0.21447013318538666,0.43824854493141174, 210, 134, 33, 169
1731649495489,9i,6.36091413136442,1.4s : 0.4s,14.909549947295332,0.030433519550405592,0.7572451105496536,0.316125262812851,0.897575318813324,0.9306244254112244,-0.8107138872146606,-0.08724933862686157,0.24783603847026825,0.17578405141830444,-0.2266019543399887,2.0435247475729903,3.028610300488978,0.8675687313079834,0.22466765344142914,0.4436773359775543, 210, 134, 33, 169
1731649495499,9i,6.36091413136442,1.4s : 0.4s,14.909549947295332,0.03479335297248023,0.8621380057671711,0.35553164670732296,0.832099437713623,1.076511025428772,-0.9651164412498474,-0.10238438844680786,0.2868098020553589,0.18346750736236572,-0.23856372096210446,2.052660192997802,3.0248279816434875,0.8610361218452454,0.2363072633743286,0.45030656456947327, 210, 134, 33, 169
1731649495509,9i,6.36091413136442,1.4s : 0.4s,14.909549947295332,0.04017720727313944,0.9728556809108505,0.38102258742704675,0.8193088173866272,1.244179129600525,-1.1028300523757935,-0.0864991545677185,0.3168487846851349,0.19313973188400269,-0.25145123403218406,2.0636447756269405,3.0224089772271605,0.8532840013504028,0.248809814453125,0.45825836062431335, 210, 134, 33, 169
1731649495519,9i,6.36091413136442,1.4s : 0.4s,14.909549947295332,0.04625530272894613,1.1095199889857357,0.38797087886695025,0.9496209025382996,1.4265073537826538,-1.2756874561309814,-0.0517156720161438,0.32061895728111267,0.2122507393360138,-0.2660820144801055,2.0764099930726516,3.0203386912121073,0.8440892100334167,0.26295337080955505,0.46729961037635803, 210, 134, 33, 169
1731649495529,9i,6.36091413136442,1.4s : 0.4s,14.909549947295332,0.05290669644092357,1.2882062336869413,0.40525072789865846,1.3344557285308838,1.6040565967559814,-1.4508672952651978,-0.030117928981781006,0.3301668167114258,0.23304706811904907,-0.28344618723172155,2.090610840297526,3.0171522486062665,0.8332796692848206,0.2796659767627716,0.4768989384174347, 210, 134, 33, 169
1731649495539,9i,6.36091413136442,1.4s : 0.4s,14.909549947295332,0.06039066450586635,1.5165424483249745,0.46556173181208416,1.8045978546142578,1.8376312255859375,-1.6552354097366333,-0.023872971534729004,0.39432770013809204,0.24634015560150146,-0.3047493733516209,2.105991953986342,3.0110878544735216,0.8205345273017883,0.3000541031360626,0.48650941252708435, 210, 134, 33, 169
1731649495549,9i,6.36091413136442,1.4s : 0.4s,14.909549947295332,0.06909911471884816,1.7624885081423427,0.5555579406759475,2.1836109161376953,2.0596139430999756,-1.7847859859466553,-0.023936033248901367,0.4904146194458008,0.2599330544471741,-0.32985011595652775,2.1227811802461027,3.002552273248937,0.8055828809738159,0.3239012360572815,0.4961097538471222, 210, 134, 33, 169
1731649495559,9i,6.36091413136442,1.4s : 0.4s,14.909549947295332,0.07944422232453917,2.0112432882545472,0.6615145026005286,2.5758442878723145,2.175565481185913,-1.9133007526397705,-0.044020116329193115,0.5922808051109314,0.2913196086883545,-0.3581361803839094,2.140228037828797,2.9914433513956746,0.7887710928916931,0.350529283285141,0.5049452781677246, 210, 134, 33, 169
1731649495569,9i,6.36091413136442,1.4s : 0.4s,14.909549947295332,0.09139171236074226,2.23843936092258,0.7248485463574139,2.7689735889434814,2.2870330810546875,-2.045473575592041,-0.04867839813232422,0.6363334655761719,0.34367942810058594,-0.38940989089268846,2.1578957374407532,2.9790477779234306,0.7702207565307617,0.3796425461769104,0.5124762654304504, 210, 134, 33, 169
1731649495579,9i,6.36091413136442,1.4s : 0.4s,14.909549947295332,0.10474695701854973,2.436221332895342,0.7568590790455778,2.907048463821411,2.3996047973632812,-2.113635778427124,-0.09954482316970825,0.6218866109848022,0.419742226600647,-0.4225925317348339,2.176172108187699,2.96612876244205,0.7499505877494812,0.41012629866600037,0.5190092325210571, 210, 134, 33, 169
1731649495589,9i,6.36091413136442,1.4s : 0.4s,14.909549947295332,0.11990553359946357,2.618524997755849,0.873171528412916,3.0504310131073,2.538966178894043,-2.199323892593384,-0.21035826206207275,0.6780524253845215,0.508353054523468,-0.45735504941752064,2.1952428734189944,2.953043334452881,0.7279059290885925,0.4415765404701233,0.5245604515075684, 210, 134, 33, 169
1731649495599,9i,6.36091413136442,1.4s : 0.4s,14.909549947295332,0.1371785867249155,2.809591182511295,1.0057920276403471,3.3211421966552734,2.7308666706085205,-2.2525689601898193,-0.3311520218849182,0.739601194858551,0.595773458480835,-0.4941474764848357,2.215093028058882,2.939119539465512,0.7038784623146057,0.47428128123283386,0.5287843942642212, 210, 134, 33, 169
1731649495609,9i,6.36091413136442,1.4s : 0.4s,14.909549947295332,0.15665648708649402,3.032345983364869,1.1267979684663691,3.6655569076538086,3.0124635696411133,-2.355682849884033,-0.45685940980911255,0.782802939414978,0.6694570183753967,-0.5337816266060169,2.235897098298513,2.923154078373029,0.6773945689201355,0.508792519569397,0.5312877893447876, 210, 134, 33, 169
1731649495619,9i,6.36091413136442,1.4s : 0.4s,14.909549947295332,0.17839077309057907,3.298193519744833,1.2439808125161647,4.037498474121094,3.365177869796753,-2.5502095222473145,-0.56308513879776,0.8242515921592712,0.7423157691955566,-0.5769668228130049,2.2585902324247353,2.905823937611096,0.6475732326507568,0.5454843044281006,0.5320681929588318, 210, 134, 33, 169
1731649495629,9i,6.36091413136442,1.4s : 0.4s,14.909549947295332,0.2023522891922698,3.5956227031910104,1.3489825908065143,4.3642144203186035,3.6972782611846924,-2.854611396789551,-0.646894097328186,0.8549945950508118,0.8186979293823242,-0.6250214822719746,2.283632332025723,2.887674467926943,0.6134925484657288,0.5851147174835205,0.5303471088409424, 210, 134, 33, 169
1731649495639,9i,6.36091413136442,1.4s : 0.4s,14.909549947295332,0.2281889099648981,3.891904119124124,1.4004490075340794,4.475294589996338,4.012065887451172,-3.2495172023773193,-0.6809058785438538,0.8423248529434204,0.8877575397491455,-0.6780747766190918,2.3120828756582705,2.8713223810245556,0.5744298696517944,0.6272948384284973,0.5258626937866211, 210, 134, 33, 169
1731649495649,9i,6.36091413136442,1.4s : 0.4s,14.909549947295332,0.2553280562931927,4.184570423961279,1.3784115721249222,4.564431667327881,4.2912211418151855,-3.6737875938415527,-0.6456388235092163,0.8561248183250427,0.8661519885063171,-0.7343915993276057,2.345892246327459,2.8594036354763537,0.5302213430404663,0.6701356768608093,0.5194074511528015, 210, 134, 33, 169
1731649495659,9i,6.36091413136442,1.4s : 0.4s,14.909549947295332,0.28352163891659937,4.4452468580554685,1.3716202908454218,4.603229999542236,4.401435852050781,-4.044167518615723,-0.558316707611084,0.953309178352356,0.8129122257232666,-0.7942416120289504,2.385067642219899,2.8530026055949698,0.48104622960090637,0.7133322954177856,0.5096589922904968, 210, 134, 33, 169
1731649495669,9i,6.36091413136442,1.4s : 0.4s,14.909549947295332,0.31244736085700137,4.651944356158587,1.3678885658287958,4.7560834884643555,4.2411274909973145,-4.255268096923828,-0.42373308539390564,1.0834426879882812,0.7195285558700562,-0.8566981760988444,2.4279062202549877,2.8523305998619,0.42873796820640564,0.7556841969490051,0.4951019287109375, 210, 134, 33, 169
1731649495679,9i,6.36091413136442,1.4s : 0.4s,14.909549947295332,0.3420240245109826,4.810537521259708,1.4229559018800688,4.953101634979248,3.9356908798217773,-4.459373950958252,-0.24680030345916748,1.2106895446777344,0.705778956413269,-0.9217831112009984,2.471913704017834,2.856265587181561,0.3751724064350128,0.7966805696487427,0.47386303544044495, 210, 134, 33, 169
1731649495689,9i,6.36091413136442,1.4s : 0.4s,14.909549947295332,0.37191176510985163,4.940751771018808,1.4388805944843461,4.9958696365356445,3.6993961334228516,-4.789350986480713,-0.0932675302028656,1.246049404144287,0.7134699821472168,-0.9893083039603554,2.5196820853279376,2.8680990611438117,0.31999775767326355,0.8356462717056274,0.4464271664619446, 210, 134, 33, 169
1731649495699,9i,6.36091413136442,1.4s : 0.4s,14.909549947295332,0.40174212309189494,5.065063295803455,1.3964295872933818,4.9728569984436035,3.6039092540740967,-5.150928974151611,-0.06246262788772583,1.2075798511505127,0.6984732747077942,-1.0583591501493168,2.5780549945207967,2.8938195463808123,0.2619101107120514,0.8715521693229675,0.41448771953582764, 210, 134, 33, 169
1731649495709,9i,6.36091413136442,1.4s : 0.4s,14.909549947295332,0.4316292901931737,5.175285697727693,1.3810139059155229,4.836150646209717,3.5709571838378906,-5.474947929382324,-0.12801197171211243,1.1819405555725098,0.7027295827865601,-1.12735412466417,2.6551701059772803,2.940215979548011,0.20056743919849396,0.9032801389694214,0.3792867064476013, 210, 134, 33, 169
1731649495719,9i,6.36091413136442,1.4s : 0.4s,14.909549947295332,0.46183397157754924,5.318467911123432,1.41735695306091,4.970884323120117,3.5423200130462646,-5.851015567779541,-0.148259699344635,1.2089622020721436,0.7247966527938843,-1.195368356730787,2.761679587278947,3.0174254192666337,0.13597625494003296,0.9303507804870605,0.34052640199661255, 210, 134, 33, 169
1731649495729,9i,6.36091413136442,1.4s : 0.4s,14.909549947295332,0.4927168696549557,5.487104973769664,1.5050713906274729,5.072735786437988,3.399466037750244,-6.341236591339111,-0.07186836004257202,1.3109948635101318,0.7357766628265381,-1.2616736682598737,2.917737498373952,-3.137044012005038,0.06753472983837128,0.9526008367538452,0.29663315415382385, 210, 134, 33, 169
1731649495739,9i,6.36091413136442,1.4s : 0.4s,14.909549947295332,0.5246027649475449,5.655589813501773,1.6267688030942256,5.26795768737793,3.148341655731201,-6.657314777374268,0.06908179819583893,1.4318926334381104,0.768952488899231,-1.319740303025929,-3.1258463255611533,-2.921996411475732,-0.00391166377812624,0.9686506390571594,0.24839697778224945, 210, 134, 33, 169
1731649495749,9i,6.36091413136442,1.4s : 0.4s,14.909549947295332,0.557932315581381,5.826032211493235,1.8127757724361453,5.620992660522461,2.7520668506622314,-6.912291049957275,0.2554243206977844,1.632219910621643,0.7461719512939453,-1.360693956489313,-2.7664973250985847,-2.5835366038679375,-0.07640836387872696,0.9780095815658569,0.1940595507621765, 210, 134, 33, 169
1731649495758,9i,6.36091413136442,1.4s : 0.4s,14.909549947295332,0.5928495822259493,5.951045874701384,1.990114429131923,5.5686116218566895,2.3237855434417725,-7.1602044105529785,0.4720577597618103,1.7927244901657104,0.7237788438796997,-1.367020109870825,-2.310254319921026,-2.143417309680556,-0.14951767027378082,0.9793093800544739,0.13637448847293854, 210, 134, 33, 169
1731649495768,9i,6.36091413136442,1.4s : 0.4s,14.909549947295332,0.6291914635952385,6.03879945298733,2.067850776929231,5.505218505859375,2.0251758098602295,-7.291358470916748,0.6122266054153442,1.826300859451294,0.7522038221359253,-1.3328555944975249,-1.9099866931904412,-1.7555184864551825,-0.22227320075035095,0.9718254208564758,0.07842380553483963, 210, 134, 33, 169
1731649495778,9i,6.36091413136442,1.4s : 0.4s,14.909549947295332,0.6670181631434872,6.119102494998335,2.1297288426867858,5.537606716156006,1.9195154905319214,-7.390136241912842,0.671417236328125,1.870483160018921,0.7656608819961548,-1.2718866241220026,-1.6398008307664507,-1.495925732716899,-0.2937776446342468,0.9556581377983093,0.02030421793460846, 210, 134, 33, 169
1731649495788,9i,6.36091413136442,1.4s : 0.4s,14.909549947295332,0.7065071727940634,6.247770136909882,2.200755050355278,5.821287631988525,1.5891863107681274,-7.7206196784973145,0.723675012588501,1.8981261253356934,0.8466017246246338,-1.1951157767834955,-1.4640926184231948,-1.3284196054385018,-0.3648189306259155,0.9302581548690796,-0.03907594829797745, 210, 134, 33, 169
1731649495798,9i,6.36091413136442,1.4s : 0.4s,14.909549947295332,0.747741932519221,6.347712939421265,2.265626441436685,5.87758207321167,1.3869802951812744,-7.766994953155518,0.7795186042785645,1.8850886821746826,0.985826849937439,-1.1089486209665629,-1.348509154529876,-1.218138216467286,-0.43463969230651855,0.8952307105064392,-0.09823821485042572, 210, 134, 33, 169
1731649495808,9i,6.36091413136442,1.4s : 0.4s,14.909549947295332,0.7903981865857426,6.435714517886477,2.2997555272810377,6.096848487854004,1.1121900081634521,-7.755819797515869,0.8508638739585876,1.8926916122436523,0.9912742376327515,-1.0186257178922038,-1.2681056178223233,-1.1405285243983985,-0.5006901025772095,0.8513879776000977,-0.15635895729064941, 210, 134, 33, 169
1731649495818,9i,6.36091413136442,1.4s : 0.4s,14.909549947295332,0.8344671275263831,6.488397391582762,2.3972182994951052,6.0993332862854,0.847697913646698,-7.727850437164307,0.9815237522125244,1.9741613864898682,0.9412510395050049,-0.9255061423684149,-1.2108287073641022,-1.08283639215963,-0.5628838539123535,0.7989252805709839,-0.21185027062892914, 210, 134, 33, 169
1731649495828,9i,6.36091413136442,1.4s : 0.4s,14.909549947295332,0.8798854826791429,6.4884881452135375,2.4665242152385503,5.939054489135742,0.6224589347839355,-7.641415596008301,1.0910639762878418,1.97292160987854,1.000450611114502,-0.8320040559628212,-1.1703326881846745,-1.0397872292256325,-0.6201169490814209,0.7392823696136475,-0.2625201940536499, 210, 134, 33, 169
1731649495838,9i,6.36091413136442,1.4s : 0.4s,14.909549947295332,0.9268712061865391,6.454615517556031,2.557246563043697,5.776827335357666,0.4123203754425049,-7.565636157989502,1.177304744720459,1.9925154447555542,1.0878169536590576,-0.7388718565394289,-1.142036031216956,-1.0071014770683109,-0.6723152995109558,0.6734544038772583,-0.3073297142982483, 210, 134, 33, 169
1731649495848,9i,6.36091413136442,1.4s : 0.4s,14.909549947295332,0.9750674623028669,6.355985129257394,2.594253317765867,5.420151710510254,0.051772590726614,-7.3885817527771,1.280306100845337,1.9238345623016357,1.1789093017578125,-0.647531240014776,-1.1241000402606265,-0.9824658029108052,-0.719316840171814,0.603219211101532,-0.34454336762428284, 210, 134, 33, 169
1731649495858,9i,6.36091413136442,1.4s : 0.4s,14.909549947295332,1.0235823079983897,6.228613453344805,2.552652609982001,5.201176643371582,-0.36176928877830505,-7.1941447257995605,1.3805662393569946,1.768876314163208,1.217024564743042,-0.5588856456196428,-1.11458544136248,-0.9628682676282886,-0.7611358761787415,0.5302417278289795,-0.37351858615875244, 210, 134, 33, 169
1731649495868,9i,6.36091413136442,1.4s : 0.4s,14.909549947295332,1.0719235218290548,6.074856173673223,2.5345412586814486,4.82179594039917,-0.6514527201652527,-7.051946640014648,1.48058021068573,1.6483333110809326,1.230763554573059,-0.4729540074590277,-1.1119526056390023,-0.9471396725965985,-0.7981463074684143,0.4555180072784424,-0.39429184794425964, 210, 134, 33, 169
1731649495878,9i,6.36091413136442,1.4s : 0.4s,14.909549947295332,1.1202842443110845,5.89763597359607,2.5014820257006587,4.410861968994141,-0.763330340385437,-6.887653827667236,1.545493245124817,1.5902341604232788,1.1575915813446045,-0.39013838709810517,-1.114207264475791,-0.9353746051151177,-0.8301157355308533,0.3803164064884186,-0.40775924921035767, 210, 134, 33, 169
1731649495888,9i,6.36091413136442,1.4s : 0.4s,14.909549947295332,1.1687310875436216,5.693720393502577,2.502606229672987,3.9767160415649414,-0.8282150626182556,-6.674564361572266,1.5704549551010132,1.6248383522033691,1.0754578113555908,-0.3108856131589993,-1.1192689869123877,-0.926793926952001,-0.8566489219665527,0.3059019148349762,-0.4154234826564789, 210, 134, 33, 169
1731649495898,9i,6.36091413136442,1.4s : 0.4s,14.909549947295332,1.2174616977593817,5.457003868111298,2.496329835735372,3.5141682624816895,-0.892545223236084,-6.389798164367676,1.6009660959243774,1.6304819583892822,1.00503671169281,-0.23588084530033201,-1.126287119015756,-0.9210509642818733,-0.877821683883667,0.23369953036308289,-0.418107271194458, 210, 134, 33, 169
1731649495908,9i,6.36091413136442,1.4s : 0.4s,14.909549947295332,1.2659305480902006,5.187268108504545,2.451013707670845,3.0635077953338623,-0.9278917908668518,-6.032412052154541,1.6656206846237183,1.533677577972412,0.9386208057403564,-0.16579603244324528,-1.134676885150439,-0.917533783220489,-0.8939685821533203,0.16503749787807465,-0.416632741689682, 210, 134, 33, 169
1731649495918,9i,6.36091413136442,1.4s : 0.4s,14.909549947295332,1.3127675393791207,4.910639898165472,2.3932682164409878,2.6430110931396484,-1.067142367362976,-5.731059551239014,1.7368353605270386,1.3794878721237183,0.8989710211753845,-0.10061636947225368,-1.144436378839475,-0.9161265964969921,-0.9058724641799927,0.1004466861486435,-0.4114678204059601, 210, 134, 33, 169
1731649495928,9i,6.36091413136442,1.4s : 0.4s,14.909549947295332,1.3577388470132574,4.632232175694745,2.33759872560849,2.149425745010376,-1.2661052942276,-5.458620548248291,1.7974271774291992,1.2132837772369385,0.8726773858070374,-0.039870019551083574,-1.156091457607296,-0.916797145677579,-0.914508044719696,0.039859458804130554,-0.4025996923446655, 210, 134, 33, 169
1731649495938,9i,6.36091413136442,1.4s : 0.4s,14.909549947295332,1.4005616013105797,4.352242264751054,2.258684325236445,1.6392451524734497,-1.3829939365386963,-5.171326637268066,1.8233561515808105,1.040442705154419,0.8333703875541687,0.016349877235571266,-1.1693836496710361,-0.9204250461346299,-0.9203870296478271,-0.016349148005247116,-0.3906669318675995, 210, 134, 33, 169
1731649495948,9i,6.36091413136442,1.4s : 0.4s,14.909549947295332,1.44094797170792,4.079058479732814,2.1482293562455315,1.2499802112579346,-1.4286479949951172,-4.857381820678711,1.8080568313598633,0.8813554048538208,0.7543424367904663,0.06806881322161862,-1.183271461056611,-0.926346642221739,-0.9237033128738403,-0.06801626086235046,-0.3770228922367096, 210, 134, 33, 169
1731649495958,9i,6.36091413136442,1.4s : 0.4s,14.909549947295332,1.4786899641339581,3.8161486091596077,2.019010386074293,0.9939959645271301,-1.4497014284133911,-4.514427661895752,1.755610466003418,0.7408191561698914,0.6673992872238159,0.11564965039153627,-1.1969850866127996,-0.9331742323788421,-0.9247238039970398,-0.11539202183485031,-0.3627268671989441, 210, 134, 33, 169
1731649495968,9i,6.36091413136442,1.4s : 0.4s,14.909549947295332,1.5136393138021056,3.5556142769299792,1.8924418160923655,0.536277711391449,-1.3873504400253296,-4.227853298187256,1.6984484195709229,0.6099289655685425,0.5697329640388489,0.15910721965515592,-1.21002065438729,-0.9416165297001363,-0.9238055944442749,-0.15843676030635834,-0.34854140877723694, 210, 134, 33, 169
1731649495978,9i,6.36091413136442,1.4s : 0.4s,14.909549947295332,1.5456654740873914,3.313648550888373,1.7895540330614939,0.18969625234603882,-1.2978489398956299,-3.9789927005767822,1.6622910499572754,0.48539647459983826,0.4513118267059326,0.1986761351915264,-1.2214414448832087,-0.9526810518356008,-0.9211108088493347,-0.1973716765642166,-0.3355584442615509, 210, 134, 33, 169
1731649495988,9i,6.36091413136442,1.4s : 0.4s,14.909549947295332,1.5747816554656144,3.102362881780101,1.7156491101581064,0.022442547604441643,-1.2316019535064697,-3.7640888690948486,1.6378613710403442,0.35487326979637146,0.3673240542411804,0.2353669171845527,-1.2313604631696513,-0.9650341053192075,-0.916944682598114,-0.233199805021286,-0.3237752616405487, 210, 134, 33, 169
1731649495998,9i,6.36091413136442,1.4s : 0.4s,14.909549947295332,1.6009437178890842,2.9119445828884807,1.6655105188928343,0.096530020236969,-1.2233604192733765,-3.499549150466919,1.626967191696167,0.20221740007400513,0.2932766079902649,0.2696678222288424,-1.240542380135389,-0.9769307591980262,-0.9117726683616638,-0.26641127467155457,-0.31256353855133057, 210, 134, 33, 169
1731649496008,9i,6.36091413136442,1.4s : 0.4s,14.909549947295332,1.6246010846427157,2.74246282517049,1.6592278469227555,0.2259463369846344,-1.257455825805664,-3.2686879634857178,1.6391570568084717,0.12467020750045776,0.22507449984550476,0.3020479965873242,-1.2501848793357195,-0.9864030892774566,-0.9060790538787842,-0.2974761128425598,-0.30087998509407043, 210, 134, 33, 169
1731649496018,9i,6.36091413136442,1.4s : 0.4s,14.909549947295332,1.646637897867735,2.5883418691585036,1.6648123993321002,0.10475100576877594,-1.2189478874206543,-3.101245403289795,1.6433827877044678,0.09661468863487244,0.24811074137687683,0.33250535614525434,-1.259849058743765,-0.9950090312049289,-0.8998984098434448,-0.326412171125412,-0.28920239210128784, 210, 134, 33, 169
1731649496028,9i,6.36091413136442,1.4s : 0.4s,14.909549947295332,1.6671906555003104,2.439427905076267,1.599814297303803,-0.19232115149497986,-1.0769116878509521,-2.948979616165161,1.5725493431091309,-0.0007272660732269287,0.2940983176231384,0.3609735693430207,-1.2678080758871384,-1.0050016909537722,-0.8929381966590881,-0.35318523645401,-0.2791445255279541, 210, 134, 33, 169
1731649496038,9i,6.36091413136442,1.4s : 0.4s,14.909549947295332,1.6855759675280628,2.2928602527267903,1.4671791540187036,-0.614593505859375,-0.9494474530220032,-2.7589800357818604,1.4243474006652832,-0.1815287172794342,0.3014904260635376,0.3870044903827735,-1.2731140661233962,-1.0181315009897796,-0.8853154182434082,-0.37741613388061523,-0.2716134786605835, 210, 134, 33, 169
1731649496048,9i,6.36091413136442,1.4s : 0.4s,14.909549947295332,1.7009521211316876,2.1378878655631017,1.3382463419651411,-1.0207487344741821,-0.8087185621261597,-2.4573678970336914,1.2617661952972412,-0.3750039041042328,0.2412911355495453,0.4095257374274695,-1.2752941174633126,-1.0349773640350275,-0.877549946308136,-0.39817431569099426,-0.2671392858028412, 210, 134, 33, 169
1731649496058,9i,6.36091413136442,1.4s : 0.4s,14.909549947295332,1.7132583556063057,1.9742521238669826,1.2422001136437821,-1.0872176885604858,-0.7552700638771057,-2.1017885208129883,1.1338145732879639,-0.47660258412361145,0.17428600788116455,0.4281263524989088,-1.2755723469867943,-1.0533785649018694,-0.8703869581222534,-0.4151670038700104,-0.2646941542625427, 210, 134, 33, 169
1731649496068,9i,6.36091413136442,1.4s : 0.4s,14.909549947295332,1.7231273842595427,1.8189280287504068,1.1712922481601307,-1.0525577068328857,-0.7632153034210205,-1.8317679166793823,1.065197229385376,-0.4746677875518799,0.10941153764724731,0.4436935488170304,-1.275700947570434,-1.0709355263338811,-0.8641322255134583,-0.42927828431129456,-0.262670636177063, 210, 134, 33, 169
1731649496078,9i,6.36091413136442,1.4s : 0.4s,14.909549947295332,1.7314696737121436,1.6702506392247523,1.1038962096320237,-0.9426823854446411,-0.7011643052101135,-1.633038878440857,1.0225231647491455,-0.409779816865921,0.07151028513908386,0.4572789438097484,-1.2760058913309558,-1.0870998306793012,-0.8585524559020996,-0.4415082633495331,-0.26068857312202454, 210, 134, 33, 169
1731649496088,9i,6.36091413136442,1.4s : 0.4s,14.909549947295332,1.7390257321575855,1.533000173354966,0.9951029489823391,-0.9711510539054871,-0.562606692314148,-1.4653499126434326,0.9420844912528992,-0.31455305218696594,0.06134384870529175,0.4693344577827088,-1.275606826831196,-1.102178704924164,-0.8532936573028564,-0.452292799949646,-0.25946375727653503, 210, 134, 33, 169
1731649496098,9i,6.36091413136442,1.4s : 0.4s,14.909549947295332,1.7457621135296915,1.3977147492282163,0.8627078958803537,-1.0641016960144043,-0.38883018493652344,-1.2349634170532227,0.8119719624519348,-0.2881239950656891,0.044170230627059937,0.4792837958179485,-1.273302678723152,-1.1174875386692829,-0.8483491539955139,-0.4611437916755676,-0.2600972056388855, 210, 134, 33, 169
1731649496108,9i,6.36091413136442,1.4s : 0.4s,14.909549947295332,1.7513751896175862,1.2635828103792668,0.7407351076863965,-1.1599714756011963,-0.25651341676712036,-0.9478040933609009,0.665603518486023,-0.3203844130039215,0.054902493953704834,0.48642982366961496,-1.2692364701604304,-1.1330446441031747,-0.8441162109375,-0.4674728214740753,-0.26255911588668823, 210, 134, 33, 169
1731649496118,9i,6.36091413136442,1.4s : 0.4s,14.909549947295332,1.7556249211639787,1.131507164504177,0.6719411056898331,-1.2042521238327026,-0.1572859138250351,-0.635581910610199,0.5479837656021118,-0.38093358278274536,0.0781552791595459,0.4904186975096022,-1.2640272519220257,-1.1484737243029035,-0.8409525752067566,-0.4709952771663666,-0.2663874626159668, 210, 134, 33, 169
1731649496128,9i,6.36091413136442,1.4s : 0.4s,14.909549947295332,1.7585653870001818,1.008489895515813,0.6368395432440455,-1.2208918333053589,-0.07993493229150772,-0.32220691442489624,0.4699290990829468,-0.41858285665512085,0.09756863117218018,0.49122525297656616,-1.2581985782971465,-1.1632724515345496,-0.839024007320404,-0.4717066287994385,-0.27116769552230835, 210, 134, 33, 169
1731649496138,9i,6.36091413136442,1.4s : 0.4s,14.909549947295332,1.7604139034421848,0.8986631950989875,0.5928768617770226,-1.1859692335128784,-0.0034763747826218605,-0.028040237724781036,0.41543102264404297,-0.41396763920783997,0.08689552545547485,0.4891750974624538,-1.2521964153357474,-1.1768403453723326,-0.838297963142395,-0.46989789605140686,-0.2765010595321655, 210, 134, 33, 169
1731649496148,9i,6.36091413136442,1.4s : 0.4s,14.909549947295332,1.761263839693668,0.785250861156164,0.5439935604691779,-1.0185667276382446,0.06676796078681946,0.2996523976325989,0.3755592703819275,-0.3930021822452545,0.020820975303649902,0.4843755552356977,-1.2465873124052507,-1.1881949914920622,-0.8388619422912598,-0.4656558334827423,-0.28191399574279785, 210, 134, 33, 169
1731649496158,9i,6.36091413136442,1.4s : 0.4s,14.909549947295332,1.7612650906816958,0.6970258426954488,0.5053470874619994,-0.8855252265930176,0.11188111454248428,0.5599839091300964,0.3519437313079834,-0.358602374792099,-0.053996533155441284,0.47720639168285023,-1.2417350069045927,-1.196748653730032,-0.840621829032898,-0.4592994749546051,-0.2870525121688843, 210, 134, 33, 169
1731649496168,9i,6.36091413136442,1.4s : 0.4s,14.909549947295332,1.7606032523260835,0.652069650256752,0.4880208011306366,-0.7841171026229858,0.1826642006635666,0.806517481803894,0.34626781940460205,-0.31815147399902344,-0.13054707646369934,0.46807175766715514,-1.2374297834499917,-1.2030388405593815,-0.8433076739311218,-0.4511662721633911,-0.29202961921691895, 210, 134, 33, 169
1731649496178,9i,6.36091413136442,1.4s : 0.4s,14.909549947295332,1.7597024721136048,0.676736800698009,0.4515777159872402,-0.7737883925437927,0.2692021131515503,1.082905650138855,0.340596079826355,-0.260219931602478,-0.1421349048614502,0.4566422176150884,-1.233122205070614,-1.2077235101801127,-0.8468522429466248,-0.4409368634223938,-0.2973485291004181, 210, 134, 33, 169
1731649496188,9i,6.36091413136442,1.4s : 0.4s,14.909549947295332,1.7588656975990695,0.7700252566789288,0.41013830570986903,-0.8167949914932251,0.3787672221660614,1.3667871952056885,0.3237277865409851,-0.23306217789649963,-0.09537175297737122,0.44242452615438393,-1.228187252848853,-1.2115301513713013,-0.8511936068534851,-0.4281318187713623,-0.30359959602355957, 210, 134, 33, 169
1731649496198,9i,6.36091413136442,1.4s : 0.4s,14.909549947295332,1.7581903699731898,0.9043605409229654,0.39156043349188546,-0.8055542707443237,0.5198225975036621,1.6662347316741943,0.313304603099823,-0.2270784080028534,-0.05995994806289673,0.4254077840827597,-1.2224145515507892,-1.2143021147514703,-0.8561513423919678,-0.41269224882125854,-0.31095051765441895, 210, 134, 33, 169
1731649496208,9i,6.36091413136442,1.4s : 0.4s,14.909549947295332,1.7576899166096067,1.0475501582814952,0.39386034385101504,-0.6922473907470703,0.6519231200218201,1.9192984104156494,0.318111777305603,-0.22686129808425903,-0.04964694380760193,0.40597995732199377,-1.2161812165435877,-1.2153336050758223,-0.8615535497665405,-0.3949192464351654,-0.31900522112846375, 210, 134, 33, 169
1731649496218,9i,6.36091413136442,1.4s : 0.4s,14.909549947295332,1.757364007208747,1.1812780506370508,0.4243495358609576,-0.3877338469028473,0.7785866260528564,2.1576852798461914,0.36657726764678955,-0.20954284071922302,-0.04225438833236694,0.3849796594736151,-1.2098821127523625,-1.2132299063545555,-0.8670960068702698,-0.37554028630256653,-0.32728272676467896, 210, 134, 33, 169
1731649496228,9i,6.36091413136442,1.4s : 0.4s,14.909549947295332,1.757636930029253,1.3158632805869406,0.47531713814256504,-0.03211663290858269,0.8726881146430969,2.3907482624053955,0.43366581201553345,-0.18909266591072083,-0.04587274789810181,0.3630014569784144,-1.2040301375841997,-1.2065100896931098,-0.8726612329483032,-0.355081707239151,-0.33523061871528625, 210, 134, 33, 169
1731649496238,9i,6.36091413136442,1.4s : 0.4s,14.909549947295332,1.7587199128441504,1.4604731339414032,0.5501254434684407,0.13759590685367584,0.9970319271087646,2.5677077770233154,0.5136418342590332,-0.18949809670448303,-0.05385667085647583,0.34014004221333827,-1.198236723274676,-1.1962772617686879,-0.8780370354652405,-0.3336191177368164,-0.34314632415771484, 210, 134, 33, 169
1731649496248,9i,6.36091413136442,1.4s : 0.4s,14.909549947295332,1.760875049768986,1.6281692477668224,0.6202371934562964,0.0894470140337944,1.139941692352295,2.813814401626587,0.5908738374710083,-0.18854710459709167,0.0035033822059631348,0.3156781987324507,-1.1913126532098368,-1.1846231006531527,-0.8829576373100281,-0.31046122312545776,-0.3521360158920288, 210, 134, 33, 169
1731649496258,9i,6.36091413136442,1.4s : 0.4s,14.909549947295332,1.7640614304284798,1.8129592741430425,0.670795893800959,-0.0857432410120964,1.2357410192489624,3.1093177795410156,0.6309008002281189,-0.21624788641929626,0.07188993692398071,0.28830969686441754,-1.182882314584181,-1.1729294013280602,-0.8874926567077637,-0.2843320965766907,-0.3626459836959839, 210, 134, 33, 169
1731649496268,9i,6.36091413136442,1.4s : 0.4s,14.909549947295332,1.7680151078100006,2.009547916127718,0.731032984418591,-0.27895691990852356,1.3054040670394897,3.427703857421875,0.6649508476257324,-0.2786389887332916,0.12087145447731018,0.2574602057058938,-1.1731990968866615,-1.1617678675514624,-0.8916049599647522,-0.2546252906322479,-0.37444180250167847, 210, 134, 33, 169
1731649496278,9i,6.36091413136442,1.4s : 0.4s,14.909549947295332,1.7727468534417647,2.2176849529590745,0.7957765463926663,-0.3047511577606201,1.4038482904434204,3.7637784481048584,0.7203576564788818,-0.30327779054641724,0.14955848455429077,0.22326121896537876,-1.1624753283528468,-1.150163328076443,-0.8950098752975464,-0.2214110791683197,-0.38721394538879395, 210, 134, 33, 169
1731649496288,9i,6.36091413136442,1.4s : 0.4s,14.909549947295332,1.7784326898847833,2.4342790246630845,0.8517752565795838,-0.16858400404453278,1.4845547676086426,4.119538307189941,0.7928946614265442,-0.2781537175178528,0.13953369855880737,0.18622353726638755,-1.1508556939038617,-1.136384094767134,-0.8973259329795837,-0.18514905869960785,-0.4006572365760803, 210, 134, 33, 169
1731649496298,9i,6.36091413136442,1.4s : 0.4s,14.909549947295332,1.7851852824903003,2.6549653581269226,0.9141506236139731,0.09384854882955551,1.6042721271514893,4.451616287231445,0.8723107576370239,-0.24992644786834717,0.11082452535629272,0.14707243027274622,-1.1383193659455688,-1.1188225059671775,-0.8981287479400635,-0.14654280245304108,-0.4145963191986084, 210, 134, 33, 169
1731649496308,9i,6.36091413136442,1.4s : 0.4s,14.909549947295332,1.7931580176574646,2.8700767276141224,0.9830952178920348,0.2131219506263733,1.7591419219970703,4.710979461669922,0.9490138292312622,-0.22879867255687714,0.11619004607200623,0.10634747491860744,-1.1242400496057925,-1.0978583244991178,-0.8968441486358643,-0.10614712536334991,-0.4294222593307495, 210, 134, 33, 169
1731649496318,9i,6.36091413136442,1.4s : 0.4s,14.909549947295332,1.8024882512387657,3.0918284188833587,1.0574894415764715,0.19706447422504425,1.9386619329452515,5.016349792480469,1.0204856395721436,-0.22674980759620667,0.15961673855781555,0.06369865752029838,-1.1077729004250458,-1.0747129869924088,-0.8928916454315186,-0.06365559250116348,-0.4457493722438812, 210, 134, 33, 169
1731649496327,9i,6.36091413136442,1.4s : 0.4s,14.909549947295332,1.8133202969991105,3.320621468087867,1.1275508007374848,0.06931184977293015,2.084242105484009,5.352008819580078,1.0797269344329834,-0.22664053738117218,0.23279738426208496,0.018233637670521816,-1.0886708252935768,-1.0501418532132474,-0.8858641386032104,-0.01823262684047222,-0.46358636021614075, 210, 134, 33, 169
1731649496337,9i,6.36091413136442,1.4s : 0.4s,14.909549947295332,1.8258531346342266,3.553822397578431,1.2215416891150526,-0.03937694430351257,2.204498529434204,5.695253372192383,1.159881830215454,-0.2269011288881302,0.30879461765289307,-0.03029615041254106,-1.0670884520926787,-1.0241111571081403,-0.8753970265388489,0.030291516333818436,-0.48245474696159363, 210, 134, 33, 169
1731649496347,9i,6.36091413136442,1.4s : 0.4s,14.909549947295332,1.8403738720107363,3.7878287114498446,1.3421189057546385,-0.14848798513412476,2.3030455112457275,6.033307075500488,1.260151982307434,-0.22802963852882385,0.40162497758865356,-0.08174296387168721,-1.042926529292984,-0.9962994741141616,-0.8609974384307861,0.0816519632935524,-0.5020123720169067, 210, 134, 33, 169
1731649496357,9i,6.36091413136442,1.4s : 0.4s,14.909549947295332,1.8570365646072848,4.0215988487034515,1.460180524129375,-0.14363349974155426,2.4165902137756348,6.3610453605651855,1.367104172706604,-0.2247016727924347,0.46115344762802124,-0.13553176173128598,-1.0160667944752317,-0.9657826786105481,-0.842247724533081,0.13511721789836884,-0.5218832492828369, 210, 134, 33, 169
1731649496367,9i,6.36091413136442,1.4s : 0.4s,14.909549947295332,1.8761682733960798,4.260390210622409,1.586402555623604,-0.08466286957263947,2.5643346309661865,6.704657077789307,1.487919807434082,-0.18468281626701355,0.5183241963386536,-0.19106153786380314,-0.9855825432642749,-0.9314178142651881,-0.8184252381324768,0.1899012178182602,-0.5423260927200317, 210, 134, 33, 169
1731649496377,9i,6.36091413136442,1.4s : 0.4s,14.909549947295332,1.8981118051390478,4.49895788187302,1.7216988950819871,-0.06160987913608551,2.738940954208374,7.017887592315674,1.6122591495513916,-0.13200564682483673,0.5894421339035034,-0.24789425033412643,-0.9505842317038692,-0.8925059040377641,-0.7888798117637634,0.24536313116550446,-0.5634410381317139, 210, 134, 33, 169
1731649496387,9i,6.36091413136442,1.4s : 0.4s,14.909549947295332,1.9228968490032123,4.725000368217907,1.8449309652828132,-0.30414527654647827,2.9909002780914307,7.230534553527832,1.716025948524475,-0.11911997199058533,0.6669600009918213,-0.3059700438530813,-0.9102520473087796,-0.8499967184647998,-0.7529829144477844,0.30121830105781555,-0.5850507020950317, 210, 134, 33, 169
1731649496397,9i,6.36091413136442,1.4s : 0.4s,14.909549947295332,1.9502056726927162,4.9444366083685525,1.9492539578302754,-0.803572416305542,3.2993061542510986,7.412126064300537,1.7963426113128662,-0.16310590505599976,0.7390133142471313,-0.3660828447248362,-0.8643235654308985,-0.8060399384281367,-0.7102527618408203,0.35796058177948,-0.6061396598815918, 210, 134, 33, 169
1731649496407,9i,6.36091413136442,1.4s : 0.4s,14.909549947295332,1.9799363483967858,5.203563126575777,2.0512073240640945,-1.132317304611206,3.711829662322998,7.769416809082031,1.8637473583221436,-0.18835291266441345,0.8357155323028564,-0.42892338076281666,-0.811278454420796,-0.759594308383158,-0.6594780683517456,0.41589194536209106,-0.6261969804763794, 210, 134, 33, 169
1731649496417,9i,6.36091413136442,1.4s : 0.4s,14.909549947295332,2.0126041978087423,5.530691860510971,2.199628588031073,-1.0183727741241455,4.196653366088867,8.341082572937012,1.950674057006836,-0.14302760362625122,1.0063695907592773,-0.4932110496873246,-0.7470594717782694,-0.7048080286264881,-0.598501443862915,0.4734566807746887,-0.6462468504905701, 210, 134, 33, 169
1731649496427,9i,6.36091413136442,1.4s : 0.4s,14.909549947295332,2.0488551322994684,5.873351014226455,2.3769781832161234,-0.9443458914756775,4.548521041870117,8.800661087036133,2.074321985244751,-0.05166071653366089,1.1595450639724731,-0.5560934131130404,-0.6692643531559971,-0.6372013844288001,-0.5269283056259155,0.5278722643852234,-0.6661062240600586, 210, 134, 33, 169
1731649496437,9i,6.36091413136442,1.4s : 0.4s,14.909549947295332,2.0891177948659627,6.220199598150688,2.5498406482206066,-1.4905236959457397,4.902092456817627,9.156132698059082,2.226334810256958,0.061003148555755615,1.2415310144424438,-0.6180960501446515,-0.5782936979252526,-0.5586448529378324,-0.4454665184020996,0.5794845223426819,-0.6824641823768616, 210, 134, 33, 169
1731649496447,9i,6.36091413136442,1.4s : 0.4s,14.909549947295332,2.133638411438405,6.597858787853752,2.7355384815757673,-2.6641149520874023,5.182744026184082,9.581074714660645,2.4051408767700195,0.15596026182174683,1.2938873767852783,-0.6826208012568933,-0.47409977375556944,-0.4703782262762938,-0.35423773527145386,0.6308287382125854,-0.6903411149978638, 210, 134, 33, 169
1731649496457,9i,6.36091413136442,1.4s : 0.4s,14.909549947295332,2.1825853972975624,7.042726965350729,2.9739551197977923,-4.5276007652282715,5.223179340362549,10.10782527923584,2.637094259262085,0.1505594253540039,1.3665558099746704,-0.7550809108153858,-0.3559629725507184,-0.370639270800671,-0.253778338432312,0.6853476166725159,-0.6825652718544006, 210, 134, 33, 169
1731649496467,9i,6.36091413136442,1.4s : 0.4s,14.909549947295332,2.2366388612317643,7.563296534818991,3.348998310088038,-6.4659423828125,5.184177875518799,10.532153129577637,2.955644130706787,0.05145573616027832,1.5739471912384033,-0.8367793564499981,-0.21848014847654507,-0.2518418372643378,-0.1451890617609024,0.7424895763397217,-0.6539337635040283, 210, 134, 33, 169
1731649496477,9i,6.36091413136442,1.4s : 0.4s,14.909549947295332,2.2971427102022357,8.164713083698194,3.8456135349941536,-9.28534984588623,4.47774600982666,10.688495635986328,3.350937604904175,-0.03043597936630249,1.8865402936935425,-0.9287171377249924,-0.05470811975946184,-0.10372325296309,-0.03274627402424812,0.800852358341217,-0.5979660153388977, 210, 134, 33, 169
1731649496487,9i,6.36091413136442,1.4s : 0.4s,14.909549947295332,2.3653189225781195,9.060154275740345,4.313204497427901,-13.145313262939453,3.3727176189422607,11.098478317260742,3.7312824726104736,0.01682150363922119,2.163557529449463,-1.034690780902401,0.15577854808041147,0.10115333647475838,0.07924898713827133,0.8597044348716736,-0.5046067237854004, 210, 134, 33, 169
1731649496497,9i,6.36091413136442,1.4s : 0.4s,14.909549947295332,2.4427769807596844,10.296739159402641,4.768279631376312,-16.946687698364258,2.459873676300049,11.392630577087402,4.131834506988525,0.35339629650115967,2.353623867034912,-1.1439493526984148,0.4826222183802459,0.43579668222819545,0.19214016199111938,0.9102756381034851,-0.36671584844589233, 210, 134, 33, 169
1731649496507,9i,6.36091413136442,1.4s : 0.4s,14.909549947295332,2.5307010850925433,11.610994797453287,5.328745231504637,-20.364463806152344,0.6928054094314575,10.42654037475586,4.785515308380127,0.6276819109916687,2.2584030628204346,-1.2092106006913381,1.0029505926087692,0.9787528460875716,0.2982400357723236,0.9353370070457458,-0.19025728106498718, 210, 134, 33, 169
1731649496517,9i,6.36091413136442,1.4s : 0.4s,14.909549947295332,2.6309904819892385,12.720425488817746,6.110727279812905,-21.72871971130371,-2.3584961891174316,9.456942558288574,5.660051345825195,0.9393644332885742,2.1029505729675293,-1.169473095640763,1.5830636787567405,1.609092208657897,0.3906080424785614,0.9205449223518372,0.004791966639459133, 210, 134, 33, 169
1731649496527,9i,6.36091413136442,1.4s : 0.4s,14.909549947295332,2.7480940344283296,13.420403954526657,7.134475097754085,-20.806222915649414,-4.93923282623291,9.0643892288208,6.346138954162598,1.8631093502044678,2.6750848293304443,-1.037225814010351,1.9282501280234186,2.0362551789691996,0.4764620065689087,0.8609965443611145,0.1779579371213913, 210, 134, 33, 169
1731649496537,9i,6.36091413136442,1.4s : 0.4s,14.909549947295332,2.884889423182687,14.375606426586888,8.159083118960185,-22.898218154907227,-6.72625207901001,8.690425872802734,6.641116619110107,3.0284299850463867,3.6462061405181885,-0.8625961368135764,2.0897346932859833,2.3067913877340342,0.5648312568664551,0.7595338225364685,0.32260510325431824, 210, 134, 33, 169
1731649496547,9i,6.36091413136442,1.4s : 0.4s,14.909549947295332,3.040695736830412,15.561440181729141,8.952196917666786,-26.802021026611328,-6.656529903411865,5.18123197555542,6.654384613037109,3.954010248184204,4.4974212646484375,-0.6678421195935602,2.1859602613656683,2.5430604464069364,0.6412238478660583,0.6192931532859802,0.45311006903648376, 210, 134, 33, 169
1731649496557,9i,6.36091413136442,1.4s : 0.4s,14.909549947295332,3.211382321983989,16.445491593253887,9.321545874444073,-28.8840274810791,-5.360732555389404,-2.5269389152526855,6.23732328414917,4.091996669769287,5.589506149291992,-0.4842152445623378,2.263609741367198,2.7980348151898626,0.6809967160224915,0.4655139744281769,0.5652797222137451, 210, 134, 33, 169
1731649496567,9i,6.36091413136442,1.4s : 0.4s,14.909549947295332,3.3809213032373058,17.255430975041808,8.301849282466604,-28.936656951904297,-6.434593200683594,-7.455424785614014,4.443493843078613,1.7797905206680298,6.782949924468994,-0.33371480254960617,2.3167688576797105,3.073507346965044,0.693911612033844,0.3275551497936249,0.6412449479103088, 210, 134, 33, 169
1731649496577,9i,6.36091413136442,1.4s : 0.4s,14.909549947295332,3.543520464993934,16.033241101795333,9.765978055041728,-17.752243041992188,-10.336627960205078,-5.286892890930176,2.5693650245666504,-0.4127734303474426,9.412879943847656,-0.2181025436509474,2.293353004770773,-2.9763010107085144,0.7323471307754517,0.21637751162052155,0.6456383466720581, 210, 134, 33, 169
1731649496587,9i,6.36091413136442,1.4s : 0.4s,14.909549947295332,3.723505050470514,13.391672472816934,13.961806632195318,-7.777044773101807,-9.906827926635742,-3.468522310256958,2.365734100341797,2.1725311279296875,13.587327003479004,-0.17635810918047948,2.211148297227299,-2.85792145584864,0.789447546005249,0.1754453480243683,0.5882102847099304, 210, 134, 33, 169
1731649496597,9i,6.36091413136442,1.4s : 0.4s,14.909549947295332,3.924707311890935,11.652734424368216,14.499252604519013,-9.19644832611084,-6.112213611602783,-4.655446529388428,1.8637845516204834,6.4217143058776855,12.865310668945312,-0.15945063791045638,2.145103643335075,-2.7636521903923916,0.8289188742637634,0.15877583622932434,0.5363622307777405, 210, 134, 33, 169
1731649496607,9i,6.36091413136442,1.4s : 0.4s,14.909549947295332,4.107810608917119,10.89483525042135,9.577095298169324,-10.18938159942627,-6.675904273986816,-8.597917556762695,-0.951442301273346,5.841111183166504,7.529736518859863,-0.1646829383097939,2.1014744315469684,-2.6466047777764414,0.850795567035675,0.16393956542015076,0.49927088618278503, 210, 134, 33, 169
1731649496617,9i,6.36091413136442,1.4s : 0.4s,14.909549947295332,4.247460606396362,11.019624807884597,4.57517944487371,-12.004517555236816,-7.719785213470459,-10.491580963134766,-1.6906698942184448,-0.09524518251419067,4.250274181365967,-0.19603132091850572,2.0551247661878036,-2.496892617880153,0.8680382966995239,0.1947782039642334,0.4566965699195862, 210, 134, 33, 169
1731649496627,9i,6.36091413136442,1.4s : 0.4s,14.909549947295332,4.349615334759209,10.844099410201046,5.484117112661936,-9.595803260803223,-6.199349403381348,-12.091418266296387,-0.19908440113067627,-4.258403778076172,3.449913501739502,-0.24167584085531527,2.0155845522049796,-2.3482150493666585,0.8764680027961731,0.23933009803295135,0.41776254773139954, 210, 134, 33, 169
1731649496637,9i,6.36091413136442,1.4s : 0.4s,14.909549947295332,4.438867539040504,10.906281073498802,4.440427236799748,-6.990157127380371,-5.825182914733887,-15.906936645507812,-0.6930671334266663,0.30276405811309814,4.37554407119751,-0.32875133245501903,1.9882461106413685,-2.21324709595668,0.8651712536811829,0.3228614926338196,0.383718341588974, 210, 134, 33, 169
1731649496647,9i,6.36091413136442,1.4s : 0.4s,14.909549947295332,4.5160177640281844,11.09884299269616,4.517986845749749,-5.548570156097412,-5.489258766174316,-16.836519241333008,-1.6487681865692139,2.7827842235565186,3.1543431282043457,-0.45194206232338896,1.9784203396634714,-2.082013009563708,0.8258923292160034,0.43671342730522156,0.3566279709339142, 210, 134, 33, 169
1731649496657,9i,6.36091413136442,1.4s : 0.4s,14.909549947295332,4.584723363708832,11.115162230723438,3.081323357525602,-3.2807981967926025,-4.49997615814209,-16.925954818725586,-0.40033507347106934,1.857386827468872,2.4257781505584717,-0.58883654019986,1.9892636612378416,-1.9568928421114364,0.7598322629928589,0.5553938746452332,0.33792439103126526, 210, 134, 33, 169
1731649496667,9i,6.36091413136442,1.4s : 0.4s,14.909549947295332,4.6580364108926,10.922709714454319,3.863168380158642,-0.7313459515571594,-2.6936919689178467,-16.70269775390625,1.5978587865829468,2.349128007888794,2.6177308559417725,-0.7332312927262193,2.0224407706277554,-1.844069588540679,0.6685140132904053,0.6692740321159363,0.32428601384162903, 210, 134, 33, 169
1731649496677,9i,6.36091413136442,1.4s : 0.4s,14.909549947295332,4.739910201164425,10.619409752432084,4.543674544678324,1.7286882400512695,-1.5724540948867798,-15.977313995361328,2.444223165512085,2.1765341758728027,3.151737689971924,-0.8808988898762327,2.0748016553024007,-1.742890430380224,0.5573180913925171,0.7713112831115723,0.30736908316612244, 210, 134, 33, 169
1731649496687,9i,6.36091413136442,1.4s : 0.4s,14.909549947295332,4.826828324394638,10.438402489016903,4.6387716609685326,3.599264621734619,-0.8852847218513489,-15.742768287658691,2.4792864322662354,0.49621647596359253,3.889101505279541,-1.03026741467702,2.143588628147461,-1.6433510004792455,0.4324568808078766,0.8574366569519043,0.2788979709148407, 210, 134, 33, 169
1731649496697,9i,6.36091413136442,1.4s : 0.4s,14.909549947295332,4.912284530144968,10.54654637400102,4.813013004472669,4.810253620147705,-1.0737897157669067,-16.213563919067383,1.9987752437591553,-1.2423675060272217,4.198394298553467,-1.1847464979433717,2.2553223774110065,-1.5078476399269822,0.2917064428329468,0.9264036417007446,0.23808342218399048, 210, 134, 33, 169
1731649496707,9i,6.36091413136442,1.4s : 0.4s,14.909549947295332,4.987527177541856,10.409611832305309,4.436461676588982,6.556155204772949,-0.9504830837249756,-14.453405380249023,1.0503010749816895,-2.350740432739258,3.6129045486450195,-1.3351044395199139,2.465233188401027,-1.278002153951248,0.14617116749286652,0.9723529815673828,0.18210895359516144, 210, 134, 33, 169
1731649496717,9i,6.36091413136442,1.4s : 0.4s,14.909549947295332,5.047665073257446,10.208071708821995,4.362904939154691,8.718541145324707,-0.7412793636322021,-12.888290405273438,0.39753228425979614,-3.2613024711608887,2.8706817626953125,-1.4628740164869152,3.0783224501526143,-0.6531344008053596,0.006810524966567755,0.9941820502281189,0.10749822854995728, 210, 134, 33, 169
1731649496727,9i,6.36091413136442,1.4s : 0.4s,14.909549947295332,5.091696116872839,10.28121465940792,4.015887119435626,11.158231735229492,-0.7810419797897339,-12.407373428344727,0.5835697650909424,-3.630425453186035,1.614560842514038,-1.4455405370773806,-1.643429614918338,0.9175043650068079,-0.12460052967071533,0.992165744304657,0.009066094644367695, 210, 134, 33, 169
1731649496737,9i,6.36091413136442,1.4s : 0.4s,14.909549947295332,5.122858613351963,10.582141710895002,3.142189755065915,12.927738189697266,-1.1521029472351074,-12.056818008422852,0.9008009433746338,-2.952176332473755,0.5887011289596558,-1.2988098573844762,-1.1545822503906957,1.422834157020206,-0.24571047723293304,0.9632391333580017,-0.10861367732286453, 210, 134, 33, 169
1731649496747,9i,6.36091413136442,1.4s : 0.4s,14.909549947295332,5.145180010751231,10.876652709968765,2.301622882854856,13.587005615234375,-2.1998894214630127,-11.345500946044922,0.9123587608337402,-2.1052870750427246,0.18120628595352173,-1.132206267212252,-1.002836881662318,1.6022251097994111,-0.35799160599708557,0.9053513407707214,-0.2284320890903473, 210, 134, 33, 169
1731649496757,9i,6.36091413136442,1.4s : 0.4s,14.909549947295332,5.161029356924898,11.069301161702462,1.6729121790628176,13.593368530273438,-3.2781693935394287,-10.636444091796875,0.6671528220176697,-1.5327156782150269,0.06576412916183472,-0.964792836011778,-0.942484821256925,1.703721383263875,-0.460808128118515,0.8219309449195862,-0.33479174971580505, 210, 134, 33, 169
1731649496767,9i,6.36091413136442,1.4s : 0.4s,14.909549947295332,5.173225677307975,11.159193077803845,0.945775199235604,13.04619026184082,-3.8520572185516357,-10.434800148010254,0.4315258264541626,-0.8284615874290466,0.14807966351509094,-0.8008856134025406,-0.9241702791503598,1.7741469849221092,-0.5555492043495178,0.7179728150367737,-0.4193808436393738, 210, 134, 33, 169
1731649496777,9i,6.36091413136442,1.4s : 0.4s,14.909549947295332,5.184721257943133,11.139644587500369,0.4899716359634697,12.640436172485352,-4.351685523986816,-9.964982032775879,0.37953412532806396,-0.11141884326934814,0.2891572117805481,-0.6423830502535696,-0.9292338142634762,1.8286912922716885,-0.641466498374939,0.599105179309845,-0.4791596233844757, 210, 134, 33, 169
1731649496787,9i,6.36091413136442,1.4s : 0.4s,14.909549947295332,5.19776094470693,11.046925206230021,0.8039286779637489,12.525677680969238,-4.7599263191223145,-9.23767375946045,0.5922325253486633,0.4433375895023346,0.31466448307037354,-0.49068325829961346,-0.9463895236578462,1.882218448113435,-0.7155845761299133,0.47122862935066223,-0.515637993812561, 210, 134, 33, 169
1731649496797,9i,6.36091413136442,1.4s : 0.4s,14.909549947295332,5.214717749413195,10.872447590574314,1.3500025688956028,12.082013130187988,-4.8140177726745605,-8.761112213134766,1.063631296157837,0.7343857884407043,0.3897087574005127,-0.349239166960127,-0.9738551947532101,1.9384641739683124,-0.7771322131156921,0.342182993888855,-0.5281822681427002, 210, 134, 33, 169
1731649496807,9i,6.36091413136442,1.4s : 0.4s,14.909549947295332,5.237089383775201,10.648268436286461,1.7133891292178682,11.698290824890137,-5.019867420196533,-8.234789848327637,1.3291685581207275,0.8477160930633545,0.671111524105072,-0.2182677833777621,-1.0099458351006676,1.9973569093870327,-0.8267118334770203,0.21653883159160614,-0.5192866325378418, 210, 134, 33, 169
1731649496817,9i,6.36091413136442,1.4s : 0.4s,14.909549947295332,5.263797050392692,10.317918634329134,1.8235114034051523,10.99804973602295,-5.445256233215332,-7.387150287628174,1.2948904037475586,1.057094693183899,0.7286998629570007,-0.0963442091288277,-1.0549857791218251,2.057184168336072,-0.8658591508865356,0.09619522839784622,-0.490952730178833, 210, 134, 33, 169
1731649496827,9i,6.36091413136442,1.4s : 0.4s,14.909549947295332,5.293444373899406,9.871840579026648,1.8703063464144132,9.950600624084473,-5.429378509521484,-6.829742431640625,1.255906105041504,1.2088872194290161,0.6777443289756775,0.015314740103019722,-1.1071401868033102,2.1165617548891347,-0.8943185210227966,-0.015314141288399696,-0.4471687972545624, 210, 134, 33, 169
1731649496837,9i,6.36091413136442,1.4s : 0.4s,14.909549947295332,5.325247903093421,9.309299283322538,1.9566062323931794,8.753738403320312,-5.415280818939209,-6.156481742858887,1.210129737854004,1.3883308172225952,0.6606296300888062,0.11339662690187233,-1.1648862725492113,2.174774173491778,-0.912842869758606,-0.11315375566482544,-0.39231911301612854, 210, 134, 33, 169
1731649496847,9i,6.36091413136442,1.4s : 0.4s,14.909549947295332,5.359502862665586,8.66979078724069,2.132407530913435,7.517551422119141,-5.321402549743652,-5.602400302886963,1.3103424310684204,1.5282790660858154,0.703226625919342,0.197794348701766,-1.2271230955546812,2.230265139953168,-0.923166036605835,-0.19650717079639435,-0.3303781747817993, 210, 134, 33, 169
1731649496857,9i,6.36091413136442,1.4s : 0.4s,14.909549947295332,5.396402422838681,7.920509579498148,2.1915485932348613,5.925858497619629,-5.070215702056885,-5.091774940490723,1.4796171188354492,1.410773515701294,0.7895166277885437,0.2692549515932327,-1.2904985705212035,2.2796687012387755,-0.9263488054275513,-0.2660132944583893,-0.266674280166626, 210, 134, 33, 169
1731649496867,9i,6.36091413136442,1.4s : 0.4s,14.909549947295332,5.435004855143681,7.132671509794624,2.072162671292813,4.558537483215332,-4.634493827819824,-4.713994979858398,1.4921424388885498,1.1602593660354614,0.8492156863212585,0.3294882486786494,-1.3508684758034295,2.3203036030296875,-0.9234169125556946,-0.32355883717536926,-0.20642401278018951, 210, 134, 33, 169
1731649496877,9i,6.36091413136442,1.4s : 0.4s,14.909549947295332,5.475246737093235,6.3464896451561685,2.0634037970464814,3.3451545238494873,-4.1318182945251465,-4.39572286605835,1.4331647157669067,1.0688598155975342,1.0301518440246582,0.3816296663239732,-1.4058629626834536,2.352686271287785,-0.9154645800590515,-0.3724333941936493,-0.15237484872341156, 210, 134, 33, 169
1731649496887,9i,6.36091413136442,1.4s : 0.4s,14.909549947295332,5.5166346739400565,5.6015496363085795,2.0225116132835357,2.3179824352264404,-3.5829784870147705,-4.180240631103516,1.3599095344543457,0.9741882085800171,1.136730670928955,0.4277742989883432,-1.4539499545173364,2.377183355457464,-0.903687059879303,-0.4148466885089874,-0.10607574880123138, 210, 134, 33, 169
1731649496896,9i,6.36091413136442,1.4s : 0.4s,14.909549947295332,5.557975217431833,4.931197986203542,1.8618219208390054,1.9054049253463745,-2.8372602462768555,-3.872642993927002,1.2397494316101074,0.7816927433013916,1.1481980085372925,0.4698230280740861,-1.4936375518503597,2.3955040059160284,-0.8889957666397095,-0.4527285099029541,-0.06873027235269547, 210, 134, 33, 169
1731649496906,9i,6.36091413136442,1.4s : 0.4s,14.909549947295332,5.597981105309518,4.352816435022777,1.6508308975278647,1.8486641645431519,-2.111237049102783,-3.596109390258789,1.0628087520599365,0.4758397936820984,1.1701524257659912,0.508085771218362,-1.5273277367016664,2.4148171504582603,-0.8728523254394531,-0.4865057170391083,-0.037965573370456696, 210, 134, 33, 169
1731649496916,9i,6.36091413136442,1.4s : 0.4s,14.909549947295332,5.635363899158497,3.816958711062262,1.45959966254887,1.3604525327682495,-1.5013500452041626,-3.4022154808044434,1.049943208694458,0.05705636739730835,1.0123215913772583,0.5434874542430648,-1.554046443986835,2.432488696813409,-0.8557904362678528,-0.5171240568161011,-0.014335730113089085, 210, 134, 33, 169
1731649496926,9i,6.36091413136442,1.4s : 0.4s,14.909549947295332,5.670308282740943,3.3028903713632207,1.4925116512008667,0.7862308025360107,-0.868309497833252,-3.1517300605773926,1.2365169525146484,-0.16637277603149414,0.8191074132919312,0.5764523371086339,-1.5727977935394704,2.4454585949283896,-0.83840012550354,-0.5450530052185059,0.0016780321020632982, 210, 134, 33, 169
1731649496936,9i,6.36091413136442,1.4s : 0.4s,14.909549947295332,5.703238489893129,2.797937752573458,1.420738559565407,0.25663480162620544,-0.372785359621048,-2.670335054397583,1.2081165313720703,-0.08867448568344116,0.7423539161682129,0.6053384360708893,-1.5825999393410595,2.452545026313661,-0.822252631187439,-0.5690404176712036,0.009706001728773117, 210, 134, 33, 169
1731649496946,9i,6.36091413136442,1.4s : 0.4s,14.909549947295332,5.733554140602613,2.326366167770214,1.1802015218157356,-0.22277039289474487,-0.04317576065659523,-2.187610626220703,0.903667688369751,-0.07636559009552002,0.7552672624588013,0.6295300706051785,-1.584894551142555,2.4535140704504963,-0.808224081993103,-0.5887649655342102,0.011395279318094254, 210, 134, 33, 169
1731649496956,9i,6.36091413136442,1.4s : 0.4s,14.909549947295332,5.761500523977961,1.8807331988025189,1.110643539520142,-0.6489427089691162,0.2558025121688843,-1.622465968132019,0.8094837665557861,-0.13209325075149536,0.7488768100738525,0.6486712025962809,-1.580535232141403,2.448346228209133,-0.7968496084213257,-0.6041280627250671,0.007760688196867704, 210, 134, 33, 169
1731649496966,9i,6.36091413136442,1.4s : 0.4s,14.909549947295332,5.787429083605919,1.4875997701216281,1.124349181672736,-0.9615197777748108,0.5145393013954163,-1.1078662872314453,0.9019855856895447,-0.22980165481567383,0.6306934952735901,0.6622714608213086,-1.570774438686568,2.4387329466963164,-0.7885977625846863,-0.6149097084999084,-1.7260914319194853e-05, 210, 134, 33, 169
1731649496976,9i,6.36091413136442,1.4s : 0.4s,14.909549947295332,5.811430442108098,1.155990034800726,1.096504766290894,-0.8558018207550049,0.6926576495170593,-0.6092005372047424,0.9391404390335083,-0.26305413246154785,0.5011391639709473,0.6705754498974049,-1.557403015897035,2.427234729705711,-0.7833942174911499,-0.6214369535446167,-0.010492869652807713, 210, 134, 33, 169
1731649496986,9i,6.36091413136442,1.4s : 0.4s,14.909549947295332,5.833790794961783,0.9064908873585207,1.0262875269390275,-0.813130259513855,0.7975159287452698,-0.27713945508003235,0.8913995623588562,-0.2177598476409912,0.4596232771873474,0.6747971526730858,-1.5435739328425757,2.417194192090732,-0.780544638633728,-0.6247389316558838,-0.021253542974591255, 210, 134, 33, 169
1731649496996,9i,6.36091413136442,1.4s : 0.4s,14.909549947295332,5.854655333215695,0.7182606084965654,0.9781197617770284,-0.7243548631668091,0.8866785764694214,0.10777078568935394,0.8251662254333496,-0.2529186010360718,0.4602729082107544,0.6752434979897755,-1.5286868841660661,2.4071915607766385,-0.7798629999160767,-0.6250873804092407,-0.03285901993513107, 210, 134, 33, 169
1731649497006,9i,6.36091413136442,1.4s : 0.4s,14.909549947295332,5.873797929746854,0.6226488040463138,0.9023784683201453,-0.6670239567756653,0.8913665413856506,0.2963590919971466,0.7806165218353271,-0.27086228132247925,0.36270976066589355,0.6726860692443287,-1.5147270866739295,2.399151890234727,-0.7809218764305115,-0.6230891346931458,-0.043831635266542435, 210, 134, 33, 169
1731649497016,9i,6.36091413136442,1.4s : 0.4s,14.909549947295332,5.89107288162638,0.6024038819266027,0.7946810823514178,-0.6831251382827759,0.890131413936615,0.5351623892784119,0.6966959834098816,-0.25022435188293457,0.28899914026260376,0.6680228722820536,-1.5007307496328495,2.391152100598223,-0.7831218242645264,-0.6194350719451904,-0.054959848523139954, 210, 134, 33, 169
1731649497026,9i,6.36091413136442,1.4s : 0.4s,14.909549947295332,5.9066269122379635,0.6262949178907702,0.699744742657523,-0.5980203151702881,0.8803951740264893,0.7292490601539612,0.6210118532180786,-0.20485198497772217,0.24904346466064453,0.6610549130624476,-1.4873771372285929,2.383992110962845,-0.7866002917289734,-0.6139498949050903,-0.06577018648386002, 210, 134, 33, 169
1731649497036,9i,6.36091413136442,1.4s : 0.4s,14.909549947295332,5.920388174494566,0.6719750536433868,0.5763104134973037,-0.5163456797599792,0.8706680536270142,0.8476636409759521,0.5460652112960815,-0.1059224009513855,0.15075451135635376,0.6525857920906039,-1.4750498223694775,2.378241949916136,-0.7908773422241211,-0.6072428822517395,-0.07595599442720413, 210, 134, 33, 169
1731649497046,9i,6.36091413136442,1.4s : 0.4s,14.909549947295332,5.9321112727261465,0.7106986238595642,0.4862992143281783,-0.37940916419029236,0.8353713154792786,0.9194976091384888,0.4539374113082886,-0.1509738564491272,0.08737646788358688,0.643161257966264,-1.4639747694270149,2.3741240120140827,-0.7956429719924927,-0.5997281074523926,-0.08531658351421356, 210, 134, 33, 169
1731649497056,9i,6.36091413136442,1.4s : 0.4s,14.909549947295332,5.941970765494011,0.7356190368036385,0.4200599084526483,-0.23985397815704346,0.8033108711242676,0.9346687197685242,0.36386269330978394,-0.18815070390701294,0.09302461892366409,0.633444235227917,-1.4545506158475376,2.371926581575091,-0.8005539774894714,-0.5919243097305298,-0.09348242729902267, 210, 134, 33, 169
1731649497066,9i,6.36091413136442,1.4s : 0.4s,14.909549947295332,5.95022832676728,0.7531915455440888,0.36117099247125084,-0.11902610212564468,0.7755085825920105,0.9626915454864502,0.2802906632423401,-0.19891250133514404,0.110974982380867,0.6236860072529125,-1.4464885765453084,2.371630121021821,-0.8054676651954651,-0.5840311646461487,-0.10064481198787689, 210, 134, 33, 169
1731649497076,9i,6.36091413136442,1.4s : 0.4s,14.909549947295332,5.956963542670308,0.7815517329555933,0.3104778105950999,-0.0853964313864708,0.7944333553314209,1.0244908332824707,0.18822085857391357,-0.21688735485076904,0.11802226305007935,0.6135905226624803,-1.439088160178102,2.372342046539607,-0.8105048537254333,-0.575806736946106,-0.10737168788909912, 210, 134, 33, 169
1731649497086,9i,6.36091413136442,1.4s : 0.4s,14.909549947295332,5.962396510674994,0.8157320356977723,0.2616443007880093,-0.01347137801349163,0.8099444508552551,1.0965884923934937,0.1124955415725708,-0.1974269151687622,0.12971162796020508,0.6028688100459377,-1.431977509829901,2.3738958806301174,-0.8157884478569031,-0.5670078992843628,-0.11397989094257355, 210, 134, 33, 169
1731649497096,9i,6.36091413136442,1.4s : 0.4s,14.909549947295332,5.966952881314722,0.848408922386745,0.22106290787613778,0.03630496934056282,0.8256351947784424,1.1261638402938843,0.08572626113891602,-0.14721012115478516,0.14088647067546844,0.5917044365680143,-1.4252468668247622,2.376323912892936,-0.8212153315544128,-0.5577765107154846,-0.12037871778011322, 210, 134, 33, 169
1731649497106,9i,6.36091413136442,1.4s : 0.4s,14.909549947295332,5.971044004317751,0.8767401789371547,0.19973633800518165,0.11922647804021835,0.8435295224189758,1.1382631063461304,0.09385168552398682,-0.09966820478439331,0.1454397290945053,0.5804716416658654,-1.4188008757012174,2.379730887041559,-0.8265637159347534,-0.548418402671814,-0.12661044299602509, 210, 134, 33, 169
1731649497116,9i,6.36091413136442,1.4s : 0.4s,14.909549947295332,5.974864296224702,0.8945880640114479,0.17879209091542775,0.18524745106697083,0.8556861877441406,1.1038695573806763,0.08590841293334961,-0.056189000606536865,0.1463869959115982,0.5694793038832123,-1.4126068243563121,2.3839382771955493,-0.8316664695739746,-0.5391936302185059,-0.1326693892478943, 210, 134, 33, 169
1731649497126,9i,6.36091413136442,1.4s : 0.4s,14.909549947295332,5.978176262542017,0.9078616298198933,0.15453757358934292,0.20194067060947418,0.8920186161994934,1.0693947076797485,0.054494261741638184,-0.08246016502380371,0.11879628896713257,0.5589751024743973,-1.4065196806028926,2.3886665985536157,-0.8363852500915527,-0.5303175449371338,-0.13864803314208984, 210, 134, 33, 169
1731649497136,9i,6.36091413136442,1.4s : 0.4s,14.909549947295332,5.980697731797969,0.9272872159379209,0.1725200558549149,0.22274881601333618,0.9528532028198242,1.0769373178482056,0.00688779354095459,-0.14352905750274658,0.09547322988510132,0.5486375381001531,-1.399931611256754,2.393515561700764,-0.8408112525939941,-0.5215252041816711,-0.1450795829296112, 210, 134, 33, 169
1731649497146,9i,6.36091413136442,1.4s : 0.4s,14.909549947295332,5.982941298006337,0.9454296131988317,0.19055138513309386,0.29425549507141113,0.9912442564964294,1.0591135025024414,-0.039212822914123535,-0.16514629125595093,0.08659611642360687,0.5384273094730005,-1.3931389739526847,2.399025203059276,-0.8450036644935608,-0.5127864480018616,-0.15172070264816284, 210, 134, 33, 169
1731649497156,9i,6.36091413136442,1.4s : 0.4s,14.909549947295332,5.984619711759239,0.956706238717665,0.15641280988897868,0.28272533416748047,1.0425043106079102,0.9997989535331726,-0.03199058771133423,-0.1267680525779724,0.08585703372955322,0.5287358990615896,-1.3860158635174624,2.4048525119909847,-0.8487468361854553,-0.5044422745704651,-0.1586415022611618, 210, 134, 33, 169
1731649497166,9i,6.36091413136442,1.4s : 0.4s,14.909549947295332,5.986160459802606,0.9638913316861258,0.12047750514540675,0.2571161091327667,1.0568909645080566,0.981977641582489,0.010542631149291992,-0.07105258107185364,0.09672234952449799,0.5194192103120683,-1.3783403244921122,2.4104196257621178,-0.8520802855491638,-0.49637603759765625,-0.16604308784008026, 210, 134, 33, 169
1731649497176,9i,6.36091413136442,1.4s : 0.4s,14.909549947295332,5.987793202499736,0.9635842198416911,0.13502468072415608,0.11512035131454468,1.0695347785949707,0.9558631181716919,0.03596174716949463,-0.03967610001564026,0.12395250797271729,0.510150434667826,-1.3700437205227198,2.414957881512392,-0.8551451563835144,-0.48830851912498474,-0.17401663959026337, 210, 134, 33, 169
1731649497186,9i,6.36091413136442,1.4s : 0.4s,14.909549947295332,5.9895091254715185,0.9532706748854213,0.1439994747595192,0.0067928144708275795,1.0324866771697998,0.9396076798439026,0.05858457088470459,-0.04938504099845886,0.1219213455915451,0.5008847730653004,-1.3611194767852535,2.418141394967673,-0.8579469323158264,-0.4802018105983734,-0.18257509171962738, 210, 134, 33, 169
1731649497196,9i,6.36091413136442,1.4s : 0.4s,14.909549947295332,5.991291937936708,0.9473558835821307,0.1676614465702119,-0.1504058539867401,1.0023828744888306,0.9569379091262817,0.06004363298416138,-0.08627873659133911,0.130618155002594,0.4913787588075152,-1.3518876297402502,2.419843169834842,-0.8606418967247009,-0.471841961145401,-0.19147029519081116, 210, 134, 33, 169
1731649497206,9i,6.36091413136442,1.4s : 0.4s,14.909549947295332,5.99312966003249,0.9457706020987167,0.20748203621384248,-0.23952214419841766,0.9889637231826782,0.9973912835121155,0.04865455627441406,-0.1460402011871338,0.13911789655685425,0.48130695448599947,-1.3423005667682357,2.4204016879834307,-0.8633519411087036,-0.4629380404949188,-0.20077870786190033, 210, 134, 33, 169
1731649497216,9i,6.36091413136442,1.4s : 0.4s,14.909549947295332,5.994950894518096,0.9458623090126735,0.1891465261952713,-0.339484840631485,0.9735745787620544,1.0201637744903564,0.05439192056655884,-0.14185762405395508,0.11266916990280151,0.47069946511167937,-1.332436898283353,2.420077459957013,-0.8660528063774109,-0.4535098075866699,-0.2104322761297226, 210, 134, 33, 169
1731649497226,9i,6.36091413136442,1.4s : 0.4s,14.909549947295332,5.996785611151991,0.9532951036811321,0.16658762165743926,-0.5105695128440857,0.9437136054039001,1.042974591255188,0.09057796001434326,-0.11138132214546204,0.08450603485107422,0.4595731284278404,-1.3222432226333671,2.4185248933213286,-0.8687000274658203,-0.44356557726860046,-0.2204771637916565, 210, 134, 33, 169
1731649497236,9i,6.36091413136442,1.4s : 0.4s,14.909549947295332,5.998747859130098,0.9694643732190066,0.19335157192077942,-0.648209273815155,0.8965250253677368,1.0854709148406982,0.13657277822494507,-0.10276076197624207,0.09040427207946777,0.4477062681354915,-1.311791005948684,2.4154062341227793,-0.8713751435279846,-0.43289899826049805,-0.23087672889232635, 210, 134, 33, 169
1731649497246,9i,6.36091413136442,1.4s : 0.4s,14.909549947295332,6.001235480733865,0.9896941109317385,0.24120119055958525,-0.7405344247817993,0.8384917974472046,1.1235692501068115,0.17038464546203613,-0.11617147922515869,0.12510505318641663,0.4351015724448957,-1.3015280873200985,2.411378910364153,-0.8741506934165955,-0.4215025007724762,-0.24123980104923248, 210, 134, 33, 169
1731649497256,9i,6.36091413136442,1.4s : 0.4s,14.909549947295332,6.004196861410086,1.0118796293178665,0.2731710436938281,-0.789205014705658,0.7963643074035645,1.1590255498886108,0.18563741445541382,-0.14031097292900085,0.14308738708496094,0.4219324446320136,-1.2916402324007903,2.406761645629592,-0.8769826889038086,-0.40952417254447937,-0.2513790726661682, 210, 134, 33, 169
1731649497266,9i,6.36091413136442,1.4s : 0.4s,14.909549947295332,6.007569373356875,1.0358905336425601,0.2879053649659557,-0.786501407623291,0.7651544213294983,1.2219847440719604,0.19323068857192993,-0.14660465717315674,0.15510794520378113,0.4081847123106165,-1.2822251173948136,2.402274486118135,-0.8798914551734924,-0.3969438374042511,-0.26120230555534363, 210, 134, 33, 169
1731649497276,9i,6.36091413136442,1.4s : 0.4s,14.909549947295332,6.0113005229004814,1.0556952678881668,0.2862639333535277,-0.7366096377372742,0.7383043169975281,1.2784432172775269,0.20583927631378174,-0.12914761900901794,0.15132126212120056,0.3938824892417451,-1.273445000273631,2.3985116755774185,-0.8829023241996765,-0.3837764859199524,-0.27055349946022034, 210, 134, 33, 169
1731649497286,9i,6.36091413136442,1.4s : 0.4s,14.909549947295332,6.015460318387162,1.081638586841445,0.30089629558208786,-0.7813560962677002,0.7328919768333435,1.3304024934768677,0.23877555131912231,-0.10622963309288025,0.14913108944892883,0.3790716816028588,-1.2651323667444792,2.3952040261556653,-0.8859467506408691,-0.37005820870399475,-0.2795632779598236, 210, 134, 33, 169
1731649497296,9i,6.36091413136442,1.4s : 0.4s,14.909549947295332,6.020294203596041,1.118660050402149,0.3464862915078666,-0.8748722076416016,0.752381443977356,1.3824841976165771,0.2865336537361145,-0.08484286069869995,0.17536506056785583,0.3634764832287833,-1.256635224642469,2.3913433004741727,-0.8889201879501343,-0.3555257320404053,-0.2888294756412506, 210, 134, 33, 169
1731649497306,9i,6.36091413136442,1.4s : 0.4s,14.909549947295332,6.02613580654041,1.1631363394157537,0.4094958815559935,-0.9505118727684021,0.7813335061073303,1.436664342880249,0.3310420513153076,-0.05314338207244873,0.23510384559631348,0.3469485664651758,-1.248065045215323,2.387149248069955,-0.8918636441230774,-0.340029776096344,-0.29826006293296814, 210, 134, 33, 169
1731649497316,9i,6.36091413136442,1.4s : 0.4s,14.909549947295332,6.033181575171773,1.2324687318721295,0.4840855768860963,-1.1070584058761597,0.8363981246948242,1.552621841430664,0.36369359493255615,-0.06152275204658508,0.3134976327419281,0.3288317881175327,-1.2397097611308903,2.3825286802703944,-0.8950198888778687,-0.32293763756752014,-0.3076535761356354, 210, 134, 33, 169
1731649497326,9i,6.36091413136442,1.4s : 0.4s,14.909549947295332,6.041313602791515,1.311955717278962,0.5317938625690284,-1.2346272468566895,0.8992162346839905,1.6323764324188232,0.39059388637542725,-0.08715465664863586,0.3502073585987091,0.30964599440195256,-1.2297392491141348,2.3767003361504977,-0.8975824117660522,-0.304721474647522,-0.3185759484767914, 210, 134, 33, 169
1731649497336,9i,6.36091413136442,1.4s : 0.4s,14.909549947295332,6.050562609235057,1.394145235769477,0.5729581145563266,-1.3557904958724976,0.9354124069213867,1.700530767440796,0.4273146986961365,-0.0535295307636261,0.37791234254837036,0.28954968888076704,-1.2188266025872054,2.3701163908099137,-0.8996200561523438,-0.2855207026004791,-0.33039653301239014, 210, 134, 33, 169
1731649497346,9i,6.36091413136442,1.4s : 0.4s,14.909549947295332,6.060948139938609,1.483205507069702,0.6212842426902963,-1.4952671527862549,0.9967883825302124,1.7725948095321655,0.46180498600006104,-0.03580734133720398,0.4140629172325134,0.2682717508362921,-1.2072569375591053,2.362583654765971,-0.9012123942375183,-0.26506540179252625,-0.3428654372692108, 210, 134, 33, 169
1731649497356,9i,6.36091413136442,1.4s : 0.4s,14.909549947295332,6.072297293869281,1.5693646468718447,0.6461367526833374,-1.526273488998413,1.0711508989334106,1.867452621459961,0.4856194853782654,-0.03061997890472412,0.42512214183807373,0.24583548248317375,-1.195078272828515,2.355034411524483,-0.9022760391235352,-0.2433667778968811,-0.3559083044528961, 210, 134, 33, 169
1731649497366,9i,6.36091413136442,1.4s : 0.4s,14.909549947295332,6.08449327200267,1.6550238276236726,0.6667618600537863,-1.6169573068618774,1.1551063060760498,1.9228668212890625,0.49237215518951416,-0.015079274773597717,0.4493480324745178,0.2223907641728939,-1.182198878967444,2.3472469521375467,-0.9026505351066589,-0.220562145113945,-0.3695598840713501, 210, 134, 33, 169
1731649497376,9i,6.36091413136442,1.4s : 0.4s,14.909549947295332,6.097231529079889,1.7333256483896826,0.6575757761478036,-1.697416067123413,1.1883718967437744,1.9659228324890137,0.49657559394836426,-0.006930306553840637,0.4310110807418823,0.19811360930409677,-1.1689872850438967,2.339550350188787,-0.902352511882782,-0.1968201845884323,-0.3834342062473297, 210, 134, 33, 169
1731649497386,9i,6.36091413136442,1.4s : 0.4s,14.909549947295332,6.109999053133754,1.8173326846849347,0.6178557179484051,-1.8492075204849243,1.2241601943969727,2.0241124629974365,0.4978840947151184,-0.0038295239210128784,0.36584484577178955,0.17290343986725604,-1.1554316299374652,2.3310674273707983,-0.9013265371322632,-0.17204321920871735,-0.3975068926811218, 210, 134, 33, 169
1731649497396,9i,6.36091413136442,1.4s : 0.4s,14.909549947295332,6.122409631115141,1.9114593639038922,0.5672113596420593,-2.005831718444824,1.2248557806015015,2.139904737472534,0.4708828926086426,-0.04071992635726929,0.31359195709228516,0.14606283170579185,-1.141874700981634,2.322060128121769,-0.8997312188148499,-0.14554402232170105,-0.4114619195461273, 210, 134, 33, 169
1731649497406,9i,6.36091413136442,1.4s : 0.4s,14.909549947295332,6.134439421416292,2.028275521875279,0.5368784513549097,-2.3048946857452393,1.3069008588790894,2.189157009124756,0.43496137857437134,-0.027099572122097015,0.3135485351085663,0.11738052378344195,-1.1279850472490116,2.311660888303173,-0.8973332047462463,-0.11711116135120392,-0.42553284764289856, 210, 134, 33, 169
1731649497416,9i,6.36091413136442,1.4s : 0.4s,14.909549947295332,6.146479139411179,2.140980222127157,0.5512759472925507,-2.526561737060547,1.4123449325561523,2.1339151859283447,0.434059739112854,0.11130212247371674,0.3211061358451843,0.087166150068944,-1.1130021070849618,2.2991800659524912,-0.893623948097229,-0.08705580979585648,-0.4402925670146942, 210, 134, 33, 169
1731649497426,9i,6.36091413136442,1.4s : 0.4s,14.909549947295332,6.159300521920264,2.241550556918287,0.6711947571755811,-2.7440083026885986,1.4009630680084229,2.0653672218322754,0.44706910848617554,0.30584463477134705,0.39634665846824646,0.0568211570403928,-1.0979225368863428,2.2850549220138374,-0.888826310634613,-0.056790586560964584,-0.45471155643463135, 210, 134, 33, 169
1731649497436,9i,6.36091413136442,1.4s : 0.4s,14.909549947295332,6.172818875851458,2.2893426704139896,0.7088777186209172,-2.514787435531616,1.3365579843521118,2.166887044906616,0.447653591632843,0.37545841932296753,0.4014285206794739,0.02583656911261576,-1.0837284357524428,2.271273677052168,-0.883414089679718,-0.025833694264292717,-0.46788060665130615, 210, 134, 33, 169
1731649497446,9i,6.36091413136442,1.4s : 0.4s,14.909549947295332,6.1858809014975495,2.315427808537569,0.5625824785625491,-2.435413122177124,1.3424854278564453,2.192182779312134,0.38102859258651733,0.2893199026584625,0.2959902882575989,-0.00493071017892976,-1.0702090380249112,2.2602807989919014,-0.8772901892662048,0.00493069039657712,-0.47993502020835876, 210, 134, 33, 169
1731649497456,9i,6.36091413136442,1.4s : 0.4s,14.909549947295332,6.197354260467413,2.3929818149810758,0.3831435361109924,-3.0554397106170654,1.2212859392166138,2.0285539627075195,0.3294423818588257,0.1452958732843399,0.13098013401031494,-0.03656663796157685,-1.0577825276469335,2.2467536136494575,-0.870686948299408,0.03655849024653435,-0.4904772639274597, 210, 134, 33, 169
1731649497465,9i,6.36091413136442,1.4s : 0.4s,14.909549947295332,6.207356960737142,2.520648160586818,0.3411848638647587,-3.5393292903900146,1.2305647134780884,1.992545247077942,0.28462809324264526,0.16631215810775757,0.08794444799423218,-0.07028755625650701,-1.0466068213206878,2.22773355843389,-0.8635923266410828,0.07022969424724579,-0.49927568435668945, 210, 134, 33, 169
1731649497475,9i,6.36091413136442,1.4s : 0.4s,14.909549947295332,6.217003211466265,2.6080178751759098,0.43930749577977257,-3.4798436164855957,1.1579197645187378,2.0605320930480957,0.23877274990081787,0.33801111578941345,0.14740127325057983,-0.10560560990763099,-1.0364509113776152,2.2075229858752192,-0.8558077812194824,0.1054094210267067,-0.5064406394958496, 210, 134, 33, 169
1731649497485,9i,6.36091413136442,1.4s : 0.4s,14.909549947295332,6.226516594254662,2.6741570060323574,0.4907404690622255,-3.5243120193481445,1.1988219022750854,1.9978610277175903,0.23823410272598267,0.3711642622947693,0.2151924967765808,-0.14095992250751938,-1.027169323294569,2.187891333090218,-0.8473497629165649,0.14049358665943146,-0.5121132731437683, 210, 134, 33, 169
1731649497495,9i,6.36091413136442,1.4s : 0.4s,14.909549947295332,6.236065449810845,2.753771716745935,0.46622457324528144,-3.862600326538086,1.1057214736938477,1.8152759075164795,0.2106940746307373,0.24876901507377625,0.3332976698875427,-0.17627590114060393,-1.019013815660194,2.166038193656638,-0.8383948802947998,0.1753644049167633,-0.516082763671875, 210, 134, 33, 169
1731649497505,9i,6.36091413136442,1.4s : 0.4s,14.909549947295332,6.245639990888838,2.9090899938333155,0.48501369335586003,-4.275017261505127,1.2404539585113525,2.0199735164642334,0.12057459354400635,0.16076821088790894,0.4414222836494446,-0.21375018165197462,-1.0125006662195428,2.1406296389216677,-0.8288570642471313,0.212126225233078,-0.5176857709884644, 210, 134, 33, 169
1731649497515,9i,6.36091413136442,1.4s : 0.4s,14.909549947295332,6.255694506735059,3.034266247192666,0.6547357532049709,-4.149441242218018,1.4989911317825317,2.2615394592285156,0.022614479064941406,0.12426117062568665,0.6424380540847778,-0.25465742833583577,-1.0045367832242862,2.1155472887887203,-0.8166971206665039,0.2519139051437378,-0.5191776156425476, 210, 134, 33, 169
1731649497525,9i,6.36091413136442,1.4s : 0.4s,14.909549947295332,6.265304579991226,3.072871943091009,0.555053879127433,-3.9433648586273193,1.4965190887451172,2.107607841491699,-0.04638254642486572,0.13802501559257507,0.5356141924858093,-0.294895960977619,-0.9955344200784804,2.0925671734330105,-0.8028301000595093,0.29064029455184937,-0.5205690264701843, 210, 134, 33, 169
1731649497535,9i,6.36091413136442,1.4s : 0.4s,14.909549947295332,6.272989412415959,3.042849452982401,0.2782769801233188,-3.7446186542510986,1.3323087692260742,1.956888198852539,-0.08210301399230957,0.1460062563419342,0.22221463918685913,-0.3328862990344675,-0.9885093461563873,2.070095635252679,-0.7893569469451904,0.3267722427845001,-0.5197457671165466, 210, 134, 33, 169
1731649497545,9i,6.36091413136442,1.4s : 0.4s,14.909549947295332,6.278683572151932,2.909309407231949,0.23261450779144327,-3.1522464752197266,1.2332433462142944,1.8852523565292358,-0.11388272047042847,0.17389675974845886,0.1044037938117981,-0.3680479682533773,-0.9822065309821024,2.0504416299440744,-0.776025116443634,0.35979482531547546,-0.5180085301399231, 210, 134, 33, 169
1731649497555,9i,6.36091413136442,1.4s : 0.4s,14.909549947295332,6.2828034985274295,2.7985569540527386,0.295061934515994,-3.0399210453033447,1.2910950183868408,1.8585493564605713,-0.08517426252365112,0.2824469804763794,-0.005531132221221924,-0.4005242844758031,-0.975171612967974,2.034251645533945,-0.7622835636138916,0.38990119099617004,-0.5166245698928833, 210, 134, 33, 169
1731649497565,9i,6.36091413136442,1.4s : 0.4s,14.909549947295332,6.286504444490925,2.7293917782731225,0.3193363547088054,-3.110508680343628,1.2509026527404785,1.8463517427444458,-0.05199223756790161,0.3070952296257019,0.07046300172805786,-0.43300987309486494,-0.969294389516996,2.0176853302726725,-0.7483922243118286,0.4196047782897949,-0.5136545300483704, 210, 134, 33, 169
1731649497575,9i,6.36091413136442,1.4s : 0.4s,14.909549947295332,6.290167450827165,2.690887252612368,0.37909795623819675,-3.0119903087615967,1.5240453481674194,1.9281220436096191,-0.1127210259437561,0.2893517017364502,0.21745073795318604,-0.465994152733707,-0.9626400100940511,2.0013895781159743,-0.7331956624984741,0.44931116700172424,-0.5104347467422485, 210, 134, 33, 169
1731649497585,9i,6.36091413136442,1.4s : 0.4s,14.909549947295332,6.293423264987139,2.6340177802082856,0.4930787275491596,-2.6767852306365967,1.8010213375091553,1.9467676877975464,-0.28038567304611206,0.276692271232605,0.29656684398651123,-0.49826339207379977,-0.9523977077234695,1.9874303405728284,-0.7157385349273682,0.47790080308914185,-0.5092438459396362, 210, 134, 33, 169
1731649497595,9i,6.36091413136442,1.4s : 0.4s,14.909549947295332,6.295001904854876,2.520872952408452,0.4543036171225629,-2.1336634159088135,1.9191850423812866,1.8974723815917969,-0.3985447883605957,0.147097647190094,0.1609848141670227,-0.5279706974942456,-0.9383980469626717,1.977780571296011,-0.6967768669128418,0.5037813782691956,-0.5105941891670227, 210, 134, 33, 169
1731649497605,9i,6.36091413136442,1.4s : 0.4s,14.909549947295332,6.293950128755065,2.3707912356282295,0.4276720842648846,-1.7026253938674927,1.9035277366638184,1.7497828006744385,-0.4073672294616699,0.07044088840484619,-0.10951453447341919,-0.5539202404615522,-0.9219231978856464,1.9726358450184456,-0.6776241660118103,0.5260252952575684,-0.513929009437561, 210, 134, 33, 169
1731649497615,9i,6.36091413136442,1.4s : 0.4s,14.909549947295332,6.2908553993390015,2.2383774428311822,0.45499476499860764,-1.5573034286499023,1.9862216711044312,1.5200746059417725,-0.28226780891418457,0.17701655626296997,-0.30985522270202637,-0.5766973377340605,-0.9043124995219279,1.9691563304264876,-0.6588789820671082,0.5452584028244019,-0.5182392001152039, 210, 134, 33, 169
