timestamp,club,max_speed,tempo,w.rotation,l.speed,t.spped,acc,rotation.x,rotation.y,rotation.z,userAcceleration.x,userAcceleration.y,userAcceleration.z,pitch,roll,yaw,gravity.x,gravity.y,gravity.z,impactIndex,minDownIndex,StartIndex,endIndex
1731649821436,9i,8.72908412623103,1.4s : 0.2s,-0.4628118946256592,0.0005211118096029753,0.13379785394986823,0.016685473247075998,0.007771393284201622,0.012991903349757195,-0.0010411111870780587,-0.0021709799766540527,-0.01654273271560669,0.00017279386520385742,-0.16233537414869909,2.071080712860201,3.045190677828027,0.8659101128578186,0.16162331402301788,0.47336864471435547, 164, 122, 0, 141
1731649821446,9i,8.72908412623103,1.4s : 0.2s,-0.4628118946256592,0.00140192716252728,0.09054207436850287,0.01804153772760048,0.011084364727139473,0.010844329372048378,0.00900632981210947,-0.005036652088165283,-0.01726604998111725,0.0014187097549438477,-0.16240349008884714,2.071163413662623,3.0450926493512176,0.8658614158630371,0.16169053316116333,0.47343504428863525, 164, 122, 0, 141
1731649821456,9i,8.72908412623103,1.4s : 0.2s,-0.4628118946256592,0.0021879677505818843,0.06066723612935275,0.018851378071273062,0.014208253473043442,0.006112957838922739,0.013257267884910107,-0.012982070446014404,-0.012510791420936584,0.005506396293640137,-0.16231623215139634,2.0712632083079794,3.044930665964802,0.8658263683319092,0.16160441935062408,0.473528116941452, 164, 122, 0, 141
1731649821466,9i,8.72908412623103,1.4s : 0.2s,-0.4628118946256592,0.0028937190743413884,0.03978342539647208,0.018472582978985824,0.011362398974597454,0.00906329695135355,0.00948636420071125,-0.011031746864318848,-0.010697126388549805,0.010252237319946289,-0.16221020995727756,2.071482467792233,3.0447682871735147,0.8657377362251282,0.16149979829788208,0.4737262725830078, 164, 122, 0, 141
1731649821476,9i,8.72908412623103,1.4s : 0.2s,-0.4628118946256592,0.0035424059984792548,0.025860939779141282,0.018072017886237877,0.010183684527873993,0.011707549914717674,0.016031082719564438,-0.008038520812988281,-0.015234500169754028,0.00546717643737793,-0.1622467031654223,2.071831083427655,3.0446485772129233,0.8655673861503601,0.1615358144044876,0.47402524948120117, 164, 122, 0, 141
1731649821486,9i,8.72908412623103,1.4s : 0.2s,-0.4628118946256592,0.004138235509174527,0.02112909647460424,0.0148341689782721,0.007385500706732273,0.007841970771551132,0.009228969924151897,-0.008026838302612305,-0.012474551796913147,8.940696716308594e-05,-0.16198577074345036,2.0720622808071716,3.0445280192158206,0.8654947280883789,0.16127829253673553,0.4742455780506134, 164, 122, 0, 141
1731649821496,9i,8.72908412623103,1.4s : 0.2s,-0.4628118946256592,0.0046815193200305085,0.017858920625019113,0.011238065929923415,-0.00378006836399436,0.01285164337605238,0.014605092816054821,-0.007314503192901611,-0.008481800556182861,-0.0009226202964782715,-0.16152705855358174,2.0722208882524327,3.044445357152472,0.8654841780662537,0.16082558035850525,0.4744183123111725, 164, 122, 0, 141
1731649821506,9i,8.72908412623103,1.4s : 0.2s,-0.4628118946256592,0.005174307076864538,0.015143454338381565,0.007117714619954673,-0.003684194292873144,0.010350490920245647,0.01258748210966587,-0.005112648010253906,-0.004889056086540222,-0.0007872879505157471,-0.16110258393775553,2.072485087086328,3.0444398394659427,0.8654184341430664,0.16040660440921783,0.4746796488761902, 164, 122, 0, 141
1731649821516,9i,8.72908412623103,1.4s : 0.2s,-0.4628118946256592,0.005612088341258481,0.01264097465099012,0.003391442198936104,-0.017743021249771118,0.014900768175721169,0.003911170177161694,-0.0016220808029174805,0.0028596818447113037,-0.0008324384689331055,-0.16062616779075695,2.0726182809626024,3.044489266975954,0.8654221296310425,0.1599363386631012,0.47483164072036743, 164, 122, 0, 141
1731649821526,9i,8.72908412623103,1.4s : 0.2s,-0.4628118946256592,0.006005901143545491,0.010591085677878894,0.00404451899446085,-0.032931361347436905,0.015471838414669037,0.012499164789915085,-0.0033491849899291992,-0.0014482289552688599,-0.0017446279525756836,-0.16009019712095277,2.0728665815554335,3.0447120854035514,0.8653794527053833,0.15940725803375244,0.47508782148361206, 164, 122, 0, 141
1731649821536,9i,8.72908412623103,1.4s : 0.2s,-0.4628118946256592,0.006360239190761146,0.009016449446533301,0.008218576910851007,-0.03770507872104645,0.021897247061133385,0.012401428073644638,-0.006773471832275391,-0.004423946142196655,0.0014469921588897705,-0.1596112466856486,2.0733149552272967,3.0450147014534883,0.8652328252792358,0.15893439948558807,0.4755123257637024, 164, 122, 0, 141
1731649821546,9i,8.72908412623103,1.4s : 0.2s,-0.4628118946256592,0.006669069645986165,0.014744870130961287,0.010380061890714042,-0.047383736819028854,0.02305234968662262,0.005750349257141352,-0.0062299370765686035,0.0032121241092681885,-0.007656097412109375,-0.15915633597474857,2.0738846249385987,3.0453796278305356,0.8650251030921936,0.1584852635860443,0.47603997588157654, 164, 122, 0, 141
1731649821556,9i,8.72908412623103,1.4s : 0.2s,-0.4628118946256592,0.006914183866616169,0.04752866606221403,0.017687591162001165,-0.05218302085995674,-0.06966720521450043,0.1989152729511261,-0.011223971843719482,0.01207318902015686,-0.006411820650100708,-0.15831075175744688,2.074153313194007,3.045640439164003,0.8650141954421997,0.15765030682086945,0.47633683681488037, 164, 122, 0, 141
1731649821566,9i,8.72908412623103,1.4s : 0.2s,-0.4628118946256592,0.007082707155764864,0.07934873746984528,0.024225052850095716,-0.0762418881058693,0.06064215674996376,0.2235390692949295,-0.01674020290374756,0.01682785153388977,0.004841715097427368,-0.15827053919543138,2.0749170710939158,3.046314000432033,0.8646557331085205,0.15761059522628784,0.4770004153251648, 164, 122, 0, 141
1731649821576,9i,8.72908412623103,1.4s : 0.2s,-0.4628118946256592,0.007192076338818277,0.06469834730830598,0.021040840598518944,-0.11032821983098984,0.11411523818969727,-0.05060833320021629,-0.01706564426422119,0.011680319905281067,0.003879547119140625,-0.15781239707144576,2.074718987780816,3.046554713261347,0.8648134469985962,0.15715816617012024,0.4768640398979187, 164, 122, 0, 141
1731649821586,9i,8.72908412623103,1.4s : 0.2s,-0.4628118946256592,0.007295976100690043,0.05853449427769523,0.02382833996101726,-0.044989824295043945,0.047340646386146545,-0.030376097187399864,0.021461009979248047,0.010354012250900269,9.626150131225586e-05,-0.15708502675803893,2.0746366339513953,3.046534575462157,0.8649524450302124,0.15643979609012604,0.4768477976322174, 164, 122, 0, 141
1731649821596,9i,8.72908412623103,1.4s : 0.2s,-0.4628118946256592,0.007396990744443062,0.05428611156820152,0.0044902836623999,0.025220956653356552,0.006397472694516182,0.06526707857847214,-4.0590763092041016e-05,-0.00336320698261261,-0.002974867820739746,-0.15728545858735876,2.07495881116362,3.04657942598593,0.8647714257240295,0.1566377580165863,0.4771113693714142, 164, 122, 0, 141
1731649821606,9i,8.72908412623103,1.4s : 0.2s,-0.4628118946256592,0.007496946532379733,0.04693790043039235,0.024468653742571553,0.06220027804374695,-0.0031626548152416945,0.01796267367899418,-0.016678810119628906,-0.011820748448371887,-0.013446271419525146,-0.15739781424523921,2.074849600558144,3.045966703075096,0.8648080229759216,0.1567487269639969,0.4770083427429199, 164, 122, 0, 141
1731649821616,9i,8.72908412623103,1.4s : 0.2s,-0.4628118946256592,0.0075908429768116025,0.03988610764227463,0.01718252168427512,0.0824139416217804,-0.004120061174035072,0.04163311794400215,0.0054669976234436035,0.004842966794967651,-0.015553027391433716,-0.15741211839434274,2.0747286178256967,3.045103279437413,0.8648638129234314,0.15676285326480865,0.47690266370773315, 164, 122, 0, 141
1731649821626,9i,8.72908412623103,1.4s : 0.2s,-0.4628118946256592,0.007677350558533565,0.03118463997924425,0.01877395010036754,0.09913972020149231,-0.006998672150075436,0.03142338991165161,-0.004609465599060059,0.0009754151105880737,-0.018173128366470337,-0.15772829755402276,2.0744335819014186,3.0440780339188684,0.8649610280990601,0.15707510709762573,0.47662353515625, 164, 122, 0, 141
1731649821636,9i,8.72908412623103,1.4s : 0.2s,-0.4628118946256592,0.007814738865400751,0.03899045128867759,0.03222795341441498,0.10676035284996033,-0.012207548134028912,0.039984919130802155,-0.01029825210571289,-0.02131485939025879,-0.021869242191314697,-0.15823533115183067,2.0741646614020794,3.0429682886836646,0.8650192618370056,0.1575758308172226,0.47635239362716675, 164, 122, 0, 141
1731649821646,9i,8.72908412623103,1.4s : 0.2s,-0.4628118946256592,0.007964402494002265,0.0490923110231288,0.022017414135827865,0.11354275792837143,-0.009906576946377754,0.03206207975745201,-0.005719363689422607,-0.009372308850288391,-0.019084423780441284,-0.15890492674520348,2.0741970371823637,3.041847226278592,0.8649111390113831,0.158237025141716,0.47632935643196106, 164, 122, 0, 141
1731649821656,9i,8.72908412623103,1.4s : 0.2s,-0.4628118946256592,0.008127845844792267,0.051220367849409684,0.023512651955518906,0.09102733433246613,-0.013646455481648445,0.03297634422779083,-0.006856262683868408,-0.009960994124412537,-0.020164698362350464,-0.1594238695297241,2.0742217108824565,3.040836289502041,0.8648272752761841,0.15874940156936646,0.47631099820137024, 164, 122, 0, 141
1731649821666,9i,8.72908412623103,1.4s : 0.2s,-0.4628118946256592,0.00830998110444621,0.05162588786971761,0.022965925691515964,0.08224296569824219,-0.01860659196972847,0.020992817357182503,-0.007117509841918945,-0.01306644082069397,-0.0174940824508667,-0.15971011402945426,2.073717448300419,3.0398863992249803,0.865027666091919,0.15903201699256897,0.4758530259132385, 164, 122, 0, 141
1731649821676,9i,8.72908412623103,1.4s : 0.2s,-0.4628118946256592,0.00850605540955646,0.05269998459810985,0.017315464216352664,0.0922149047255516,-0.01120433583855629,0.023180071264505386,-0.004413425922393799,-0.011128649115562439,-0.01251000165939331,-0.15978748091166886,2.073413104066141,3.0389978412955445,0.8651618361473083,0.15910840034484863,0.47558388113975525, 164, 122, 0, 141
1731649821686,9i,8.72908412623103,1.4s : 0.2s,-0.4628118946256592,0.008698323262303817,0.053192522328507706,0.0181917605709926,0.08683139085769653,-0.006103849969804287,0.016933660954236984,-0.007936716079711914,-0.002481713891029358,-0.016179919242858887,-0.15979231897963467,2.0731580559513043,3.0381032812487403,0.8652823567390442,0.15911316871643066,0.47536277770996094, 164, 122, 0, 141
1731649821696,9i,8.72908412623103,1.4s : 0.2s,-0.4628118946256592,0.008875432731841859,0.05136932002019347,0.014412634892765444,0.05637202039361,-0.002520299982279539,0.01119428314268589,-0.007220745086669922,0.003036215901374817,-0.012098193168640137,-0.16009187146709158,2.072682103287249,3.03733371312597,0.8654667735099792,0.15940889716148376,0.47492802143096924, 164, 122, 0, 141
1731649821706,9i,8.72908412623103,1.4s : 0.2s,-0.4628118946256592,0.009030508314206764,0.07311219884822659,0.009194882740769645,0.033830758184194565,-0.10731977224349976,0.21169142425060272,-0.0016946792602539062,0.00719626247882843,-0.005466967821121216,-0.15985017087573028,2.0720510755152963,3.0366523574053215,0.8657999038696289,0.15917028486728668,0.47440019249916077, 164, 122, 0, 141
1731649821716,9i,8.72908412623103,1.4s : 0.2s,-0.4628118946256592,0.009149658373284042,0.15085634129696263,0.013728231357268106,0.006958130281418562,-0.18972329795360565,0.4861307144165039,-0.0035330653190612793,0.01309289038181305,-0.002134948968887329,-0.15985882126037304,2.0719043535418655,3.0364993173233175,0.8658682107925415,0.15917882323265076,0.4742724597454071, 164, 122, 0, 141
1731649821726,9i,8.72908412623103,1.4s : 0.2s,-0.4628118946256592,0.009241995804229151,0.21062880480967008,0.015332259037005174,-0.055461104959249496,-0.37453505396842957,0.4017508029937744,-0.013975560665130615,0.005953386425971985,-0.002078235149383545,-0.16063005961281376,2.072083456562474,3.0366973640337847,0.8656755089759827,0.1599401831626892,0.47436848282814026, 164, 122, 0, 141
1731649821736,9i,8.72908412623103,1.4s : 0.2s,-0.4628118946256592,0.00930463353317927,0.1718637261549377,0.012810505274738416,-0.03874417766928673,-0.14323152601718903,0.04686889052391052,0.0021966099739074707,0.010287389159202576,0.007311195135116577,-0.16022762999231366,2.0716187054274604,3.0364925649797683,0.8659521341323853,0.15954291820526123,0.4739969074726105, 164, 122, 0, 141
1731649821746,9i,8.72908412623103,1.4s : 0.2s,-0.4628118946256592,0.009303217951468958,0.13069989542118488,0.030750271586811945,-0.020478755235671997,-0.03623689338564873,0.03647303953766823,0.007406711578369141,0.015805885195732117,0.02531588077545166,-0.15975373920913274,2.0712253644775602,3.036443238261754,0.8662047386169434,0.1590750813484192,0.47369247674942017, 164, 122, 0, 141
1731649821756,9i,8.72908412623103,1.4s : 0.2s,-0.4628118946256592,0.009259743634070637,0.09390270607869047,0.023997865375251694,-0.038862019777297974,-0.016976648941636086,-0.0027521257288753986,-0.011850118637084961,0.008678525686264038,0.018977761268615723,-0.1594152645487178,2.0709379744259917,3.036610813738167,0.8663880825042725,0.15874090790748596,0.4734693169593811, 164, 122, 0, 141
1731649821766,9i,8.72908412623103,1.4s : 0.2s,-0.4628118946256592,0.00920219454278879,0.06573155083400539,0.015130161745621444,-0.06822709739208221,0.005031803622841835,-0.01682240515947342,0.004039943218231201,0.0040433406829833984,0.01400899887084961,-0.15924168715593312,2.070775283385597,3.0369828046703775,0.8664891123771667,0.15856952965259552,0.4733414649963379, 164, 122, 0, 141
1731649821775,9i,8.72908412623103,1.4s : 0.2s,-0.4628118946256592,0.009131548785213746,0.0391556418144546,0.022319486202381274,-0.06837570667266846,0.07314854115247726,-0.08723318576812744,-0.021411895751953125,-0.00045843422412872314,0.006283313035964966,-0.15918031781690042,2.070793025923995,3.0376220400750373,0.8664892911911011,0.15850894153118134,0.4733615517616272, 164, 122, 0, 141
1731649821785,9i,8.72908412623103,1.4s : 0.2s,-0.4628118946256592,0.009046094348736532,0.04387779763207718,0.02000959339927288,-0.07471422851085663,0.1411259025335312,-0.1819494068622589,-0.018845558166503906,0.0025699585676193237,0.006214827299118042,-0.15920400564410056,2.070856483321481,3.038281920289705,0.8664559721946716,0.15853232145309448,0.47341474890708923, 164, 122, 0, 141
1731649821795,9i,8.72908412623103,1.4s : 0.2s,-0.4628118946256592,0.008960588155229,0.09281614724088914,0.009982922931707518,-0.06940388679504395,0.19683018326759338,-0.25994089245796204,-0.009563267230987549,0.0027516335248947144,-0.0007944703102111816,-0.1593599898864052,2.070982208441702,3.039021414569468,0.8663747310638428,0.1586863398551941,0.47351178526878357, 164, 122, 0, 141
1731649821805,9i,8.72908412623103,1.4s : 0.2s,-0.4628118946256592,0.008886062703764214,0.132642612035684,0.010459025949693813,-0.06067850440740585,0.18560601770877838,-0.2798154950141907,-0.010036826133728027,-0.002414599061012268,-0.0016801953315734863,-0.1594461716865047,2.0711491367740082,3.0397679987443373,0.8662839531898499,0.15877142548561096,0.4736500084400177, 164, 122, 0, 141
1731649821815,9i,8.72908412623103,1.4s : 0.2s,-0.4628118946256592,0.008830220017113715,0.14172035719174753,0.012026993539823854,-0.04373707249760628,0.10930565744638443,-0.21518029272556305,-0.0062996745109558105,-0.009075403213500977,0.004753917455673218,-0.15946967004125134,2.0711395399912207,3.040458080991354,0.866284966468811,0.15879462659358978,0.4736397862434387, 164, 122, 0, 141
1731649821825,9i,8.72908412623103,1.4s : 0.2s,-0.4628118946256592,0.008777958848757043,0.11036046916285863,0.005178348306745848,-0.02170380763709545,-0.03514810651540756,-0.07714539766311646,-0.003196418285369873,-0.0008098036050796509,0.003992795944213867,-0.1595980362982955,2.071307174121126,3.041061313880537,0.8661878108978271,0.15892136096954346,0.4737752377986908, 164, 122, 0, 141
1731649821835,9i,8.72908412623103,1.4s : 0.2s,-0.4628118946256592,0.008739781411257969,0.04935229653320824,0.01032906601244826,-0.011564888060092926,-0.23433257639408112,0.1362084299325943,-0.008413314819335938,-0.002705484628677368,-0.0053465962409973145,-0.15963261522489583,2.071558085046597,3.0416316818601628,0.866064190864563,0.15895549952983856,0.4739900231361389, 164, 122, 0, 141
1731649821845,9i,8.72908412623103,1.4s : 0.2s,-0.4628118946256592,0.008721971404329029,0.1157200257452153,0.016276982173870476,-0.009581298567354679,-0.4606115221977234,0.37274470925331116,-0.011948764324188232,-0.004652306437492371,-0.010026127099990845,-0.15962618577042334,2.0715694362102766,3.042187308551986,0.866059422492981,0.15894915163516998,0.4740001857280731, 164, 122, 0, 141
1731649821855,9i,8.72908412623103,1.4s : 0.2s,-0.4628118946256592,0.008719492031170947,0.25667561102555914,0.022636596184686553,-0.013272706419229507,-0.6522736549377441,0.6052660942077637,-0.014951825141906738,0.0005803704261779785,-0.016985923051834106,-0.1596891189719279,2.0717180116557445,3.0427104214451526,0.8659802675247192,0.15901128947734833,0.4741240441799164, 164, 122, 0, 141
1731649821865,9i,8.72908412623103,1.4s : 0.2s,-0.4628118946256592,0.00871578470486703,0.39961020162813626,0.03149341610716939,-0.016230013221502304,-0.7741925716400146,0.7781247496604919,-0.018410921096801758,0.011318221688270569,-0.022907882928848267,-0.15989443672320833,2.0716674735616394,3.0430745505209624,0.8659756183624268,0.15921398997306824,0.4740646481513977, 164, 122, 0, 141
1731649821875,9i,8.72908412623103,1.4s : 0.2s,-0.4628118946256592,0.00873167768829787,0.48402245278104383,0.03248900647673863,-0.025261856615543365,-0.7150301337242126,0.7213709354400635,-0.012477874755859375,0.008664518594741821,-0.02871870994567871,-0.16020220057366366,2.0716033390723765,3.043326772776488,0.8659628033638,0.1595178246498108,0.4739854633808136, 164, 122, 0, 141
1731649821885,9i,8.72908412623103,1.4s : 0.2s,-0.4628118946256592,0.008823329662382511,0.49342572725820266,0.034881696400713175,-0.05484431982040405,-0.528489351272583,0.5563448071479797,-0.0054770708084106445,-0.010750368237495422,-0.0327286422252655,-0.16047075145386744,2.071517722750645,3.043553045193618,0.8659658432006836,0.15978293120861053,0.4738907516002655, 164, 122, 0, 141
1731649821895,9i,8.72908412623103,1.4s : 0.2s,-0.4628118946256592,0.009045162919538722,0.4335489646301628,0.04015600855271449,-0.058990590274333954,-0.28349798917770386,0.33237960934638977,-0.0040950775146484375,-0.02706901729106903,-0.02937692403793335,-0.1606633771784746,2.071382298186809,3.0437713879209944,0.866003155708313,0.15997307002544403,0.4737587869167328, 164, 122, 0, 141
1731649821905,9i,8.72908412623103,1.4s : 0.2s,-0.4628118946256592,0.009364120355064287,0.3150676492377263,0.039931423042965396,-0.03740154579281807,-0.016708645969629288,0.060388628393411636,0.003832101821899414,-0.032535627484321594,-0.022831261157989502,-0.16080652394318937,2.0711310791803315,3.043740604457654,0.8661021590232849,0.1601143777370453,0.47353029251098633, 164, 122, 0, 141
1731649821915,9i,8.72908412623103,1.4s : 0.2s,-0.4628118946256592,0.009728418143262092,0.16047574191702624,0.03474182816891715,-0.021655604243278503,0.23450493812561035,-0.19563302397727966,0.012010395526885986,-0.022028416395187378,-0.024031102657318115,-0.16098274199752186,2.070787896923532,3.0435144062323034,0.8662398457527161,0.16028831899166107,0.47321951389312744, 164, 122, 0, 141
1731649821925,9i,8.72908412623103,1.4s : 0.2s,-0.4628118946256592,0.010110661733515776,0.021343958694705064,0.028652029092989726,-0.007782666012644768,0.42343276739120483,-0.4142509996891022,0.016262531280517578,-0.0135030597448349,-0.01934260129928589,-0.16117262072347555,2.0704302042897305,3.0431907409031678,0.8663822412490845,0.1604757457971573,0.4728949964046478, 164, 122, 0, 141
1731649821935,9i,8.72908412623103,1.4s : 0.2s,-0.4628118946256592,0.01049480763401673,0.15685302301353174,0.02307961986600471,0.02306792512536049,0.5256360769271851,-0.5333973169326782,0.01621943712234497,-0.013017266988754272,-0.010007470846176147,-0.16134513974481388,2.0700618629805843,3.042808956441103,0.8665319085121155,0.16064602136611938,0.4725624918937683, 164, 122, 0, 141
1731649821945,9i,8.72908412623103,1.4s : 0.2s,-0.4628118946256592,0.010863072039780099,0.26515915196725326,0.018236236492414532,0.05104177072644234,0.5345800518989563,-0.557767391204834,0.014435112476348877,-0.0031602978706359863,-0.01068645715713501,-0.16154634411186794,2.069648357646566,3.0421819871660833,0.8666988015174866,0.1608446091413498,0.47218865156173706, 164, 122, 0, 141
1731649821955,9i,8.72908412623103,1.4s : 0.2s,-0.4628118946256592,0.011213319420702875,0.320615281008935,0.012382562539791331,0.038635965436697006,0.4547651410102844,-0.49213168025016785,0.005085408687591553,-0.000835224986076355,-0.01125916838645935,-0.16161781956783489,2.0693120162252296,3.0417051932232915,0.8668474555015564,0.16091515123844147,0.4718915820121765, 164, 122, 0, 141
1731649821965,9i,8.72908412623103,1.4s : 0.2s,-0.4628118946256592,0.011545135095956432,0.32039274910624327,0.011137328984277706,0.051548369228839874,0.3125154972076416,-0.35544514656066895,-0.006197154521942139,-0.009238243103027344,0.0005387365818023682,-0.161613185867547,2.0690089597755374,3.0412999708223336,0.8669911026954651,0.16091057658195496,0.47162923216819763, 164, 122, 0, 141
1731649821975,9i,8.72908412623103,1.4s : 0.2s,-0.4628118946256592,0.011882653687840476,0.267539375195145,0.024516938969537338,0.06235760822892189,0.13518625497817993,-0.16310368478298187,-0.008149862289428711,-0.023093387484550476,0.001164257526397705,-0.1615824667362782,2.068760039009427,3.0409014177891547,0.8671130537986755,0.16088026762008667,0.4714159071445465, 164, 122, 0, 141
1731649821985,9i,8.72908412623103,1.4s : 0.2s,-0.4628118946256592,0.012221114519746301,0.17745732092368535,0.025974176335616647,0.053448665887117386,-0.04689113795757294,0.03192313015460968,-0.008630514144897461,-0.024015530943870544,0.004840075969696045,-0.1615273010376138,2.068598604148385,3.0404930810153608,0.8671966791152954,0.16082581877708435,0.4712800085544586, 164, 122, 0, 141
1731649821995,9i,8.72908412623103,1.4s : 0.2s,-0.4628118946256592,0.012549868855592235,0.07749431913119469,0.027251069342139254,0.038393549621105194,-0.21008405089378357,0.21310622990131378,-0.005820870399475098,-0.023738861083984375,0.012050092220306396,-0.16141707475932984,2.0684741185753457,3.0402420058727886,0.8672712445259094,0.16071702539920807,0.47118067741394043, 164, 122, 0, 141
1731649822005,9i,8.72908412623103,1.4s : 0.2s,-0.4628118946256592,0.01285440277462764,0.05045798397367573,0.019903336115406543,0.036269545555114746,-0.32549524307250977,0.33752357959747314,-0.006347954273223877,-0.014528915286064148,0.012031495571136475,-0.16129982143965746,2.0683621011983737,3.0399840258652993,0.8673402667045593,0.16060128808021545,0.4710923731327057, 164, 122, 0, 141
1731649822015,9i,8.72908412623103,1.4s : 0.2s,-0.4628118946256592,0.013131996211572692,0.1443546079168722,0.01235011915397542,0.03444448113441467,-0.37682634592056274,0.40821534395217896,-0.006584823131561279,-0.007479310035705566,0.007295578718185425,-0.16122247975565102,2.068238701923661,3.0396806442242417,0.867409348487854,0.16052494943141937,0.4709912836551666, 164, 122, 0, 141
1731649822025,9i,8.72908412623103,1.4s : 0.2s,-0.4628118946256592,0.013403695524361447,0.2108043065704504,0.014565224318170318,0.013934945687651634,-0.37004542350769043,0.4040650725364685,-0.006361663341522217,-0.013029932975769043,0.0013768970966339111,-0.1611415500723521,2.068088820355945,3.0393853660832018,0.8674913048744202,0.16044507920742035,0.47086745500564575, 164, 122, 0, 141
1731649822035,9i,8.72908412623103,1.4s : 0.2s,-0.4628118946256592,0.01368951625709085,0.24075570405137894,0.024322507280533874,-0.005799609702080488,-0.30518651008605957,0.350458562374115,-0.00850820541381836,-0.022785454988479614,0.0001335740089416504,-0.16100767959588208,2.067944781731317,3.039177305182701,0.8675782084465027,0.1603129357099533,0.4707528352737427, 164, 122, 0, 141
1731649822045,9i,8.72908412623103,1.4s : 0.2s,-0.4628118946256592,0.013985633505974992,0.23559899438487883,0.024539930969197685,-0.025293482467532158,-0.2087843418121338,0.24984629452228546,-0.01035219430923462,-0.02218092978000641,0.001745462417602539,-0.16078170145561177,2.0677905826714014,3.0390985386972704,0.8676825761795044,0.1600898802280426,0.4706362783908844, 164, 122, 0, 141
1731649822055,9i,8.72908412623103,1.4s : 0.2s,-0.4628118946256592,0.014297858247097048,0.19627939807206796,0.02467084541134989,-0.048136744648218155,-0.09811509400606155,0.12111416459083557,-0.007742524147033691,-0.023394301533699036,-0.0011876821517944336,-0.16058875632555147,2.0676545133398108,3.0391259680219194,0.867773711681366,0.15989941358566284,0.47053292393684387, 164, 122, 0, 141
1731649822065,9i,8.72908412623103,1.4s : 0.2s,-0.4628118946256592,0.01463794129077815,0.13820868929115487,0.03240029657576951,-0.04470153525471687,0.010206324979662895,0.010624000802636147,-0.00843667984008789,-0.03128238022327423,0.00011974573135375977,-0.16034073407465846,2.067550336505763,3.0392700872407827,0.8678576350212097,0.15965457260608673,0.4704614579677582, 164, 122, 0, 141
1731649822075,9i,8.72908412623103,1.4s : 0.2s,-0.4628118946256592,0.014990506940734356,0.07545210789586856,0.026411653810631697,-0.04371882975101471,0.09265699237585068,-0.0722796767950058,-0.008138418197631836,-0.0250578373670578,0.0018564462661743164,-0.1600635657155129,2.0674237927877974,3.039381809092754,0.8679559826850891,0.1593809574842453,0.47037264704704285, 164, 122, 0, 141
1731649822085,9i,8.72908412623103,1.4s : 0.2s,-0.4628118946256592,0.015338485481943191,0.02496691877301472,0.015388626447673198,-0.0390726774930954,0.14329202473163605,-0.13332918286323547,-0.004541754722595215,-0.014699086546897888,-0.0003451704978942871,-0.15978736633206908,2.067334427974547,3.039440183224154,0.8680367469787598,0.15910828113555908,0.470316082239151, 164, 122, 0, 141
1731649822095,9i,8.72908412623103,1.4s : 0.2s,-0.4628118946256592,0.015686241855026144,0.04411381508264158,0.014585040685804036,-0.04323413595557213,0.16172510385513306,-0.15383632481098175,-0.00292050838470459,-0.012038126587867737,-0.007699191570281982,-0.15951862434743264,2.0672925682033503,3.039594621371099,0.8680939674377441,0.15884296596050262,0.4703000783920288, 164, 122, 0, 141
1731649822105,9i,8.72908412623103,1.4s : 0.2s,-0.4628118946256592,0.01603734035738788,0.07181116489907431,0.01654625753938994,-0.029313256964087486,0.1521306186914444,-0.1444271057844162,-0.0035130977630615234,-0.012530893087387085,-0.010218292474746704,-0.1593067581821637,2.0673284325762546,3.039773988239818,0.8681066036224365,0.1586337834596634,0.47034719586372375, 164, 122, 0, 141
1731649822115,9i,8.72908412623103,1.4s : 0.2s,-0.4628118946256592,0.016380132603458396,0.08127414932344361,0.01451989645776663,-0.02790151536464691,0.11514650285243988,-0.09966868162155151,-0.003311753273010254,-0.004803568124771118,-0.013296067714691162,-0.1591457816721795,2.0674147411332124,3.0399318823008157,0.8680884838104248,0.1584748476743698,0.470434308052063, 164, 122, 0, 141
1731649822125,9i,8.72908412623103,1.4s : 0.2s,-0.4628118946256592,0.016702048688881397,0.07260267850058581,0.013298622982400712,-0.016488539054989815,0.06083887815475464,-0.04625113680958748,-0.003558635711669922,0.0016456395387649536,-0.012707531452178955,-0.15893476339393292,2.0674390251650947,3.0400552621430186,0.8681065440177917,0.15826648473739624,0.4704713523387909, 164, 122, 0, 141
1731649822135,9i,8.72908412623103,1.4s : 0.2s,-0.4628118946256592,0.016997717480137165,0.05435761379376365,0.01378059806383496,-0.008874828927218914,0.015633314847946167,-0.005809967406094074,0.00036537647247314453,0.005143210291862488,-0.01277962327003479,-0.15809694443546163,2.0674319305513995,3.0401160314329294,0.8682259321212769,0.15743917226791382,0.47052809596061707, 164, 122, 0, 141
1731649822145,9i,8.72908412623103,1.4s : 0.2s,-0.4628118946256592,0.017283532786299394,0.031912106543700997,0.017193787269035025,0.004604029003530741,-0.015315813012421131,0.030796678736805916,-0.0029988884925842285,0.0005818158388137817,-0.016920238733291626,-0.15704533904391607,2.0674004434142255,3.040078738983804,0.8683858513832092,0.15640059113502502,0.4705793857574463, 164, 122, 0, 141
1731649822155,9i,8.72908412623103,1.4s : 0.2s,-0.4628118946256592,0.017553855507559224,0.025422500337282047,0.015693712156999055,0.014158918522298336,-0.03019622340798378,0.040888462215662,-0.006398439407348633,0.002636358141899109,-0.014085531234741211,-0.15623208023539997,2.0673523861204055,3.039924938356935,0.8685200810432434,0.1555972844362259,0.47059813141822815, 164, 122, 0, 141
1731649822165,9i,8.72908412623103,1.4s : 0.2s,-0.4628118946256592,0.017789604358774726,0.02034422050041659,0.01805440236696038,0.004197164438664913,-0.025981685146689415,0.032381027936935425,-0.0023818016052246094,0.012541964650154114,-0.012766659259796143,-0.15570424140874387,2.0671241729463854,3.039713414398776,0.8686996698379517,0.15507586300373077,0.47043901681900024, 164, 122, 0, 141
1731649822175,9i,8.72908412623103,1.4s : 0.2s,-0.4628118946256592,0.01798416195400033,0.016137296684318538,0.0219464392414564,0.0018983238842338324,-0.025206970050930977,0.025109531357884407,-5.429983139038086e-05,0.01788972318172455,-0.012712240219116211,-0.1552490259648092,2.0666891687724984,3.0395213279900046,0.8689661026000977,0.15462613105773926,0.47009456157684326, 164, 122, 0, 141
1731649822185,9i,8.72908412623103,1.4s : 0.2s,-0.4628118946256592,0.018141725259554743,0.012486228068764543,0.02549125528538709,0.00497753731906414,-0.02173820324242115,0.028361951932311058,-0.003484785556793213,0.02017177641391754,-0.01519078016281128,-0.15480800838902892,2.06623815954249,3.039328864613879,0.8692380785942078,0.15419040620326996,0.4697350561618805, 164, 122, 0, 141
1731649822195,9i,8.72908412623103,1.4s : 0.2s,-0.4628118946256592,0.018264328310028353,0.0098547593522166,0.02126628635292465,0.0054904622957110405,-0.015338627621531487,0.0194049421697855,-0.007583975791931152,0.01781323552131653,-0.008799254894256592,-0.154662383938078,2.0657717850530606,3.039140376061853,0.8694767951965332,0.15404652059078217,0.4693402647972107, 164, 122, 0, 141
1731649822205,9i,8.72908412623103,1.4s : 0.2s,-0.4628118946256592,0.018366566232248305,0.008060253513741714,0.01268740053560362,0.010995814576745033,-0.006712381727993488,0.01166955754160881,-0.009024620056152344,0.00840882956981659,-0.002969503402709961,-0.1547446238368771,2.0654091582911653,3.038959517318912,0.8696356415748596,0.15412777662277222,0.4690188467502594, 164, 122, 0, 141
1731649822215,9i,8.72908412623103,1.4s : 0.2s,-0.4628118946256592,0.01847241458993284,0.007177001495849719,0.014692053925156946,0.006122230552136898,0.0016238447278738022,0.01697244495153427,-0.013981640338897705,-0.0021481961011886597,-0.003969311714172363,-0.1549278637458466,2.0651004025709687,3.038766015228149,0.8697556257247925,0.15430882573127747,0.4687369465827942, 164, 122, 0, 141
1731649822225,9i,8.72908412623103,1.4s : 0.2s,-0.4628118946256592,0.01858828872954696,0.006185226380051428,0.021196306451116757,0.006741548888385296,-0.004223214462399483,0.014859158545732498,-0.01998847723007202,-0.003374531865119934,-0.006193280220031738,-0.15494901547742906,2.0647469516333734,3.0385955526309547,0.8699183464050293,0.15432973206043243,0.46842795610427856, 164, 122, 0, 141
1731649822235,9i,8.72908412623103,1.4s : 0.2s,-0.4628118946256592,0.01870474094860709,0.005046837077355409,0.02201149293627986,0.005238194018602371,-0.011910961009562016,0.014654895290732384,-0.020859479904174805,0.002171263098716736,-0.006683826446533203,-0.15498841310025416,2.0644721782206075,3.0384619030130606,0.8700416088104248,0.15436865389347076,0.46818599104881287, 164, 122, 0, 141
1731649822245,9i,8.72908412623103,1.4s : 0.2s,-0.4628118946256592,0.018810612237098217,0.0039020164431132864,0.02205166923364439,0.011878453195095062,-0.025535693392157555,0.01840991899371147,-0.020305335521697998,0.007304519414901733,-0.004540205001831055,-0.15524458471322444,2.064081953259938,3.0382849604420388,0.870189368724823,0.15462175011634827,0.467827707529068, 164, 122, 0, 141
1731649822255,9i,8.72908412623103,1.4s : 0.2s,-0.4628118946256592,0.01890064915917962,0.011102938866230984,0.022609327004299486,0.027888046577572823,-0.03307989612221718,0.02285446785390377,-0.01965242624282837,0.010622754693031311,-0.0034815073013305664,-0.15560810174134154,2.0635448195344477,3.0379753672374794,0.8703909516334534,0.1549808830022812,0.4673336148262024, 164, 122, 0, 141
1731649822265,9i,8.72908412623103,1.4s : 0.2s,-0.4628118946256592,0.018982205150622575,0.020433984251866235,0.022780891583855923,0.048691391944885254,-0.03726842626929283,0.020838487893342972,-0.020308852195739746,0.009162738919258118,-0.0047501325607299805,-0.15606658887757585,2.0629198467712517,3.0375287040098264,0.8706201314926147,0.15543381869792938,0.4667559266090393, 164, 122, 0, 141
1731649822275,9i,8.72908412623103,1.4s : 0.2s,-0.4628118946256592,0.019079355393625208,0.025341143617755798,0.02223791457459729,0.049858659505844116,-0.031934116035699844,0.021982582286000252,-0.019753634929656982,0.0006937086582183838,-0.010190069675445557,-0.15651496827701375,2.0624408429887566,3.036969833870162,0.8707822561264038,0.15587672591209412,0.4663059711456299, 164, 122, 0, 141
1731649822285,9i,8.72908412623103,1.4s : 0.2s,-0.4628118946256592,0.019205851718756866,0.031249598675980372,0.0250926651733411,0.06009718403220177,-0.026904646307229996,0.03207196667790413,-0.02180880308151245,-0.006995722651481628,-0.010250747203826904,-0.15668389507491362,2.062139328152246,3.0363577553732384,0.8708995580673218,0.15604358911514282,0.46603095531463623, 164, 122, 0, 141
1731649822295,9i,8.72908412623103,1.4s : 0.2s,-0.4628118946256592,0.019354636729218274,0.04201383573676113,0.025383287033567417,0.09448844939470291,-0.03023918904364109,0.02533896453678608,-0.022979795932769775,-0.0038959532976150513,-0.01005294919013977,-0.15675883557693215,2.061830992125282,3.0355605346553767,0.87103271484375,0.15611760318279266,0.4657568037509918, 164, 122, 0, 141
1731649822305,9i,8.72908412623103,1.4s : 0.2s,-0.4628118946256592,0.01954077979374214,0.04151011251591642,0.028597305077890767,0.04351234436035156,-0.02679394744336605,0.02158590406179428,-0.02244788408279419,-0.009692609310150146,-0.01483076810836792,-0.15688076044459345,2.0615281033567014,3.0348438757846474,0.8711571097373962,0.15623803436756134,0.46548405289649963, 164, 122, 0, 141
1731649822315,9i,8.72908412623103,1.4s : 0.2s,-0.4628118946256592,0.019754891826601482,0.04465849090608239,0.02636120936724905,0.08444992452859879,-0.028752703219652176,0.011502377688884735,-0.021116971969604492,-0.006622493267059326,-0.014322340488433838,-0.15704754596988463,2.0612563025593373,3.0342502788673094,0.8712605834007263,0.15640276670455933,0.4652349650859833, 164, 122, 0, 141
1731649822324,9i,8.72908412623103,1.4s : 0.2s,-0.4628118946256592,0.019999165696553543,0.044483015383730076,0.028911379746041875,0.06054858863353729,-0.028927316889166832,-0.0016464476939290762,-0.020259737968444824,-0.004555106163024902,-0.020116209983825684,-0.15747262428269435,2.0609719725900906,3.0336190002529446,0.8713341951370239,0.15682260692119598,0.4649559259414673, 164, 122, 0, 141
1731649822334,9i,8.72908412623103,1.4s : 0.2s,-0.4628118946256592,0.020273152240771877,0.04736108974967888,0.03808455265578193,0.09278002381324768,-0.010870818980038166,-0.038028158247470856,-0.026156723499298096,0.002842232584953308,-0.027535080909729004,-0.15810926915126092,2.060766844605172,3.0330057128601458,0.8713410496711731,0.1574513465166092,0.46472999453544617, 164, 122, 0, 141
1731649822344,9i,8.72908412623103,1.4s : 0.2s,-0.4628118946256592,0.020541229978199634,0.07331305225559938,0.03932216076794054,0.20489124953746796,0.04317403957247734,-0.05663985759019852,-0.032330989837646484,0.016146957874298096,-0.015498876571655273,-0.15928465149879756,2.0608530789609865,3.032011922024794,0.8711372017860413,0.1586119532585144,0.4647177457809448, 164, 122, 0, 141
1731649822354,9i,8.72908412623103,1.4s : 0.2s,-0.4628118946256592,0.02048564821218941,0.10946785137282616,0.07374409725729268,0.26143336296081543,0.10712266713380814,-0.11215371638536453,-0.04452317953109741,0.056667640805244446,0.015641510486602783,-0.16120802695494985,2.0613200990273373,3.030196415272842,0.8706492185592651,0.16051068902015686,0.464979887008667, 164, 122, 0, 141
1731649822364,9i,8.72908412623103,1.4s : 0.2s,-0.4628118946256592,0.01970926439244493,0.1598883547018858,0.15655653594160118,0.3323686420917511,0.21239076554775238,-0.16535907983779907,-0.043876469135284424,0.1432134509086609,0.04554900527000427,-0.16368408494897949,2.062606493681397,3.02828278617447,0.8696973919868469,0.1629541516304016,0.4659104347229004, 164, 122, 0, 141
1731649822374,9i,8.72908412623103,1.4s : 0.2s,-0.4628118946256592,0.018077912255920727,0.24338317610728014,0.2227252146401839,0.46919867396354675,0.37636902928352356,-0.28381380438804626,-0.04409146308898926,0.19529491662979126,0.09758257865905762,-0.1675484403026278,2.0650949421732756,3.02579102654792,0.8679745197296143,0.16676563024520874,0.4677709639072418, 164, 122, 0, 141
1731649822384,9i,8.72908412623103,1.4s : 0.2s,-0.4628118946256592,0.01570278318920983,0.368338119476983,0.2839991999799321,0.693893551826477,0.6001905202865601,-0.36956971883773804,-0.062492966651916504,0.2033422589302063,0.1881544589996338,-0.1731007491861427,2.069314825241588,3.0222486484103466,0.8651663064956665,0.1722375750541687,0.47097957134246826, 164, 122, 0, 141
1731649822394,9i,8.72908412623103,1.4s : 0.2s,-0.4628118946256592,0.012899076421528318,0.5364472999234836,0.3951927566563948,0.9135258197784424,0.9139186143875122,-0.5134592652320862,-0.06884127855300903,0.29200971126556396,0.2572324275970459,-0.18080606280821737,2.075921620751425,3.0171384446067346,0.8608487248420715,0.17982254922389984,0.47602882981300354, 164, 122, 0, 141
1731649822404,9i,8.72908412623103,1.4s : 0.2s,-0.4628118946256592,0.011528781099486879,0.7192367259156515,0.5123153442603828,0.9812675714492798,1.2075250148773193,-0.7333426475524902,-0.060862183570861816,0.3997371196746826,0.31459981203079224,-0.19097551300924276,2.0855726455459997,3.0118328254071,0.8545787930488586,0.18981675803661346,0.48338931798934937, 164, 122, 0, 141
1731649822414,9i,8.72908412623103,1.4s : 0.2s,-0.4628118946256592,0.015112943579058478,0.9399546751224069,0.6219572952617654,1.196733832359314,1.5366795063018799,-0.969165563583374,-0.05759173631668091,0.5001959800720215,0.36512744426727295,-0.20377167918630937,2.098285167573098,3.006664453656843,0.8461964726448059,0.20236440002918243,0.4929506778717041, 164, 122, 0, 141
1731649822424,9i,8.72908412623103,1.4s : 0.2s,-0.4628118946256592,0.023848594413690007,1.2125210057309521,0.7334309564198884,1.5900689363479614,1.8323850631713867,-1.309870719909668,-0.04786646366119385,0.6035264730453491,0.413987398147583,-0.22078797188869734,2.1138702563328455,3.000427773331812,0.8353420495986938,0.21899853646755219,0.5042256712913513, 164, 122, 0, 141
1731649822434,9i,8.72908412623103,1.4s : 0.2s,-0.4628118946256592,0.036468868273332684,1.5175695160749632,0.8879168184865728,2.0906107425689697,2.047748327255249,-1.5833836793899536,-0.0749465823173523,0.7093024253845215,0.5288377404212952,-0.24323852503974147,2.131669153649938,2.9923497378510753,0.8218642473220825,0.24084708094596863,0.5162672400474548, 164, 122, 0, 141
1731649822444,9i,8.72908412623103,1.4s : 0.2s,-0.4628118946256592,0.052766506021234304,1.8397591654406447,1.0759984380510637,2.6311519145965576,2.1609878540039062,-1.8544024229049683,-0.1380213499069214,0.8812153339385986,0.6018158197402954,-0.2708418088167604,2.1500649887939103,2.981337725141131,0.8063563108444214,0.26754266023635864,0.5274567604064941, 164, 122, 0, 141
1731649822454,9i,8.72908412623103,1.4s : 0.2s,-0.4628118946256592,0.07274934328515413,2.1759225453289446,1.2560709225113453,3.160161256790161,2.3126213550567627,-2.0689127445220947,-0.26894235610961914,1.0353567600250244,0.6583468317985535,-0.3031742990616687,2.1684699604342557,2.967829971057381,0.7889465689659119,0.2985512316226959,0.5370572805404663, 164, 122, 0, 141
1731649822464,9i,8.72908412623103,1.4s : 0.2s,-0.4628118946256592,0.09634092775831118,2.5793428084839385,1.4290719568751002,3.9904046058654785,2.5002083778381348,-2.3758015632629395,-0.4601617455482483,1.1053410768508911,0.7802044153213501,-0.34187746958209464,2.18689223411174,2.95015948989597,0.7689080834388733,0.3352564871311188,0.5444111227989197, 164, 122, 0, 141
1731649822474,9i,8.72908412623103,1.4s : 0.2s,-0.4628118946256592,0.12322284835036904,2.965610570606197,1.5739140155886264,4.346512794494629,2.7428712844848633,-2.6273820400238037,-0.6634656190872192,1.1196743249893188,0.8850695490837097,-0.3868343688094163,2.205676022880379,2.929453080342307,0.7456494569778442,0.3772585988044739,0.5492567420005798, 164, 122, 0, 141
1731649822484,9i,8.72908412623103,1.4s : 0.2s,-0.4628118946256592,0.1540028016126847,3.3885525255742306,1.8209683020073235,4.940082550048828,3.1221230030059814,-2.901454210281372,-0.8419146537780762,1.2874252796173096,0.9744954705238342,-0.4365947721412784,2.2259960483503574,2.9071661331283716,0.7185474038124084,0.4228561222553253,0.5521618127822876, 164, 122, 0, 141
1731649822494,9i,8.72908412623103,1.4s : 0.2s,-0.4628118946256592,0.1888479322225215,3.7242552222204592,2.0156000468068647,4.707242488861084,3.4979026317596436,-3.288198471069336,-0.9576810002326965,1.4350379705429077,1.0421884059906006,-0.49090668130056986,2.2497077708067836,2.885745918749584,0.6863492131233215,0.4714256823062897,0.553789496421814, 164, 122, 0, 141
1731649822504,9i,8.72908412623103,1.4s : 0.2s,-0.4628118946256592,0.2273711008342561,4.035563612539715,2.1354995901423615,4.7030558586120605,3.8685038089752197,-3.6776890754699707,-1.0431272983551025,1.547950267791748,1.0373494625091553,-0.547490917194126,2.2787414184403794,2.870059282866679,0.6486571431159973,0.520546555519104,0.5552257895469666, 164, 122, 0, 141
1731649822514,9i,8.72908412623103,1.4s : 0.2s,-0.4628118946256592,0.269331289705084,4.380424562966694,2.253425254099083,4.981081008911133,4.227413177490234,-4.15702486038208,-1.0437983274459839,1.7224633693695068,1.0107078552246094,-0.6088872361408317,2.3123780101055056,2.8575558425096848,0.6048793196678162,0.5719550251960754,0.5540658831596375, 164, 122, 0, 141
1731649822524,9i,8.72908412623103,1.4s : 0.2s,-0.4628118946256592,0.31334110885697153,4.704028563823146,2.1900554517692417,4.9693450927734375,4.448147773742676,-4.708179950714111,-0.9543262720108032,1.700136423110962,0.9975672364234924,-0.6752851285682696,2.3517255639341337,2.8506337036018916,0.554378092288971,0.6251198649406433,0.5494451522827148, 164, 122, 0, 141
1731649822534,9i,8.72908412623103,1.4s : 0.2s,-0.4628118946256592,0.35867821548161294,5.0020743598126876,2.166977436077415,5.026712894439697,4.54274320602417,-5.164223670959473,-0.8153307437896729,1.7230721712112427,1.0305577516555786,-0.745398314702763,2.3976260790734125,2.851944744213114,0.49762746691703796,0.6782645583152771,0.5406704545021057, 164, 122, 0, 141
1731649822544,9i,8.72908412623103,1.4s : 0.2s,-0.4628118946256592,0.40517923935113304,5.267569397563172,2.2154612576817767,5.1273603439331055,4.531669616699219,-5.527675151824951,-0.6058390140533447,1.8053078651428223,1.1322946548461914,-0.8186584697006518,2.4498030746330834,2.861713706431509,0.43582552671432495,0.7302299737930298,0.5261374711990356, 164, 122, 0, 141
1731649822554,9i,8.72908412623103,1.4s : 0.2s,-0.4628118946256592,0.45282458014089244,5.524426526900078,2.3068695877206347,5.190077781677246,4.573091983795166,-5.99283504486084,-0.37274131178855896,1.8862736225128174,1.2746305465698242,-0.8945949363296727,2.5111290982703465,2.8826280757619944,0.3689418435096741,0.7799556255340576,0.5055209994316101, 164, 122, 0, 141
1731649822564,9i,8.72908412623103,1.4s : 0.2s,-0.4628118946256592,0.5020167406300406,5.795309359750443,2.463439328533879,5.350483417510986,4.648387908935547,-6.479414939880371,-0.19507655501365662,2.0257999897003174,1.3880248069763184,-0.9727710646646216,2.5875289235471755,2.92041328095693,0.29622700810432434,0.8264490365982056,0.4787812829017639, 164, 122, 0, 141
1731649822574,9i,8.72908412623103,1.4s : 0.2s,-0.4628118946256592,0.5526702701851792,6.07648955036592,2.5557543854081612,5.573749542236328,4.671543598175049,-6.943443298339844,-0.036195024847984314,2.148662805557251,1.3834083080291748,-1.0530991427186809,2.6858298254001682,2.9812826197487676,0.21782033145427704,0.8689610958099365,0.4443657398223877, 164, 122, 0, 141
1731649822584,9i,8.72908412623103,1.4s : 0.2s,-0.4628118946256592,0.6042856163316297,6.360947336052273,2.5964030944257863,5.823573112487793,4.691143035888672,-7.350785732269287,0.17095501720905304,2.206697940826416,1.3574120998382568,-1.13277245723258,2.8185882158478233,3.078111901235533,0.13463270664215088,0.905591607093811,0.4022163152694702, 164, 122, 0, 141
1731649822594,9i,8.72908412623103,1.4s : 0.2s,-0.4628118946256592,0.6568533344084119,6.639275847161127,2.7035373373702316,5.977079391479492,4.6451263427734375,-7.817620754241943,0.4073207974433899,2.248800754547119,1.4443334341049194,-1.2076325876600789,3.008002303011926,-3.050202669067896,0.04731477424502373,0.9347776174545288,0.35206863284111023, 164, 122, 0, 141
1731649822604,9i,8.72908412623103,1.4s : 0.2s,-0.4628118946256592,0.7104699590953216,6.900111188679152,2.830305185576474,6.0268473625183105,4.531164169311523,-8.303181648254395,0.6463576555252075,2.2443854808807373,1.5986191034317017,-1.2674593621328112,-2.9949349028203534,-2.802291362668462,-0.04365081712603569,0.9543450474739075,0.2955003082752228, 164, 122, 0, 141
1731649822614,9i,8.72908412623103,1.4s : 0.2s,-0.4628118946256592,0.7651823322381298,7.122529661858097,2.9539639028339555,6.038847923278809,4.335647106170654,-8.665200233459473,0.8879246115684509,2.2778310775756836,1.6580042839050293,-1.296672724211526,-2.611826068880497,-2.4493266848040043,-0.1367955356836319,0.9626628160476685,0.233597531914711, 164, 122, 0, 141
1731649822624,9i,8.72908412623103,1.4s : 0.2s,-0.4628118946256592,0.8210387963155772,7.280173735333907,3.079777738113736,6.066364765167236,4.006184101104736,-8.817371368408203,1.138258934020996,2.3576483726501465,1.622002363204956,-1.282599706377717,-2.2033562161183458,-2.067890087318235,-0.22923186421394348,0.9587579965591431,0.16803677380084991, 164, 122, 0, 141
1731649822634,9i,8.72908412623103,1.4s : 0.2s,-0.4628118946256592,0.8781837969561599,7.398235291953838,3.2123170835678083,6.2353339195251465,3.5789241790771484,-8.940420150756836,1.373692274093628,2.446028232574463,1.5648950338363647,-1.2305090670129775,-1.8723317576391123,-1.7597511718260637,-0.31869974732398987,0.9426588416099548,0.09912180155515671, 164, 122, 0, 141
1731649822644,9i,8.72908412623103,1.4s : 0.2s,-0.4628118946256592,0.9363896991951832,7.489360983258319,3.2544209257177172,6.330015659332275,3.2595791816711426,-9.048871040344238,1.5325058698654175,2.422435760498047,1.540936827659607,-1.1534632376594816,-1.6412965712440886,-1.5480252373951988,-0.40431684255599976,0.9141731262207031,0.028551753610372543, 164, 122, 0, 141
1731649822654,9i,8.72908412623103,1.4s : 0.2s,-0.4628118946256592,0.9956699688260179,7.572152660775478,3.2762406105447055,6.463138580322266,2.9769160747528076,-9.169692039489746,1.6122621297836304,2.3323960304260254,1.6414299011230469,-1.0617319548626605,-1.4835607277004048,-1.4064849850776906,-0.4855075180530548,0.8732008934020996,-0.04246130213141441, 164, 122, 0, 141
1731649822664,9i,8.72908412623103,1.4s : 0.2s,-0.4628118946256592,1.0558507681422324,7.612202913618133,3.2934227557293547,6.429704666137695,2.712249755859375,-9.156394958496094,1.703094244003296,2.223651647567749,1.732477068901062,-0.9618444121561672,-1.373923577052755,-1.3105145792106088,-0.560958743095398,0.820248007774353,-0.11188677698373795, 164, 122, 0, 141
1731649822674,9i,8.72908412623103,1.4s : 0.2s,-0.4628118946256592,1.1170117232541112,7.637181388611791,3.3777786416630593,6.712184906005859,2.334756851196289,-9.046530723571777,1.8588676452636719,2.16623592376709,1.8059406280517578,-0.8581683003656791,-1.2938900689147146,-1.2411017584358957,-0.6289177536964417,0.7566462159156799,-0.17874328792095184, 164, 122, 0, 141
1731649822684,9i,8.72908412623103,1.4s : 0.2s,-0.4628118946256592,1.1792122863674395,7.58554194474673,3.4881603840163975,6.685509204864502,1.6760270595550537,-8.805587768554688,2.062497615814209,2.1282894611358643,1.8394973278045654,-0.7528094123408945,-1.2353647957536225,-1.1876346375911477,-0.6890997290611267,0.683691680431366,-0.24022363126277924, 164, 122, 0, 141
1731649822694,9i,8.72908412623103,1.4s : 0.2s,-0.4628118946256592,1.2420882985663848,7.479453961952304,3.5404380992424382,6.793262004852295,0.9873021841049194,-8.420364379882812,2.2722084522247314,2.1161434650421143,1.7010900974273682,-0.6487915548135385,-1.1940904400473529,-1.1439450784136977,-0.740943193435669,0.6042239665985107,-0.2931157052516937, 164, 122, 0, 141
1731649822704,9i,8.72908412623103,1.4s : 0.2s,-0.4628118946256592,1.305000373901414,7.329851650629999,3.511492580098199,6.643501281738281,0.3944375514984131,-8.119004249572754,2.401277780532837,2.026085376739502,1.568254828453064,-0.5468823304465165,-1.166341849930882,-1.106333005491254,-0.7852348685264587,0.5200268030166626,-0.3361228406429291, 164, 122, 0, 141
1731649822714,9i,8.72908412623103,1.4s : 0.2s,-0.4628118946256592,1.3667203731581774,7.124495418271726,3.310929631176042,6.190526485443115,-0.07002574950456619,-7.839340686798096,2.366227626800537,1.7663778066635132,1.4977086782455444,-0.4481157896842147,-1.1501411165564923,-1.0753147443314344,-0.8226942420005798,0.43326812982559204,-0.36803939938545227, 164, 122, 0, 141
1731649822724,9i,8.72908412623103,1.4s : 0.2s,-0.4628118946256592,1.4263746208015928,6.845872685205872,3.0960646550357427,5.469421863555908,-0.5003039240837097,-7.530561923980713,2.2795886993408203,1.5097116231918335,1.4525365829467773,-0.3541841402058312,-1.1437984221599073,-1.0514906115008076,-0.8537160754203796,0.3468252718448639,-0.38843438029289246, 164, 122, 0, 141
1731649822734,9i,8.72908412623103,1.4s : 0.2s,-0.4628118946256592,1.4832369358069837,6.491161244277778,2.9124733565529137,4.643108367919922,-0.8750734925270081,-7.114547252655029,2.2458043098449707,1.2859926223754883,1.336071491241455,-0.26668731201778983,-1.1456372786220879,-1.034585685326263,-0.8787696361541748,0.26353731751441956,-0.397884726524353, 164, 122, 0, 141
1731649822744,9i,8.72908412623103,1.4s : 0.2s,-0.4628118946256592,1.5369311337748226,6.091335187992512,2.761881040333613,3.9127862453460693,-1.1270461082458496,-6.644016742706299,2.2294559478759766,1.100757122039795,1.202433705329895,-0.18656278593227477,-1.153270914353285,-1.0231881463230603,-0.8982335329055786,0.1854824274778366,-0.39846333861351013, 164, 122, 0, 141
1731649822754,9i,8.72908412623103,1.4s : 0.2s,-0.4628118946256592,1.5872910364725894,5.674036647979691,2.6088193871790306,3.394209146499634,-1.288285493850708,-6.097712516784668,2.171015739440918,0.9031823873519897,1.1299959421157837,-0.11367911754491096,-1.1641302938057576,-1.0149454630980552,-0.9125166535377502,0.11343443393707275,-0.3929964303970337, 164, 122, 0, 141
1731649822764,9i,8.72908412623103,1.4s : 0.2s,-0.4628118946256592,1.6340509099243132,5.244166748723825,2.434288144768034,2.9412460327148438,-1.4249852895736694,-5.505012035369873,2.0688588619232178,0.6667057275772095,1.095940351486206,-0.047988538860195794,-1.1772228388178052,-1.008002214342342,-0.9224814176559448,0.04797012358903885,-0.3830496668815613, 164, 122, 0, 141
1731649822774,9i,8.72908412623103,1.4s : 0.2s,-0.4628118946256592,1.6771141849319053,4.7753374885911555,2.291686364715981,2.4075989723205566,-1.4384381771087646,-4.798491477966309,1.9587892293930054,0.41893935203552246,1.1133108139038086,0.009820899377049058,-1.1914624484254823,-1.002330503753504,-0.9288667440414429,-0.009820741601288319,-0.37028393149375916, 164, 122, 0, 141
1731649822784,9i,8.72908412623103,1.4s : 0.2s,-0.4628118946256592,1.7163206770660022,4.248078631179172,2.160633243397779,1.671850323677063,-1.3408122062683105,-4.045064926147461,1.857682466506958,0.18428373336791992,1.0878379344940186,0.05846257785117399,-1.2054940240676526,-0.9989305508243677,-0.9324201345443726,-0.058429282158613205,-0.3566213846206665, 164, 122, 0, 141
1731649822794,9i,8.72908412623103,1.4s : 0.2s,-0.4628118946256592,1.7514836271513423,3.665034002801045,2.0878677772421472,0.9870113134384155,-1.2145849466323853,-3.1689655780792236,1.7934746742248535,-0.08060677349567413,1.0659000873565674,0.09677510073842953,-1.2180560875817492,-0.9991249296998571,-0.9340386986732483,-0.09662411361932755,-0.3438541889190674, 164, 122, 0, 141
1731649822804,9i,8.72908412623103,1.4s : 0.2s,-0.4628118946256592,1.782257243354587,3.097590418234986,2.053598908130231,0.5683898329734802,-1.0972011089324951,-2.4546761512756348,1.7783010005950928,-0.35374993085861206,0.9642484188079834,0.12562998672883438,-1.2294287426105912,-1.0012807956950467,-0.9348713755607605,-0.12529978156089783,-0.33213767409324646, 164, 122, 0, 141
1731649822814,9i,8.72908412623103,1.4s : 0.2s,-0.4628118946256592,1.808152528282633,2.5398964266229798,2.0513664340777757,0.014797477051615715,-0.841298520565033,-1.8213108777999878,1.8141822814941406,-0.610790491104126,0.7374156713485718,0.14677019163212868,-1.2387558556929166,-1.0051585052000487,-0.9352149963378906,-0.14624381065368652,-0.3224680423736572, 164, 122, 0, 141
1731649822824,9i,8.72908412623103,1.4s : 0.2s,-0.4628118946256592,1.8329565236373284,1.9648547713472289,2.0979051179626964,-0.8222345113754272,-0.40644797682762146,-1.145760178565979,1.8526108264923096,-0.8049205541610718,0.5666938424110413,0.1596390934688456,-1.2436801987203623,-1.0133495998232556,-0.9349319934844971,-0.15896189212799072,-0.31722787022590637, 164, 122, 0, 141
1731649822834,9i,8.72908412623103,1.4s : 0.2s,-0.4628118946256592,1.854042890428558,1.43211754241218,2.2050855507318894,-1.206200361251831,-0.08103073388338089,-0.4497917890548706,1.9474204778671265,-0.8330725431442261,0.6131442785263062,0.1636128852144944,-1.2437351276246993,-1.026076836353444,-0.9343437552452087,-0.16288389265537262,-0.3169710338115692, 164, 122, 0, 141
1731649822844,9i,8.72908412623103,1.4s : 0.2s,-0.4628118946256592,1.8740440621403858,1.0050053054725772,2.397435653205255,-1.2651846408843994,0.12350989133119583,0.05333351343870163,2.1149888038635254,-0.8218896985054016,0.773962140083313,0.16138442911792983,-1.2414034418103554,-1.038308086931712,-0.9339433312416077,-0.16068479418754578,-0.3192653954029083, 164, 122, 0, 141
1731649822854,9i,8.72908412623103,1.4s : 0.2s,-0.4628118946256592,1.8943464901182627,0.6832182966871674,2.6293557979036035,-1.1692432165145874,0.346778929233551,0.5288451910018921,2.2995784282684326,-0.9044837951660156,0.8985321521759033,0.15458763545744622,-1.23736704823489,-1.049098840324011,-0.9336574077606201,-0.15397267043590546,-0.32338252663612366, 164, 122, 0, 141
1731649822864,9i,8.72908412623103,1.4s : 0.2s,-0.4628118946256592,1.9164164292273131,0.6068104921141626,2.8296000437795774,-1.3989615440368652,-0.24221643805503845,0.7981616258621216,2.4832119941711426,-0.8970873951911926,1.0176093578338623,0.14418317060539224,-1.2327678172554415,-1.0578695410905754,-0.9336211085319519,-0.14368411898612976,-0.3281867206096649, 164, 122, 0, 141
1731649822874,9i,8.72908412623103,1.4s : 0.2s,-0.4628118946256592,1.941341451349515,0.6101090825960173,3.040800692473598,-1.017043948173523,0.7730596661567688,1.5493190288543701,2.6317968368530273,-0.9312970638275146,1.2053215503692627,0.1288122928747497,-1.226164000168944,-1.065850164406819,-0.9334020614624023,-0.12845636904239655,-0.33505162596702576, 164, 122, 0, 141
1731649822883,9i,8.72908412623103,1.4s : 0.2s,-0.4628118946256592,1.9681527766261044,0.9139380456752499,3.0802276825689003,-1.259389042854309,1.2401280403137207,2.222480297088623,2.741881847381592,-0.9842787981033325,1.0005407333374023,0.10746542288560411,-1.215613658705603,-1.0698581364792576,-0.9321742653846741,-0.10725869238376617,-0.3457554876804352, 164, 122, 0, 141
1731649822893,9i,8.72908412623103,1.4s : 0.2s,-0.4628118946256592,1.9967835917639694,1.3297329832085827,3.115517187061052,-1.176833987236023,1.5750607252120972,3.044764518737793,2.837782144546509,-0.9523046612739563,0.8640345335006714,0.07844599662782778,-1.2013804929912573,-1.0718784428562809,-0.9296706318855286,-0.07836556434631348,-0.3599603474140167, 164, 122, 0, 141
1731649822903,9i,8.72908412623103,1.4s : 0.2s,-0.4628118946256592,2.0276606887872086,1.8069082973928983,3.146013501707031,-1.3112812042236328,2.065781593322754,3.6883747577667236,2.8556838035583496,-0.9374591112136841,0.9293230772018433,0.04271746667137225,-1.1833575413608364,-1.070684256082795,-0.9250351190567017,-0.04270447790622711,-0.3774736225605011, 164, 122, 0, 141
1731649822913,9i,8.72908412623103,1.4s : 0.2s,-0.4628118946256592,2.059119883836756,2.3272708557743997,3.2142315599293756,-1.4157629013061523,2.637097120285034,4.394950866699219,2.849335193634033,-1.2300602197647095,0.8363763093948364,0.00027129243545357534,-1.1599394531979927,-1.067667455166323,-0.9167790412902832,-0.0002712924324441701,-0.39939507842063904, 164, 122, 0, 141
1731649822923,9i,8.72908412623103,1.4s : 0.2s,-0.4628118946256592,2.090749893427004,2.8642997628406324,3.2676077215656605,-1.3045191764831543,3.1321887969970703,5.157106876373291,2.857518434524536,-1.387485146522522,0.765985369682312,-0.04880512991102952,-1.130872680102513,-1.0603602610898903,-0.9037067890167236,0.04878575727343559,-0.4253632724285126, 164, 122, 0, 141
1731649822933,9i,8.72908412623103,1.4s : 0.2s,-0.4628118946256592,2.1229735611081217,3.434351537135479,3.3182067951126304,-1.3415979146957397,3.60785174369812,5.9934000968933105,2.908003330230713,-1.4291162490844727,0.7152899503707886,-0.1044157727048642,-1.0961871866530764,-1.0475610284413093,-0.8846270442008972,0.10422614216804504,-0.4545018970966339, 164, 122, 0, 141
1731649822943,9i,8.72908412623103,1.4s : 0.2s,-0.4628118946256592,2.1574116804651844,4.0433642325001715,3.4223564798439337,-1.4573941230773926,4.125949382781982,6.881634712219238,3.0170462131500244,-1.374786138534546,0.8484804630279541,-0.16756125527987778,-1.0550257255319957,-1.0289426937985757,-0.8577293157577515,0.16677825152873993,-0.48629772663116455, 164, 122, 0, 141
1731649822953,9i,8.72908412623103,1.4s : 0.2s,-0.4628118946256592,2.1958388143124923,4.707650490515904,3.6455507169567505,-2.015296697616577,4.7025604248046875,7.795987129211426,3.224303722381592,-1.3347275257110596,1.0547075271606445,-0.23905161048402457,-1.006296177093305,-1.0055530076698616,-0.8208308815956116,0.2367813140153885,-0.5197799205780029, 164, 122, 0, 141
1731649822963,9i,8.72908412623103,1.4s : 0.2s,-0.4628118946256592,2.2401051246795585,5.490486405897087,3.9825901155441534,-2.667616605758667,5.421555995941162,9.078919410705566,3.5304949283599854,-1.3003358840942383,1.3060460090637207,-0.3217265799735989,-0.9477279377852994,-0.9770699670865882,-0.7704240679740906,0.3162050247192383,-0.5535893440246582, 164, 122, 0, 141
1731649822973,9i,8.72908412623103,1.4s : 0.2s,-0.4628118946256592,2.2925065270549663,6.347858839749164,4.461298704766008,-3.1136255264282227,5.713255405426025,10.613530158996582,3.9765191078186035,-1.2257660627365112,1.608719825744629,-0.4171410666709394,-0.8773924132860242,-0.9373395710453574,-0.7031274437904358,0.40514832735061646,-0.5843514800071716, 164, 122, 0, 141
1731649822983,9i,8.72908412623103,1.4s : 0.2s,-0.4628118946256592,2.355000683265722,7.196665527880287,5.125839903520462,-3.2746357917785645,5.472348690032959,12.140253067016602,4.635306358337402,-1.2378449440002441,1.804413914680481,-0.5228836487881805,-0.7947183743060101,-0.8788163091950876,-0.6183082461357117,0.49938055872917175,-0.6068888306617737, 164, 122, 0, 141
1731649822993,9i,8.72908412623103,1.4s : 0.2s,-0.4628118946256592,2.4287162035817347,8.115560759291832,5.88628348767768,-4.101419448852539,5.559440612792969,13.690994262695312,5.459695816040039,-1.3296246528625488,1.752755880355835,-0.6365892455132611,-0.6937341397713519,-0.794847013118025,-0.5141696929931641,0.5944561958312988,-0.61826491355896, 164, 122, 0, 141
1731649823003,9i,8.72908412623103,1.4s : 0.2s,-0.4628118946256592,2.5141327738415864,9.209906657630341,6.5898712670894195,-6.217442989349365,6.036983489990234,15.339262008666992,6.30035400390625,-1.290172815322876,1.4378445148468018,-0.763027476192147,-0.5622406315726355,-0.6810900736852169,-0.3852843642234802,0.6911126971244812,-0.6114894151687622, 164, 122, 0, 141
1731649823013,9i,8.72908412623103,1.4s : 0.2s,-0.4628118946256592,2.61336392032425,10.430703542153418,7.225791228683851,-9.038228988647461,6.059401512145996,16.785411834716797,7.075725555419922,-0.7252795696258545,1.27284574508667,-0.9040314138716248,-0.38133279165121314,-0.5199897265940605,-0.2301599383354187,0.7858265042304993,-0.5740236639976501, 164, 122, 0, 141
1731649823023,9i,8.72908412623103,1.4s : 0.2s,-0.4628118946256592,2.7310753871990134,11.653616357404001,8.118878793545171,-11.982891082763672,5.223987102508545,17.686498641967773,7.964676380157471,0.29587364196777344,1.546797275543213,-1.0486883980684454,-0.11354423206769315,-0.2668334873563583,-0.05650387704372406,0.8667698502540588,-0.4954971671104431, 164, 122, 0, 141
1731649823033,9i,8.72908412623103,1.4s : 0.2s,-0.4628118946256592,2.874285652960721,12.830049270615508,9.559435068349623,-16.421632766723633,3.311321973800659,17.274377822875977,9.110970497131348,1.63813316822052,2.385274648666382,-1.1738106599298705,0.31662003826920915,0.16246471639108756,0.12038294225931168,0.9222306609153748,-0.3674216866493225, 164, 122, 0, 141
1731649823043,9i,8.72908412623103,1.4s : 0.2s,-0.4628118946256592,3.048066651445793,13.725791916527367,11.129544028896687,-19.650875091552734,0.4880681335926056,15.222371101379395,10.045090675354004,3.1785507202148438,3.586045026779175,-1.2244537797118125,0.9597241624367531,0.8285390660515817,0.27802902460098267,0.9406205415725708,-0.19476376473903656, 164, 122, 0, 141
1731649823053,9i,8.72908412623103,1.4s : 0.2s,-0.4628118946256592,3.2507986972288045,14.68122242983864,12.191453470918507,-22.22806739807129,-2.575403928756714,14.319497108459473,10.423442840576172,4.539071559906006,4.4022955894470215,-1.1451151718543782,1.5578689190543031,1.4828219273024463,0.41290661692619324,0.9107576608657837,-0.005338109564036131, 164, 122, 0, 141
1731649823063,9i,8.72908412623103,1.4s : 0.2s,-0.4628118946256592,3.4858912758311766,15.601434284566158,14.240577168711194,-24.745288848876953,-5.837394714355469,11.90234088897705,11.166313171386719,7.037656307220459,5.345921993255615,-0.9693648140431614,1.8980773104962694,1.9202063749258347,0.5357895493507385,0.8245264887809753,0.18189501762390137, 164, 122, 0, 141
1731649823073,9i,8.72908412623103,1.4s : 0.2s,-0.4628118946256592,3.754194512593441,16.614121043349506,16.60592095203229,-27.841249465942383,-9.168587684631348,7.936248302459717,10.64821720123291,10.558039665222168,7.134415149688721,-0.7804758986228805,2.06300312148159,2.2290088810142805,0.6262275576591492,0.7036176919937134,0.33579957485198975, 164, 122, 0, 141
1731649823083,9i,8.72908412623103,1.4s : 0.2s,-0.4628118946256592,4.021271284279398,18.61502140302634,13.561033970631343,-35.596580505371094,-8.86613655090332,3.3449885845184326,5.843039512634277,8.93931770324707,8.357579231262207,-0.560415014813229,2.1639946772754337,2.534300800366967,0.7023248672485352,0.5315377712249756,0.4735058546066284, 164, 122, 0, 141
1731649823093,9i,8.72908412623103,1.4s : 0.2s,-0.4628118946256592,4.265411577412992,19.16368151854505,11.787150094002083,-31.77722930908203,-9.873162269592285,-6.591796875,2.1360654830932617,3.332153558731079,11.102742195129395,-0.37047722548978174,2.22005755819188,2.861774093600387,0.742489755153656,0.3620603084564209,0.5635789632797241, 164, 122, 0, 141
1731649823103,9i,8.72908412623103,1.4s : 0.2s,-0.4628118946256592,4.494564647145541,18.905695849251867,13.981992243600887,-24.786489486694336,-15.023988723754883,-4.624802589416504,1.9208812713623047,-0.5178182125091553,13.83973217010498,-0.2553402673262188,2.178223130582394,3.1350372246767066,0.7944965362548828,0.2525746524333954,0.5522509813308716, 164, 122, 0, 141
1731649823113,9i,8.72908412623103,1.4s : 0.2s,-0.4628118946256592,4.733257941691736,17.945817977630043,14.179247997274558,-20.082677841186523,-13.367206573486328,-7.190628528594971,4.308618068695068,2.6145591735839844,13.253337860107422,-0.18320168571628057,2.0787780205065056,-2.924008195542746,0.859106719493866,0.18217860162258148,0.4782749116420746, 164, 122, 0, 141
1731649823123,9i,8.72908412623103,1.4s : 0.2s,-0.4628118946256592,4.973880315958623,16.946294369583363,11.792989084256421,-17.22262954711914,-12.345680236816406,-11.189566612243652,4.686110496520996,6.037429332733154,8.98133659362793,-0.1871413061618704,1.9946388665847936,-2.7083541328487053,0.8956005573272705,0.1860508769750595,0.4040854275226593, 164, 122, 0, 141
1731649823133,9i,8.72908412623103,1.4s : 0.2s,-0.4628118946256592,5.174101118264984,15.40300269239829,5.791759247874647,-9.975920677185059,-12.379010200500488,-14.05057144165039,0.8486358523368835,2.841521978378296,4.974941730499268,-0.2598417688362302,1.913837564116446,-2.52720867561095,0.9101228713989258,0.25692763924598694,0.3250616192817688, 164, 122, 0, 141
1731649823143,9i,8.72908412623103,1.4s : 0.2s,-0.4628118946256592,5.349983197393889,13.813839265733932,5.474406768842312,-3.715296745300293,-12.300657272338867,-14.789920806884766,2.584310293197632,1.7650760412216187,4.491656303405762,-0.38023541546096434,1.8256494837134187,-2.4155293559904036,0.8985845446586609,0.3711390793323517,0.234097421169281, 164, 122, 0, 141
1731649823153,9i,8.72908412623103,1.4s : 0.2s,-0.4628118946256592,5.514237126818674,12.651247548573844,6.119390260129589,-1.8318672180175781,-11.113109588623047,-13.80626106262207,4.289708137512207,1.24413001537323,4.182999134063721,-0.5156300471447992,1.7330070762853678,-2.355013342742404,0.8585618138313293,0.49308308959007263,0.1405024379491806, 164, 122, 0, 141
1731649823163,9i,8.72908412623103,1.4s : 0.2s,-0.4628118946256592,5.670838957779247,11.922998542713252,6.492544146479391,-2.209434747695923,-9.928109169006348,-13.17678451538086,4.201660633087158,0.467812180519104,4.927507400512695,-0.6450442622596407,1.6518861300103374,-2.31232446094743,0.7964474558830261,0.6012337803840637,0.06472569704055786, 164, 122, 0, 141
1731649823173,9i,8.72908412623103,1.4s : 0.2s,-0.4628118946256592,5.829370849248619,11.415409585548263,8.3834348366012,-2.713308095932007,-8.120183944702148,-13.539300918579102,5.437628746032715,-1.299180030822754,6.247103691101074,-0.77798323973968,1.5889796023957492,-2.2707401066176858,0.7122127413749695,0.7018442749977112,0.012951788492500782, 164, 122, 0, 141
1731649823183,9i,8.72908412623103,1.4s : 0.2s,-0.4628118946256592,5.985602019606937,10.710070646783212,8.758155080829741,-0.1587066650390625,-6.172673225402832,-13.235451698303223,4.896725654602051,-2.789914131164551,6.704009056091309,-0.9115155344206167,1.5342463621357505,-2.248368369135696,0.6121396422386169,0.7904329895973206,-0.02238365076482296, 164, 122, 0, 141
1731649823193,9i,8.72908412623103,1.4s : 0.2s,-0.4628118946256592,6.129180693251527,9.817751835099266,7.068882819375444,2.9050869941711426,-5.030988693237305,-11.634810447692871,3.3714945316314697,-2.7170186042785645,5.587480545043945,-1.0345099654598537,1.4433182423202027,-2.2911571014364354,0.506801426410675,0.8596121072769165,-0.06495833396911621, 164, 122, 0, 141
1731649823203,9i,8.72908412623103,1.4s : 0.2s,-0.4628118946256592,6.260586372067226,9.143903224518711,6.865880553771271,5.977120399475098,-4.748130798339844,-10.813980102539062,2.4319334030151367,-2.836118459701538,5.760420799255371,-1.129939477591248,1.2670269068005604,-2.43308803944217,0.40717801451683044,0.9043863415718079,-0.127638578414917, 164, 122, 0, 141
1731649823213,9i,8.72908412623103,1.4s : 0.2s,-0.4628118946256592,6.384180980824851,8.899323808637794,8.134529435987226,8.027873039245605,-6.293351173400879,-9.754016876220703,2.1468019485473633,-4.137627601623535,6.6664719581604,-1.1857521050809092,0.9653694445635334,-2.696890366819261,0.30884066224098206,0.9267818331718445,-0.21375896036624908, 164, 122, 0, 141
1731649823223,9i,8.72908412623103,1.4s : 0.2s,-0.4628118946256592,6.49306163568638,8.751911246360205,7.824544600777517,9.202682495117188,-7.5950469970703125,-7.453883171081543,0.983165442943573,-5.0144853591918945,5.925522804260254,-1.1831506041472446,0.602654792642387,-3.0106517559225208,0.21426807343959808,0.9258015751838684,-0.31141749024391174, 164, 122, 0, 141
1731649823233,9i,8.72908412623103,1.4s : 0.2s,-0.4628118946256592,6.5813053046218215,8.476997788521066,7.176179939546598,9.361856460571289,-6.38836669921875,-5.920651435852051,-0.5943477153778076,-5.10058069229126,5.012822151184082,-1.1285043076555685,0.30432312713263054,3.0229455626945954,0.1282528042793274,0.9037730097770691,-0.40834516286849976, 164, 122, 0, 141
1731649823243,9i,8.72908412623103,1.4s : 0.2s,-0.4628118946256592,6.644767088059061,8.118634071420594,6.985483376760635,9.56727123260498,-5.250008583068848,-4.491442680358887,-2.186025381088257,-5.1870646476745605,4.136741638183594,-1.0464849933153937,0.11183140497607492,2.871194122057337,0.055868081748485565,0.8656688928604126,-0.4974898397922516, 164, 122, 0, 141
1731649823253,9i,8.72908412623103,1.4s : 0.2s,-0.4628118946256592,6.6818828455748305,7.842619889381107,6.399187643018629,9.871728897094727,-5.131904125213623,-3.14402174949646,-3.296804666519165,-4.667710304260254,2.8797850608825684,-0.9513145481864748,-0.005087999501068381,2.792605254646881,-0.0029541479889303446,0.8141794800758362,-0.5806058645248413, 164, 122, 0, 141
1731649823263,9i,8.72908412623103,1.4s : 0.2s,-0.4628118946256592,6.700260319006767,7.6338901936474395,4.790961355208534,8.871491432189941,-5.541086196899414,-3.211437225341797,-2.8507750034332275,-3.390693187713623,1.8247170448303223,-0.8558587517671985,-0.09278417750910374,2.7495925723860024,-0.060739316046237946,0.7551341652870178,-0.6527504920959473, 164, 122, 0, 141
1731649823273,9i,8.72908412623103,1.4s : 0.2s,-0.4628118946256592,6.708510374312799,7.279014418204196,3.273762717308712,7.2695112228393555,-5.4828410148620605,-3.293375015258789,-2.0667741298675537,-2.1747851371765137,1.3100674152374268,-0.7714208552549828,-0.17103680604727994,2.718344157431903,-0.12202287465333939,0.6971545815467834,-0.7064601182937622, 164, 122, 0, 141
1731649823283,9i,8.72908412623103,1.4s : 0.2s,-0.4628118946256592,6.711186798154113,6.874688901348525,2.6360040617287783,6.226860046386719,-5.734735012054443,-2.8389575481414795,-1.8333300352096558,-1.4459985494613647,1.2233178615570068,-0.6991725636665768,-0.24172049728481262,2.6949792910001444,-0.18321046233177185,0.6435846090316772,-0.7431237101554871, 164, 122, 0, 141
1731649823293,9i,8.72908412623103,1.4s : 0.2s,-0.4628118946256592,6.711751251807562,6.515613993423906,1.8357192063597805,5.318662643432617,-5.855746746063232,-3.2297303676605225,-1.3274643421173096,-0.7996132373809814,0.9840335845947266,-0.634431057438535,-0.31121968217265406,2.6708877270151477,-0.24663233757019043,0.5927193760871887,-0.7667178511619568, 164, 122, 0, 141
1731649823303,9i,8.72908412623103,1.4s : 0.2s,-0.4628118946256592,6.713884084899947,6.257751047284035,0.8413044662362043,5.151068687438965,-5.659650802612305,-3.6374003887176514,-0.49534904956817627,0.055776357650756836,0.6777252554893494,-0.5717647862876911,-0.37899422745823946,2.6463201695635763,-0.31113895773887634,0.5411170125007629,-0.7812713980674744, 164, 122, 0, 141
1731649823313,9i,8.72908412623103,1.4s : 0.2s,-0.4628118946256592,6.722069498752654,6.010385910126791,1.2157152705923127,5.337678909301758,-5.216315746307373,-3.148900032043457,0.17723599076271057,0.7160912156105042,0.9663148522377014,-0.5082885086451601,-0.439072264042097,2.633310361502526,-0.3713582456111908,0.48668283224105835,-0.7907167077064514, 164, 122, 0, 141
1731649823323,9i,8.72908412623103,1.4s : 0.2s,-0.4628118946256592,6.737299126538729,5.702900587392532,1.6216137901143879,4.97829532623291,-4.902507305145264,-2.5615732669830322,0.41972118616104126,0.8510724306106567,1.3149681091308594,-0.450054551578891,-0.49100171714469937,2.6307120063474194,-0.42455819249153137,0.43501466512680054,-0.7940482497215271, 164, 122, 0, 141
1731649823333,9i,8.72908412623103,1.4s : 0.2s,-0.4628118946256592,6.754153210632179,5.365546949898607,1.523529598978545,4.972829818725586,-4.090926170349121,-2.30663800239563,0.249728262424469,0.45722347497940063,1.4316860437393188,-0.39332449428578753,-0.5342063099180596,2.6350719960955726,-0.470278799533844,0.38326117396354675,-0.7949520349502563, 164, 122, 0, 141
1731649823343,9i,8.72908412623103,1.4s : 0.2s,-0.4628118946256592,6.770814337836247,4.744550816700192,1.3320472525771798,3.3361475467681885,-3.169052839279175,-1.721520185470581,-0.12011998891830444,-0.573359489440918,1.196319341659546,-0.3480115472499978,-0.5691046226680991,2.6394251230253594,-0.5065737366676331,0.34102922677993774,-0.7918851971626282, 164, 122, 0, 141
1731649823353,9i,8.72908412623103,1.4s : 0.2s,-0.4628118946256592,6.786224682381079,4.074707335655504,1.2971208922816735,2.506364583969116,-2.356611728668213,-1.4774303436279297,-0.1724516749382019,-0.7385956645011902,1.0522639751434326,-0.31468666014116786,-0.5952628468844853,2.64284877934987,-0.5331910252571106,0.3095185458660126,-0.7873408198356628, 164, 122, 0, 141
1731649823363,9i,8.72908412623103,1.4s : 0.2s,-0.4628118946256592,6.802136075335114,3.3895984476495524,1.2276479508047833,1.5638126134872437,-1.8285462856292725,-1.200631856918335,-0.02761763334274292,-0.46532970666885376,1.1357046365737915,-0.29075937085771625,-0.6159866108163561,2.643144981563653,-0.5535132884979248,0.28667980432510376,-0.7819448709487915, 164, 122, 0, 141
1731649823373,9i,8.72908412623103,1.4s : 0.2s,-0.4628118946256592,6.818062761788351,2.7625145113220535,1.1320722200408826,1.1169462203979492,-1.288762092590332,-0.9506747722625732,-0.07251149415969849,-0.34234824776649475,1.0766277313232422,-0.2736848877367292,-0.6319374444614336,2.6421876826156008,-0.5687238574028015,0.27028101682662964,-0.7768535017967224, 164, 122, 0, 141
1731649823383,9i,8.72908412623103,1.4s : 0.2s,-0.4628118946256592,6.83275168805987,2.1492383732905496,1.1909430886848769,0.6700589656829834,-0.5898082256317139,-0.627000093460083,-0.3448321223258972,-0.39781197905540466,1.0682611465454102,-0.2620054159599507,-0.6415757447873451,2.641041509176798,-0.5780346989631653,0.25901803374290466,-0.7738123536109924, 164, 122, 0, 141
1731649823393,9i,8.72908412623103,1.4s : 0.2s,-0.4628118946256592,6.845587749881388,1.6181718437871924,1.172933849456001,0.4211447834968567,-0.11495567858219147,-0.4999691843986511,-0.5041482448577881,-0.36434635519981384,0.9944144487380981,-0.2544583686420129,-0.6451714477978406,2.639959871115141,-0.5819723010063171,0.25172126293182373,-0.7732688784599304, 164, 122, 0, 141
1731649823403,9i,8.72908412623103,1.4s : 0.2s,-0.4628118946256592,6.857300405729271,1.176038425120341,0.916743339158451,0.06681860238313675,0.1738376021385193,-0.5524232387542725,-0.34929996728897095,-0.11045801639556885,0.8403611779212952,-0.24937188539425445,-0.6454705291890034,2.637128957733218,-0.5829662680625916,0.24679532647132874,-0.7741075158119202, 164, 122, 0, 141
1731649823413,9i,8.72908412623103,1.4s : 0.2s,-0.4628118946256592,6.868870836509786,0.8044763218013284,0.8264448300763134,-0.3450011610984802,0.37953829765319824,-0.5175382494926453,-0.19196105003356934,0.040602028369903564,0.8028159737586975,-0.24723305770762005,-0.6439276296046628,2.6318405371736877,-0.5820867419242859,0.24472209811210632,-0.77542644739151, 164, 122, 0, 141
1731649823423,9i,8.72908412623103,1.4s : 0.2s,-0.4628118946256592,6.880620519642072,0.5240888434490555,0.8604256206246751,-0.7742872834205627,0.44011980295181274,-0.4289553463459015,-0.17271077632904053,0.03600412607192993,0.842144250869751,-0.24898545681674505,-0.6416168294269317,2.6244422410077584,-0.5800358057022095,0.24642083048820496,-0.7764247059822083, 164, 122, 0, 141
1731649823432,9i,8.72908412623103,1.4s : 0.2s,-0.4628118946256592,6.8920068837953865,0.40485081649254606,0.8223305618306166,-1.132523775100708,0.5368814468383789,-0.3162221610546112,-0.20708811283111572,-0.05943530797958374,0.793605387210846,-0.25447965764032004,-0.6390357898560586,2.6154721437037893,-0.5772136449813843,0.25174185633659363,-0.776820719242096, 164, 122, 0, 141
1731649823442,9i,8.72908412623103,1.4s : 0.2s,-0.4628118946256592,6.90234378689502,0.5043904165484684,0.759543158352562,-1.4841234683990479,0.664582371711731,-0.1970813274383545,-0.26301777362823486,-0.13796815276145935,0.6990652680397034,-0.26352035191839035,-0.6356356434935713,2.605318626756322,-0.5731943845748901,0.26048097014427185,-0.7769156098365784, 164, 122, 0, 141
1731649823452,9i,8.72908412623103,1.4s : 0.2s,-0.4628118946256592,6.911093180447501,0.6879897160409283,0.6319647126804103,-1.6822184324264526,0.701346218585968,-0.11929012089967728,-0.27907794713974,-0.1497384011745453,0.5468759536743164,-0.2755415827674605,-0.6317006975383445,2.5942455750959965,-0.568242609500885,0.2720681428909302,-0.7765818238258362, 164, 122, 0, 141
1731649823462,9i,8.72908412623103,1.4s : 0.2s,-0.4628118946256592,6.917915134806428,0.846764740883853,0.4635213785006929,-1.6949918270111084,0.7192541360855103,-0.18201731145381927,-0.2328895926475525,-0.18230211734771729,0.35690397024154663,-0.28855425634180726,-0.6279026672318357,2.582545943729381,-0.5631614327430725,0.2845665514469147,-0.7758035063743591, 164, 122, 0, 141
1731649823472,9i,8.72908412623103,1.4s : 0.2s,-0.4628118946256592,6.922682850510769,0.9323146454846155,0.45762777078709005,-1.5115878582000732,0.771355390548706,-0.15535826981067657,-0.22103065252304077,-0.32160434126853943,0.23903822898864746,-0.3005343506052812,-0.6237847400513773,2.5712838849342745,-0.5579305291175842,0.2960306406021118,-0.7752931118011475, 164, 122, 0, 141
1731649823482,9i,8.72908412623103,1.4s : 0.2s,-0.4628118946256592,6.925430162590231,0.9985599635050116,0.5588577903793962,-1.5079647302627563,0.8543255925178528,-0.08480188995599747,-0.2798255681991577,-0.44558820128440857,0.1883370280265808,-0.31212764940442417,-0.6187102728282885,2.561140510343419,-0.5519614815711975,0.30708417296409607,-0.7752662897109985, 164, 122, 0, 141
1731649823492,9i,8.72908412623103,1.4s : 0.2s,-0.4628118946256592,6.926718494514979,1.0368502188518727,0.4563637893953178,-1.4709644317626953,0.8367897272109985,0.003288023406639695,-0.26217687129974365,-0.3406656086444855,0.15322577953338623,-0.3241570653237774,-0.6131420369023977,2.5516593512811654,-0.5454708337783813,0.31850987672805786,-0.7752503156661987, 164, 122, 0, 141
1731649823502,9i,8.72908412623103,1.4s : 0.2s,-0.4628118946256592,6.927696315999957,1.0358920469602846,0.24681491250113216,-1.3698618412017822,0.7098680138587952,0.07213323563337326,-0.13549768924713135,-0.1425023376941681,0.14916789531707764,-0.33614445455673914,-0.6081427650193595,2.5433933095269508,-0.5393680334091187,0.3298497796058655,-0.7747782468795776, 164, 122, 0, 141
1731649823512,9i,8.72908412623103,1.4s : 0.2s,-0.4628118946256592,6.929068483371823,1.0182423640528517,0.14823966324523413,-1.3026777505874634,0.6657151579856873,0.07343525439500809,-0.010295331478118896,-0.028472572565078735,0.14511483907699585,-0.3475292962693979,-0.6038217464601825,2.5360834856697663,-0.533848226070404,0.34057584404945374,-0.7739600539207458, 164, 122, 0, 141
1731649823522,9i,8.72908412623103,1.4s : 0.2s,-0.4628118946256592,6.93091419778472,0.9930222988757867,0.16364423644268258,-1.2194631099700928,0.6760217547416687,0.02905217558145523,0.0038387179374694824,0.035164862871170044,0.1597752571105957,-0.35839931640937267,-0.5996336613279695,2.5288193558098166,-0.528481662273407,0.35077571868896484,-0.7730870246887207, 164, 122, 0, 141
1731649823532,9i,8.72908412623103,1.4s : 0.2s,-0.4628118946256592,6.93318555170935,0.9581946859380275,0.20145155610146068,-1.123939871788025,0.6705018281936646,0.014705194160342216,-0.01989448070526123,0.050260961055755615,0.19406384229660034,-0.3681229905225047,-0.5953293237500558,2.522063745018166,-0.5232115983963013,0.3598648011684418,-0.7724940180778503, 164, 122, 0, 141
1731649823542,9i,8.72908412623103,1.4s : 0.2s,-0.4628118946256592,6.935738394433329,0.9413814952988075,0.20405804771074332,-1.1832636594772339,0.638399600982666,0.006681855767965317,0.0034238696098327637,0.027262985706329346,0.20219963788986206,-0.3778756001926715,-0.5913057532137816,2.515181396390929,-0.5181180834770203,0.36894679069519043,-0.7716423869132996, 164, 122, 0, 141
1731649823552,9i,8.72908412623103,1.4s : 0.2s,-0.4628118946256592,6.938447816310101,0.9252121833397821,0.2135067053364799,-1.1800631284713745,0.5980412364006042,0.021363597363233566,0.04456454515457153,0.1045888364315033,0.18072158098220825,-0.3878173524602341,-0.5877338392172408,2.5082440430131077,-0.513299286365509,0.3781687617301941,-0.7703974843025208, 164, 122, 0, 141
1731649823562,9i,8.72908412623103,1.4s : 0.2s,-0.4628118946256592,6.9416097034624,0.9240185157260425,0.2515013088751038,-1.2434589862823486,0.5595977306365967,0.03385262191295624,0.08575928211212158,0.18361982703208923,0.14893627166748047,-0.39813488662875185,-0.5846996721038832,2.5012561797560884,-0.5087786912918091,0.38769978284835815,-0.7686567306518555, 164, 122, 0, 141
1731649823572,9i,8.72908412623103,1.4s : 0.2s,-0.4628118946256592,6.945087971289549,0.9239243274690464,0.2634735568706844,-1.273400902748108,0.5320819616317749,0.025728918612003326,0.0912056565284729,0.21051651239395142,0.1295478343963623,-0.40890767176959714,-0.5821480226617682,2.494005558028228,-0.5044899582862854,0.39760729670524597,-0.7664191722869873, 164, 122, 0, 141
1731649823582,9i,8.72908412623103,1.4s : 0.2s,-0.4628118946256592,6.948535422732841,0.9325427036737493,0.2242547040176313,-1.3252006769180298,0.5218995213508606,0.020991219207644463,0.050004005432128906,0.18477392196655273,0.11682623624801636,-0.41997777520225005,-0.5799774918035406,2.48643552956271,-0.5003823637962341,0.40774014592170715,-0.7637836933135986, 164, 122, 0, 141
1731649823592,9i,8.72908412623103,1.4s : 0.2s,-0.4628118946256592,6.9517591181558585,0.92380265292607,0.16741916018579056,-1.2473721504211426,0.5098503232002258,0.019154170528054237,0.0103226900100708,0.14950165152549744,0.07464498281478882,-0.43104470060746675,-0.5779812179574318,2.478826043121649,-0.4963608682155609,0.41782018542289734,-0.7609547972679138, 164, 122, 0, 141
1731649823602,9i,8.72908412623103,1.4s : 0.2s,-0.4628118946256592,6.954790346162031,0.8809526238075167,0.16938450043232117,-1.0431976318359375,0.5164653658866882,0.02143610082566738,0.0025019943714141846,0.16467154026031494,0.03959965705871582,-0.4409061891585344,-0.5757582591689488,2.4721012522119006,-0.4924006760120392,0.42675915360450745,-0.7585632801055908, 164, 122, 0, 141
1731649823612,9i,8.72908412623103,1.4s : 0.2s,-0.4628118946256592,6.9575273599926435,0.8064421486280631,0.20378993154265018,-0.7838308811187744,0.5424697995185852,-0.01779678836464882,0.01241976022720337,0.20336535573005676,-0.004314839839935303,-0.4487014921046597,-0.5728466473107562,2.4666487537951274,-0.48837190866470337,0.4337959289550781,-0.7571750283241272, 164, 122, 0, 141
1731649823622,9i,8.72908412623103,1.4s : 0.2s,-0.4628118946256592,6.959635929949622,0.747000759522794,0.24427731148792262,-0.7171985507011414,0.57456374168396,-0.10840965062379837,0.01952451467514038,0.24199390411376953,-0.02700275182723999,-0.45461079027945767,-0.5694799291257545,2.4616634151535624,-0.484429270029068,0.43911266326904297,-0.7566428184509277, 164, 122, 0, 141
1731649823632,9i,8.72908412623103,1.4s : 0.2s,-0.4628118946256592,6.961496080378241,0.7259295113759042,0.2079945271878118,-0.830715000629425,0.5634998679161072,-0.16269151866436005,-0.0005727410316467285,0.20799025893211365,0.0012031197547912598,-0.4604525166006802,-0.5664106739327492,2.4556893991332553,-0.4807199537754059,0.44435355067253113,-0.7559486031532288, 164, 122, 0, 141
1731649823642,9i,8.72908412623103,1.4s : 0.2s,-0.4628118946256592,6.963031284764477,0.7248224550130661,0.13815122265190466,-0.9232469201087952,0.5155399441719055,-0.15925359725952148,-0.017579615116119385,0.13334602117538452,0.03155243396759033,-0.4671043404242722,-0.5640647904751313,2.448890737187044,-0.4773544669151306,0.45030272006988525,-0.7545596361160278, 164, 122, 0, 141
1731649823652,9i,8.72908412623103,1.4s : 0.2s,-0.4628118946256592,6.964284996940151,0.7237454979767116,0.08036720928617307,-0.9648058414459229,0.4428040087223053,-0.15036660432815552,0.004170089960098267,0.07884475588798523,0.015000104904174805,-0.4744115678359757,-0.5625941418113799,2.4417163969577493,-0.47447648644447327,0.45681509375572205,-0.7524573802947998, 164, 122, 0, 141
1731649823662,9i,8.72908412623103,1.4s : 0.2s,-0.4628118946256592,6.965341162406766,0.7086543125303572,0.09757544856274457,-0.9083570837974548,0.407153844833374,-0.17749696969985962,0.02104008197784424,0.09526503086090088,-0.0016902685165405273,-0.48159282504613776,-0.5616797812227495,2.4345737315562133,-0.47202882170677185,0.463191419839859,-0.750095009803772, 164, 122, 0, 141
1731649823672,9i,8.72908412623103,1.4s : 0.2s,-0.4628118946256592,6.966201616116517,0.6694744449400053,0.167854698736453,-0.7378063797950745,0.4038046598434448,-0.21372021734714508,0.007383584976196289,0.16686931252479553,-0.01659262180328369,-0.48777244793011926,-0.5609963856502395,2.4275681308508825,-0.4699842631816864,0.46865928173065186,-0.7479795217514038, 164, 122, 0, 141
1731649823682,9i,8.72908412623103,1.4s : 0.2s,-0.4628118946256592,6.9666805517431944,0.5984571043944549,0.21566935047324823,-0.4737347960472107,0.4068698585033417,-0.2364720106124878,-0.01618295907974243,0.20825526118278503,-0.05367612838745117,-0.49164097174329735,-0.5596067062866766,2.4218410138357,-0.4679783880710602,0.47207313776016235,-0.7470898032188416, 164, 122, 0, 141
1731649823692,9i,8.72908412623103,1.4s : 0.2s,-0.4628118946256592,6.966492278185162,0.5502025223855084,0.20523500152658428,-0.4785766899585724,0.37965795397758484,-0.2715682089328766,-0.011553049087524414,0.1622755527496338,-0.12511825561523438,-0.49434876783810416,-0.5581962151071501,2.4165690704995906,-0.4662453830242157,0.4744584858417511,-0.7466621398925781, 164, 122, 0, 141
1731649823702,9i,8.72908412623103,1.4s : 0.2s,-0.4628118946256592,6.9660325709938435,0.5627730782689911,0.18895027692267424,-0.744042694568634,0.3492721915245056,-0.3538849353790283,-0.0057475268840789795,0.1244862973690033,-0.14202934503555298,-0.4976375051101947,-0.5575166375697838,2.4102352814208383,-0.46490979194641113,0.4773509204387665,-0.7456507086753845, 164, 122, 0, 141
1731649823712,9i,8.72908412623103,1.4s : 0.2s,-0.4628118946256592,6.965470537313659,0.5939610193571477,0.14931161933498588,-0.8640969395637512,0.3348919153213501,-0.3871390223503113,-0.021556973457336426,0.11458876729011536,-0.09326666593551636,-0.5030223207034028,-0.5584914108171738,2.4013841849647,-0.4642675817012787,0.48207569122314453,-0.7430064678192139, 164, 122, 0, 141
1731649823722,9i,8.72908412623103,1.4s : 0.2s,-0.4628118946256592,6.964813018611885,0.6150232994389724,0.11705826290636455,-0.8110380172729492,0.3446221351623535,-0.47250863909721375,-0.05122935771942139,0.1004384458065033,-0.03146916627883911,-0.507667147045428,-0.5592838925202014,2.3923929149201313,-0.4636631906032562,0.4861399233341217,-0.7407323718070984, 164, 122, 0, 141
1731649823732,9i,8.72908412623103,1.4s : 0.2s,-0.4628118946256592,6.963838598588561,0.6669511989872285,0.09094124361489753,-0.997864842414856,0.35668304562568665,-0.5196002721786499,-0.07007333636283875,0.02927529811859131,-0.0500299334526062,-0.513223951163388,-0.5610504038037597,2.381730951628147,-0.4635264575481415,0.4909884035587311,-0.7376134395599365, 164, 122, 0, 141
1731649823742,9i,8.72908412623103,1.4s : 0.2s,-0.4628118946256592,6.962771115435291,0.6269246145060579,0.13367695807093974,-0.4855600893497467,0.36624035239219666,-0.5870448350906372,-0.09034353494644165,0.08097624778747559,-0.056128621101379395,-0.5165677675611566,-0.562543172990781,2.371834209446089,-0.46374884247779846,0.4938986599445343,-0.7355278134346008, 164, 122, 0, 141
1731649823752,9i,8.72908412623103,1.4s : 0.2s,-0.4628118946256592,6.961546966983013,0.6089124081931352,0.12664934343408527,-0.4498540163040161,0.36258143186569214,-0.6820701360702515,-0.08485192060470581,0.02428579330444336,-0.09083175659179688,-0.5169585250010179,-0.563220765768534,2.362931375231571,-0.4641440212726593,0.49423840641975403,-0.7350501418113708, 164, 122, 0, 141
1731649823762,9i,8.72908412623103,1.4s : 0.2s,-0.4628118946256592,6.9602540327520455,0.5892398884723784,0.13014927940639176,-0.34561243653297424,0.32126644253730774,-0.7195152044296265,-0.06321060657501221,0.08256915211677551,-0.07826614379882812,-0.5168241585585656,-0.5645073989430355,2.353503821338352,-0.4651249349117279,0.49412158131599426,-0.7345085144042969, 164, 122, 0, 141
1731649823772,9i,8.72908412623103,1.4s : 0.2s,-0.4628118946256592,6.959079095664931,0.5503710063004249,0.290919640195581,-0.07570186257362366,0.25275665521621704,-0.7491713762283325,-0.01548662781715393,0.27377578616142273,-0.09716594219207764,-0.5145454281651708,-0.5657784873717306,2.345190732751528,-0.4666605591773987,0.49213919043540955,-0.7348653078079224, 164, 122, 0, 141
1731649823782,9i,8.72908412623103,1.4s : 0.2s,-0.4628118946256592,6.957859591452271,0.5276535621541748,0.2820128990105341,-0.05212722718715668,0.3266313374042511,-0.6889459490776062,0.008158445358276367,0.24739983677864075,-0.13512229919433594,-0.5113681498274427,-0.5665212045341776,2.337766422501451,-0.4680430591106415,0.48937082290649414,-0.7358341217041016, 164, 122, 0, 141
1731649823792,9i,8.72908412623103,1.4s : 0.2s,-0.4628118946256592,6.95669114733455,0.5276995131919504,0.2196314766487935,-0.12991149723529816,0.3886084258556366,-0.6955913305282593,-0.025541752576828003,0.20788651704788208,-0.06609690189361572,-0.5083008409464731,-0.5663301743952137,2.3307401096867095,-0.4687056839466095,0.4866936206817627,-0.7371867895126343, 164, 122, 0, 141
1731649823802,9i,8.72908412623103,1.4s : 0.2s,-0.4628118946256592,6.955641673681733,0.5895165029792986,0.19236851182105547,-0.49802735447883606,0.4742160737514496,-0.8550689220428467,-0.06811070442199707,0.1792270541191101,0.015628159046173096,-0.5070476029326278,-0.5666151556063707,2.3213219999078993,-0.46924278140068054,0.48559844493865967,-0.7375672459602356, 164, 122, 0, 141
1731649823812,9i,8.72908412623103,1.4s : 0.2s,-0.4628118946256592,6.954822084483491,0.6658773716500876,0.22297516235520773,-0.6331545114517212,0.5276238918304443,-0.9573377370834351,-0.08981570601463318,0.1967105269432068,0.05436939001083374,-0.5069115280815152,-0.5676129088565685,2.309039602028158,-0.47001397609710693,0.485479474067688,-0.7371544241905212, 164, 122, 0, 141
1731649823822,9i,8.72908412623103,1.4s : 0.2s,-0.4628118946256592,6.954058688214336,0.7071536862900973,0.23881017848644814,-0.7014166116714478,0.448163241147995,-0.8759729266166687,-0.07828408479690552,0.22443684935569763,-0.023021817207336426,-0.5079053842594244,-0.5693069978697932,2.2957852271796497,-0.4710018038749695,0.48634812235832214,-0.7359503507614136, 164, 122, 0, 141
1731649823832,9i,8.72908412623103,1.4s : 0.2s,-0.4628118946256592,6.953153122555375,0.7080377964780893,0.25246575211938393,-0.527225911617279,0.3857763111591339,-0.845015823841095,-0.009750306606292725,0.22575470805168152,-0.11259973049163818,-0.5083181291017781,-0.57081175127833,2.2839352783392948,-0.4720001518726349,0.48670870065689087,-0.7350717782974243, 164, 122, 0, 141
1731649823842,9i,8.72908412623103,1.4s : 0.2s,-0.4628118946256592,6.951837284482084,0.7316642357508351,0.2518800721147126,-0.6876308917999268,0.3551276922225952,-0.8910128474235535,0.009343981742858887,0.15969860553741455,-0.19455748796463013,-0.5087907331065947,-0.5730872830910869,2.2718412607688867,-0.4735468626022339,0.4871215224266052,-0.7338024973869324, 164, 122, 0, 141
1731649823852,9i,8.72908412623103,1.4s : 0.2s,-0.4628118946256592,6.950288540723342,0.7966047299448937,0.23597795162777915,-0.9663546681404114,0.3139895796775818,-1.0146839618682861,-0.060781329870224,0.1240471601486206,-0.1913204789161682,-0.5106341469179606,-0.5765721932044802,2.2575019270226493,-0.4756108820438385,0.48873060941696167,-0.7313937544822693, 164, 122, 0, 141
1731649823862,9i,8.72908412623103,1.4s : 0.2s,-0.4628118946256592,6.947818863670958,0.8346050683462094,0.2857697180443673,-0.7992181181907654,0.42725592851638794,-1.035174012184143,-0.1262066662311554,0.15759706497192383,-0.20223593711853027,-0.5128090076422422,-0.5808253446321471,2.2418696710834047,-0.4781329035758972,0.49062687158584595,-0.7284739017486572, 164, 122, 0, 141
1731649823872,9i,8.72908412623103,1.4s : 0.2s,-0.4628118946256592,6.945240789628225,0.8387007265580589,0.23639452598281346,-0.42838379740715027,0.5689046382904053,-1.09038245677948,-0.12801599502563477,0.143614262342453,-0.13736528158187866,-0.5120627671336248,-0.5827583667668788,2.227964744965785,-0.47974151372909546,0.4899764657020569,-0.7278537750244141, 164, 122, 0, 141
1731649823882,9i,8.72908412623103,1.4s : 0.2s,-0.4628118946256592,6.942574982539744,0.8454693174832071,0.20756892587110937,-0.3728023171424866,0.5219674110412598,-1.1421284675598145,-0.06609180569648743,0.11163771152496338,-0.16203010082244873,-0.5091003180824307,-0.5839528677519328,2.214813547826755,-0.4814087450504303,0.487391859292984,-0.728488028049469, 164, 122, 0, 141
1731649823892,9i,8.72908412623103,1.4s : 0.2s,-0.4628118946256592,6.940516364860789,0.8428427167510416,0.1419927998863643,-0.18991851806640625,0.674303412437439,-1.0913726091384888,-0.04821142554283142,0.1305781900882721,-0.02805262804031372,-0.5055863533653169,-0.5842690373357524,2.202024566001752,-0.4825807809829712,0.4843205213546753,-0.7297598719596863, 164, 122, 0, 141
1731649823902,9i,8.72908412623103,1.4s : 0.2s,-0.4628118946256592,6.939033950143669,0.8412674474635589,0.1326479680146732,0.2136196345090866,0.9423293471336365,-1.0301350355148315,-0.04971623420715332,0.12291419506072998,0.003984987735748291,-0.4996707981876181,-0.5809249471564518,2.1920924007693032,-0.4817015826702118,0.4791366159915924,-0.7337517738342285, 164, 122, 0, 141
1731649823912,9i,8.72908412623103,1.4s : 0.2s,-0.4628118946256592,6.93779779652313,0.8714714337597044,0.06421769704678185,0.3237631618976593,1.058709979057312,-1.0396184921264648,-0.044725507497787476,-0.04556983709335327,0.0068506598472595215,-0.49182591090919126,-0.5747016348333376,2.183980873494895,-0.47915446758270264,0.47223615646362305,-0.739867627620697, 164, 122, 0, 141
1731649823922,9i,8.72908412623103,1.4s : 0.2s,-0.4628118946256592,6.937178074566783,0.8900023722800511,0.2572700034751706,0.4018791615962982,1.0571799278259277,-0.9364806413650513,-0.021201789379119873,-0.2293124496936798,0.11469149589538574,-0.48337583789054905,-0.5674426484134475,2.176750562730663,-0.47589901089668274,0.4647708833217621,-0.7466647028923035, 164, 122, 0, 141
1731649823932,9i,8.72908412623103,1.4s : 0.2s,-0.4628118946256592,6.937265759558531,0.9097774286181992,0.35040496502072777,0.5382910370826721,1.0254403352737427,-0.9290317893028259,0.024020612239837646,-0.3152213394641876,0.15113621950149536,-0.4746091108529997,-0.5598601962946002,2.170792623190263,-0.47236961126327515,0.4569908082485199,-0.7536752820014954, 164, 122, 0, 141
1731649823942,9i,8.72908412623103,1.4s : 0.2s,-0.4628118946256592,6.937548256489671,0.9624052789913868,0.24122200968503307,0.8064253330230713,1.0924603939056396,-0.9998958706855774,0.03409075736999512,-0.2294805347919464,0.06606483459472656,-0.4640340533841238,-0.5518352122784989,2.1654388933909137,-0.46881362795829773,0.4475592076778412,-0.7615146636962891, 164, 122, 0, 141
1731649823952,9i,8.72908412623103,1.4s : 0.2s,-0.4628118946256592,6.937445805981009,1.0890602061526076,0.049059432113526216,1.4741226434707642,1.2853667736053467,-1.0280933380126953,-0.01779991388320923,0.005854964256286621,-0.04533994197845459,-0.44921028761384046,-0.5414000242822512,2.162277229623841,-0.4642099440097809,0.43425431847572327,-0.7719665169715881, 164, 122, 0, 141
1731649823962,9i,8.72908412623103,1.4s : 0.2s,-0.4628118946256592,6.936536112471318,1.2587298262107438,0.27462405045796684,1.9181793928146362,1.374199390411377,-1.0500580072402954,-0.03652837872505188,0.2058967649936676,-0.1780184507369995,-0.42924989474336656,-0.5281943233234383,2.162063106483392,-0.4582531154155731,0.4161888659000397,-0.7853603959083557, 164, 122, 0, 141
1731649823972,9i,8.72908412623103,1.4s : 0.2s,-0.4628118946256592,6.935148543953652,1.4109823386176035,0.32961543010493,2.0139496326446533,1.350062370300293,-1.1420267820358276,-0.004631787538528442,0.2628241777420044,-0.19886761903762817,-0.40659667851706993,-0.5143759904972786,2.1625405807661555,-0.45188063383102417,0.3954857587814331,-0.7996217608451843, 164, 122, 0, 141
1731649823982,9i,8.72908412623103,1.4s : 0.2s,-0.4628118946256592,6.933931041042559,1.479868332322662,0.2210306477679067,1.7462610006332397,1.3068327903747559,-1.1194484233856201,0.03884497284889221,0.18255093693733215,-0.11840933561325073,-0.3846329080584033,-0.501515275306063,2.1616826516481615,-0.4456290304660797,0.3752188980579376,-0.8127887845039368, 164, 122, 0, 141
1731649823991,9i,8.72908412623103,1.4s : 0.2s,-0.4628118946256592,6.933189023507559,1.464434102920612,0.06899351915508903,1.538612961769104,1.049869418144226,-1.0422450304031372,0.05936279892921448,0.01856762170791626,-0.029856443405151367,-0.3653124670437316,-0.49036511483799056,2.1597609304523124,-0.4398711919784546,0.357241153717041,-0.8239490985870361, 164, 122, 0, 141
1731649824001,9i,8.72908412623103,1.4s : 0.2s,-0.4628118946256592,6.932934177300062,1.4392084930932385,0.15445049987568624,1.7390462160110474,0.6924524307250977,-0.966515302658081,0.06863006949424744,-0.135763019323349,0.026707172393798828,-0.34648093288735654,-0.482360984678604,2.158371597196299,-0.43630582094192505,0.3395899832248688,-0.8332562446594238, 164, 122, 0, 141
1731649824011,9i,8.72908412623103,1.4s : 0.2s,-0.4628118946256592,6.932939073120847,1.50209728159442,0.11935740896566369,2.1964690685272217,0.6866350173950195,-1.017837405204773,0.07869097590446472,-0.08946138620376587,-0.007112085819244385,-0.3246091052821639,-0.47560179580615103,2.158679962675934,-0.43396130204200745,0.31893831491470337,-0.8425888419151306, 164, 122, 0, 141
1731649824021,9i,8.72908412623103,1.4s : 0.2s,-0.4628118946256592,6.932979362752775,1.6595187831360634,0.21414997238263458,2.7108798027038574,0.8311993479728699,-1.1441785097122192,0.05951431393623352,0.18882223963737488,-0.08163589239120483,-0.298022227658284,-0.46753636430424295,2.1602574698191113,-0.43082165718078613,0.2936301827430725,-0.8533311486244202, 164, 122, 0, 141
1731649824031,9i,8.72908412623103,1.4s : 0.2s,-0.4628118946256592,6.932464303307446,1.8389389223041093,0.39034964236524616,3.070943832397461,0.7747810482978821,-1.2248963117599487,-0.016503065824508667,0.35118287801742554,-0.16962039470672607,-0.26676167898778386,-0.4587462651738249,2.162706145873097,-0.42716148495674133,0.26360905170440674,-0.8648949861526489, 164, 122, 0, 141
1731649824041,9i,8.72908412623103,1.4s : 0.2s,-0.4628118946256592,6.931233918702139,1.965050206647442,0.33156505141214776,3.069390296936035,0.6888411045074463,-1.2489866018295288,-0.07056364417076111,0.2737530469894409,-0.17324960231781006,-0.23370928351972867,-0.45084670590050735,2.165216151691203,-0.4238821268081665,0.23158755898475647,-0.8756090402603149, 164, 122, 0, 141
1731649824051,9i,8.72908412623103,1.4s : 0.2s,-0.4628118946256592,6.929290557638384,1.995134875863625,0.25703313282979134,2.7890446186065674,0.5402292609214783,-1.2141221761703491,-0.04839321970939636,0.14832277595996857,-0.20426571369171143,-0.20198589397871075,-0.44433624187057263,2.166841321083656,-0.42111968994140625,0.20061524212360382,-0.8845404386520386, 164, 122, 0, 141
1731649824061,9i,8.72908412623103,1.4s : 0.2s,-0.4628118946256592,6.927144151499756,1.9630672734817438,0.19055319709601468,2.548020839691162,0.3711082637310028,-1.1680415868759155,-0.0007533133029937744,0.04555973410606384,-0.18502503633499146,-0.1729680992291672,-0.4397396048871671,2.1674575710595265,-0.41935163736343384,0.17210690677165985,-0.8913604617118835, 164, 122, 0, 141
1731649824071,9i,8.72908412623103,1.4s : 0.2s,-0.4628118946256592,6.925054921009472,1.90666808100952,0.15330153785375172,2.353573799133301,0.3441962003707886,-1.1760382652282715,0.044402897357940674,-0.012434795498847961,-0.14620232582092285,-0.14585549163519024,-0.43635549407027635,2.167288402838164,-0.4181516766548157,0.14533889293670654,-0.8966748714447021, 164, 122, 0, 141
1731649824081,9i,8.72908412623103,1.4s : 0.2s,-0.4628118946256592,6.923176084468673,1.8460149366248726,0.11570179114386335,2.196643829345703,0.3802362084388733,-1.2313858270645142,0.03889647126197815,-0.020668260753154755,-0.10698968172073364,-0.12035438709802854,-0.4328206110602693,2.1658823297440666,-0.4163988530635834,0.12006403505802155,-0.9012195467948914, 164, 122, 0, 141
1731649824091,9i,8.72908412623103,1.4s : 0.2s,-0.4628118946256592,6.9216867678382785,1.8268216444952206,0.056133909960104526,2.2868764400482178,0.36497125029563904,-1.310746669769287,-0.049120306968688965,-0.024936877191066742,0.01078718900680542,-0.09484221995401072,-0.4293860553655058,2.1636353934215085,-0.41444170475006104,0.09470009803771973,-0.9051353335380554, 164, 122, 0, 141
1731649824101,9i,8.72908412623103,1.4s : 0.2s,-0.4628118946256592,6.920376819174236,1.8352225517704093,0.12835124055683472,2.36678147315979,0.49931371212005615,-1.3409464359283447,-0.10883373022079468,-0.032775335013866425,0.05962413549423218,-0.06819809730878144,-0.42542696751288533,2.1619483344506656,-0.41175034642219543,0.06814524531364441,-0.9087452292442322, 164, 122, 0, 141
1731649824111,9i,8.72908412623103,1.4s : 0.2s,-0.4628118946256592,6.919345406441798,1.8553724660482038,0.11150972970990353,2.4196665287017822,0.6604013442993164,-1.3299411535263062,-0.0913507342338562,0.05071833357214928,0.03895014524459839,-0.040998499447459674,-0.4197107133174933,2.1603188701250624,-0.4071538746356964,0.04098701477050781,-0.9124394655227661, 164, 122, 0, 141
1731649824121,9i,8.72908412623103,1.4s : 0.2s,-0.4628118946256592,6.918873987448757,1.867854209667705,0.13355961274254455,2.3983469009399414,0.7053723931312561,-1.3275693655014038,-0.06462988257408142,0.08451959490776062,0.08073157072067261,-0.01359486636344689,-0.4129398328296874,2.1579852169079374,-0.4012666940689087,0.013594447635114193,-0.9158603549003601, 164, 122, 0, 141
1731649824131,9i,8.72908412623103,1.4s : 0.2s,-0.4628118946256592,6.919166592453308,1.8412916791384868,0.15357418569857686,2.1694514751434326,0.7514400482177734,-1.3432987928390503,-0.038920581340789795,0.01623157598078251,0.14767110347747803,0.012630813060897002,-0.40576296060868194,2.1562613744656485,-0.3946883976459503,-0.012630477547645569,-0.918728232383728, 164, 122, 0, 141
1731649824141,9i,8.72908412623103,1.4s : 0.2s,-0.4628118946256592,6.920192457268628,1.79505092574674,0.17461931242884204,1.9537197351455688,0.8675463199615479,-1.3611172437667847,-0.018941879272460938,0.0010825134813785553,0.17358553409576416,0.036658937116449325,-0.39756185794496973,2.1524964306245518,-0.38691139221191406,-0.036650728434324265,-0.9213882684707642, 164, 122, 0, 141
1731649824151,9i,8.72908412623103,1.4s : 0.2s,-0.4628118946256592,6.921909551340271,1.77622477951516,0.21800914177337902,2.003572463989258,0.9218183159828186,-1.3635956048965454,-0.028273046016693115,-0.0024965181946754456,0.21615362167358398,0.05999366464103908,-0.38834606721575016,2.148183028943725,-0.3779769241809845,-0.059957683086395264,-0.9238715171813965, 164, 122, 0, 141
1731649824161,9i,8.72908412623103,1.4s : 0.2s,-0.4628118946256592,6.924234188836977,1.762437997327122,0.2536861732702178,1.976824164390564,0.9483212828636169,-1.3720035552978516,-0.029668211936950684,-0.03802456706762314,0.24905943870544434,0.08356310211941186,-0.3787281015784728,2.1436165903118902,-0.3684488534927368,-0.08346588909626007,-0.9258935451507568, 164, 122, 0, 141
1731649824171,9i,8.72908412623103,1.4s : 0.2s,-0.4628118946256592,6.9270845431678785,1.763475153363944,0.21889552030944204,2.0043880939483643,1.096688985824585,-1.343754768371582,0.016053617000579834,0.05644472688436508,0.21088272333145142,0.1068493174113171,-0.3680487718172138,2.138879290790333,-0.35774365067481995,-0.10664612054824829,-0.9277101159095764, 164, 122, 0, 141
1731649824181,9i,8.72908412623103,1.4s : 0.2s,-0.4628118946256592,6.93032230559564,1.768720861422584,0.2322297967261198,2.000305652618408,1.152304768562317,-1.3353489637374878,0.05386713147163391,0.15755623579025269,0.16187971830368042,0.13036780278876045,-0.35611397935160727,2.134138565207645,-0.3456762135028839,-0.1299988329410553,-0.9293052554130554, 164, 122, 0, 141
1731649824191,9i,8.72908412623103,1.4s : 0.2s,-0.4628118946256592,6.933622110397756,1.7398608006301743,0.19354257803366845,1.8032015562057495,1.0964406728744507,-1.3437269926071167,0.05218726396560669,0.09435449540615082,0.16072475910186768,0.15280981328825122,-0.34410371846068083,2.128761181087615,-0.3334220051765442,-0.15221579372882843,-0.9304085969924927, 164, 122, 0, 141
1731649824201,9i,8.72908412623103,1.4s : 0.2s,-0.4628118946256592,6.936993936003969,1.6917328987880909,0.19051819647895685,1.5972131490707397,1.0970540046691895,-1.362791657447815,0.06563237309455872,0.06846091151237488,0.1652352213859558,0.173191987959618,-0.3320229087514444,2.1222129540587984,-0.32107973098754883,-0.17232745885849,-0.9312416911125183, 164, 122, 0, 141
1731649824211,9i,8.72908412623103,1.4s : 0.2s,-0.4628118946256592,6.940419401834827,1.6480107866391687,0.18571242160228926,1.540347695350647,1.058103322982788,-1.3630396127700806,0.07985961437225342,0.08668521046638489,0.14351731538772583,0.19220605268840818,-0.3198505053210331,2.1148350599858445,-0.30863457918167114,-0.1910247802734375,-0.9318016171455383, 164, 122, 0, 141
1731649824221,9i,8.72908412623103,1.4s : 0.2s,-0.4628118946256592,6.943881546797692,1.6306697582813152,0.18005943750022113,1.6279228925704956,1.0422964096069336,-1.3739516735076904,0.07463619112968445,0.08188867568969727,0.1419333815574646,0.21140476800798128,-0.30783960236300784,2.1072693078456037,-0.29625484347343445,-0.20983360707759857,-0.9317740797996521, 164, 122, 0, 141
1731649824231,9i,8.72908412623103,1.4s : 0.2s,-0.4628118946256592,6.947371817514442,1.635751223018109,0.19765334110473987,1.699916958808899,1.0866873264312744,-1.4130765199661255,0.09077006578445435,0.1326615959405899,0.11501538753509521,0.23136950698302663,-0.2954015061652519,2.0994206458991376,-0.28336647152900696,-0.2293107509613037,-0.9311928153038025, 164, 122, 0, 141
1731649824241,9i,8.72908412623103,1.4s : 0.2s,-0.4628118946256592,6.950762748100216,1.6230095178309403,0.2120201755050919,1.6421595811843872,0.9694310426712036,-1.416877269744873,0.08291041851043701,0.1820663958787918,0.07021570205688477,0.25133940865077165,-0.28284396584189303,2.0910011258057417,-0.2703188359737396,-0.24870151281356812,-0.9300942420959473, 164, 122, 0, 141
1731649824251,9i,8.72908412623103,1.4s : 0.2s,-0.4628118946256592,6.954044015131858,1.622437312086961,0.19052924634001708,1.7369358539581299,0.9236422777175903,-1.3958804607391357,0.06594595313072205,0.17393925786018372,0.041202664375305176,0.2713740416529955,-0.27129927436925566,2.082491307711157,-0.25817614793777466,-0.26805543899536133,-0.92816561460495, 164, 122, 0, 141
1731649824261,9i,8.72908412623103,1.4s : 0.2s,-0.4628118946256592,6.957207538683412,1.601872060117647,0.16724714894233364,1.6354224681854248,0.8529884815216064,-1.4048056602478027,0.0960334986448288,0.13609912991523743,0.015040040016174316,0.29134146038408215,-0.2598616109226772,2.073804679310463,-0.2461189180612564,-0.28723740577697754,-0.9256998300552368, 164, 122, 0, 141
1731649824271,9i,8.72908412623103,1.4s : 0.2s,-0.4628118946256592,6.959685929787406,1.563401590050104,0.12816486372090738,1.538115382194519,0.7429975271224976,-1.3884471654891968,0.09817813336849213,0.07058179378509521,-0.042491137981414795,0.31005327709388425,-0.24893278091997081,2.0643880445384823,-0.23462221026420593,-0.3051093816757202,-0.92296302318573, 164, 122, 0, 141
1731649824281,9i,8.72908412623103,1.4s : 0.2s,-0.4628118946256592,6.961576670404129,1.5176597967582088,0.0906948970601618,1.5184351205825806,0.609011709690094,-1.3337693214416504,0.07797181606292725,0.027136415243148804,-0.037544310092926025,0.32804784991874014,-0.23914733644679348,2.0550552732019156,-0.22424255311489105,-0.3221955895423889,-0.919731080532074, 164, 122, 0, 141
1731649824291,9i,8.72908412623103,1.4s : 0.2s,-0.4628118946256592,6.963342473785416,1.4832616680407318,0.12166595237476245,1.5615993738174438,0.5312321782112122,-1.2999119758605957,0.10793781280517578,0.0196915864944458,-0.05257636308670044,0.34593163807909233,-0.23033593729103832,2.045988499729019,-0.2147798240184784,-0.3390732705593109,-0.9159142971038818, 164, 122, 0, 141
1731649824301,9i,8.72908412623103,1.4s : 0.2s,-0.4628118946256592,6.964722906881325,1.4554611479683774,0.16625114737584198,1.6042004823684692,0.4455168545246124,-1.2534880638122559,0.12837965786457062,0.05990117788314819,-0.08700549602508545,0.36416137412840016,-0.22218366385769572,2.036560969798364,-0.20590953528881073,-0.3561657965183258,-0.911453366279602, 164, 122, 0, 141
1731649824311,9i,8.72908412623103,1.4s : 0.2s,-0.4628118946256592,6.965823201844035,1.4219939836121382,0.17479141762888273,1.5727241039276123,0.32923606038093567,-1.2189831733703613,0.12769705057144165,0.0757722556591034,-0.09221750497817993,0.38228765929172315,-0.21498519569772986,2.0280541465914927,-0.19793324172496796,-0.373043954372406,-0.9064549803733826, 164, 122, 0, 141
1731649824321,9i,8.72908412623103,1.4s : 0.2s,-0.4628118946256592,6.966768229227985,1.3837234467076533,0.16951462958069244,1.4942132234573364,0.22834673523902893,-1.2214349508285522,0.13237254321575165,0.06288239359855652,-0.08519697189331055,0.3998366442261911,-0.20873162866629186,2.0194157789518874,-0.19087472558021545,-0.38926786184310913,-0.9011311531066895, 164, 122, 0, 141
1731649824331,9i,8.72908412623103,1.4s : 0.2s,-0.4628118946256592,6.967550886837131,1.3581434788546722,0.17415619537154695,1.4774526357650757,0.1605013757944107,-1.2603189945220947,0.13660335540771484,0.04262566566467285,-0.0992620587348938,0.41656889500197847,-0.2030122928805571,2.010242490872591,-0.18437860906124115,-0.40462514758110046,-0.8957025408744812, 164, 122, 0, 141
1731649824341,9i,8.72908412623103,1.4s : 0.2s,-0.4628118946256592,6.968331989045256,1.3230466222896948,0.14530406747265262,1.4325084686279297,0.08776520937681198,-1.1854997873306274,0.12974300980567932,0.01794394850730896,-0.0629129409790039,0.4333756060730614,-0.19760739237540006,2.000765906789548,-0.17817437648773193,-0.41993674635887146,-0.8898916244506836, 164, 122, 0, 141
1731649824351,9i,8.72908412623103,1.4s : 0.2s,-0.4628118946256592,6.969151273284241,1.2732442167436995,0.1408973343035102,1.3671129941940308,0.08581683784723282,-1.0571894645690918,0.13223080337047577,-0.03914490342140198,-0.028892040252685547,0.4490800110888519,-0.19302015619250557,1.9923649390642428,-0.17280390858650208,-0.4341369569301605,-0.884117603302002, 164, 122, 0, 141
1731649824361,9i,8.72908412623103,1.4s : 0.2s,-0.4628118946256592,6.9699693481626275,1.2127360155333697,0.1218678335164622,1.2683032751083374,0.05004765838384628,-0.9766349792480469,0.10036809742450714,-0.06674811244010925,-0.017963945865631104,0.4639718484303637,-0.1886647078946169,1.98468223855288,-0.16772034764289856,-0.44750356674194336,-0.8784136176109314, 164, 122, 0, 141
1731649824371,9i,8.72908412623103,1.4s : 0.2s,-0.4628118946256592,6.970942342656922,1.1280149446231513,0.18104640565387528,1.070921778678894,0.007834957912564278,-0.8870803117752075,0.07440076768398285,-0.15589210391044617,0.05422157049179077,0.47713432695723784,-0.18488096381349484,1.9774241867889835,-0.16329845786094666,-0.45923545956611633,-0.8731760382652283, 164, 122, 0, 141
1731649824381,9i,8.72908412623103,1.4s : 0.2s,-0.4628118946256592,6.972219736704811,1.0301246929251875,0.24311962521306316,0.8984460234642029,0.023852096870541573,-0.7902246117591858,0.10832959413528442,-0.20385867357254028,0.07624626159667969,0.4882364989003334,-0.18143069258911465,1.970754247562889,-0.15935496985912323,-0.46906915307044983,-0.8686657547950745, 164, 122, 0, 141
1731649824391,9i,8.72908412623103,1.4s : 0.2s,-0.4628118946256592,6.973580487608756,0.9292723264030343,0.20207313821421896,0.711269199848175,0.01981341280043125,-0.7606310248374939,0.09077799320220947,-0.1711607277393341,0.057418763637542725,0.49750099908275197,-0.1779641798598219,1.9643524076492587,-0.15556678175926208,-0.477230966091156,-0.8648986220359802, 164, 122, 0, 141
1731649824401,9i,8.72908412623103,1.4s : 0.2s,-0.4628118946256592,6.974976981891166,0.8257070752416321,0.15435333386570874,0.4809666574001312,0.01980462484061718,-0.7601446509361267,0.09356297552585602,-0.1119132936000824,0.05046123266220093,0.5045440615048397,-0.17425975565308732,1.9575318365479963,-0.15177524089813232,-0.4834083616733551,-0.8621372580528259, 164, 122, 0, 141
1731649824411,9i,8.72908412623103,1.4s : 0.2s,-0.4628118946256592,6.976447325376748,0.7483062632825132,0.1293327041266407,0.440192848443985,0.041854798793792725,-0.7468645572662354,0.11341439187526703,-0.04442375898361206,0.043481647968292236,0.5103577517848262,-0.17039169106806243,1.9505897493312616,-0.14796024560928345,-0.48848944902420044,-0.859933614730835, 164, 122, 0, 141
1731649824421,9i,8.72908412623103,1.4s : 0.2s,-0.4628118946256592,6.9780338389314425,0.6864992329575581,0.14852619549955628,0.3037777543067932,0.037478603422641754,-0.7934687733650208,0.1189810037612915,-0.05454108119010925,0.07020556926727295,0.5152074691729271,-0.16619865696235664,1.943293448320975,-0.14395961165428162,-0.49271538853645325,-0.8582000136375427, 164, 122, 0, 141
1731649824431,9i,8.72908412623103,1.4s : 0.2s,-0.4628118946256592,6.97970784000051,0.6427101173602763,0.12797791102842582,0.23007556796073914,0.07639457285404205,-0.8119894862174988,0.11542457342147827,-0.013045847415924072,0.05371516942977905,0.5190593878072775,-0.16141746067754334,1.9352699842688414,-0.13954870402812958,-0.4960636496543884,-0.856998860836029, 164, 122, 0, 141
1731649824441,9i,8.72908412623103,1.4s : 0.2s,-0.4628118946256592,6.981479154508173,0.6132989011723305,0.13258733360756442,0.2207947075366974,0.10882975161075592,-0.7992489337921143,0.10352194309234619,0.05967879295349121,0.05745476484298706,0.5224733859004318,-0.15618972880111917,1.9271313425754708,-0.1348024308681488,-0.4990250766277313,-0.8560387492179871, 164, 122, 0, 141
1731649824451,9i,8.72908412623103,1.4s : 0.2s,-0.4628118946256592,6.9833382615436355,0.5884408628850624,0.12192398553087674,0.15536963939666748,0.1149587482213974,-0.7907124161720276,0.09068208932876587,0.03527212142944336,0.07347172498703003,0.5255484647396491,-0.15073176173036146,1.9190130849721887,-0.12989716231822968,-0.5016875267028809,-0.855240523815155, 164, 122, 0, 141
1731649824461,9i,8.72908412623103,1.4s : 0.2s,-0.4628118946256592,6.985248795846931,0.5588733103398121,0.11179423646016505,0.06733792275190353,0.10057714581489563,-0.7459834814071655,0.08988547325134277,-0.0016350150108337402,0.06645208597183228,0.5277239649662806,-0.14536671560706046,1.9109847359947545,-0.12514851987361908,-0.5035682320594788,-0.8548431992530823, 164, 122, 0, 141
1731649824471,9i,8.72908412623103,1.4s : 0.2s,-0.4628118946256592,6.987193381524475,0.5237692849546531,0.11629496705989137,0.038264717906713486,0.1081322729587555,-0.6654812097549438,0.1035899966955185,-0.013362288475036621,0.05113786458969116,0.5291629088280445,-0.14034900629976646,1.903559994427489,-0.1207561120390892,-0.5048109292984009,-0.8547419905662537, 164, 122, 0, 141
1731649824481,9i,8.72908412623103,1.4s : 0.2s,-0.4628118946256592,6.989126527707732,0.4760172180306431,0.1268728047058966,-0.061472658067941666,0.05580470338463783,-0.5645579695701599,0.10744927078485489,-0.05838590860366821,0.03380012512207031,0.5299290182706169,-0.13600088336646907,1.8970750658386393,-0.1169859915971756,-0.5054721236228943,-0.8548755645751953, 164, 122, 0, 141
1731649824491,9i,8.72908412623103,1.4s : 0.2s,-0.4628118946256592,6.990995942949699,0.42755841580487886,0.1348897678262922,-0.09367426484823227,0.00909019447863102,-0.485120952129364,0.0908823013305664,-0.09662872552871704,0.024465203285217285,0.5297118597872539,-0.13268733081917705,1.8915055779186016,-0.11416719853878021,-0.5052847266197205,-0.8553673028945923, 164, 122, 0, 141
1731649824501,9i,8.72908412623103,1.4s : 0.2s,-0.4628118946256592,6.992791157055331,0.3842406507926058,0.12040634428237303,-0.10662955045700073,-0.013318352401256561,-0.42940646409988403,0.08988847583532333,-0.07927602529525757,0.011535227298736572,0.5293092345860214,-0.13006796566746906,1.8867553764598437,-0.11195266991853714,-0.5049372315406799,-0.8558650612831116, 164, 122, 0, 141
1731649824511,9i,8.72908412623103,1.4s : 0.2s,-0.4628118946256592,6.994474348202295,0.34710897020945025,0.11466509834028057,-0.11570160835981369,-0.03810412809252739,-0.3872515559196472,0.0825892761349678,-0.07901906967163086,-0.009114980697631836,0.5286700932356807,-0.12791000066327074,1.882485204446409,-0.11014662683010101,-0.5043854117393494,-0.8564245700836182, 164, 122, 0, 141
1731649824521,9i,8.72908412623103,1.4s : 0.2s,-0.4628118946256592,6.995979796768961,0.3118824814856571,0.09727393930649958,-0.12338536232709885,-0.061205364763736725,-0.3323080241680145,0.05965220928192139,-0.07589000463485718,-0.01202249526977539,0.5278762818848062,-0.1263154285634652,1.878764717036212,-0.1088312640786171,-0.5036998391151428,-0.8569960594177246, 164, 122, 0, 141
1731649824531,9i,8.72908412623103,1.4s : 0.2s,-0.4628118946256592,6.997361931648329,0.27939326188383884,0.09595149943494911,-0.11394339054822922,-0.08009090274572372,-0.28580203652381897,0.05738629400730133,-0.07574689388275146,-0.013263165950775146,0.5270176642273579,-0.1252465470451074,1.8756363067231712,-0.10796915739774704,-0.5029579401016235,-0.8575406670570374, 164, 122, 0, 141
1731649824540,9i,8.72908412623103,1.4s : 0.2s,-0.4628118946256592,6.998578050997841,0.2563984454855864,0.0894499726070807,-0.09838040918111801,-0.09067732840776443,-0.2805280387401581,0.05126729607582092,-0.0711178183555603,-0.01775437593460083,0.5262829360553686,-0.1244455354058243,1.872817666537208,-0.10732806473970413,-0.5023227334022522,-0.8579933047294617, 164, 122, 0, 141
1731649824550,9i,8.72908412623103,1.4s : 0.2s,-0.4628118946256592,6.999588716898487,0.23600762914086804,0.08290402254979146,-0.06889921426773071,-0.09871234744787216,-0.259992390871048,0.03502514958381653,-0.07262885570526123,-0.01927083730697632,0.5257531359441521,-0.12383025967743884,1.8701885451646691,-0.10683299601078033,-0.5018645524978638,-0.8583232164382935, 164, 122, 0, 141
1731649824560,9i,8.72908412623103,1.4s : 0.2s,-0.4628118946256592,7.000372736095932,0.22626458300920826,0.0715230940485205,-0.08265091478824615,-0.11407825350761414,-0.27407050132751465,0.035379692912101746,-0.0588914155960083,-0.01989048719406128,0.5253173542726571,-0.12337643669385207,1.8676256984920068,-0.10647036135196686,-0.5014876127243042,-0.8585885167121887, 164, 122, 0, 141
1731649824570,9i,8.72908412623103,1.4s : 0.2s,-0.4628118946256592,7.001035696152204,0.22350895759361294,0.05646437012490466,-0.09616432338953018,-0.12979543209075928,-0.2686198055744171,0.04240728169679642,-0.03688657283782959,-0.005406320095062256,0.524737351521596,-0.12304272776863528,1.8649856009919852,-0.10621951520442963,-0.5009856820106506,-0.8589125275611877, 164, 122, 0, 141
