timestamp,club,max_speed,tempo,w.rotation,l.speed,t.spped,acc,rotation.x,rotation.y,rotation.z,userAcceleration.x,userAcceleration.y,userAcceleration.z,pitch,roll,yaw,gravity.x,gravity.y,gravity.z,impactIndex,minDownIndex,StartIndex,endIndex
1731649450528,9i,2.548299339881397,0.0s : 0.0s,2.9935558907829005,0.0013289584189104908,0.2362139188456276,0.39606439121016235,-0.2349913865327835,1.0741069316864014,-0.40951618552207947,0.20068365335464478,0.22954145073890686,-0.25279200077056885,-0.4323469381742586,-0.41239217103015113,-0.091804525019172,-0.36392223834991455,0.4190029501914978,-0.8318636417388916, 7, 5, 0, 5
1731649450538,9i,2.548299339881397,0.0s : 0.0s,2.9935558907829005,0.0059937126185939825,0.4341281690034895,0.4276136597826557,-0.2530807554721832,1.1749128103256226,-0.586840808391571,0.18566003441810608,0.16339123249053955,-0.3488367795944214,-0.43245148052551535,-0.40361424413482344,-0.09783722090244844,-0.35658907890319824,0.4190978705883026,-0.8349857330322266, 7, 5, 0, 5
1731649450548,9i,2.548299339881397,0.0s : 0.0s,2.9935558907829005,0.012138384129012157,0.598524752516505,0.4451722830429031,-0.3993796706199646,1.227765440940857,-0.7005980014801025,0.1966271698474884,0.08960139751434326,-0.3892142176628113,-0.4329202684345662,-0.39498078942768494,-0.10576997309615228,-0.3492914140224457,0.4195234477519989,-0.8378517627716064, 7, 5, 0, 5
1731649450558,9i,2.548299339881397,0.0s : 0.0s,2.9935558907829005,0.01941337909625885,0.7446466179796523,0.45678319660121647,-0.6187326312065125,1.281433343887329,-0.7982614040374756,0.23253047466278076,0.054589301347732544,-0.3893590569496155,-0.4347289478499622,-0.38652244639755257,-0.11544891131541146,-0.3419055640697479,0.4211645722389221,-0.8400720357894897, 7, 5, 0, 5
1731649450568,9i,2.548299339881397,0.0s : 0.0s,2.9935558907829005,0.027467338525427508,0.893581067739403,0.4647267723647776,-0.9499998092651367,1.326183557510376,-0.9395708441734314,0.29225656390190125,0.005815327167510986,-0.36128002405166626,-0.43869372926101996,-0.37857639667233034,-0.1274887679987983,-0.3345997929573059,0.4247572422027588,-0.841204047203064, 7, 5, 0, 5
1731649450578,9i,2.548299339881397,0.0s : 0.0s,2.9935558907829005,0.035879440171228336,1.0571774189241006,0.46261912457423515,-1.4103081226348877,1.3470491170883179,-1.0290675163269043,0.34574639797210693,-0.06133309006690979,-0.3011878728866577,-0.44598142868582924,-0.37159773915850897,-0.14244158797879464,-0.3275885283946991,0.43134352564811707,-0.84061199426651, 7, 5, 0, 5
1731649450588,9i,2.548299339881397,0.0s : 0.0s,2.9935558907829005,0.04413827564670921,1.2326212168929642,0.4322338486272233,-1.877936840057373,1.36393404006958,-0.9891222715377808,0.36856570839881897,-0.10686969757080078,-0.198907732963562,-0.4576893873070491,-0.36554640580470305,-0.15950591201566824,-0.32066842913627625,0.44187650084495544,-0.8378048539161682, 7, 5, 0, 5
1731649450598,9i,2.548299339881397,0.0s : 0.0s,2.9935558907829005,0.05210331513306656,1.425797738413334,0.4307888214524626,-2.310227155685425,1.3841543197631836,-0.9823355674743652,0.3985261619091034,-0.11867579817771912,-0.11256980895996094,-0.4737548597324668,-0.3601447643935178,-0.17805128517901303,-0.31359583139419556,0.4562307894229889,-0.8327731490135193, 7, 5, 0, 5
1731649450608,9i,2.548299339881397,0.0s : 0.0s,2.9935558907829005,0.05999237977792815,1.6133328246369838,0.46303177942866297,-2.609661340713501,1.3511468172073364,-1.0108518600463867,0.4321734309196472,-0.14761504530906677,-0.07638293504714966,-0.4934994802282674,-0.3559111514419288,-0.1984011183600716,-0.3068683445453644,0.47371071577072144,-0.8254877328872681, 7, 5, 0, 5
1731649450618,9i,2.548299339881397,0.0s : 0.0s,2.9935558907829005,0.06813158657504499,1.7066246734694877,0.48780255967283426,-2.3697686195373535,1.2923359870910645,-1.0042427778244019,0.4419553577899933,-0.18498605489730835,-0.09168946743011475,-0.5136064580501217,-0.35263532587815294,-0.2191260254257026,-0.30081164836883545,0.4913215935230255,-0.8173832893371582, 7, 5, 0, 5
1731649450628,9i,2.548299339881397,0.0s : 0.0s,2.9935558907829005,0.07712843057791241,1.6723628614580515,0.5322135817093311,-1.749630331993103,1.2306039333343506,-1.0397533178329468,0.4616708755493164,-0.18884730339050293,-0.18560171127319336,-0.5295520666245334,-0.34980895509059584,-0.23833136664141794,-0.2957773804664612,0.5051468014717102,-0.8107665777206421, 7, 5, 0, 5
1731649450638,9i,2.548299339881397,0.0s : 0.0s,2.9935558907829005,0.08749869591497353,1.5409657987713838,0.6000887526341309,-0.9328508377075195,1.3687001466751099,-1.0095094442367554,0.49343645572662354,-0.13005805015563965,-0.3157718777656555,-0.5387209014604919,-0.34539657782012273,-0.2549906978273748,-0.2906167507171631,0.5130384564399719,-0.8076716661453247, 7, 5, 0, 5
1731649450648,9i,2.548299339881397,0.0s : 0.0s,2.9935558907829005,0.09896280744784296,1.370098307791436,0.6140054453507567,-0.0520678386092186,1.5987855195999146,-0.9026431441307068,0.48434293270111084,-0.0013472437858581543,-0.3773761987686157,-0.5401045886368504,-0.33685970349687455,-0.26727898291128344,-0.283476322889328,0.5142257213592529,-0.8094523549079895, 7, 5, 0, 5
1731649450658,9i,2.548299339881397,0.0s : 0.0s,2.9935558907829005,0.1108310337507552,1.262668125612229,0.5806142998786296,0.45509323477745056,1.6514606475830078,-0.9939426779747009,0.4134584963321686,0.06541061401367188,-0.4023512005805969,-0.5348636083107919,-0.32533304784746797,-0.2766982736158438,-0.27498507499694824,0.5097237229347229,-0.8152085542678833, 7, 5, 0, 5
1731649450668,9i,2.548299339881397,0.0s : 0.0s,2.9935558907829005,0.12254955086829661,1.2297604006910017,0.5026933168232391,0.6194999814033508,1.6377546787261963,-1.0236538648605347,0.3488956689834595,-0.0029911398887634277,-0.36188870668411255,-0.5264559896168439,-0.31361589733580025,-0.28589880440220705,-0.26672717928886414,0.5024724006652832,-0.8224221467971802, 7, 5, 0, 5
1731649450678,9i,2.548299339881397,0.0s : 0.0s,2.9935558907829005,0.13363703508146965,1.2353653509835918,0.43995929335456474,0.7066461443901062,1.651239037513733,-0.9642810225486755,0.31251657009124756,-0.10665279626846313,-0.29072797298431396,-0.517155053614916,-0.3014618208830798,1.3363546238976152,-0.25808843970298767,0.4944092333316803,-0.8300300240516663, 7, 5, 0, 5
1731649450688,9i,2.548299339881397,0.0s : 0.0s,2.9935558907829005,0.1441938891622917,1.2440396023408107,0.4506436629423404,0.7340913414955139,1.5549606084823608,-0.9761539101600647,0.33545932173728943,-0.19615381956100464,-0.22818946838378906,-0.5074484986661896,-0.2893622629375354,1.2535055408398856,-0.24938444793224335,0.4859488606452942,-0.8376521468162537, 7, 5, 0, 5
1731649450698,9i,2.548299339881397,0.0s : 0.0s,2.9935558907829005,0.15478897750926426,1.2490761219330901,0.5158691294942215,0.7581527233123779,1.4405477046966553,-1.042371392250061,0.38502389192581177,-0.23026522994041443,-0.25466740131378174,-0.49749858811744213,-0.2785935742227344,1.2251883403289974,-0.24166752398014069,0.4772288501262665,-0.844896137714386, 7, 5, 0, 5
1731649450708,9i,2.548299339881397,0.0s : 0.0s,2.9935558907829005,0.16563102168349464,1.2554933046442025,0.5261279632202335,0.8944383859634399,1.381968379020691,-1.0329419374465942,0.43205559253692627,-0.1657789647579193,-0.2503116726875305,-0.4868130410564117,-0.2687359532480471,1.2035919447830827,-0.23466786742210388,0.46781155467033386,-0.8521052598953247, 7, 5, 0, 5
1731649450718,9i,2.548299339881397,0.0s : 0.0s,2.9935558907829005,0.17655123671580034,1.268316941314304,0.5138377700353622,0.9971745610237122,1.3616454601287842,-1.0232696533203125,0.43840986490249634,-0.0912531316280365,-0.2519899010658264,-0.4749526291281158,-0.25890702956300377,1.1888653295848652,-0.22768597304821014,0.45729631185531616,-0.8596738576889038, 7, 5, 0, 5
1731649450728,9i,2.548299339881397,0.0s : 0.0s,2.9935558907829005,0.18752043739897678,1.2803358287484297,0.5035263879089934,0.9667279720306396,1.3462070226669312,-1.057612419128418,0.41647595167160034,-0.03914719820022583,-0.28027504682540894,-0.462794195935776,-0.24918798853965096,1.1761427227459311,-0.22067509591579437,0.4464501142501831,-0.8671705722808838, 7, 5, 0, 5
1731649450738,9i,2.548299339881397,0.0s : 0.0s,2.9935558907829005,0.19840835045436814,1.2723842567244537,0.471217079614415,0.8101462125778198,1.2916183471679688,-1.081992745399475,0.37985965609550476,0.01478731632232666,-0.2784484028816223,-0.4515257568757503,-0.24002789427171106,1.1633079866713993,-0.21390502154827118,0.4363389015197754,-0.8739868402481079, 7, 5, 0, 5
1731649450748,9i,2.548299339881397,0.0s : 0.0s,2.9935558907829005,0.2089595538027291,1.2358951398403648,0.4454114953954705,0.5386353135108948,1.2097541093826294,-1.1077311038970947,0.3500593602657318,0.030132025480270386,-0.27375519275665283,-0.4423439634230117,-0.23186949343981436,1.1497592357406305,-0.20767956972122192,0.42805901169776917,-0.8795650601387024, 7, 5, 0, 5
1731649450758,9i,2.548299339881397,0.0s : 0.0s,2.9935558907829005,0.21944148482912773,1.1789278959468061,0.4507834082237034,0.2418213039636612,1.0993274450302124,-1.1394131183624268,0.3590969741344452,0.008582770824432373,-0.2723625898361206,-0.43605985941338177,-0.22504344752862945,1.1349599561109938,-0.2022671103477478,0.4223713278770447,-0.8835669159889221, 7, 5, 0, 5
1731649450768,9i,2.548299339881397,0.0s : 0.0s,2.9935558907829005,0.22988961031839628,1.1220503966145612,0.45728507518833017,0.07353775948286057,1.0034059286117554,-1.1509151458740234,0.37431567907333374,-0.0106276273727417,-0.2624585032463074,-0.43210700983295136,-0.21956624250520995,1.122976427854069,-0.19778671860694885,0.41878506541252136,-0.8862841129302979, 7, 5, 0, 5
1731649450778,9i,2.548299339881397,0.0s : 0.0s,2.9935558907829005,0.24030586502612372,1.072745861729662,0.45651401547565035,0.07422545552253723,0.9043088555335999,-1.1445131301879883,0.3837099075317383,-0.009235769510269165,-0.24715673923492432,-0.42903055105195587,-0.215155671485739,1.1090762662726739,-0.1941499412059784,0.41598939895629883,-0.8884022831916809, 7, 5, 0, 5
1731649450788,9i,2.548299339881397,0.0s : 0.0s,2.9935558907829005,0.2506813645440184,1.03789445460048,0.45614234455450653,0.23947273194789886,0.8400534391403198,-1.1398802995681763,0.3915286660194397,0.013877779245376587,-0.2336205244064331,-0.42519525775993566,-0.21140539530494537,1.0967326014060668,-0.19115020334720612,0.4124986529350281,-0.8906775116920471, 7, 5, 0, 5
1731649450798,9i,2.548299339881397,0.0s : 0.0s,2.9935558907829005,0.26098984191507657,1.0216967038183726,0.45031409937776035,0.48398053646087646,0.8371965885162354,-1.1222187280654907,0.3887537717819214,0.05410909652709961,-0.22073853015899658,-0.4193136865801942,-0.20764787881242347,1.0845221527439843,-0.1882990449666977,0.40713369846343994,-0.8937481045722961, 7, 5, 0, 5
1731649450808,9i,2.548299339881397,0.0s : 0.0s,2.9935558907829005,0.2711631752334695,1.0209120724074194,0.43988931693796085,0.6663029193878174,0.8347733616828918,-1.1193792819976807,0.37078937888145447,0.09210270643234253,-0.2180250883102417,-0.41134312768849807,-0.20360450063116997,1.0736474468441675,-0.18533404171466827,0.399840772151947,-0.897651731967926, 7, 5, 0, 5
1731649450818,9i,2.548299339881397,0.0s : 0.0s,2.9935558907829005,0.280913602163523,1.0217014573531462,0.4185280082869037,0.7123745083808899,0.7925751209259033,-1.1340147256851196,0.3485386073589325,0.10104969143867493,-0.20850777626037598,-0.4022656148598738,-0.19961311622723563,1.0621553589277626,-0.1824619024991989,0.39150410890579224,-0.9019047617912292, 7, 5, 0, 5
1731649450828,9i,2.548299339881397,0.0s : 0.0s,2.9935558907829005,0.2902305456460092,1.0189745828105785,0.39284690553632595,0.6487571597099304,0.7357960343360901,-1.137195110321045,0.3322634994983673,0.08159619569778442,-0.19305884838104248,-0.39332638290332983,-0.19608147072309945,1.0514301736488914,-0.17995023727416992,0.38326290249824524,-0.9059401154518127, 7, 5, 0, 5
1731649450838,9i,2.548299339881397,0.0s : 0.0s,2.9935558907829005,0.2991488781418678,1.0025806343114605,0.3704764248059345,0.5706338286399841,0.6798095107078552,-1.1435996294021606,0.3263302147388458,0.04761373996734619,-0.16880255937576294,-0.38518027218556544,-0.1931057905668491,1.0406596736754463,-0.17784692347049713,0.37572619318962097,-0.9095054864883423, 7, 5, 0, 5
1731649450848,9i,2.548299339881397,0.0s : 0.0s,2.9935558907829005,0.3077666760987236,0.9830703749574006,0.36400740271179305,0.5428045988082886,0.6212477087974548,-1.1378884315490723,0.33251267671585083,0.011509627103805542,-0.14766258001327515,-0.3775705014585863,-0.19067358069414375,1.028854459569299,-0.17617107927799225,0.3686631917953491,-0.9127163887023926, 7, 5, 0, 5
1731649450858,9i,2.548299339881397,0.0s : 0.0s,2.9935558907829005,0.316236575909853,0.9642941753473248,0.3641830711304244,0.529334306716919,0.5927135944366455,-1.1246026754379272,0.3386612832546234,-0.01079973578453064,-0.13349610567092896,-0.37019556160725275,-0.18858199507280735,1.017291726718475,-0.1747666299343109,0.3617977499961853,-0.9157286882400513, 7, 5, 0, 5
1731649450868,9i,2.548299339881397,0.0s : 0.0s,2.9935558907829005,0.32458808054725274,0.9407044866585907,0.36111832457518295,0.5120024681091309,0.5692188739776611,-1.0782556533813477,0.34232890605926514,-0.01171603798866272,-0.1143682599067688,-0.36302096622489183,-0.18656781334085876,1.0060450325889267,-0.17339885234832764,0.35509994626045227,-0.9186059236526489, 7, 5, 0, 5
1731649450878,9i,2.548299339881397,0.0s : 0.0s,2.9935558907829005,0.33280523729104805,0.9078441979445511,0.3548676850063588,0.47744035720825195,0.5317385792732239,-1.0132780075073242,0.33782100677490234,-0.009234517812728882,-0.10827171802520752,-0.3562292153603908,-0.18457194397190324,0.9958604531834861,-0.17200374603271484,0.34874266386032104,-0.9212997555732727, 7, 5, 0, 5
1731649450888,9i,2.548299339881397,0.0s : 0.0s,2.9935558907829005,0.34085581515539487,0.8687266791353977,0.3469196672815889,0.4552559554576874,0.4788883924484253,-0.9533424973487854,0.3323420286178589,-0.021109431982040405,-0.09724414348602295,-0.34987468209735656,-0.18277948237308447,0.986421761629919,-0.1707514375448227,0.34278008341789246,-0.9237671494483948, 7, 5, 0, 5
1731649450898,9i,2.548299339881397,0.0s : 0.0s,2.9935558907829005,0.34884727157481427,0.8286472119052495,0.35145162443463607,0.5197874903678894,0.4250337779521942,-0.8720889091491699,0.3380570411682129,-0.03743276000022888,-0.08851253986358643,-0.3434785689468256,-0.18124131247330916,0.9769355153324685,-0.1697220504283905,0.33676451444625854,-0.9261663556098938, 7, 5, 0, 5
1731649450908,9i,2.548299339881397,0.0s : 0.0s,2.9935558907829005,0.3568092109561418,0.795015047932162,0.36347645614120216,0.6216757893562317,0.40276122093200684,-0.7896523475646973,0.3511391282081604,-0.03700724244117737,-0.086295485496521,-0.33637525081485786,-0.17965357952955235,0.9687865198637443,-0.1686745434999466,0.3300676643848419,-0.9287648797035217, 7, 5, 0, 5
1731649450918,9i,2.548299339881397,0.0s : 0.0s,2.9935558907829005,0.36475715402603875,0.7657989983744137,0.37432907925074055,0.6668556332588196,0.39342471957206726,-0.7192868590354919,0.3657653331756592,-0.023058682680130005,-0.07619893550872803,-0.3286567056762309,-0.1778193028846193,0.9618451254640137,-0.1674163043498993,0.32277193665504456,-0.931552529335022, 7, 5, 0, 5
1731649450928,9i,2.548299339881397,0.0s : 0.0s,2.9935558907829005,0.37267073291546293,0.7347034036274054,0.3701326093109792,0.6365318298339844,0.3668716549873352,-0.6731286644935608,0.36537933349609375,-0.013250976800918579,-0.05762380361557007,-0.32098056417397713,-0.1759621186658656,0.9557306497831449,-0.16611479222774506,0.31549718976020813,-0.9342737197875977, 7, 5, 0, 5
1731649450938,9i,2.548299339881397,0.0s : 0.0s,2.9935558907829005,0.38051679335789584,0.6925417796404827,0.3589189259456295,0.5228487849235535,0.31575876474380493,-0.6428586840629578,0.3555810749530792,-0.028519898653030396,-0.039642274379730225,-0.3141007004293962,-0.17432008513743785,0.9496795035509543,-0.16495302319526672,0.30896130204200745,-0.9366607666015625, 7, 5, 0, 5
1731649450947,9i,2.548299339881397,0.0s : 0.0s,2.9935558907829005,0.3882881224724196,0.6394859693895797,0.3559167684799986,0.370345801115036,0.26597949862480164,-0.6231012344360352,0.3494361639022827,-0.060882627964019775,-0.029401004314422607,-0.30860135481802053,-0.17316783480101944,0.943659682079445,-0.16416391730308533,0.3037263751029968,-0.9385097026824951, 7, 5, 0, 5
1731649450957,9i,2.548299339881397,0.0s : 0.0s,2.9935558907829005,0.3959691397853438,0.5846506371017681,0.35694667298164834,0.26590561866760254,0.21805468201637268,-0.5994547009468079,0.3470545709133148,-0.08284741640090942,-0.010017871856689453,-0.304479857799788,-0.17251637822216345,0.9374748817828458,-0.16376598179340363,0.299796998500824,-0.9398417472839355, 7, 5, 0, 5
1731649450967,9i,2.548299339881397,0.0s : 0.0s,2.9935558907829005,0.4035489285646493,0.5377395059620312,0.3526182107487607,0.2567709684371948,0.1884341984987259,-0.5595842599868774,0.34352803230285645,-0.07942259311676025,0.004488348960876465,-0.3009718081331989,-0.17212912261202823,0.931911564980538,-0.16358114778995514,0.2964484691619873,-0.9409354329109192, 7, 5, 0, 5
1731649450977,9i,2.548299339881397,0.0s : 0.0s,2.9935558907829005,0.411017309871255,0.502250720349179,0.3378958261511112,0.3129673898220062,0.17896676063537598,-0.5118261575698853,0.3334065079689026,-0.054661691188812256,0.005078315734863281,-0.2972875151313207,-0.17179686197842,0.92655075799009,-0.1634541004896164,0.2929278016090393,-0.9420595169067383, 7, 5, 0, 5
1731649450987,9i,2.548299339881397,0.0s : 0.0s,2.9935558907829005,0.4181449822838778,0.48117154329015416,0.3200836073158894,0.4410414695739746,0.1840488761663437,-0.45001259446144104,0.3199489712715149,-0.008669525384902954,0.0033182501792907715,-0.29278793606255343,-0.1712208788023805,0.9220252427500585,-0.1631343960762024,0.28862264752388,-0.943442702293396, 7, 5, 0, 5
1731649450997,9i,2.548299339881397,0.0s : 0.0s,2.9935558907829005,0.42505554608173896,0.479213867947976,0.31430943604043,0.5706089735031128,0.18970763683319092,-0.40513142943382263,0.31225666403770447,0.03511399030685425,-0.007294178009033203,-0.2870492114575907,-0.17032577323780546,0.9180012815543948,-0.16256792843341827,0.2831234037876129,-0.9452051520347595, 7, 5, 0, 5
1731649451007,9i,2.548299339881397,0.0s : 0.0s,2.9935558907829005,0.431833060302939,0.48171206616571927,0.31028102809733027,0.6294147372245789,0.17654949426651,-0.39185264706611633,0.30561888217926025,0.048785120248794556,-0.02216815948486328,-0.28042205426955535,-0.16934911445756867,0.9148725177118663,-0.16195738315582275,0.2767612338066101,-0.9471921920776367, 7, 5, 0, 5
1731649451017,9i,2.548299339881397,0.0s : 0.0s,2.9935558907829005,0.4384464228185708,0.48155773713008604,0.3003253550970458,0.6164496541023254,0.15161529183387756,-0.37885403633117676,0.29605406522750854,0.04216155409812927,-0.02774369716644287,-0.2736020424786452,-0.16848992210555172,0.9118567801350115,-0.16145628690719604,0.2702012360095978,-0.9491697549819946, 7, 5, 0, 5
1731649451027,9i,2.548299339881397,0.0s : 0.0s,2.9935558907829005,0.44490210734025315,0.4744536469730118,0.2917688084092674,0.5616819858551025,0.1277797371149063,-0.36965230107307434,0.2882452607154846,0.032899051904678345,-0.031005799770355225,-0.2671421781142335,-0.16785259020124035,0.9090165726768072,-0.1611395627260208,0.2639760673046112,-0.9509735703468323, 7, 5, 0, 5
1731649451037,9i,2.548299339881397,0.0s : 0.0s,2.9935558907829005,0.45127058468643516,0.4540495733120516,0.2885529752169637,0.48102617263793945,0.11170551925897598,-0.356696754693985,0.2853151559829712,0.022479653358459473,-0.036779701709747314,-0.2614173676538096,-0.16738158581923823,0.906166217775182,-0.1609407663345337,0.2584500312805176,-0.9525238275527954, 7, 5, 0, 5
1731649451047,9i,2.548299339881397,0.0s : 0.0s,2.9935558907829005,0.4575679255010684,0.42733551543034237,0.28550924369671205,0.42179375886917114,0.08428134769201279,-0.3359706997871399,0.2831327021121979,0.014894098043441772,-0.03360903263092041,-0.2564155289359446,-0.16709342859163337,0.9032628340861263,-0.16087928414344788,0.2536149024963379,-0.9538329839706421, 7, 5, 0, 5
1731649451057,9i,2.548299339881397,0.0s : 0.0s,2.9935558907829005,0.4637800179843626,0.40258672545693946,0.28081624848790143,0.4117002785205841,0.05679131671786308,-0.30731526017189026,0.27939459681510925,0.012340158224105835,-0.02538001537322998,-0.2518180361752168,-0.16703624527618274,0.900537222070099,-0.16101689636707306,0.24916507303714752,-0.9549818634986877, 7, 5, 0, 5
1731649451067,9i,2.548299339881397,0.0s : 0.0s,2.9935558907829005,0.46991935763973114,0.3828482702438162,0.27886680924870405,0.4183155596256256,0.04734082147479057,-0.2795313000679016,0.27781328558921814,0.015269443392753601,-0.018796801567077637,-0.2472362169463505,-0.16710070946330416,0.8981995293227548,-0.16126663982868195,0.24472515285015106,-0.9560871720314026, 7, 5, 0, 5
1731649451077,9i,2.548299339881397,0.0s : 0.0s,2.9935558907829005,0.4760163153186821,0.369690477546137,0.2839661344716782,0.43380019068717957,0.03651915490627289,-0.2639172375202179,0.28230375051498413,0.029689177870750427,-0.007740199565887451,-0.242611958147968,-0.16718147460875382,0.8960461802818728,-0.16153044998645782,0.24023890495300293,-0.9571797847747803, 7, 5, 0, 5
1731649451087,9i,2.548299339881397,0.0s : 0.0s,2.9935558907829005,0.4820802509056914,0.35936887044691107,0.2866868937211906,0.43496185541152954,0.013350719586014748,-0.2537626028060913,0.2824530303478241,0.04698409140110016,-0.014218151569366455,-0.2378920492619468,-0.16738105325039293,0.894023227502821,-0.1619085818529129,0.2356545627117157,-0.9582549333572388, 7, 5, 0, 5
1731649451097,9i,2.548299339881397,0.0s : 0.0s,2.9935558907829005,0.48813855689758495,0.35019132519427276,0.2910036428045113,0.43634071946144104,-0.009777147322893143,-0.23334646224975586,0.28274106979370117,0.058370158076286316,-0.036517560482025146,-0.2331970130950064,-0.16777735080764403,0.891962945089138,-0.16247129440307617,0.23108917474746704,-0.9592710137367249, 7, 5, 0, 5
1731649451107,9i,2.548299339881397,0.0s : 0.0s,2.9935558907829005,0.49420422223112204,0.348360896123087,0.29530743871187787,0.45217400789260864,-0.04543314874172211,-0.21752914786338806,0.2843170166015625,0.06608836352825165,-0.04475092887878418,-0.22846612574010322,-0.16838809081191652,0.8903523369765685,-0.163238525390625,0.2264837771654129,-0.9602386951446533, 7, 5, 0, 5
1731649451117,9i,2.548299339881397,0.0s : 0.0s,2.9935558907829005,0.5002758904431708,0.3472060889279203,0.293648782021694,0.4545671343803406,-0.06243618577718735,-0.22578175365924835,0.28489747643470764,0.057085007429122925,-0.04247748851776123,-0.22362875922754896,-0.1692315126645338,0.8886924326987412,-0.16423095762729645,0.22176948189735413,-0.9611693620681763, 7, 5, 0, 5
1731649451127,9i,2.548299339881397,0.0s : 0.0s,2.9935558907829005,0.5063529902463668,0.346154771761544,0.2898477460505754,0.4515010416507721,-0.06920593976974487,-0.22740787267684937,0.283868670463562,0.04213996231555939,-0.04067575931549072,-0.21877161606206966,-0.1702276950577595,0.8870995961795758,-0.165368914604187,0.21703068912029266,-0.962055504322052, 7, 5, 0, 5
1731649451137,9i,2.548299339881397,0.0s : 0.0s,2.9935558907829005,0.5124107411635183,0.34555059340596894,0.28157927669260563,0.46020710468292236,-0.08903708308935165,-0.21967661380767822,0.27578312158584595,0.045885756611824036,-0.033541858196258545,-0.21388968277291176,-0.17134432569742356,0.8854432310276914,-0.16662174463272095,0.21226254105567932,-0.9629027843475342, 7, 5, 0, 5
1731649451147,9i,2.548299339881397,0.0s : 0.0s,2.9935558907829005,0.5184330480473825,0.34519176721871064,0.27629824227652333,0.46321219205856323,-0.101544089615345,-0.21544431149959564,0.2682751417160034,0.05891427397727966,-0.02997124195098877,-0.20896063537090653,-0.172601351387953,0.8839411190488409,-0.1680096536874771,0.2074432522058487,-0.9637116193771362, 7, 5, 0, 5
1731649451157,9i,2.548299339881397,0.0s : 0.0s,2.9935558907829005,0.5243782194346411,0.3444390158816345,0.26750966541289484,0.4555685520172119,-0.11889688670635223,-0.21025149524211884,0.25976040959358215,0.05827280879020691,-0.026272237300872803,-0.2040815280068213,-0.17397310183619114,0.882427945468468,-0.16950464248657227,0.20266783237457275,-0.9644656181335449, 7, 5, 0, 5
1731649451167,9i,2.548299339881397,0.0s : 0.0s,2.9935558907829005,0.5302360966904653,0.3465528221156898,0.26266161516878506,0.48101451992988586,-0.13671371340751648,-0.20952604711055756,0.25570914149284363,0.055178433656692505,-0.023649513721466064,-0.19912571718199126,-0.17551019482707653,0.8811140872136778,-0.17116019129753113,0.19781239330768585,-0.9651810526847839, 7, 5, 0, 5
1731649451177,9i,2.548299339881397,0.0s : 0.0s,2.9935558907829005,0.5360542491183927,0.35436439521551394,0.2663486493150761,0.49570611119270325,-0.1433786153793335,-0.22282001376152039,0.25908541679382324,0.05761803686618805,-0.022282540798187256,-0.19396218025424147,-0.1771486379579533,0.879802961730681,-0.17291904985904694,0.1927482783794403,-0.9658918976783752, 7, 5, 0, 5
1731649451187,9i,2.548299339881397,0.0s : 0.0s,2.9935558907829005,0.5418397938554373,0.36504709225362514,0.26837132549926157,0.5133378505706787,-0.1465749442577362,-0.23689961433410645,0.26084980368614197,0.0599333792924881,-0.01971137523651123,-0.18858862784806146,-0.17885061338266925,0.878573952044949,-0.17474445700645447,0.18747273087501526,-0.9666014313697815, 7, 5, 0, 5
1731649451197,9i,2.548299339881397,0.0s : 0.0s,2.9935558907829005,0.5475598492438126,0.37492897971922506,0.25865943499725885,0.521084725856781,-0.1429697424173355,-0.2468089759349823,0.251518577337265,0.05851516127586365,-0.014801502227783203,-0.18307599080932377,-0.18057912267650678,0.8768531557155987,-0.17659790813922882,0.1820550113916397,-0.9672999382019043, 7, 5, 0, 5
1731649451207,9i,2.548299339881397,0.0s : 0.0s,2.9935558907829005,0.553199797789644,0.3784835376412177,0.25378181676047545,0.5148491859436035,-0.14105919003486633,-0.24521081149578094,0.24657194316387177,0.057940706610679626,-0.01582282781600952,-0.17756436353373334,-0.182268463715599,0.8752996182029863,-0.17841093242168427,0.17663276195526123,-0.9679723381996155, 7, 5, 0, 5
1731649451217,9i,2.548299339881397,0.0s : 0.0s,2.9935558907829005,0.5588091002854503,0.380193952473567,0.2583982043811146,0.512911319732666,-0.1513984501361847,-0.23962795734405518,0.2515193223953247,0.05553080141544342,-0.02059108018875122,-0.17206265751807484,-0.18398320192995082,0.8737987911903838,-0.1802455484867096,0.17121490836143494,-0.9686056971549988, 7, 5, 0, 5
1731649451227,9i,2.548299339881397,0.0s : 0.0s,2.9935558907829005,0.5644022983053327,0.3803499110770082,0.25971796179221596,0.5113916993141174,-0.15894824266433716,-0.19970476627349854,0.2549899220466614,0.04375925660133362,-0.022774696350097656,-0.1666362043538719,-0.18575381537440336,0.8725416783797134,-0.18212918937206268,0.16586609184741974,-0.9691838622093201, 7, 5, 0, 5
1731649451237,9i,2.548299339881397,0.0s : 0.0s,2.9935558907829005,0.5699911468346672,0.37963809496692735,0.26421961806849587,0.5297826528549194,-0.1545657515525818,-0.12929680943489075,0.26161032915115356,0.03176288306713104,-0.01905679702758789,-0.16124150238940907,-0.1874248911524479,0.8717857106275445,-0.18391257524490356,0.16054372489452362,-0.9697431921958923, 7, 5, 0, 5
1731649451247,9i,2.548299339881397,0.0s : 0.0s,2.9935558907829005,0.5756001628599252,0.37606443713741355,0.2773610984234742,0.5139901638031006,-0.1437051147222519,-0.09209325909614563,0.2766886055469513,0.016769051551818848,-0.009559988975524902,-0.15590471439700995,-0.1889010136057523,0.8716997354098287,-0.1855020821094513,0.155273899435997,-0.9702984094619751, 7, 5, 0, 5
1731649451257,9i,2.548299339881397,0.0s : 0.0s,2.9935558907829005,0.5812857955463085,0.36291287283714335,0.2971883469000338,0.4723367989063263,-0.15507149696350098,-0.08310648798942566,0.29699209332466125,-0.010610520839691162,0.002006709575653076,-0.150892031680706,-0.19039689691282194,0.8717984802377934,-0.18709827959537506,0.15032008290290833,-0.9707719087600708, 7, 5, 0, 5
1731649451267,9i,2.548299339881397,0.0s : 0.0s,2.9935558907829005,0.5871187423066807,0.3596520899901797,0.312251029014865,0.4901602566242218,-0.15523608028888702,-0.05255044251680374,0.31023621559143066,-0.030997350811958313,0.01712775230407715,-0.14606400555943108,-0.1919381227664829,0.872143230919829,-0.18873047828674316,0.14554518461227417,-0.9711834788322449, 7, 5, 0, 5
1731649451277,9i,2.548299339881397,0.0s : 0.0s,2.9935558907829005,0.5930227913737103,0.35767004693861254,0.3138296402506981,0.5091791749000549,-0.1295834332704544,-0.003951114136725664,0.31120115518569946,-0.029798537492752075,0.027476012706756592,-0.14110628916780937,-0.193262902908059,0.8727959739972663,-0.19015316665172577,0.14063850045204163,-0.9716288447380066, 7, 5, 0, 5
1731649451287,9i,2.548299339881397,0.0s : 0.0s,2.9935558907829005,0.5989355439606447,0.3555185969038692,0.3073102739012255,0.5081605315208435,-0.11638960987329483,0.015845494344830513,0.3038649260997772,-0.0250626802444458,0.03843921422958374,-0.13613966630983892,-0.19435489798955619,0.8739364281543217,-0.19134661555290222,0.13571952283382416,-0.9720939993858337, 7, 5, 0, 5
1731649451297,9i,2.548299339881397,0.0s : 0.0s,2.9935558907829005,0.6048321680475873,0.3530604947252427,0.2950912156038852,0.49823564291000366,-0.11720045655965805,0.027532342821359634,0.2918611764907837,-0.013138949871063232,0.04151201248168945,-0.13123701108805266,-0.19535974367853678,0.875069812117787,-0.1924501657485962,0.1308606117963791,-0.9725422263145447, 7, 5, 0, 5
1731649451307,9i,2.548299339881397,0.0s : 0.0s,2.9935558907829005,0.610703516531097,0.34333577079182703,0.2886424047271266,0.47166022658348083,-0.12091876566410065,0.040291015058755875,0.2860487699508667,0.004569247364997864,0.03833615779876709,-0.12653608530951432,-0.19638520173368212,0.8764056355999769,-0.1935652643442154,0.1261986792087555,-0.9729369878768921, 7, 5, 0, 5
1731649451317,9i,2.548299339881397,0.0s : 0.0s,2.9935558907829005,0.6165682471871784,0.3297052645715219,0.2894203957884721,0.4335850179195404,-0.1247498095035553,0.05535491928458214,0.28754162788391113,0.020007401704788208,0.026147305965423584,-0.12220336763333257,-0.19743491902260438,0.8777585808519727,-0.19469189643859863,0.12189944088459015,-0.9732602834701538, 7, 5, 0, 5
1731649451327,9i,2.548299339881397,0.0s : 0.0s,2.9935558907829005,0.6224447495888517,0.31661270104824857,0.29391653951494323,0.40512725710868835,-0.1414393037557602,0.05068080499768257,0.2915951609611511,0.03390679508447647,0.014474928379058838,-0.11820861381479227,-0.19858670766319508,0.8791036706122334,-0.19590726494789124,0.11793351173400879,-0.9735050201416016, 7, 5, 0, 5
1731649451337,9i,2.548299339881397,0.0s : 0.0s,2.9935558907829005,0.6283392013342615,0.3035302785151925,0.29363066162802476,0.37343958020210266,-0.16733810305595398,0.051313139498233795,0.2909414768218994,0.039087310433387756,0.006648659706115723,-0.11448301872554825,-0.1999588967531899,0.8803034753481689,-0.1973288208246231,0.1142331063747406,-0.9736591577529907, 7, 5, 0, 5
1731649451347,9i,2.548299339881397,0.0s : 0.0s,2.9935558907829005,0.634246204003664,0.2890706337643321,0.29110198754762145,0.33659234642982483,-0.18245632946491241,0.053905196487903595,0.2878301739692688,0.04345577955245972,0.0023986101150512695,-0.11110013151812456,-0.20157491118605347,0.8814996722671291,-0.1989782303571701,0.11087171733379364,-0.9737120270729065, 7, 5, 0, 5
1731649451357,9i,2.548299339881397,0.0s : 0.0s,2.9935558907829005,0.6401670874174936,0.27837057314139596,0.2915213048508781,0.3188403248786926,-0.2087424397468567,0.052093878388404846,0.28644007444381714,0.05414418876171112,-0.0022719502449035645,-0.10799197279682576,-0.203399321169793,0.8827473736325856,-0.20082299411296844,0.10778219252824783,-0.9736801981925964, 7, 5, 0, 5
1731649451367,9i,2.548299339881397,0.0s : 0.0s,2.9935558907829005,0.6461030046373206,0.27460749020456615,0.2900874214595661,0.31632816791534424,-0.21679078042507172,0.056963734328746796,0.28317224979400635,0.061208657920360565,-0.014754295349121094,-0.10499990871617189,-0.20539922508360875,0.8838801906361117,-0.20283472537994385,0.10480707883834839,-0.9735879898071289, 7, 5, 0, 5
1731649451377,9i,2.548299339881397,0.0s : 0.0s,2.9935558907829005,0.6520470434144169,0.27383964279925443,0.2839744567848176,0.3259791135787964,-0.23006388545036316,0.05498683825135231,0.2752426266670227,0.06414992362260818,-0.027708768844604492,-0.10196611594541817,-0.20750129000662543,0.8849383345097269,-0.2049453854560852,0.10178951919078827,-0.9734660983085632, 7, 5, 0, 5
1731649451387,9i,2.548299339881397,0.0s : 0.0s,2.9935558907829005,0.6580025326208376,0.2752537168359258,0.2857082728907215,0.3476375341415405,-0.24607400596141815,0.05914350226521492,0.2731042504310608,0.07497718185186386,-0.03770554065704346,-0.09878274803574252,-0.20976693560311246,0.8860810765936992,-0.20721681416034698,0.09862217307090759,-0.9733113050460815, 7, 5, 0, 5
1731649451397,9i,2.548299339881397,0.0s : 0.0s,2.9935558907829005,0.6639626448723834,0.2837981715099152,0.2863013997767591,0.3670388162136078,-0.2626512944698334,0.06135106459259987,0.2712010443210602,0.08375604450702667,-0.03746211528778076,-0.09542016577825517,-0.21217826744896395,0.8872970299957667,-0.20963183045387268,0.09527543187141418,-0.9731274843215942, 7, 5, 0, 5
1731649451407,9i,2.548299339881397,0.0s : 0.0s,2.9935558907829005,0.6699175968478429,0.2897070018444854,0.2815963107063871,0.36925455927848816,-0.2648353576660156,0.061917517334222794,0.2686079442501068,0.07893380522727966,-0.030260682106018066,-0.0919569544560188,-0.21469616364790267,0.888564503441223,-0.2121504247188568,0.0918274074792862,-0.9729130864143372, 7, 5, 0, 5
1731649451417,9i,2.548299339881397,0.0s : 0.0s,2.9935558907829005,0.6758598498950353,0.29337723870417526,0.2774138280985133,0.3711583912372589,-0.26423534750938416,0.07024265825748444,0.26864174008369446,0.06611721962690353,-0.020458757877349854,-0.08850890039276238,-0.21723488677284852,0.8899453079910424,-0.21468666195869446,0.08839338272809982,-0.9726747870445251, 7, 5, 0, 5
1731649451427,9i,2.548299339881397,0.0s : 0.0s,2.9935558907829005,0.6817899481636931,0.2939126013370075,0.27743139075902756,0.36654606461524963,-0.23929539322853088,0.08602934330701828,0.2719274163246155,0.05433545261621475,-0.00844484567642212,-0.08506468062346599,-0.21962102699395591,0.8913557622696565,-0.2170720249414444,0.08496212959289551,-0.9724510908126831, 7, 5, 0, 5
1731649451437,9i,2.548299339881397,0.0s : 0.0s,2.9935558907829005,0.6877179481797739,0.29354931738686674,0.2827467957405019,0.3442572057247162,-0.22925864160060883,0.16181300580501556,0.28021544218063354,0.03764505684375763,0.0028117895126342773,-0.08186172819247493,-0.22174479281997247,0.8932140283785887,-0.21919551491737366,0.08177033066749573,-0.972248375415802, 7, 5, 0, 5
1731649451447,9i,2.548299339881397,0.0s : 0.0s,2.9935558907829005,0.6936588884857176,0.2827763502885044,0.2919094259638737,0.28612998127937317,-0.23095986247062683,0.1308439075946808,0.29081594944000244,0.020265325903892517,0.015050351619720459,-0.07913681637136653,-0.22388801643701528,0.8953986540119967,-0.22132740914821625,0.07905424386262894,-0.9719900488853455, 7, 5, 0, 5
1731649451457,9i,2.548299339881397,0.0s : 0.0s,2.9935558907829005,0.6996234415589639,0.269183596270041,0.3132758221393377,0.29488125443458557,-0.1879485696554184,0.056842461228370667,0.3079766631126404,0.0013705790042877197,0.05736058950424194,-0.07655462495337885,-0.22587741310175688,0.8967485134538065,-0.2233056128025055,0.07647986710071564,-0.9717435240745544, 7, 5, 0, 5
1731649451467,9i,2.548299339881397,0.0s : 0.0s,2.9935558907829005,0.7055211708945627,0.26047771971468453,0.281078594040678,0.31803902983665466,-0.1329186111688614,0.11208787560462952,0.27151620388031006,-0.02811521291732788,0.0670347809791565,-0.07372958957588437,-0.22734419091864194,0.8981060846940042,-0.22477851808071136,0.07366281002759933,-0.9716215133666992, 7, 5, 0, 5
1731649451477,9i,2.548299339881397,0.0s : 0.0s,2.9935558907829005,0.7110490528945582,0.2531513492982289,0.24394427230703636,0.3028046786785126,-0.11090385168790817,0.1446363627910614,0.23783349990844727,-0.022648252546787262,0.04930609464645386,-0.07100206796873382,-0.22839095133532952,0.899990720192804,-0.22584009170532227,0.07094242423772812,-0.9715778231620789, 7, 5, 0, 5
1731649451487,9i,2.548299339881397,0.0s : 0.0s,2.9935558907829005,0.7166064443029758,0.23784027094713783,0.28861511180819505,0.2657545208930969,-0.11624961346387863,0.08394132554531097,0.2853855788707733,0.020280182361602783,0.037979841232299805,-0.06850335106224748,-0.22936130052521972,0.9017037160871971,-0.22682234644889832,0.06844978779554367,-0.9715278148651123, 7, 5, 0, 5
1731649451497,9i,2.548299339881397,0.0s : 0.0s,2.9935558907829005,0.7224273088640867,0.2215706794438663,0.31567338410292073,0.23858223855495453,-0.12092612683773041,0.05919399857521057,0.31369107961654663,0.020815394818782806,0.02853614091873169,-0.06625404998826488,-0.2304728315093197,0.9029435508669675,-0.22793668508529663,0.06620559096336365,-0.9714224934577942, 7, 5, 0, 5
1731649451507,9i,2.548299339881397,0.0s : 0.0s,2.9935558907829005,0.7283587517358425,0.21722481652073083,0.3127695556488756,0.2711026072502136,-0.1056252047419548,0.07203629612922668,0.31190723180770874,0.0092848539352417,0.021271228790283203,-0.06393996158203988,-0.23152268649698965,0.9041208742029617,-0.22899095714092255,0.06389640271663666,-0.9713292121887207, 7, 5, 0, 5
1731649451516,9i,2.548299339881397,0.0s : 0.0s,2.9935558907829005,0.7343375371515365,0.21551548841645304,0.3073322033926787,0.28914886713027954,-0.06779783964157104,0.06903710961341858,0.305741548538208,0.023716256022453308,0.020315706729888916,-0.061359575595139756,-0.23231588929636232,0.9054335818913091,-0.22979854047298431,0.06132107973098755,-0.9713044762611389, 7, 5, 0, 5
1731649451526,9i,2.548299339881397,0.0s : 0.0s,2.9935558907829005,0.7402999996013644,0.20626302207226996,0.2786324385085083,0.2712457776069641,-0.0422072559595108,0.06374754011631012,0.2768028974533081,0.02557133138179779,0.019034147262573242,-0.07187222723654187,-0.217736656458414,0.9076410061553255,-0.2154625803232193,0.07181036472320557,-0.9738681316375732, 7, 5, 0, 5
1731649451536,9i,2.548299339881397,0.0s : 0.0s,2.9935558907829005,0.746013381589509,0.19285550283374,0.24772783487312255,0.23073136806488037,-0.03904928267002106,0.06906440854072571,0.24636542797088623,0.01992594450712204,0.016616642475128174,-0.08083967520851107,-0.20486545324819413,0.9097953325926557,-0.20277106761932373,0.08075165748596191,-0.9758909344673157, 7, 5, 0, 5
1731649451546,9i,2.548299339881397,0.0s : 0.0s,2.9935558907829005,0.7514399345021352,0.17564092566553183,0.23079883123588887,0.19208784401416779,-0.04016222059726715,0.050685133785009384,0.2298847734928131,1.2472271919250488e-05,0.020520508289337158,-0.08871173319489047,-0.19359452951868691,0.9117831567878477,-0.1916309893131256,0.0885954201221466,-0.9774602055549622, 7, 5, 0, 5
1731649451556,9i,2.548299339881397,0.0s : 0.0s,2.9935558907829005,0.7567296005686334,0.1631249062844626,0.2316473723599496,0.19121745228767395,-0.042693909257650375,0.0406685508787632,0.23056113719940186,-0.013575248420238495,0.017826378345489502,-0.09555358025221967,-0.1836266949320204,0.9134790497445849,-0.18176352977752686,0.09540823847055435,-0.9787028431892395, 7, 5, 0, 5
1731649451566,9i,2.548299339881397,0.0s : 0.0s,2.9935558907829005,0.7619551407411607,0.15483022368589108,0.23197054811170797,0.19466225802898407,-0.03565783426165581,0.0429636649787426,0.23106159269809723,-0.013599082827568054,0.015360355377197266,-0.10131208939825426,-0.1746886612849313,0.9150701165771935,-0.17291034758090973,0.10113886743783951,-0.9797310829162598, 7, 5, 0, 5
1731649451576,9i,2.548299339881397,0.0s : 0.0s,2.9935558907829005,0.7670534133663446,0.15354064187804292,0.22174129724833513,0.2052641063928604,-0.02599402144551277,0.04985835403203964,0.220724418759346,-0.014381378889083862,0.015591979026794434,-0.10613336434139402,-0.16661068832664797,0.916694044407913,-0.164907768368721,0.10593422502279282,-0.9806035757064819, 7, 5, 0, 5
1731649451586,9i,2.548299339881397,0.0s : 0.0s,2.9935558907829005,0.7718840532441587,0.15065253853136484,0.2054878720495354,0.19423595070838928,-0.025610260665416718,0.05242377519607544,0.20321762561798096,-0.02256230264902115,0.020464718341827393,-0.11021829147502069,-0.15924346691999003,0.9182744610604467,-0.15760910511016846,0.1099952682852745,-0.9813564419746399, 7, 5, 0, 5
1731649451596,9i,2.548299339881397,0.0s : 0.0s,2.9935558907829005,0.7764053134428635,0.14294446973807445,0.18863108632674258,0.17724044620990753,-0.025111451745033264,0.0483480766415596,0.18315573036670685,-0.04130539298057556,0.018152952194213867,-0.11381669955647968,-0.15256465381410028,0.9198125913257879,-0.15099020302295685,0.11357112228870392,-0.9819895625114441, 7, 5, 0, 5
1731649451606,9i,2.548299339881397,0.0s : 0.0s,2.9935558907829005,0.7807300900248773,0.13361703385529497,0.18558269716660308,0.1586662381887436,-0.03163007274270058,0.04007416591048241,0.17745225131511688,-0.05183024704456329,0.016286849975585938,-0.11702341214841497,-0.14651901302813378,0.9212038437872521,-0.14499680697917938,0.11675649881362915,-0.9825191497802734, 7, 5, 0, 5
1731649451616,9i,2.548299339881397,0.0s : 0.0s,2.9935558907829005,0.7849463244970847,0.12138464032299538,0.1834697008101595,0.1271395981311798,-0.044758036732673645,0.03526163846254349,0.17454014718532562,-0.055732645094394684,0.009525775909423828,-0.11998528535834398,-0.1410914498818678,0.9224276379218105,-0.13961277902126312,0.11969760060310364,-0.9829449653625488, 7, 5, 0, 5
1731649451626,9i,2.548299339881397,0.0s : 0.0s,2.9935558907829005,0.7883951429695705,0.11081689691451672,0.15323119391636614,0.11420942097902298,-0.05226442217826843,0.03438305854797363,0.07813208550214767,-0.13173946738243103,0.004459679126739502,-0.1909110617575065,-0.04320949003367074,0.9380994051772189,-0.04241124913096428,0.1897534877061844,-0.980915367603302, 7, 5, 0, 5
1731649451636,9i,2.548299339881397,0.0s : 0.0s,2.9935558907829005,0.7912783557655431,0.21245858230495868,0.1400739215768004,0.5300794243812561,-0.460784375667572,-0.014451791532337666,0.06050219014286995,-0.12632541358470917,0.001441657543182373,-0.18006184418790674,-0.028387358675473186,0.9413797391315137,-0.027924658730626106,0.17909042537212372,-0.9834362268447876, 7, 5, 0, 5
1731649451646,9i,2.548299339881397,0.0s : 0.0s,2.9935558907829005,0.7936832660360227,0.13390387415750976,0.12362767052210417,-0.07566557824611664,0.02594028040766716,0.032917320728302,0.042656347155570984,-0.11601656675338745,-0.0020959973335266113,-0.16934568494096888,-0.015628321566020835,0.9435676714708867,-0.01540413498878479,0.1685374230146408,-0.9855749011039734, 7, 5, 0, 5
1731649451656,9i,2.548299339881397,0.0s : 0.0s,2.9935558907829005,0.7959510549551179,0.11373941844917113,0.1754630994518371,0.08661554008722305,-0.03122660145163536,0.061478156596422195,0.10046842694282532,-0.1270717829465866,0.0674251914024353,-0.16270086513569373,-0.007287747501321326,0.9451923151237697,-0.007191437296569347,0.16198399662971497,-0.9867671728134155, 7, 5, 0, 5
1731649451666,9i,2.548299339881397,0.0s : 0.0s,2.9935558907829005,0.7981208348785471,0.10619399799277443,0.13525793322670387,0.08264902979135513,-0.03646157681941986,0.10535746067762375,0.0643988773226738,-0.11507725715637207,0.030078530311584473,-0.1544943271353576,-0.002524020322499955,0.9468438958637713,-0.0024939551949501038,0.15388046205043793,-0.9880863428115845, 7, 5, 0, 5
1731649451676,9i,2.548299339881397,0.0s : 0.0s,2.9935558907829005,0.7993637902106606,0.09909178481146871,0.09430573991492525,0.07609505951404572,0.09282983094453812,0.08750739693641663,-0.04268573597073555,-0.08372005820274353,0.007902681827545166,-0.1451423147784252,0.00016120322831916932,0.9479845268586163,0.0001595082285348326,0.1446332484483719,-0.9894853234291077, 7, 5, 0, 5
1731649451686,9i,2.548299339881397,0.0s : 0.0s,2.9935558907829005,0.8004943400965684,0.09431290036971585,0.07758115745995994,0.05432025343179703,0.04303644225001335,0.11680696159601212,0.03152173012495041,-0.06945580244064331,-0.014181256294250488,-0.13565219563960604,0.003175427428915481,0.9490562458454934,0.0031462504994124174,0.13523654639720917,-0.990808367729187, 7, 5, 0, 5
1731649451696,9i,2.548299339881397,0.0s : 0.0s,2.9935558907829005,0.8014332382066442,0.08719146802810478,0.08467334458136687,-0.04496212303638458,-0.1208050474524498,0.051209308207035065,-0.05277702584862709,-0.04907822608947754,-0.044446468353271484,-0.1271181674721455,0.00570395324021998,0.950251144310867,0.00565789919346571,0.1267760992050171,-0.991915225982666, 7, 5, 0, 5
1731649451706,9i,2.548299339881397,0.0s : 0.0s,2.9935558907829005,0.8023147068667851,0.08137236522011258,0.10851955801956507,0.025759447365999222,-0.1003762036561966,-0.03288319706916809,0.0014064935967326164,-0.10141260921955109,-0.03860050439834595,-0.11985744476438462,0.006898069220519451,0.9503321675305324,0.006848526187241077,0.11957067251205444,-0.992802083492279, 7, 5, 0, 5