timestamp,club,max_speed,tempo,w.rotation,l.speed,t.spped,acc,rotation.x,rotation.y,rotation.z,userAcceleration.x,userAcceleration.y,userAcceleration.z,pitch,roll,yaw,gravity.x,gravity.y,gravity.z,impactIndex,minDownIndex,StartIndex,endIndex
1731654657744,9i,12.12187156664565,1.7s : 0.2s,0.8771606457030856,0.00020391313273146664,0.02749667412932224,0.060771450502760206,-0.03608407825231552,-0.09112291783094406,0.09512268006801605,-0.024767756462097168,-0.018125250935554504,-0.052451908588409424,-0.21053406392162363,2.0412954252529296,3.0121719901918995,0.8716611862182617,0.2089821994304657,0.4433215856552124, 150, 132, 6, 132
1731654657754,9i,12.12187156664565,1.7s : 0.2s,0.8771606457030856,0.0006683650728858474,0.04630735174392824,0.04055163050468756,0.040966495871543884,-0.1040259301662445,0.08993430435657501,-0.026018202304840088,-0.013693064451217651,-0.027928262948989868,-0.21080760061509893,2.038627750408795,3.011349157512335,0.8727894425392151,0.20924969017505646,0.440968781709671, 150, 132, 6, 132
1731654657764,9i,12.12187156664565,1.7s : 0.2s,0.8771606457030856,0.001116348824314186,0.06207733540970302,0.023322629871603336,0.08662719279527664,-0.09804847091436386,0.08816969394683838,-0.02192467451095581,0.005643010139465332,-0.005604475736618042,-0.211022792967809,2.036187197541629,3.010106502855679,0.8738226890563965,0.20946010947227478,0.4388171434402466, 150, 132, 6, 132
1731654657774,9i,12.12187156664565,1.7s : 0.2s,0.8771606457030856,0.0015797809911679216,0.0724326407566672,0.032548063484225405,0.11424523591995239,-0.08192232251167297,0.06632432341575623,-0.024472415447235107,0.007997334003448486,-0.019912809133529663,-0.21123667785974645,2.034354922539469,3.008665810689671,0.8745851516723633,0.20966924726963043,0.4371952712535858, 150, 132, 6, 132
1731654657784,9i,12.12187156664565,1.7s : 0.2s,0.8771606457030856,0.002131932228614357,0.07548922830407591,0.04751415296895096,0.11661438643932343,-0.06120266020298004,0.04644036293029785,-0.03779703378677368,-0.013254702091217041,-0.025559574365615845,-0.2117325791725301,2.032804576637686,3.007230905796052,0.8751688003540039,0.21015410125255585,0.435792475938797, 150, 132, 6, 132
1731654657794,9i,12.12187156664565,1.7s : 0.2s,0.8771606457030856,0.002973966979397731,0.07065808517015279,0.0714893690053096,0.05564757436513901,-0.056372929364442825,0.01902877725660801,-0.04718613624572754,-0.03598013520240784,-0.03987014293670654,-0.21222168106312012,2.031529749287205,3.006176313041393,0.87563157081604,0.21063224971294403,0.43463072180747986, 150, 132, 6, 132
1731654657804,9i,12.12187156664565,1.7s : 0.2s,0.8771606457030856,0.003961164200143274,0.05924042687637641,0.07117627676836141,0.017215760424733162,-0.06223800778388977,-0.011579998768866062,-0.0444871187210083,-0.04496361315250397,-0.03263789415359497,-0.21232683918965983,2.0305310384677253,3.0057855711097035,0.8760452270507812,0.21073505282402039,0.4337460994720459, 150, 132, 6, 132
1731654657814,9i,12.12187156664565,1.7s : 0.2s,0.8771606457030856,0.0049493086935828365,0.05801067016220036,0.07061503590208308,0.0552339181303978,-0.056189969182014465,-0.011391479521989822,-0.03019660711288452,-0.06381075084209442,0.0016841292381286621,-0.2125167731443367,2.0296574505679588,3.005486007947599,0.8763879537582397,0.21092072129249573,0.43296292424201965, 150, 132, 6, 132
1731654657824,9i,12.12187156664565,1.7s : 0.2s,0.8771606457030856,0.005926251455387265,0.058392240954108374,0.06066054739441965,0.10272181034088135,-0.03888314962387085,-0.009832731448113918,-0.023702383041381836,-0.05480341613292694,0.010699748992919922,-0.21291792182070124,2.0287975780043452,3.004721433234466,0.8766839504241943,0.21131283044815063,0.4321717619895935, 150, 132, 6, 132
1731654657834,9i,12.12187156664565,1.7s : 0.2s,0.8771606457030856,0.006867840137809805,0.06693408028732308,0.03570724252130489,0.14311297237873077,-0.03161831200122833,-0.002487300895154476,-0.026580214500427246,-0.02149060368537903,0.010327309370040894,-0.2134301626833984,2.0281980392862526,3.003620546244109,0.87684565782547,0.21181346476078033,0.4315981864929199, 150, 132, 6, 132
1731654657844,9i,12.12187156664565,1.7s : 0.2s,0.8771606457030856,0.0077544433067012995,0.0706810222717724,0.0436769012003174,0.13139507174491882,-0.018021011725068092,0.004782862029969692,-0.03100985288619995,-0.014853298664093018,0.026933997869491577,-0.21414869411714485,2.027764262485516,3.0023418546034875,0.8768960237503052,0.21251565217971802,0.43115055561065674, 150, 132, 6, 132
1731654657854,9i,12.12187156664565,1.7s : 0.2s,0.8771606457030856,0.00860558575957953,0.07518938480185154,0.04625638561328682,0.13826201856136322,-0.015435704030096531,0.0021460670977830887,-0.03532475233078003,-0.016639575362205505,0.02479797601699829,-0.21478998346690184,2.027310619965752,3.001051440360492,0.8769689798355103,0.2131422460079193,0.43069252371788025, 150, 132, 6, 132
1731654657864,9i,12.12187156664565,1.7s : 0.2s,0.8771606457030856,0.009410208272986149,0.070674723745052,0.0422263261261727,0.07964292168617249,-0.014912392012774944,0.0009612264111638069,-0.03431576490402222,-0.002454131841659546,0.02448403835296631,-0.21524829426813136,2.026969591083451,3.0000176649009123,0.8770281672477722,0.21358999609947205,0.4303504526615143, 150, 132, 6, 132
1731654657874,9i,12.12187156664565,1.7s : 0.2s,0.8771606457030856,0.010172438419698294,0.05382051813178839,0.033225032071846426,0.02003045566380024,-0.009789003990590572,-0.007711224257946014,-0.025960087776184082,-0.0062992870807647705,0.019755899906158447,-0.215248256285184,2.0266714153234724,2.9995643455546563,0.8771564960479736,0.21358996629714966,0.43008890748023987, 150, 132, 6, 132
1731654657894,9i,12.12187156664565,1.7s : 0.2s,0.8771606457030856,0.011645227036117622,0.030940381150632315,0.0363932140723492,-0.03757338225841522,-0.004246965050697327,-0.0021592990960925817,-0.01658862829208374,-0.023805171251296997,0.021968096494674683,-0.21417483016455657,2.0268353010494216,3.000197062570104,0.8772914409637451,0.21254117786884308,0.4303334355354309, 150, 132, 6, 132
1731654657884,9i,12.12187156664565,1.7s : 0.2s,0.8771606457030856,0.010942886914538083,0.02589711717536323,0.032027123961439925,-0.041130103170871735,-0.017254909500479698,-0.01647914946079254,-0.02088838815689087,-0.015184521675109863,0.01894313097000122,-0.21497187557218259,2.026559561558247,2.999702144863222,0.8772575259208679,0.21331995725631714,0.43001675605773926, 150, 132, 6, 132
1731654657904,9i,12.12187156664565,1.7s : 0.2s,0.8771606457030856,0.012270544442514337,0.02186753319252232,0.04018434610508723,-0.02655881643295288,-0.002236811211332679,-0.010234003886580467,-0.0164564847946167,-0.020466625690460205,0.03041517734527588,-0.21344409981569237,2.027182139927346,3.0005649918737887,0.8772810697555542,0.2118270993232727,0.4307059049606323, 150, 132, 6, 132
1731654657914,9i,12.12187156664565,1.7s : 0.2s,0.8771606457030856,0.01289757840523905,0.016020549870360896,0.021565139722847716,-0.05293170362710953,-0.00858596432954073,0.012752871960401535,-0.011564850807189941,-0.0053556859493255615,0.017396152019500732,-0.2129708806467109,2.027552933730644,3.0010301634748417,0.8772111535072327,0.21136458218097687,0.4310753047466278, 150, 132, 6, 132
1731654657924,9i,12.12187156664565,1.7s : 0.2s,0.8771606457030856,0.013471580451897383,0.012497503065103277,0.02043127102189315,-0.08350372314453125,-0.005857822485268116,-0.011728502810001373,-0.012767910957336426,0.008594989776611328,0.013436645269393921,-0.2124983125886267,2.028155006851047,3.0016941912202557,0.8770409226417542,0.21090267598628998,0.4316474199295044, 150, 132, 6, 132
1731654657934,9i,12.12187156664565,1.7s : 0.2s,0.8771606457030856,0.013971656321670746,0.035158858999972994,0.02255626910296097,-0.13849793374538422,-0.008888677693903446,-0.01657901704311371,-0.0023725032806396484,0.012319773435592651,0.018745124340057373,-0.21188793606830214,2.0289967493063235,3.0029193617193393,0.8767927885055542,0.21030598878860474,0.43244248628616333, 150, 132, 6, 132
1731654657944,9i,12.12187156664565,1.7s : 0.2s,0.8771606457030856,0.014424091992153741,0.05922671107616425,0.014694052255418007,-0.17110727727413177,-0.008277482353150845,-0.02490192838013172,0.004622519016265869,-0.007550090551376343,0.011727899312973022,-0.2114539432253313,2.029940757886569,3.0045997452836932,0.8764659762382507,0.20988167822360992,0.4333104193210602, 150, 132, 6, 132
1731654657954,9i,12.12187156664565,1.7s : 0.2s,0.8771606457030856,0.014832749085716192,0.07062604272082469,0.032981598512115164,-0.14414577186107635,0.01254071481525898,-0.0245610773563385,0.011771917343139648,-0.020786002278327942,0.022740930318832397,-0.21088316800940626,2.031051218903937,3.0063090320695274,0.8760912418365479,0.20932358503341675,0.43433648347854614, 150, 132, 6, 132
1731654657974,9i,12.12187156664565,1.7s : 0.2s,0.8771606457030856,0.015677116998123956,0.06975355602838162,0.04279938072243847,-0.09165652841329575,0.013806425966322422,-0.013591683469712734,0.008423328399658203,-0.04157602787017822,-0.00568053126335144,-0.20889391951557693,2.033883414757961,3.009161272008757,0.8752282857894897,0.20737798511981964,0.4370010793209076, 150, 132, 6, 132
1731654657984,9i,12.12187156664565,1.7s : 0.2s,0.8771606457030856,0.016120072386644018,0.061870448176129585,0.04516553974717955,-0.06226348504424095,0.019048860296607018,-0.006290627643465996,0.0065898895263671875,-0.04419805109500885,-0.006559848785400391,-0.2079712250779249,2.035348762527592,3.01012740468943,0.8747577667236328,0.20647527277469635,0.43836870789527893, 150, 132, 6, 132
1731654657994,9i,12.12187156664565,1.7s : 0.2s,0.8771606457030856,0.016559661800217656,0.05074225530504196,0.04472018627394755,-0.033934641629457474,0.0170698631554842,-0.013963594101369381,0.0146406888961792,-0.03680458664894104,-0.020759761333465576,-0.2078224476173235,2.03609376909739,3.0107198662018058,0.874458372592926,0.20632968842983246,0.43903404474258423, 150, 132, 6, 132
1731654658004,9i,12.12187156664565,1.7s : 0.2s,0.8771606457030856,0.016996083860856877,0.037781645114101675,0.03900544849474993,-0.011005090549588203,0.0017633455572649837,-0.001582292141392827,0.008909404277801514,-0.02779392898082733,-0.025875568389892578,-0.20829784140654883,2.03656781493129,3.011062322867183,0.8741626739501953,0.2067948281764984,0.43940457701683044, 150, 132, 6, 132
1731654658014,9i,12.12187156664565,1.7s : 0.2s,0.8771606457030856,0.017420851763362034,0.030845285764901777,0.03293415965642397,0.04790462926030159,-0.0004091723822057247,0.0012187210377305746,0.011355340480804443,-0.02692253887653351,-0.015195131301879883,-0.20887321821994942,2.0368568034116548,3.0109301259649683,0.8739291429519653,0.2073577344417572,0.4396035969257355, 150, 132, 6, 132
1731654658024,9i,12.12187156664565,1.7s : 0.2s,0.8771606457030856,0.017803311786386732,0.02233186805265635,0.030162104695490785,0.06659256666898727,0.006593343336135149,0.007824159227311611,0.02158045768737793,-0.01615157723426819,-0.01353377103805542,-0.2088438182145287,2.0368383236326344,3.010408854639675,0.8739427924156189,0.20732897520065308,0.4395902156829834, 150, 132, 6, 132
1731654658034,9i,12.12187156664565,1.7s : 0.2s,0.8771606457030856,0.018162943212975943,0.0055244137018120466,0.03625253956839897,0.07742703706026077,0.007731311954557896,-0.001888156053610146,0.017947912216186523,-0.01823219656944275,-0.025684744119644165,-0.20839699643238893,2.037128122094822,3.009799384886271,0.8738977909088135,0.20689184963703156,0.4398849606513977, 150, 132, 6, 132
1731654658044,9i,12.12187156664565,1.7s : 0.2s,0.8771606457030856,0.018520731361005523,0.018180836953120047,0.035474740985209356,0.08178156614303589,0.016644911840558052,-0.0017555305967107415,0.013986706733703613,-0.026904210448265076,-0.018411755561828613,-0.20768478121069228,2.037128567846555,3.0090760932501324,0.8740290403366089,0.20619498193264008,0.4399515390396118, 150, 132, 6, 132
1731654658054,9i,12.12187156664565,1.7s : 0.2s,0.8771606457030856,0.018880307453833907,0.031200799865324085,0.03354960352684854,0.0891549289226532,0.02268167771399021,-0.00550319766625762,0.00890648365020752,-0.021357759833335876,-0.024291902780532837,-0.20685070256417734,2.0368895315701065,3.0082246231827443,0.8742874264717102,0.20537875592708588,0.43981969356536865, 150, 132, 6, 132
1731654658064,9i,12.12187156664565,1.7s : 0.2s,0.8771606457030856,0.019234866832281393,0.03403713457870376,0.026184161602854472,0.07150109857320786,0.007413774263113737,-0.013295340351760387,-0.002855539321899414,-0.005606994032859802,-0.02541688084602356,-0.2059738989905203,2.036705160671318,3.0074880663712924,0.8745291233062744,0.2045205682516098,0.4397392272949219, 150, 132, 6, 132
1731654658074,9i,12.12187156664565,1.7s : 0.2s,0.8771606457030856,0.019584801945599587,0.10794632140085912,0.025953156579535536,0.047917548567056656,-0.3324781656265259,0.4254092276096344,-0.0022544264793395996,-0.006360307335853577,-0.025060534477233887,-0.20495094760080843,2.0356151228300567,3.006677869501368,0.8751945495605469,0.20351913571357727,0.4388792812824249, 150, 132, 6, 132
1731654658084,9i,12.12187156664565,1.7s : 0.2s,0.8771606457030856,0.019921537333467885,0.28999528031169786,0.008111930391500304,0.045502327382564545,-0.6575103402137756,0.8490872383117676,-0.003280043601989746,-0.005806371569633484,-0.004618525505065918,-0.20496180459394978,2.034976871465876,3.0061533763981325,0.8754724264144897,0.20352976024150848,0.438319593667984, 150, 132, 6, 132
1731654658094,9i,12.12187156664565,1.7s : 0.2s,0.8771606457030856,0.020118171856225064,0.327018261337597,0.04370747541385652,-0.03236597031354904,-0.5449275374412537,0.34457993507385254,0.042340755462646484,0.010397985577583313,0.0030798912048339844,-0.20560131620384167,2.0354004410848545,3.00604607340822,0.8751702904701233,0.2041558474302292,0.4386320114135742, 150, 132, 6, 132
1731654658104,9i,12.12187156664565,1.7s : 0.2s,0.8771606457030856,0.020310708520935007,0.2403316996794964,0.008750170520594394,-0.007106157019734383,-0.14812983572483063,-0.08488433808088303,-0.0033179521560668945,-0.001246035099029541,-0.00800025463104248,-0.2052444361317131,2.034354842154168,3.0055633006534745,0.8756934404373169,0.20380647480487823,0.4377492070198059, 150, 132, 6, 132
1731654658113,9i,12.12187156664565,1.7s : 0.2s,0.8771606457030856,0.020513015827257956,0.1763557676470749,0.019815935321448964,0.04011688381433487,-0.055491331964731216,-0.012763207778334618,-0.015756189823150635,-0.005566507577896118,0.01065024733543396,-0.20510643812528453,2.033325282328085,3.0051306230058032,0.8761687278747559,0.20367136597633362,0.4368598759174347, 150, 132, 6, 132
1731654658123,9i,12.12187156664565,1.7s : 0.2s,0.8771606457030856,0.02064324283075087,0.1268937473272576,0.029559327150174886,0.030944157391786575,-0.030925270169973373,-0.023102130740880966,0.0008583664894104004,0.02740304172039032,0.011049449443817139,-0.20486191913159846,2.0326180944392207,3.0048767624460146,0.8765221238136292,0.20343196392059326,0.4362623989582062, 150, 132, 6, 132
1731654658213,9i,12.12187156664565,1.7s : 0.2s,0.8771606457030856,0.021799876696092985,0.08916890629877261,0.01743088457331431,0.010385818779468536,-0.03414449840784073,-0.07156170904636383,0.0014796853065490723,0.001972407102584839,-0.01725560426712036,-0.20970532611382153,2.031504962449745,3.008520624556878,0.8761144280433655,0.20817169547080994,0.4348433315753937, 150, 132, 6, 132
1731654658223,9i,12.12187156664565,1.7s : 0.2s,0.8771606457030856,0.021926098046612566,0.17580607299419773,0.02629155262163637,0.02730887569487095,-0.40765443444252014,0.4175163805484772,0.00449824333190918,0.0038220584392547607,-0.025620371103286743,-0.20993594090809647,2.0306620337677472,3.0084446130481197,0.8764377236366272,0.2083972543478012,0.43408340215682983, 150, 132, 6, 132
1731654658233,9i,12.12187156664565,1.7s : 0.2s,0.8771606457030856,0.022067315785212514,0.4030353704711313,0.024419938398495534,0.022573508322238922,-0.9410954117774963,1.0351349115371704,-0.0051111578941345215,-0.002616971731185913,-0.023735225200653076,-0.21101235192878634,2.0305226873861906,3.0085053895943825,0.8762965798377991,0.209449902176857,0.43386146426200867, 150, 132, 6, 132
1731654658243,9i,12.12187156664565,1.7s : 0.2s,0.8771606457030856,0.022142418567063653,0.45542899000827003,0.03941747044804923,-0.00013872794806957245,-0.7391338348388672,0.46549561619758606,0.030973076820373535,0.0023979544639587402,-0.024262219667434692,-0.21268765536680215,2.0316166150349377,3.0087529874120627,0.8755057454109192,0.21108774840831757,0.4346630573272705, 150, 132, 6, 132
1731654658263,9i,12.12187156664565,1.7s : 0.2s,0.8771606457030856,0.02231780727035149,0.31556600430438314,0.019690793255721786,0.07378210127353668,-0.03741592541337013,-0.0791194960474968,-0.00398707389831543,0.002318769693374634,-0.019142985343933105,-0.2140333384629154,2.030672083028154,3.007916554951275,0.8756607174873352,0.21240292489528656,0.4337095320224762, 150, 132, 6, 132
1731654658273,9i,12.12187156664565,1.7s : 0.2s,0.8771606457030856,0.022428915415394032,0.21969620683058577,0.02199558136092279,0.09101927280426025,-0.023552576079964638,-0.0621311254799366,-0.008750557899475098,-0.000822901725769043,-0.020163238048553467,-0.21504672551106388,2.030395580165314,3.007518486440629,0.8755870461463928,0.21339307725429535,0.43337157368659973, 150, 132, 6, 132
1731654658283,9i,12.12187156664565,1.7s : 0.2s,0.8771606457030856,0.02253352979572582,0.1500451610664828,0.011868720687077096,0.0723545104265213,0.0006409119814634323,-0.06493969261646271,-0.0029193758964538574,0.005620315670967102,-0.010037720203399658,-0.21593296638019768,2.030185110275224,3.007102348035521,0.8755084276199341,0.2142588198184967,0.4331032931804657, 150, 132, 6, 132
1731654658293,9i,12.12187156664565,1.7s : 0.2s,0.8771606457030856,0.0226483614139188,0.10328731039763063,0.011218163317691286,0.09216257184743881,0.013713037595152855,-0.07228615880012512,-0.0045989155769348145,-0.00247800350189209,-0.009927570819854736,-0.21681934105688436,2.02989428027609,3.0065914583647615,0.8754639029502869,0.21512453258037567,0.4327643811702728, 150, 132, 6, 132
1731654658303,9i,12.12187156664565,1.7s : 0.2s,0.8771606457030856,0.022783922840065716,0.08000752379644753,0.01715863526714359,0.07939936965703964,0.07069723308086395,-0.1460285484790802,-0.01490795612335205,-0.004157081246376038,-0.007408797740936279,-0.21769503678065982,2.0296225088976376,3.006019911818053,0.8754122853279114,0.21597963571548462,0.43244287371635437, 150, 132, 6, 132
1731654658313,9i,12.12187156664565,1.7s : 0.2s,0.8771606457030856,0.022935223832826927,0.06219803899238791,0.01886480765413366,0.06758739054203033,0.1734534353017807,-0.24392598867416382,-0.017126381397247314,-0.0013262629508972168,-0.00779801607131958,-0.21843708522306246,2.0293465029021944,3.0054832678412695,0.8753876090049744,0.2167041152715683,0.4321301579475403, 150, 132, 6, 132
1731654658323,9i,12.12187156664565,1.7s : 0.2s,0.8771606457030856,0.023084978168251526,0.12624410270065622,0.02351772153647149,0.0801473930478096,0.2940104603767395,-0.37663769721984863,-0.022282660007476807,0.007350251078605652,-0.00159376859664917,-0.2190838416739589,2.029093252604615,3.0049080502317405,0.8753711581230164,0.21733544766902924,0.43184635043144226, 150, 132, 6, 132
1731654658333,9i,12.12187156664565,1.7s : 0.2s,0.8771606457030856,0.02323351474973209,0.20476227408561692,0.025134521689927348,0.05106267333030701,0.38692986965179443,-0.45183661580085754,-0.022443711757659912,0.009519010782241821,-0.0061165690422058105,-0.21972275836498006,2.0289613809155043,3.0045846862966905,0.8753033876419067,0.21795906126499176,0.4316693842411041, 150, 132, 6, 132
1731654658343,9i,12.12187156664565,1.7s : 0.2s,0.8771606457030856,0.023423326868666702,0.264894565232641,0.028767589091347977,0.04490144923329353,0.4016883075237274,-0.4558345377445221,-0.02493762969970703,-0.012904644012451172,-0.0062577128410339355,-0.22018489633890748,2.0288424235524256,3.004510128584767,0.8752642869949341,0.21841005980968475,0.4315207004547119, 150, 132, 6, 132
1731654658353,9i,12.12187156664565,1.7s : 0.2s,0.8771606457030856,0.023650297667084284,0.28138104612367926,0.02893150919271581,0.041121624410152435,0.3229796290397644,-0.35043248534202576,-0.022884368896484375,-0.017697885632514954,0.0003503262996673584,-0.22059351336765076,2.0287119948564443,3.0045671458684553,0.8752405643463135,0.21880879998207092,0.43136709928512573, 150, 132, 6, 132
1731654658363,9i,12.12187156664565,1.7s : 0.2s,0.8771606457030856,0.02390381384760934,0.23715613756747023,0.022076594725746312,0.04259674996137619,0.1359460949897766,-0.14133413136005402,-0.012651324272155762,-0.017414361238479614,-0.004905104637145996,-0.22086585710274972,2.028575062842079,3.004729608996816,0.875245988368988,0.2190745323896408,0.43122079968452454, 150, 132, 6, 132
1731654658383,9i,12.12187156664565,1.7s : 0.2s,0.8771606457030856,0.024437719125740696,0.050601975371531674,0.017556567151317412,0.01186540350317955,-0.43083158135414124,0.430398166179657,-0.0061394572257995605,-0.01599934697151184,-0.003815889358520508,-0.22147995730615738,2.028392403306499,3.005358629521875,0.8752037882804871,0.21967366337776184,0.4310013949871063, 150, 132, 6, 132
1731654658393,9i,12.12187156664565,1.7s : 0.2s,0.8771606457030856,0.024722413766987607,0.15594015152076485,0.020979361292480334,0.006045930553227663,-0.6520619988441467,0.6336938142776489,-0.003532707691192627,-0.01946544647216797,-0.0069821178913116455,-0.22176389170680647,2.028362937354487,3.0057674710040496,0.8751605153083801,0.21995066106319427,0.43094801902770996, 150, 132, 6, 132
1731654658403,9i,12.12187156664565,1.7s : 0.2s,0.8771606457030856,0.02499708546615783,0.3193314905257845,0.01578601884377652,-0.0005893351044505835,-0.7657480835914612,0.7142200469970703,0.003570556640625,-0.014934077858924866,0.0036637187004089355,-0.22203039056786175,2.0282237132768137,3.0059454029851946,0.875167965888977,0.22021062672138214,0.43080031871795654, 150, 132, 6, 132
1731654658373,9i,12.12187156664565,1.7s : 0.2s,0.8771606457030856,0.024134679789723185,0.2625275196911986,0.01881709134418781,0.029350122436881065,-0.13658609986305237,0.13583232462406158,-0.010655999183654785,-0.015242993831634521,-0.002860724925994873,-0.221158296385518,2.0284334896646365,3.004971414862992,0.8752496242523193,0.2193598598241806,0.43106865882873535, 150, 132, 6, 132
1731654658423,9i,12.12187156664565,1.7s : 0.2s,0.8771606457030856,0.02550147848704929,0.3491773883598013,0.0067465100324695364,-0.03912660479545593,-0.6297516822814941,0.5306329727172852,-0.001753389835357666,-0.005794718861579895,-0.0029769539833068848,-0.2225159889940865,2.027897610571513,3.0061350107409037,0.8752123713493347,0.22068427503108978,0.4304676651954651, 150, 132, 6, 132
1731654658433,9i,12.12187156664565,1.7s : 0.2s,0.8771606457030856,0.025778178172192502,0.34968581158772816,0.014712412790460925,-0.08801725506782532,-0.4260200560092926,0.3146229684352875,-0.010128319263458252,-0.00694449245929718,-0.008102238178253174,-0.22258406247320975,2.0276941231156416,3.0064211233178764,0.8752865195274353,0.22075067460536957,0.43028298020362854, 150, 132, 6, 132
1731654658443,9i,12.12187156664565,1.7s : 0.2s,0.8771606457030856,0.02607019542556032,0.27977478660329236,0.019881751278448847,-0.0970887765288353,-0.17435210943222046,0.05488594248890877,-0.005879223346710205,-0.017855718731880188,-0.006472408771514893,-0.22250706452246194,2.0274621549767335,3.0068670160532966,0.875401496887207,0.22067557275295258,0.4300873577594757, 150, 132, 6, 132
1731654658453,9i,12.12187156664565,1.7s : 0.2s,0.8771606457030856,0.026374988642664365,0.16436090292887662,0.022505351884454527,-0.11638883501291275,0.08662701398134232,-0.18470966815948486,0.0005133152008056641,-0.021709993481636047,-0.005907922983169556,-0.22231295370515794,2.027301275614774,3.007489608763833,0.8755089640617371,0.22048623859882355,0.4299653470516205, 150, 132, 6, 132
1731654658463,9i,12.12187156664565,1.7s : 0.2s,0.8771606457030856,0.026707357481709094,0.06222602945639927,0.027517929862281867,-0.10928911715745926,0.31511133909225464,-0.38973256945610046,-0.004914343357086182,-0.02311846613883972,-0.014093339443206787,-0.22203620409747624,2.0272259556358723,3.0082158282260347,0.875596284866333,0.2202162891626358,0.4299263656139374, 150, 132, 6, 132
1731654658473,9i,12.12187156664565,1.7s : 0.2s,0.8771606457030856,0.027075798457820027,0.14455530954555468,0.03118121111154293,-0.0783783346414566,0.4716266393661499,-0.4978683590888977,-0.013304471969604492,-0.023268476128578186,-0.01593226194381714,-0.22172071431813545,2.0272696581559004,3.008932892174341,0.875639796257019,0.21990853548049927,0.42999520897865295, 150, 132, 6, 132
1731654658413,9i,12.12187156664565,1.7s : 0.2s,0.8771606457030856,0.025038135012261424,0.1212265969245661,0.013730430076347257,-0.02582252025604248,-0.7475433349609375,0.6754340529441833,0.004319310188293457,-0.011269286274909973,0.0065476298332214355,-0.22230920612921304,2.028062859518257,3.006080406074752,0.8751822113990784,0.22048258781433105,0.43063244223594666, 150, 132, 6, 132
1731654658483,9i,12.12187156664565,1.7s : 0.2s,0.8771606457030856,0.02772714372504056,0.08576912848298274,0.03551733673915869,-0.04868462681770325,0.5291181206703186,-0.5295224785804749,-0.01152116060256958,-0.030742794275283813,-0.013550817966461182,-0.22140533536833185,2.027303265842187,3.009439372903912,0.8756875991821289,0.2196008712053299,0.4300552308559418, 150, 132, 6, 132
1731654658493,9i,12.12187156664565,1.7s : 0.2s,0.8771606457030856,0.028139933675535828,0.19008331194083478,0.030614593863169205,-0.03674953430891037,0.4929395318031311,-0.4564131498336792,-0.008522391319274902,-0.024946793913841248,-0.015565335750579834,-0.22103230734022575,2.0272799479509365,3.0098870520255576,0.8757708072662354,0.21923694014549255,0.4300707280635834, 150, 132, 6, 132
1731654658503,9i,12.12187156664565,1.7s : 0.2s,0.8771606457030856,0.028556358557299058,0.2335213872130479,0.022575694306295226,-0.001664786133915186,0.38276588916778564,-0.33057746291160583,-0.0005201101303100586,-0.01972365379333496,-0.010971277952194214,-0.22062094835500257,2.0271286706292746,3.0101296339913888,0.8759166598320007,0.21883556246757507,0.4299779236316681, 150, 132, 6, 132
1731654658513,9i,12.12187156664565,1.7s : 0.2s,0.8771606457030856,0.02895573368793081,0.2176774060231895,0.020097761460089535,0.01523310411721468,0.2295817732810974,-0.15225014090538025,0.008459210395812988,-0.01804584264755249,-0.0025902390480041504,-0.22021505276133024,2.026940260299296,3.010242033076378,0.87607741355896,0.2184394896030426,0.4298520088195801, 150, 132, 6, 132
1731654658523,9i,12.12187156664565,1.7s : 0.2s,0.8771606457030856,0.029343470063161067,0.15829860442629107,0.021795993532760766,0.015756947919726372,0.058107487857341766,0.022138716652989388,0.009813904762268066,-0.017343521118164062,-0.008829206228256226,-0.2198237296867304,2.0267558631591034,3.0102508498827696,0.8762332201004028,0.21805760264396667,0.42972803115844727, 150, 132, 6, 132
1731654658533,9i,12.12187156664565,1.7s : 0.2s,0.8771606457030856,0.029707925291411266,0.12607118439464474,0.01346164992611724,0.038613662123680115,-0.10148243606090546,0.18520785868167877,0.007171750068664551,-0.009934589266777039,-0.0055754780769348145,-0.21947123062510776,2.0265911799073777,3.0101337398984964,0.8763733506202698,0.21771356463432312,0.429617702960968, 150, 132, 6, 132
1731654658543,9i,12.12187156664565,1.7s : 0.2s,0.8771606457030856,0.030052597181028234,0.03097411425037085,0.013856630980216611,0.046445220708847046,-0.2217092514038086,0.3127594292163849,0.007124483585357666,-0.01085732877254486,-0.004833877086639404,-0.21919721210918108,2.026463736664729,3.0097599602489513,0.8764815926551819,0.21744611859321594,0.4295322299003601, 150, 132, 6, 132
1731654658553,9i,12.12187156664565,1.7s : 0.2s,0.8771606457030856,0.0303795739850634,0.09170590859560544,0.01164301781605793,0.05152260512113571,-0.2872667610645294,0.36363595724105835,0.0017214417457580566,-0.004433050751686096,-0.010627537965774536,-0.2189780241947505,2.026382259120446,3.0091743404646443,0.8765594363212585,0.21723216772079468,0.4294818341732025, 150, 132, 6, 132
1731654658563,9i,12.12187156664565,1.7s : 0.2s,0.8771606457030856,0.030687686619082992,0.1579076611661031,0.008682882221592633,0.0181603841483593,-0.3112946152687073,0.357354074716568,-0.003786623477935791,-0.0011322647333145142,-0.007731229066848755,-0.21881662776427474,2.0263853666412883,3.0086788455936553,0.876589298248291,0.21707461774349213,0.4294998347759247, 150, 132, 6, 132
1731654658573,9i,12.12187156664565,1.7s : 0.2s,0.8771606457030856,0.031011504998226393,0.1945549088001352,0.02089623519166918,0.006090805400162935,-0.2876664400100708,0.3067706227302551,-0.006269872188568115,-0.01768520474433899,-0.009196460247039795,-0.2186104908130374,2.026345954768724,3.00835386422802,0.8766463398933411,0.2168733924627304,0.42948493361473083, 150, 132, 6, 132
1731654658583,9i,12.12187156664565,1.7s : 0.2s,0.8771606457030856,0.03133928753968739,0.1953287891594239,0.016989182952320183,-0.00104167265817523,-0.20964273810386658,0.21896061301231384,-0.0037152767181396484,-0.015972033143043518,-0.00444108247756958,-0.21837183670743718,2.026291358360542,3.008003063920585,0.8767164945602417,0.2166404128074646,0.42945995926856995, 150, 132, 6, 132
1731654658603,9i,12.12187156664565,1.7s : 0.2s,0.8771606457030856,0.03199923066447713,0.14312124685028935,0.015556492945962444,-0.024280883371829987,-0.02292504534125328,0.023352252319455147,-0.00722891092300415,-0.010923326015472412,-0.008392155170440674,-0.21779555858461053,2.0264712872993744,3.0077673841745494,0.8767511248588562,0.2160777896642685,0.4296725392341614, 150, 132, 6, 132
1731654658613,9i,12.12187156664565,1.7s : 0.2s,0.8771606457030856,0.03232975634921629,0.08594307065380102,0.017671791713731243,-0.010620064102113247,0.05441519245505333,-0.04706365615129471,-0.014719784259796143,-0.006691843271255493,-0.007130175828933716,-0.2174780296373172,2.026546415840828,3.0076322243660845,0.8767803311347961,0.2157677412033081,0.42976853251457214, 150, 132, 6, 132
1731654658623,9i,12.12187156664565,1.7s : 0.2s,0.8771606457030856,0.03264330399451343,0.06812298378426505,0.013565051137490352,-0.004547524731606245,0.10295796394348145,-0.09466526657342911,-0.013309717178344727,-0.00022210180759429932,-0.002610117197036743,-0.21722800480826793,2.026602495720189,3.007453063116426,0.876804530620575,0.2155236005783081,0.42984139919281006, 150, 132, 6, 132
1731654658593,9i,12.12187156664565,1.7s : 0.2s,0.8771606457030856,0.03174785580111274,0.0803721146813166,0.008198561487550297,-0.026036173105239868,-0.11185651272535324,0.11736369878053665,9.554624557495117e-05,-0.007292300462722778,-0.0037456154823303223,-0.21812433438485532,2.0263588118589504,3.0078513679090304,0.8767356276512146,0.21639877557754517,0.4295426607131958, 150, 132, 6, 132
1731654658643,9i,12.12187156664565,1.7s : 0.2s,0.8771606457030856,0.03318383267067889,0.06365857388660945,0.012026781408641857,0.012179923243820667,0.10375149548053741,-0.0820603221654892,-0.011077463626861572,-0.0020320117473602295,-0.004219502210617065,-0.21678443390389918,2.026493136220357,3.0070612059392956,0.8769372701644897,0.21509043872356415,0.4297875165939331, 150, 132, 6, 132
1731654658633,9i,12.12187156664565,1.7s : 0.2s,0.8771606457030856,0.0329155272008451,0.016868761401991172,0.01141449334160021,0.0014756135642528534,0.11065281182527542,-0.0960397943854332,-0.0109175443649292,0.0020095407962799072,-0.002656996250152588,-0.216989656685648,2.0265952700664407,3.007287155507685,0.8768537044525146,0.2152908593416214,0.42985764145851135, 150, 132, 6, 132
1731654658672,9i,12.12187156664565,1.7s : 0.2s,0.8771606457030856,0.03387118582773247,0.014542889133761252,0.015098309406642925,0.010369706898927689,0.018778547644615173,-0.0035174780059605837,-0.004343211650848389,0.009847000241279602,-0.010589241981506348,-0.21579239228477737,2.02613319762731,3.0068992183487784,0.8772832751274109,0.2141215056180954,0.42956554889678955, 150, 132, 6, 132
1731654658682,9i,12.12187156664565,1.7s : 0.2s,0.8771606457030856,0.03408656690314764,0.013685002885857488,0.016684510250000898,0.007578979711979628,0.00933764223009348,0.011627119965851307,-0.0048503875732421875,0.009785071015357971,-0.012613445520401001,-0.2155589940001959,2.025980410352514,3.0067838978218586,0.8773936629295349,0.21389351785182953,0.42945343255996704, 150, 132, 6, 132
1731654658692,9i,12.12187156664565,1.7s : 0.2s,0.8771606457030856,0.03428597045560729,0.013429689117984088,0.018017845145633773,0.025056106969714165,-0.010728477500379086,0.015321524813771248,-0.006597042083740234,0.008794546127319336,-0.014275074005126953,-0.21546392967921604,2.0258640579994527,3.0065969706499627,0.8774619698524475,0.21380065381526947,0.4293603003025055, 150, 132, 6, 132
1731654658702,9i,12.12187156664565,1.7s : 0.2s,0.8771606457030856,0.03446499166012052,0.014298136417227103,0.01181124677746038,0.043390903621912,-0.01273916382342577,0.014920186251401901,-0.004133760929107666,0.007496550679206848,-0.008137524127960205,-0.21558996041871706,2.025751911882891,3.0062147227339002,0.8774859309196472,0.21392376720905304,0.4292500913143158, 150, 132, 6, 132
1731654658662,9i,12.12187156664565,1.7s : 0.2s,0.8771606457030856,0.03381150397123828,0.0077438329453364705,0.016749275728434657,-0.008917372673749924,0.04479843005537987,-0.026410376653075218,-0.0035945773124694824,0.00823184847831726,-0.014136970043182373,-0.21604002939691483,2.0262729405070905,3.0069040009284005,0.8771756291389465,0.21436339616775513,0.42966482043266296, 150, 132, 6, 132
1731654658762,9i,12.12187156664565,1.7s : 0.2s,0.8771606457030856,0.03544534381474681,0.03127214973766775,0.013355617207554607,0.133234903216362,0.001390946563333273,0.034701280295848846,-0.0032375454902648926,0.0011091381311416626,-0.01290971040725708,-0.21753676348317866,2.023331704037549,3.001487645527529,0.8781461119651794,0.21582509577274323,0.42694225907325745, 150, 132, 6, 132
1731654658772,9i,12.12187156664565,1.7s : 0.2s,0.8771606457030856,0.03563047940290091,0.05658366713849651,0.021589937084037898,0.1689881831407547,0.00598188117146492,0.03743238374590874,-0.00534665584564209,-0.0044163912534713745,-0.02044588327407837,-0.2181324698128096,2.0228378552812223,2.999914859152941,0.8782408237457275,0.21640673279762268,0.4264521896839142, 150, 132, 6, 132
1731654658882,9i,12.12187156664565,1.7s : 0.2s,0.8771606457030856,0.030651764925310583,0.5333365500948295,0.7484843791423045,1.8596282005310059,1.269718050956726,-1.140328049659729,-0.05559062957763672,0.6518709063529968,0.3635971248149872,-0.2868935191062796,2.056348170285633,2.9458887368189317,0.8482694029808044,0.28297409415245056,0.44762155413627625, 150, 132, 6, 132
1731654658892,9i,12.12187156664565,1.7s : 0.2s,0.8771606457030856,0.038265755976466,1.0107689798049824,0.9100442958357892,2.4083170890808105,1.4518170356750488,-1.4592583179473877,0.010259926319122314,0.8171350955963135,0.4004567265510559,-0.3083487900939128,2.0660021948049567,2.9325647582147476,0.8383730053901672,0.3034857213497162,0.45280003547668457, 150, 132, 6, 132
1731654658902,9i,12.12187156664565,1.7s : 0.2s,0.8771606457030856,0.04979085356761074,1.4599169120187059,0.9547585648342045,2.8173205852508545,1.6475626230239868,-1.8261620998382568,-0.023129761219024658,0.8633221983909607,0.407067209482193,-0.33526014818467703,2.0764415949849186,2.916636059507423,0.8261539340019226,0.3290148377418518,0.4574045240879059, 150, 132, 6, 132
1731654658912,9i,12.12187156664565,1.7s : 0.2s,0.8771606457030856,0.06502513267379545,1.8931533033004326,1.0460727394356732,3.229492425918579,1.8363460302352905,-2.2268543243408203,-0.11743545532226562,0.9509881734848022,0.41964101791381836,-0.3675987910838499,2.087847454913614,2.899193860284406,0.8112068176269531,0.3593756854534149,0.46129506826400757, 150, 132, 6, 132
1731654658922,9i,12.12187156664565,1.7s : 0.2s,0.8771606457030856,0.08382890170917426,2.31077424587055,1.1952148882711258,3.610565662384033,2.0292365550994873,-2.617851972579956,-0.1892816424369812,1.0581369400024414,0.5225488543510437,-0.40580588290889424,2.0999369755946717,2.879582457482822,0.7931330800056458,0.39475932717323303,0.4637950658798218, 150, 132, 6, 132
1731654658932,9i,12.12187156664565,1.7s : 0.2s,0.8771606457030856,0.1055916818146177,2.685421021126718,1.2717703751111873,3.844050645828247,2.1884541511535645,-2.9354209899902344,-0.27007389068603516,1.0916749238967896,0.5938904285430908,-0.4485279202422923,2.112974126927929,2.8601705815085636,0.7718592882156372,0.4336395263671875,0.46496328711509705, 150, 132, 6, 132
1731654658942,9i,12.12187156664565,1.7s : 0.2s,0.8771606457030856,0.1299897705900774,3.064009062314214,1.366319549030387,4.275558948516846,2.38962721824646,-3.2609410285949707,-0.3834816813468933,1.1366722583770752,0.6540237665176392,-0.4960994842439062,2.126273104976991,2.8393042977697536,0.7472208142280579,0.4759988784790039,0.4637746810913086, 150, 132, 6, 132
1731654658952,9i,12.12187156664565,1.7s : 0.2s,0.8771606457030856,0.1573564281908752,3.4277389535274034,1.54526302692712,4.456111431121826,2.7268898487091064,-3.6583621501922607,-0.5009742975234985,1.2446818351745605,0.7665700912475586,-0.5486171990880421,2.1410245231218084,2.817792162777735,0.7182440757751465,0.5215078592300415,0.46060311794281006, 150, 132, 6, 132
1731654658962,9i,12.12187156664565,1.7s : 0.2s,0.8771606457030856,0.18787455784337942,3.77782407753431,1.7090767402872875,4.534473419189453,3.032799243927002,-4.1631293296813965,-0.6053577065467834,1.3693585395812988,0.8242223858833313,-0.6058041496335717,2.159292824284428,2.7985161509811385,0.6837573647499084,0.5694233179092407,0.4563262164592743, 150, 132, 6, 132
1731654658972,9i,12.12187156664565,1.7s : 0.2s,0.8771606457030856,0.22150073756545272,4.118481693559509,1.8383695164699014,4.602295398712158,3.260988473892212,-4.705878734588623,-0.6487659215927124,1.5042442083358765,0.8342389464378357,-0.6681891994790184,2.1813372745821566,2.7826849046417594,0.6431353092193604,0.6195656061172485,0.45001742243766785, 150, 132, 6, 132
1731654658982,9i,12.12187156664565,1.7s : 0.2s,0.8771606457030856,0.25761014643862473,4.435669411977994,1.8768349745400834,4.684359073638916,3.3794500827789307,-5.1460981369018555,-0.5939266681671143,1.5783724784851074,0.8237116932868958,-0.7353948727849399,2.207055814379408,2.77113418184745,0.5964595675468445,0.6708800196647644,0.44063204526901245, 150, 132, 6, 132
1731654658992,9i,12.12187156664565,1.7s : 0.2s,0.8771606457030856,0.29576438020805884,4.722948988432637,1.923370570808259,4.79550313949585,3.3520331382751465,-5.539698600769043,-0.4636598229408264,1.6822236776351929,0.8090101480484009,-0.8065960205201752,2.235436519400309,2.7635233466494378,0.5446686148643494,0.7219359278678894,0.42678436636924744, 150, 132, 6, 132
1731654659002,9i,12.12187156664565,1.7s : 0.2s,0.8771606457030856,0.33589201636579746,4.988321550679696,2.0241142216283117,4.841158390045166,3.2991905212402344,-5.994019031524658,-0.2987521290779114,1.8320605754852295,0.8070561289787292,-0.8815805971450127,2.2673217324811885,2.761810616726757,0.48780837655067444,0.771744966506958,0.4079863429069519, 150, 132, 6, 132
1731654659012,9i,12.12187156664565,1.7s : 0.2s,0.8771606457030856,0.3782524736531296,5.266146186065795,2.172618125094193,5.006234645843506,3.3275959491729736,-6.4771728515625,-0.1709505319595337,1.9888896942138672,0.8575332164764404,-0.9608413736129637,2.305228319106382,2.7678965322299494,0.4251619279384613,0.8196738362312317,0.3838918209075928, 150, 132, 6, 132
1731654659022,9i,12.12187156664565,1.7s : 0.2s,0.8771606457030856,0.42316815844362327,5.562083725244361,2.335322449460063,5.2932047843933105,3.353043556213379,-6.918608665466309,-0.08603084087371826,2.146117687225342,0.9167925119400024,-1.044584877171239,2.3524566075521034,2.7842606877084357,0.3564774692058563,0.864716112613678,0.3538224399089813, 150, 132, 6, 132
1731654659032,9i,12.12187156664565,1.7s : 0.2s,0.8771606457030856,0.47034718401440195,5.864896889354444,2.4226401629177956,5.518321514129639,3.2919437885284424,-7.4141526222229,0.028664588928222656,2.229051113128662,0.9485224485397339,-1.1331711356660883,2.4135671069105515,2.8148182101888657,0.2819890081882477,0.905760645866394,0.31635528802871704, 150, 132, 6, 132
1731654659042,9i,12.12187156664565,1.7s : 0.2s,0.8771606457030856,0.5188585718709753,6.151277680649631,2.4159840705059548,5.601975440979004,3.2154273986816406,-7.872769832611084,0.2070731222629547,2.212905168533325,0.9471802711486816,-1.2244336940417513,2.504796564771402,2.877418052882459,0.20186226069927216,0.9406137466430664,0.2729433476924896, 150, 132, 6, 132
1731654659052,9i,12.12187156664565,1.7s : 0.2s,0.8771606457030856,0.5683271937108225,6.408807300492263,2.467553628447755,5.604828357696533,3.13511061668396,-8.266536712646484,0.4196544289588928,2.224628210067749,0.9817028045654297,-1.314829992648732,2.661290714848161,3.00709080099162,0.11698171496391296,0.9674190878868103,0.22453534603118896, 150, 132, 6, 132
1731654659062,9i,12.12187156664565,1.7s : 0.2s,0.8771606457030856,0.6191810714905467,6.642218914415841,2.628528223348099,5.640493869781494,3.016165256500244,-8.617216110229492,0.6408053636550903,2.294414758682251,1.1109410524368286,-1.395463553291722,2.9769960863962006,-2.9855276164841444,0.028582241386175156,0.9846685528755188,0.17207928001880646, 150, 132, 6, 132
1731654659072,9i,12.12187156664565,1.7s : 0.2s,0.8771606457030856,0.6719648684340744,6.859736394668014,2.8171603656178306,5.744065284729004,2.79941725730896,-8.956501007080078,0.8458451628684998,2.3868179321289062,1.234519600868225,-1.4393341167074196,-2.6453456491585947,-2.3468809482388853,-0.06241341680288315,0.9913712739944458,0.1152731403708458, 150, 132, 6, 132
1731654659082,9i,12.12187156664565,1.7s : 0.2s,0.8771606457030856,0.7268390759698456,7.038261945628657,2.967233596461174,5.721737861633301,2.6448535919189453,-9.173410415649414,1.0389145612716675,2.431550979614258,1.3463623523712158,-1.4059782976339095,-1.9171097327447968,-1.6386226418670586,-0.1543322503566742,0.9864482283592224,0.055691760033369064, 150, 132, 6, 132
1731654659092,9i,12.12187156664565,1.7s : 0.2s,0.8771606457030856,0.7834488017600815,7.202059921638762,3.046016999632552,5.773115634918213,2.4267613887786865,-9.434904098510742,1.2223399877548218,2.4079062938690186,1.409287691116333,-1.3223310158546413,-1.5481428083193647,-1.2879707965722005,-0.24585400521755219,0.9692909717559814,-0.005570411216467619, 150, 132, 6, 132
1731654659102,9i,12.12187156664565,1.7s : 0.2s,0.8771606457030856,0.8415141771554402,7.343020801959713,3.097671121701304,5.739506244659424,2.288245677947998,-9.642109870910645,1.3609675168991089,2.3789491653442383,1.4435839653015137,-1.220995239789531,-1.373085189137636,-1.1295892008713502,-0.33603495359420776,0.939440906047821,-0.06731728464365005, 150, 132, 6, 132
1731654659112,9i,12.12187156664565,1.7s : 0.2s,0.8771606457030856,0.900481927989567,7.4669852102336325,3.0857599859076377,5.825416564941406,2.0761399269104004,-9.785460472106934,1.4591448307037354,2.302316904067993,1.4464259147644043,-1.1128165708991755,-1.2755977734786643,-1.0475285749674588,-0.42301228642463684,0.8969475626945496,-0.1286308914422989, 150, 132, 6, 132
1731654659122,9i,12.12187156664565,1.7s : 0.2s,0.8771606457030856,0.9602505037503881,7.561907959376049,3.1303522793173153,5.841490268707275,1.7140451669692993,-9.900979995727539,1.596277117729187,2.2712254524230957,1.446561336517334,-1.001055102377188,-1.2146456021908771,-0.9994294230974885,-0.5055639147758484,0.8420405983924866,-0.18807712197303772, 150, 132, 6, 132
1731654659132,9i,12.12187156664565,1.7s : 0.2s,0.8771606457030856,1.020998487495584,7.623774763682286,3.2430820587059075,5.943141937255859,1.3576351404190063,-9.872711181640625,1.789576768875122,2.2482481002807617,1.5034549236297607,-0.8875705922656724,-1.1739670873712955,-0.9682796741155675,-0.5822407007217407,0.7755403518676758,-0.24399419128894806, 150, 132, 6, 132
1731654659142,9i,12.12187156664565,1.7s : 0.2s,0.8771606457030856,1.0830201116642162,7.671809688871996,3.3745513238922236,6.20695161819458,0.9530240297317505,-9.794958114624023,2.001035451889038,2.2807862758636475,1.4769792556762695,-0.7733738180496785,-1.144705503101025,-0.9443055370958071,-0.6515789031982422,0.6985533833503723,-0.2957504093647003, 150, 132, 6, 132
1731654659152,9i,12.12187156664565,1.7s : 0.2s,0.8771606457030856,1.1464684710473905,7.718608194636244,3.4801807037015715,6.495260238647461,0.4868588447570801,-9.736749649047852,2.177825927734375,2.307922124862671,1.429065227508545,-0.6582007787654423,-1.1232507547604245,-0.9227312380815154,-0.7131809592247009,0.6116945147514343,-0.3423493206501007, 150, 132, 6, 132
1731654659162,9i,12.12187156664565,1.7s : 0.2s,0.8771606457030856,1.2111005859601156,7.718808429324175,3.52004870970281,6.545396327972412,0.03626290708780289,-9.526982307434082,2.3054399490356445,2.2824888229370117,1.3659920692443848,-0.5430518875765292,-1.10950833157208,-0.9030495623285889,-0.7666524052619934,0.516751229763031,-0.3810676336288452, 150, 132, 6, 132
1731654659172,9i,12.12187156664565,1.7s : 0.2s,0.8771606457030856,1.276525111067197,7.658901162469711,3.5229480531629944,6.451018333435059,-0.4579033851623535,-9.2273530960083,2.4014275074005127,2.2276930809020996,1.2968008518218994,-0.43029991323931893,-1.103009529812086,-0.884811270424021,-0.8112026453018188,0.41714340448379517,-0.4098072052001953, 150, 132, 6, 132
1731654659182,9i,12.12187156664565,1.7s : 0.2s,0.8771606457030856,1.3422212500076878,7.528390566684763,3.5011818321590447,6.060976505279541,-0.942987322807312,-8.928193092346191,2.4959754943847656,2.129091739654541,1.2228446006774902,-0.32113183467100526,-1.1040894723907866,-0.8686359962527207,-0.8474009037017822,0.31564074754714966,-0.4269459545612335, 150, 132, 6, 132
1731654659192,9i,12.12187156664565,1.7s : 0.2s,0.8771606457030856,1.4082409836997747,7.321623132040789,3.380669774299588,5.487382888793945,-1.4016077518463135,-8.565658569335938,2.5473175048828125,1.9119257926940918,1.1334202289581299,-0.21723525860566656,-1.1123297281541378,-0.8555777737736487,-0.8756564855575562,0.21553069353103638,-0.43217185139656067, 150, 132, 6, 132
1731654659202,9i,12.12187156664565,1.7s : 0.2s,0.8771606457030856,1.4717625457257573,7.0476725011263825,3.2080759735998496,4.857559680938721,-1.7666573524475098,-8.132052421569824,2.5510637760162354,1.6746245622634888,0.9896755218505859,-0.11962092144207088,-1.1265375593884464,-0.8452480532596817,-0.896477222442627,0.1193358451128006,-0.42671748995780945, 150, 132, 6, 132
1731654659331,9i,12.12187156664565,1.7s : 0.2s,0.8771606457030856,2.129118171744356,4.879061509459039,2.115140677241263,-0.9171209931373596,-0.6614618301391602,-0.17855967581272125,1.8910863399505615,-0.7245199084281921,0.6104780435562134,0.4417632154854069,-1.357046951977854,-0.8639173805307037,-0.8834264874458313,-0.4275340735912323,-0.19176124036312103, 150, 132, 6, 132
1731654659341,9i,12.12187156664565,1.7s : 0.2s,0.8771606457030856,2.1711146052420167,3.2402467888638466,2.114351695197944,-1.2075978517532349,-0.286007821559906,0.36669301986694336,1.8804454803466797,-0.7505161762237549,0.6092071533203125,0.4383448402300342,-1.356918166838193,-0.8750078562965635,-0.8848249316215515,-0.4244413673877716,-0.19218412041664124, 150, 132, 6, 132
1731654659351,9i,12.12187156664565,1.7s : 0.2s,0.8771606457030856,2.205146964841912,2.023427085108907,2.0705944809551102,-1.2430145740509033,0.022143274545669556,0.762639045715332,1.8518593311309814,-0.7175463438034058,0.5857523083686829,0.4304004861598761,-1.353268063557694,-0.8869245770835995,-0.8873819708824158,-0.4172348082065582,-0.1961340606212616, 150, 132, 6, 132
1731654659361,9i,12.12187156664565,1.7s : 0.2s,0.8771606457030856,2.234071145858252,1.0729955539237754,2.0012251226527153,-1.449413537979126,0.45300066471099854,1.2586604356765747,1.7996386289596558,-0.6447287797927856,0.5920537114143372,0.4176128586416274,-1.3460380018064038,-0.8988411258226828,-0.8910694122314453,-0.4055796265602112,-0.2037172168493271, 150, 132, 6, 132
1731654659371,9i,12.12187156664565,1.7s : 0.2s,0.8771606457030856,2.258946593345913,0.4001861393684136,1.8636979243050644,-1.5353692770004272,0.8330515027046204,1.7680832147598267,1.656693458557129,-0.6576327085494995,0.544293999671936,0.3995109678772346,-1.3347589844989667,-0.9110123605117879,-0.8957073092460632,-0.3889678716659546,-0.21543623507022858, 150, 132, 6, 132
1731654659381,9i,12.12187156664565,1.7s : 0.2s,0.8771606457030856,2.280703117372395,0.5414099425474661,1.7312759603616128,-1.5796765089035034,1.1828691959381104,2.2297520637512207,1.5255316495895386,-0.6390671133995056,0.5115299224853516,0.3763626517508262,-1.3205324329282035,-0.9220721455696858,-0.9010353684425354,-0.3675401508808136,-0.23032540082931519, 150, 132, 6, 132
1731654659391,9i,12.12187156664565,1.7s : 0.2s,0.8771606457030856,2.2997089055936146,1.0579676983495518,1.6262813512689895,-1.7093305587768555,1.550559163093567,2.6665303707122803,1.4049311876296997,-0.6716580390930176,0.4688655138015747,0.34853975458632286,-1.3032195627799323,-0.9323864353686097,-0.9064266681671143,-0.34152573347091675,-0.24849779903888702, 150, 132, 6, 132
1731654659401,9i,12.12187156664565,1.7s : 0.2s,0.8771606457030856,2.316306969705543,1.5569717990675338,1.528686862581001,-1.801941156387329,1.8874822854995728,3.1592960357666016,1.302133321762085,-0.6856182217597961,0.41383570432662964,0.3158218666848071,-1.2829431176766066,-0.9418334205477807,-0.9114320874214172,-0.31059780716896057,-0.26985347270965576, 150, 132, 6, 132
1731654659411,9i,12.12187156664565,1.7s : 0.2s,0.8771606457030856,2.330892976065486,2.009936418267522,1.4364820242451435,-1.7286605834960938,2.1717302799224854,3.673311471939087,1.2320964336395264,-0.6636914014816284,0.3239331841468811,0.27804905306773375,-1.260516538233573,-0.9490621104452738,-0.9156750440597534,-0.2744801640510559,-0.2935984134674072, 150, 132, 6, 132
1731654659451,9i,12.12187156664565,1.7s : 0.2s,0.8771606457030856,2.3906572084089763,2.7008283411821163,1.4682373581992954,-1.7499550580978394,2.981027603149414,5.50353479385376,1.3289201259613037,-0.5282443761825562,0.3326411247253418,0.08415982072354232,-1.1562645575588857,-0.9445499324982755,-0.9120655059814453,-0.08406050503253937,-0.4013359248638153, 150, 132, 6, 132
1731654659461,9i,12.12187156664565,1.7s : 0.2s,0.8771606457030856,2.4064944381772184,3.296993398001732,1.5277024910483348,-1.8630642890930176,3.115046739578247,6.000949859619141,1.3981298208236694,-0.5095694661140442,0.3456108570098877,0.02444497575111598,-1.1261873763111918,-0.9369870640384873,-0.9025092720985413,-0.024442540481686592,-0.4299764335155487, 150, 132, 6, 132
1731654659471,9i,12.12187156664565,1.7s : 0.2s,0.8771606457030856,2.4233646194792984,3.8113788656418817,1.6152859947056382,-1.979247808456421,3.2209017276763916,6.455391883850098,1.5238144397735596,-0.43248873949050903,0.3163730204105377,-0.039783635008311065,-1.0944670405099808,-0.9265389284966725,-0.8879808783531189,0.03977314010262489,-0.45815739035606384, 150, 132, 6, 132
1731654659481,9i,12.12187156664565,1.7s : 0.2s,0.8771606457030856,2.4418906672575846,4.274884732728808,1.7274780547427413,-1.9046955108642578,3.383136034011841,6.989905834197998,1.660665512084961,-0.365100622177124,0.30507707595825195,-0.10806274523636361,-1.0604454953466824,-0.9119990447633493,-0.8674834966659546,0.10785254836082458,-0.48563408851623535, 150, 132, 6, 132
1731654659491,9i,12.12187156664565,1.7s : 0.2s,0.8771606457030856,2.4622189143033477,4.700666679170195,1.8424139846006478,-1.7344801425933838,3.6484668254852295,7.480494976043701,1.776850938796997,-0.3692561388015747,0.3177104592323303,-0.17962282160119916,-1.0223282830085725,-0.8908471001816366,-0.8395953178405762,0.17865847051143646,-0.5129922032356262, 150, 132, 6, 132
1731654659501,9i,12.12187156664565,1.7s : 0.2s,0.8771606457030856,2.4847279645825577,5.097930397136572,1.993191848904425,-1.7874794006347656,3.98673152923584,7.852447986602783,1.9243388175964355,-0.3706401288509369,0.36381280422210693,-0.2535039949685256,-0.9783193288220976,-0.8636545798817042,-0.8030470609664917,0.2507975101470947,-0.5405703783035278, 150, 132, 6, 132
1731654659511,9i,12.12187156664565,1.7s : 0.2s,0.8771606457030856,2.5103902117471972,5.4869535986317395,2.194745751312581,-1.8774845600128174,4.288046836853027,8.304815292358398,2.1124680042266846,-0.3186720013618469,0.5028280019760132,-0.32975799811203127,-0.9274497179699497,-0.8304962519143504,-0.756984293460846,0.3238140642642975,-0.5675555467605591, 150, 132, 6, 132
1731654659531,9i,12.12187156664565,1.7s : 0.2s,0.8771606457030856,2.5735392410124667,6.053849410997188,2.755641793375093,-1.8718886375427246,4.870792388916016,9.684975624084473,2.6597466468811035,-0.24762001633644104,0.6767523884773254,-0.4902608972620921,-0.7976230066337218,-0.7355821264458864,-0.6313959956169128,0.47085607051849365,-0.6161442399024963, 150, 132, 6, 132
1731654659541,9i,12.12187156664565,1.7s : 0.2s,0.8771606457030856,2.6120095140637356,6.665464688310051,3.175510513853268,-1.971828579902649,5.145575523376465,10.734992027282715,3.0904037952423096,-0.15737426280975342,0.7130951881408691,-0.5736718516848431,-0.7114572527849078,-0.6645428062986364,-0.5484119057655334,0.5427197217941284,-0.6361601948738098, 150, 132, 6, 132
1731654659551,9i,12.12187156664565,1.7s : 0.2s,0.8771606457030856,2.6585482818766004,7.343938264257345,3.6627793708562963,-2.2261240482330322,5.2788405418396,12.017751693725586,3.5642685890197754,-0.012389659881591797,0.8436756730079651,-0.6596281055456725,-0.6045760546008307,-0.570006742522743,-0.4491717219352722,0.6128230094909668,-0.6501482725143433, 150, 132, 6, 132
1731654659561,9i,12.12187156664565,1.7s : 0.2s,0.8771606457030856,2.714641166861071,8.069448214295988,4.230309258208259,-3.0556228160858154,5.670241832733154,13.053828239440918,4.067471027374268,0.052713871002197266,1.1612136363983154,-0.7461585845247267,-0.47031370344667145,-0.44635395223250535,-0.33276063203811646,0.6788229942321777,-0.6545760035514832, 150, 132, 6, 132
1731654659571,9i,12.12187156664565,1.7s : 0.2s,0.8771606457030856,2.7803806007351817,8.872614268477914,4.802259118601168,-4.48796272277832,6.432657718658447,14.009980201721191,4.542962551116943,-0.19269222021102905,1.5446856021881104,-0.8316568470199324,-0.29793449145756307,-0.28861613218446314,-0.19774815440177917,0.7390485405921936,-0.6439744830131531, 150, 132, 6, 132
1731654659581,9i,12.12187156664565,1.7s : 0.2s,0.8771606457030856,2.8553522884138545,9.714402364681385,5.292315743042429,-6.194231033325195,6.868561267852783,14.863415718078613,4.9785475730896,-0.4105105996131897,1.7476129531860352,-0.9110278372376837,-0.07358320605027524,-0.08338441568789591,-0.04506096616387367,0.7901341319084167,-0.6112754940986633, 150, 132, 6, 132
1731654659591,9i,12.12187156664565,1.7s : 0.2s,0.8771606457030856,2.941441049301483,10.433603562734856,5.905178263073455,-7.812735557556152,6.329232215881348,15.197805404663086,5.618090629577637,-0.1831102967262268,1.8096017837524414,-0.9710972554706263,0.20613845250878404,0.17996893753217444,0.1155211552977562,0.8255054950714111,-0.5524452924728394, 150, 132, 6, 132
1731654659601,9i,12.12187156664565,1.7s : 0.2s,0.8771606457030856,3.043142519629393,10.97465230086246,6.897046447943308,-10.282872200012207,5.284340858459473,14.629289627075195,6.621578693389893,0.45006781816482544,1.876535177230835,-1.0014906783325743,0.5253219568747024,0.4921733695998451,0.27032771706581116,0.8422754406929016,-0.4663635790348053, 150, 132, 6, 132
1731654659611,9i,12.12187156664565,1.7s : 0.2s,0.8771606457030856,3.1638697648377088,11.524481291757906,7.846941934669879,-13.602245330810547,4.209002494812012,13.849767684936523,7.4249348640441895,1.2754285335540771,2.1950221061706543,-1.0014955952535376,0.8639724517448607,0.8367449539868502,0.4099039137363434,0.8422781229019165,-0.350066602230072, 150, 132, 6, 132
1731654659621,9i,12.12187156664565,1.7s : 0.2s,0.8771606457030856,3.3041402022625843,12.215461568259004,8.463547514992461,-17.416118621826172,2.5744705200195312,12.844279289245605,7.648449897766113,2.2050108909606934,2.8758959770202637,-0.9655526998690079,1.2022066541554888,1.200914483682582,0.5307492017745972,0.8223634958267212,-0.20499739050865173, 150, 132, 6, 132
1731654659631,9i,12.12187156664565,1.7s : 0.2s,0.8771606457030856,3.464806647733289,13.3929563124634,9.309786369970409,-22.205242156982422,0.624438464641571,12.447005271911621,7.910775184631348,3.1351852416992188,3.7765555381774902,-0.8831520798973197,1.5093510747520424,1.5641758677385875,0.6335211396217346,0.7727434039115906,-0.038975927978754044, 150, 132, 6, 132
1731654659641,9i,12.12187156664565,1.7s : 0.2s,0.8771606457030856,3.647892647172252,14.845681628113917,10.499873432299756,-27.74669647216797,-2.62001633644104,9.093992233276367,8.154317855834961,4.40965461730957,4.930455207824707,-0.753969768420904,1.7601164030624525,1.9189461720046328,0.7159522771835327,0.6845380067825317,0.13718709349632263, 150, 132, 6, 132
1731654659651,9i,12.12187156664565,1.7s : 0.2s,0.8771606457030856,3.8522493988002044,16.63895122718685,11.44111576365024,-33.129173278808594,-6.5081000328063965,3.477128505706787,8.211100578308105,5.669459819793701,5.597694396972656,-0.6088246028503791,1.937962388937015,2.2728239471592286,0.7656453251838684,0.571903645992279,0.2944721281528473, 150, 132, 6, 132
1731654659661,9i,12.12187156664565,1.7s : 0.2s,0.8771606457030856,4.0688869008513855,18.736583716259393,11.271982917537537,-36.72871017456055,-9.336854934692383,-2.107545852661133,7.352337837219238,5.124395847320557,6.836760520935059,-0.4551529236145675,2.0458403798041633,2.641817310707949,0.7987393140792847,0.4395996630191803,0.4108138382434845, 150, 132, 6, 132
1731654659671,9i,12.12187156664565,1.7s : 0.2s,0.8771606457030856,4.287727899025743,19.65179453686006,11.510330008599176,-31.74312973022461,-13.256122589111328,-5.2887139320373535,5.589383125305176,3.294705629348755,9.507439613342285,-0.3281085849302924,2.067895466962383,2.9932500372134156,0.8320801258087158,0.3222530782222748,0.4514382481575012, 150, 132, 6, 132
1731654659681,9i,12.12187156664565,1.7s : 0.2s,0.8771606457030856,4.509347081192145,18.767480579993777,13.489459381974298,-22.265275955200195,-13.751838684082031,-3.500356435775757,4.13825798034668,2.8033337593078613,12.529232025146484,-0.24499276652595553,2.003619596048062,-3.017965531276394,0.8806782364845276,0.24254930019378662,0.40691080689430237, 150, 132, 6, 132
1731654659691,9i,12.12187156664565,1.7s : 0.2s,0.8771606457030856,4.742960726240772,16.97724210329667,14.764398254276893,-16.22235870361328,-11.075569152832031,-5.331636428833008,3.80456280708313,5.474240303039551,13.173665046691895,-0.2079496385283076,1.9231658149342523,-2.822060598048047,0.9183378219604492,0.20645414292812347,0.33768755197525024, 150, 132, 6, 132
1731654659711,9i,12.12187156664565,1.7s : 0.2s,0.8771606457030856,5.147052363282224,14.706570404055302,6.2110053500267846,-9.192358016967773,-10.768548011779785,-10.958552360534668,2.0740914344787598,4.272978782653809,4.002047538757324,-0.30424877942852,1.7873032871653485,-2.510342517601979,0.9317984580993652,0.2995765507221222,0.20495332777500153, 150, 132, 6, 132
1731654659721,9i,12.12187156664565,1.7s : 0.2s,0.8771606457030856,5.321335920951467,12.602700351842312,5.352765866267033,-3.8161652088165283,-10.574017524719238,-11.621962547302246,2.1313698291778564,1.4730708599090576,4.683954238891602,-0.40377852228965677,1.7102723160589646,-2.423654863039036,0.9106529355049133,0.39289581775665283,0.12784430384635925, 150, 132, 6, 132
1731654659770,9i,12.12187156664565,1.7s : 0.2s,0.8771606457030856,6.096710362486809,9.84126639882505,6.733890862046276,4.434267520904541,-6.228985786437988,-10.547988891601562,3.513477325439453,-2.144538640975952,5.329326152801514,-0.9566276306403717,1.2150833045850553,-2.488197365585879,0.5402035117149353,0.8172528147697449,-0.20069444179534912, 150, 132, 6, 132
1731654659780,9i,12.12187156664565,1.7s : 0.2s,0.8771606457030856,6.236731788794064,8.220059348377895,6.217775240107915,6.961617946624756,-6.590303421020508,-9.381202697753906,2.9436287879943848,-1.748972773551941,5.190074443817139,-1.0205812045541682,1.0063941390699478,-2.661740192763032,0.44177794456481934,0.8524120450019836,-0.279689222574234, 150, 132, 6, 132
1731654659790,9i,12.12187156664565,1.7s : 0.2s,0.8771606457030856,6.365341064668177,7.554881961880027,6.720221690713441,8.54258918762207,-7.320663928985596,-7.670780181884766,2.38840651512146,-1.9759411811828613,5.9625959396362305,-1.0365664597828204,0.746583098906586,-2.883541775682074,0.34580087661743164,0.8606610298156738,-0.37374410033226013, 150, 132, 6, 132
1731654659800,9i,12.12187156664565,1.7s : 0.2s,0.8771606457030856,6.484438734218133,7.569287915006086,7.084846626341578,9.927606582641602,-8.316774368286133,-6.073844909667969,1.507234811782837,-2.1661477088928223,6.57503604888916,-1.0011311251372035,0.4907288530767582,-3.0915563609717123,0.2541790306568146,0.842081606388092,-0.4757014513015747, 150, 132, 6, 132
1731654659810,9i,12.12187156664565,1.7s : 0.2s,0.8771606457030856,6.591584455706578,7.753641381935146,6.657362998732842,10.472572326660156,-7.819818019866943,-4.862323760986328,0.5902567505836487,-2.305067300796509,6.217615604400635,-0.9261795234262555,0.2807147234910308,3.0357276561478983,0.1664726734161377,0.7993300557136536,-0.5773718953132629, 150, 132, 6, 132
1731654659820,9i,12.12187156664565,1.7s : 0.2s,0.8771606457030856,6.682225777685564,7.689140177777816,6.411458230236762,9.800891876220703,-6.178432941436768,-3.8929946422576904,-0.5828187465667725,-2.862194299697876,5.7074480056762695,-0.8357770495794333,0.13336016413250185,2.935926170470855,0.08916667103767395,0.741817831993103,-0.6646470427513123, 150, 132, 6, 132
1731654659830,9i,12.12187156664565,1.7s : 0.2s,0.8771606457030856,6.750508119493782,7.460986508626139,6.336803198567762,9.160094261169434,-5.113127708435059,-3.100341558456421,-2.185966730117798,-3.307285785675049,4.9435296058654785,-0.7440814130109418,0.034903180302212185,2.8757032453930917,0.02567341923713684,0.6772962808609009,-0.7352622747421265, 150, 132, 6, 132
1731654659840,9i,12.12187156664565,1.7s : 0.2s,0.8771606457030856,6.794370155965431,7.308321715804105,5.8171276698180066,8.428428649902344,-5.708721160888672,-2.858210802078247,-3.174816370010376,-3.1733641624450684,3.699902057647705,-0.6562654711213833,-0.0424840904570386,2.837702197157612,-0.0336490198969841,0.6101623177528381,-0.7915615439414978, 150, 132, 6, 132
1731654659850,9i,12.12187156664565,1.7s : 0.2s,0.8771606457030856,6.820462197571778,7.179865308691875,3.96417550004899,7.63375186920166,-6.349989891052246,-2.8126134872436523,-2.417959451675415,-2.2500216960906982,2.1921591758728027,-0.5739761975914893,-0.11872587310702275,2.810910105524562,-0.09946583211421967,0.5429753661155701,-0.83383709192276, 150, 132, 6, 132
1731654659860,9i,12.12187156664565,1.7s : 0.2s,0.8771606457030856,6.837334215093314,7.055197913246387,1.992076000100328,6.978615760803223,-6.673997402191162,-2.999972343444824,-1.0612423419952393,-1.282371997833252,1.0943735837936401,-0.49779144225950406,-0.19412994277033985,2.7910690671262994,-0.16950085759162903,0.47748619318008423,-0.8621348738670349, 150, 132, 6, 132
1731654659870,9i,12.12187156664565,1.7s : 0.2s,0.8771606457030856,6.850732201710494,6.974737968385816,0.901285284172758,6.780377388000488,-6.696000576019287,-3.423713207244873,-0.2666283845901489,-0.522947371006012,0.6839228868484497,-0.4238953722710348,-0.26879912842906445,2.7737740675767735,-0.24206891655921936,0.4113141596317291,-0.878762423992157, 150, 132, 6, 132
1731654659880,9i,12.12187156664565,1.7s : 0.2s,0.8771606457030856,6.864283810398228,6.966552774405289,0.6983973172835393,6.980869770050049,-6.667576313018799,-3.745427131652832,0.06609180569648743,0.18427157402038574,0.6703988909721375,-0.34778255348073134,-0.3410750842021607,2.758999248072759,-0.3144741654396057,0.3408139646053314,-0.8859751224517822, 150, 132, 6, 132
1731654659890,9i,12.12187156664565,1.7s : 0.2s,0.8771606457030856,6.880182242996549,6.977211835243466,1.0797726466133049,7.198139667510986,-6.60131311416626,-3.671412467956543,0.23289939761161804,0.6436240673065186,0.8351137042045593,-0.2682263696339604,-0.4100884243655007,2.749886685099056,-0.3844342529773712,0.2650216519832611,-0.8842929005622864, 150, 132, 6, 132
1731654659910,9i,12.12187156664565,1.7s : 0.2s,0.8771606457030856,6.922140775390929,6.758831976071605,1.5416968167005236,6.235132217407227,-6.202028274536133,-3.080509901046753,0.5878587961196899,0.7839320302009583,1.1902527809143066,-0.11580177868550866,-0.539519264966152,2.751871257742333,-0.5102829337120056,0.11554313451051712,-0.8522095680236816, 150, 132, 6, 132
1731654659920,9i,12.12187156664565,1.7s : 0.2s,0.8771606457030856,6.9473668910598265,6.443682083835235,1.6649080772374432,5.6985859870910645,-5.666089057922363,-2.7980730533599854,0.5685665607452393,0.6626166105270386,1.417600154876709,-0.04991330041061595,-0.5982655438789688,2.7593860198055067,-0.5625087022781372,0.04989257827401161,-0.8252846598625183, 150, 132, 6, 132
1731654659930,9i,12.12187156664565,1.7s : 0.2s,0.8771606457030856,6.974702291401233,6.047534429934603,1.5928962726233904,5.099786758422852,-5.007266044616699,-2.686199903488159,0.4076274633407593,0.604522705078125,1.4162311553955078,0.00973520761750635,-0.6513740816965194,2.768785691089534,-0.6062510013580322,-0.009735053405165672,-0.7952138185501099, 150, 132, 6, 132
1731654659980,9i,12.12187156664565,1.7s : 0.2s,0.8771606457030856,7.106725512569195,5.087143611332347,1.2589672525712887,3.1379103660583496,-2.2537522315979004,-1.8634032011032104,0.26756662130355835,0.10280270874500275,1.225903034210205,0.23877801436248264,-0.8351170096003178,2.8229553035464896,-0.7203406095504761,-0.23651549220085144,-0.6520506143569946, 150, 132, 6, 132
1731654659990,9i,12.12187156664565,1.7s : 0.2s,0.8771606457030856,7.132274686993423,4.298830321926429,1.270273134002237,2.8126718997955322,-1.8168474435806274,-1.5995138883590698,0.25945860147476196,-0.036607205867767334,1.242954134941101,0.2713681687901341,-0.8582883732575043,2.8341211449742283,-0.7290325164794922,-0.26804977655410767,-0.6298103928565979, 150, 132, 6, 132
1731654659970,9i,12.12187156664565,1.7s : 0.2s,0.8771606457030856,7.081563031593304,3.9938897501529342,1.3019166800004192,3.501573324203491,-2.7174136638641357,-2.0942914485931396,0.24081707000732422,0.22479110956192017,1.2595487833023071,0.20196081251116396,-0.8079928672287149,2.8120930329997935,-0.7082089781761169,-0.20059067010879517,-0.6769073605537415, 150, 132, 6, 132
1731654660030,9i,12.12187156664565,1.7s : 0.2s,0.8771606457030856,7.220986741250676,3.0438852156698073,1.1702292531423208,1.316349744796753,-0.15368793904781342,-0.5058259963989258,0.054173290729522705,-0.1748979687690735,1.1558167934417725,0.3536529695145053,-0.9057822812786817,2.8692231256693326,-0.7382094264030457,-0.346327006816864,-0.578882098197937, 150, 132, 6, 132
1731654660040,9i,12.12187156664565,1.7s : 0.2s,0.8771606457030856,7.242082270601952,2.3335336917247584,1.011018242147383,1.25088632106781,0.03855900093913078,-0.21055787801742554,0.08131265640258789,-0.1995215117931366,0.9877941608428955,0.3640059111936017,-0.909232638443705,2.877663993094297,-0.7373337149620056,-0.3560205101966858,-0.5740979909896851, 150, 132, 6, 132
1731654660080,9i,12.12187156664565,1.7s : 0.2s,0.8771606457030856,7.31403907462457,1.6173503540904512,0.605642737912949,0.1463489681482315,0.20925581455230713,0.2580505311489105,0.3016037344932556,-0.21789464354515076,0.47787052392959595,0.37500036979278,-0.9119416881295904,2.9014438844554675,-0.7357467412948608,-0.36627286672592163,-0.5696675777435303, 150, 132, 6, 132
1731654660090,9i,12.12187156664565,1.7s : 0.2s,0.8771606457030856,7.329278796031727,1.1155621253239596,0.47003555472316005,0.14584358036518097,0.21716956794261932,0.316916286945343,0.27295875549316406,-0.1404750645160675,0.355940580368042,0.37332452967108026,-0.9108712670633864,2.9044143361065213,-0.7356204390525818,-0.36471298336982727,-0.5708302855491638, 150, 132, 6, 132
1731654660100,9i,12.12187156664565,1.7s : 0.2s,0.8771606457030856,7.34205104593968,0.7859514270979068,0.3540969466542391,0.20268794894218445,0.14035335183143616,0.3681637644767761,0.2083696722984314,-0.0696205198764801,0.2777043581008911,0.3716457195296671,-0.9105362530050157,2.9082516435504884,-0.7359117269515991,-0.3631492853164673,-0.5714514255523682, 150, 132, 6, 132
1731654660110,9i,12.12187156664565,1.7s : 0.2s,0.8771606457030856,7.352733150429596,0.5345537538456109,0.27585210848384817,-0.00373499421402812,0.05600358918309212,0.4335631728172302,0.18945598602294922,-0.0163576602935791,0.19983303546905518,0.36902079042506175,-0.9108377210738617,2.9118390451532825,-0.7368344664573669,-0.3607023060321808,-0.5718119740486145, 150, 132, 6, 132
1731654660120,9i,12.12187156664565,1.7s : 0.2s,0.8771606457030856,7.361804314889724,0.33010014083599043,0.25679388762819855,-0.3230605125427246,-0.07083956897258759,0.41925904154777527,0.18208879232406616,-0.024618715047836304,0.17938977479934692,0.3645844617988339,-0.911472208141499,2.9133453579538253,-0.7384546399116516,-0.3565610945224762,-0.572318971157074, 150, 132, 6, 132
1731654660130,9i,12.12187156664565,1.7s : 0.2s,0.8771606457030856,7.369794485955992,0.20179637149065877,0.2662990368279371,-0.6596664786338806,-0.12772513926029205,0.40375491976737976,0.1495758295059204,-0.028573602437973022,0.21846234798431396,0.3582358228104679,-0.9119763853700009,2.9118118437645006,-0.7405181527137756,-0.35062259435653687,-0.5733208656311035, 150, 132, 6, 132
1731654660140,9i,12.12187156664565,1.7s : 0.2s,0.8771606457030856,7.376452434356101,0.26254654484429013,0.23622954678673744,-0.9058440327644348,-0.18520280718803406,0.41949528455734253,0.04243582487106323,-0.08811560273170471,0.21503311395645142,0.35011541924048467,-0.9121762612439882,2.907913219654003,-0.7428598999977112,-0.3430062234401703,-0.5748964548110962, 150, 132, 6, 132
1731654660150,9i,12.12187156664565,1.7s : 0.2s,0.8771606457030856,7.381394722069156,0.3919226725468115,0.27703218323252615,-1.0468946695327759,-0.13140173256397247,0.42616286873817444,-0.10238879919052124,-0.15623393654823303,0.2045832872390747,0.34065793924390225,-0.9118541641987589,2.9023025956581314,-0.745206356048584,-0.33410730957984924,-0.5770962238311768, 150, 132, 6, 132
1731654660160,9i,12.12187156664565,1.7s : 0.2s,0.8771606457030856,7.385778502344479,0.49039632996188215,0.3149774095879699,-0.9975473284721375,-0.08897356688976288,0.4509395956993103,-0.19057488441467285,-0.1686551570892334,0.1856001615524292,0.3308474575697689,-0.9110943730132608,2.896583285871921,-0.7473217844963074,-0.324844628572464,-0.5796433091163635, 150, 132, 6, 132
1731654660170,9i,12.12187156664565,1.7s : 0.2s,0.8771606457030856,7.389319643054416,0.5452767011515198,0.31421012098941187,-0.9084843397140503,-0.0745629370212555,0.4369843602180481,-0.22289085388183594,-0.13707318902015686,0.17395001649856567,0.3213721521869901,-0.9102276167272516,2.8915225139660565,-0.7492160797119141,-0.3158687651157379,-0.5821533203125, 150, 132, 6, 132
1731654660180,9i,12.12187156664565,1.7s : 0.2s,0.8771606457030856,7.392295603819796,0.5783169440491971,0.26672820899830624,-0.8995771408081055,-0.060203973203897476,0.38923949003219604,-0.2257150411605835,-0.1015196442604065,0.09945058822631836,0.3125724867695037,-0.9094695194335884,2.886721926880929,-0.7509389519691467,-0.3075074851512909,-0.5844055414199829, 150, 132, 6, 132
1731654660190,9i,12.12187156664565,1.7s : 0.2s,0.8771606457030856,7.394641373691011,0.5985505083571134,0.23998915671072243,-0.9036191701889038,-0.029375575482845306,0.34677475690841675,-0.2259523868560791,-0.07086238265037537,0.03897225856781006,0.3040875119458602,-0.9083575565489997,2.881648508859683,-0.7523190379142761,-0.2994226813316345,-0.5868239402770996, 150, 132, 6, 132
1731654660200,9i,12.12187156664565,1.7s : 0.2s,0.8771606457030856,7.396415199371239,0.6279382633608668,0.25510572109518187,-1.0074949264526367,-0.02585114911198616,0.28684672713279724,-0.24335628747940063,-0.07204738259315491,0.02580350637435913,0.2956440184170197,-0.906972260211551,2.875916361791231,-0.7534698843955994,-0.29135599732398987,-0.5894022583961487, 150, 132, 6, 132
1731654660210,9i,12.12187156664565,1.7s : 0.2s,0.8771606457030856,7.396444775054702,0.664273608297105,0.27188086658396743,-1.1051942110061646,0.0052480027079582214,0.23249022662639618,-0.24863725900650024,-0.10988286137580872,0.004947304725646973,0.28698466754295127,-0.9050773033753464,2.8688321703447013,-0.7543076276779175,-0.28306150436401367,-0.5923650860786438, 150, 132, 6, 132
1731654660220,9i,12.12187156664565,1.7s : 0.2s,0.8771606457030856,7.395407050738278,0.685009376655593,0.2649815283518488,-1.0808860063552856,0.0164220929145813,0.2071254849433899,-0.23552048206329346,-0.11813002824783325,0.028117775917053223,0.2783807481113813,-0.9028687614172443,2.861319340063453,-0.754881739616394,-0.274799108505249,-0.5955159664154053, 150, 132, 6, 132
1731654660230,9i,12.12187156664565,1.7s : 0.2s,0.8771606457030856,7.3942044597015295,0.6841078391149511,0.21214695694024016,-1.006911277770996,0.02714291401207447,0.14244672656059265,-0.2027949094772339,-0.05613169074058533,0.027014613151550293,0.2703933591621947,-0.9006310088314523,2.8539127489338343,-0.7552433609962463,-0.26711052656173706,-0.5985479354858398, 150, 132, 6, 132
1731654660240,9i,12.12187156664565,1.7s : 0.2s,0.8771606457030856,7.39271005571974,0.6515482992475755,0.14677652739368402,-0.8639097213745117,0.005444278009235859,0.07875349372625351,-0.13454025983810425,0.04575300216674805,-0.03672778606414795,0.26360866431852664,-0.8986790999583252,2.846997172231434,-0.755474328994751,-0.26056623458862305,-0.6011355519294739, 150, 132, 6, 132
1731654660250,9i,12.12187156664565,1.7s : 0.2s,0.8771606457030856,7.391192055882176,0.6144649673717089,0.15203810000744375,-0.7939697504043579,0.013173570856451988,0.0410107746720314,-0.0818595290184021,0.10299631953239441,-0.076199471950531,0.25791536267086895,-0.8970387107615885,2.840761474809455,-0.7556343078613281,-0.2550654113292694,-0.6032898426055908, 150, 132, 6, 132
1731654660260,9i,12.12187156664565,1.7s : 0.2s,0.8771606457030856,7.389572119547153,0.5733491674901793,0.15982700477985523,-0.7190491557121277,0.014506482519209385,0.004798708017915487,-0.07852649688720703,0.07476875185966492,-0.11742186546325684,0.25287008524901955,-0.8953772477599048,2.8347688849127897,-0.7556256651878357,-0.2501837909221649,-0.605341374874115, 150, 132, 6, 132
1731654660270,9i,12.12187156664565,1.7s : 0.2s,0.8771606457030856,7.387817984882274,0.5396813900003167,0.15511846894368422,-0.6942111253738403,-0.02144628018140793,-0.02812415361404419,-0.07964015007019043,0.03706759214401245,-0.12784826755523682,0.24841599411293966,-0.8940568421393006,2.8291048365582094,-0.7556869983673096,-0.24586889147758484,-0.6070303916931152, 150, 132, 6, 132
1731654660280,9i,12.12187156664565,1.7s : 0.2s,0.8771606457030856,7.385964152072568,0.5081378326625167,0.1353406311864598,-0.6519326567649841,-0.03644014522433281,-0.05500823259353638,-0.04881000518798828,-0.0017845183610916138,-0.1262199878692627,0.24433756154036443,-0.8929693488078041,2.8233603027059484,-0.7558011412620544,-0.24191361665725708,-0.6084755659103394, 150, 132, 6, 132
1731654660290,9i,12.12187156664565,1.7s : 0.2s,0.8771606457030856,7.38406837926962,0.4807725398317245,0.12541982997386242,-0.6098313927650452,-0.18403972685337067,0.049416374415159225,-0.012019515037536621,-0.011542662978172302,-0.12430781126022339,0.24046284953805183,-0.8925841770005559,2.818187636049728,-0.7562909722328186,-0.23815219104290009,-0.6093502044677734, 150, 132, 6, 132
1731654660300,9i,12.12187156664565,1.7s : 0.2s,0.8771606457030856,7.382202727518252,0.4871832090862964,0.11334284173985963,-0.5135378837585449,-0.636401355266571,0.6171053647994995,0.01966226100921631,-0.006222248077392578,-0.11145079135894775,0.23731682332454732,-0.8922416041192828,2.812996207205668,-0.7566617131233215,-0.23509550094604492,-0.6100764870643616, 150, 132, 6, 132
1731654660309,9i,12.12187156664565,1.7s : 0.2s,0.8771606457030856,7.380405932770622,0.5228660855961142,0.10796617950078445,-0.405791699886322,-0.7881276607513428,0.6133748292922974,0.035355985164642334,0.0012858957052230835,-0.10200488567352295,0.23534009650182486,-0.8919390437602706,2.8082989082849363,-0.7568373084068298,-0.23317372798919678,-0.6105960011482239, 150, 132, 6, 132
1731654660319,9i,12.12187156664565,1.7s : 0.2s,0.8771606457030856,7.3788028306011855,0.4606300406856572,0.11344572524144221,-0.37776830792427063,-0.31464317440986633,0.04832741245627403,0.08596992492675781,0.005899742245674133,-0.07378548383712769,0.2334320165631611,-0.8923994981931079,2.8051417654425688,-0.7574633359909058,-0.23131781816482544,-0.6105254888534546, 150, 132, 6, 132
1731654660329,9i,12.12187156664565,1.7s : 0.2s,0.8771606457030856,7.377257814612031,0.38072500127390835,0.08118539081424865,-0.31403353810310364,-0.14742852747440338,-0.12403157353401184,0.02294337749481201,-0.011996835470199585,-0.07694637775421143,0.23178755808102078,-0.8929781322979249,2.802128664873256,-0.7581117749214172,-0.22971764206886292,-0.6103248596191406, 150, 132, 6, 132
1731654660339,9i,12.12187156664565,1.7s : 0.2s,0.8771606457030856,7.375826900202262,0.31077202909504653,0.05324244136373156,-0.21675598621368408,-0.12365396320819855,-0.14729349315166473,0.023548245429992676,0.007448717951774597,-0.047167301177978516,0.23104109646475027,-0.8936507808589611,2.7992178196410205,-0.7586555480957031,-0.2289910763502121,-0.6099220514297485, 150, 132, 6, 132
1731654660349,9i,12.12187156664565,1.7s : 0.2s,0.8771606457030856,7.374609525750082,0.2712282685885303,0.04415465100983631,-0.25960567593574524,-0.09755489975214005,-0.17595678567886353,0.03977936506271362,0.014735937118530273,-0.012251019477844238,0.23061122493998165,-0.8941688135422194,2.7963559251907344,-0.7590481042861938,-0.22857260704040527,-0.6095905303955078, 150, 132, 6, 132
1731654660359,9i,12.12187156664565,1.7s : 0.2s,0.8771606457030856,7.3736143567135874,0.259587256550701,0.02036694778206621,-0.2861179709434509,-0.11166219413280487,-0.2111046463251114,-0.014379322528839111,0.009044021368026733,-0.011236250400543213,0.23023466255502995,-0.8944506682903879,2.7929123184960014,-0.7592869400978088,-0.22820599377155304,-0.6094303727149963, 150, 132, 6, 132
1731654660369,9i,12.12187156664565,1.7s : 0.2s,0.8771606457030856,7.372726102625053,0.2608559806882327,0.02680852101799232,-0.3432576060295105,-0.12859030067920685,-0.20171232521533966,-0.0077860355377197266,0.025615215301513672,0.0013911128044128418,0.22968632068241213,-0.8948440301699744,2.789108365736829,-0.7596241235733032,-0.22767210006713867,-0.6092098355293274, 150, 132, 6, 132
1731654660379,9i,12.12187156664565,1.7s : 0.2s,0.8771606457030856,7.371975393410547,0.2854204758241338,0.022077110831600962,-0.36934778094291687,0.08642265945672989,-0.5508050918579102,0.01259690523147583,0.009523019194602966,0.01542818546295166,0.22908120875116858,-0.8950390186196486,2.78470552623856,-0.759850263595581,-0.22708283364772797,-0.6091477870941162, 150, 132, 6, 132
1731654660389,9i,12.12187156664565,1.7s : 0.2s,0.8771606457030856,7.371360745340056,0.3360899192917119,0.02942315891873436,-0.335560142993927,0.23231232166290283,-0.6844977140426636,0.02388519048690796,-0.0002149343490600586,0.01718062162399292,0.22809132144561445,-0.8959490780335332,2.7809330053028134,-0.7605794668197632,-0.22611869871616364,-0.6085962057113647, 150, 132, 6, 132
1731654660399,9i,12.12187156664565,1.7s : 0.2s,0.8771606457030856,7.370788449973491,0.3333990858093417,0.023599247295943447,-0.2165898084640503,0.12109284847974777,-0.4233874976634979,-0.013857483863830566,-0.017872750759124756,0.006742358207702637,0.2272420146194518,-0.8972708647122398,2.777591993573482,-0.7615330815315247,-0.22529129683971405,-0.6077099442481995, 150, 132, 6, 132
1731654660409,9i,12.12187156664565,1.7s : 0.2s,0.8771606457030856,7.370343038781928,0.28704696543161573,0.05024725486050474,-0.1576930731534958,-0.1005682647228241,-0.21485209465026855,0.047003328800201416,-0.01257413625717163,-0.012544512748718262,0.22777845276331296,-0.8977926068633828,2.7742419690499687,-0.7617554068565369,-0.22581391036510468,-0.6072370409965515, 150, 132, 6, 132
1731654660419,9i,12.12187156664565,1.7s : 0.2s,0.8771606457030856,7.370106276765792,0.26283386320048074,0.05637634697555871,-0.1587439626455307,-0.18389856815338135,-0.24269624054431915,0.05224186182022095,-0.006321415305137634,-0.020226716995239258,0.22840158922038853,-0.8989880988373576,2.771607015959861,-0.7623705863952637,-0.22642090916633606,-0.6062383055686951, 150, 132, 6, 132
1731654660429,9i,12.12187156664565,1.7s : 0.2s,0.8771606457030856,7.369953106421078,0.2432281189227834,0.06517440303472255,-0.13802263140678406,-0.20973114669322968,-0.20990203320980072,0.05237555503845215,-0.013891160488128662,-0.03621518611907959,0.22912081578806973,-0.9003520011903189,2.769019044594892,-0.7630689144134521,-0.22712139785289764,-0.6050965785980225, 150, 132, 6, 132
1731654660439,9i,12.12187156664565,1.7s : 0.2s,0.8771606457030856,7.369958783787761,0.24039118481202643,0.08645867520095074,-0.16023099422454834,-0.21357488632202148,-0.21373805403709412,0.07700484991073608,-0.010069623589515686,-0.03799945116043091,0.22967624713963933,-0.9019067450026824,2.766461312708099,-0.763909637928009,-0.22766228020191193,-0.6038311123847961, 150, 132, 6, 132
1731654660449,9i,12.12187156664565,1.7s : 0.2s,0.8771606457030856,7.370029154691317,0.23774430889424936,0.06877408375757015,-0.1514386236667633,-0.2309165894985199,-0.20250754058361053,0.06530594825744629,-0.0111054927110672,-0.01848447322845459,0.23024220380053478,-0.9036002295397184,2.763890853880605,-0.7648298144340515,-0.2282133400440216,-0.60245680809021, 150, 132, 6, 132
1731654660459,9i,12.12187156664565,1.7s : 0.2s,0.8771606457030856,7.3702211224302365,0.232890788976086,0.07309950523693122,-0.1670900285243988,-0.3029138147830963,-0.09020789712667465,0.06525897979736328,-0.030507534742355347,0.012413442134857178,0.23046894864454034,-0.905593273649209,2.7614791635674525,-0.7659882307052612,-0.22843410074710846,-0.6008992791175842, 150, 132, 6, 132
1731654660469,9i,12.12187156664565,1.7s : 0.2s,0.8771606457030856,7.370572629870876,0.22569123739377805,0.0832165162417928,-0.12103699147701263,-0.5645785927772522,0.2786254286766052,0.05560094118118286,-0.0555657297372818,0.027312517166137695,0.23098286256035722,-0.9074013403316861,2.7589741408165502,-0.7669808864593506,-0.2289343923330307,-0.5994409918785095, 150, 132, 6, 132
1731654660479,9i,12.12187156664565,1.7s : 0.2s,0.8771606457030856,7.371204681173583,0.26973443515369944,0.10179685706185947,-0.16478578746318817,-0.5710266828536987,0.24685977399349213,0.057873308658599854,-0.06416010856628418,0.053821563720703125,0.23121421217505728,-0.909559467832432,2.756823732481467,-0.7682309150695801,-0.22915959358215332,-0.597751796245575, 150, 132, 6, 132
1731654660489,9i,12.12187156664565,1.7s : 0.2s,0.8771606457030856,7.37232548293121,0.2524561733627057,0.13770379202960134,-0.13855817914009094,-0.28053519129753113,-0.12874074280261993,0.07970285415649414,-0.061643823981285095,0.0938606858253479,0.23133815601568414,-0.911581068935792,2.7548932178780885,-0.7694153189659119,-0.2292802333831787,-0.5961800813674927, 150, 132, 6, 132
1731654660499,9i,12.12187156664565,1.7s : 0.2s,0.8771606457030856,7.373855186815841,0.23335079549661922,0.16261545097982125,-0.16390642523765564,-0.22303062677383423,-0.09033236652612686,0.039623260498046875,-0.06665033102035522,0.14293885231018066,0.23130513644531464,-0.9135016855276482,2.753018160848413,-0.7705649733543396,-0.22924809157848358,-0.5947059392929077, 150, 132, 6, 132
1731654660509,9i,12.12187156664565,1.7s : 0.2s,0.8771606457030856,7.376006923399258,0.21435348826765352,0.22626160319342922,-0.22033940255641937,-0.14852353930473328,-0.08797243982553482,0.0522419810295105,-0.07951994240283966,0.20528435707092285,0.2308125592125539,-0.9148402129484039,2.7506694343314275,-0.7714496850967407,-0.22876861691474915,-0.5937427878379822, 150, 132, 6, 132
1731654660639,9i,12.12187156664565,1.7s : 0.2s,0.8771606457030856,7.457635708176019,0.6014798124844148,0.7593492658319635,-2.553685188293457,0.6025404334068298,0.4346378743648529,0.2785390019416809,0.08355354517698288,0.7014600038528442,0.10058396380729952,-0.8725830254795892,2.6379607282025823,-0.7621204257011414,-0.1004144474864006,-0.639600932598114, 150, 132, 6, 132
1731654660659,9i,12.12187156664565,1.7s : 0.2s,0.8771606457030856,7.4745405744754265,1.0862517543500865,0.6185391928027842,-3.253819704055786,0.536354124546051,0.3941493332386017,0.2957889437675476,0.10491374135017395,0.5330035090446472,0.056970843488457636,-0.8583016075056428,2.599642531952132,-0.7555056810379028,-0.05694003030657768,-0.6526630520820618, 150, 132, 6, 132
1731654660669,9i,12.12187156664565,1.7s : 0.2s,0.8771606457030856,7.48455848004341,1.4538070996404309,0.6187833009139332,-3.382540225982666,0.4417775571346283,0.4875890016555786,0.3083215355873108,0.16469493508338928,0.5105939507484436,0.03196408159436503,-0.8526035913264537,2.577429222614506,-0.7526116371154785,-0.03195863962173462,-0.6576887965202332, 150, 132, 6, 132
1731654660679,9i,12.12187156664565,1.7s : 0.2s,0.8771606457030856,7.496024860602359,1.776443622750321,0.6720189766865394,-3.6779658794403076,0.45830169320106506,0.7069466710090637,0.3370276689529419,0.16629494726657867,0.5571066737174988,0.004216002121839174,-0.8475748440842691,2.5548854642088923,-0.7496709823608398,-0.004215989727526903,-0.6617973446846008, 150, 132, 6, 132
1731654660689,9i,12.12187156664565,1.7s : 0.2s,0.8771606457030856,7.5090234387839505,2.0661648929504417,0.7546670584541587,-3.9710991382598877,0.39973974227905273,0.9060163497924805,0.3781839609146118,0.13488468527793884,0.6389877796173096,-0.027212886492824138,-0.8434781780820207,2.5315458369320925,-0.746683657169342,0.027209527790546417,-0.6646226644515991, 150, 132, 6, 132
1731654660709,9i,12.12187156664565,1.7s : 0.2s,0.8771606457030856,7.537396730083932,2.343168083537508,0.7908954118799163,-4.273653507232666,0.7202464938163757,1.0696728229522705,0.31632137298583984,0.14279241859912872,0.7106804251670837,-0.09715232697152211,-0.8362551739903613,2.4830765755522286,-0.7386387586593628,0.09699957072734833,-0.667086124420166, 150, 132, 6, 132
1731654660729,9i,12.12187156664565,1.7s : 0.2s,0.8771606457030856,7.564826428921941,2.6248062260950062,0.6256327310932319,-4.658198356628418,1.1542226076126099,1.0307090282440186,0.06427168846130371,0.020824745297431946,0.6219741106033325,-0.172627962870261,-0.8238658447038715,2.4314321060747788,-0.7228714823722839,0.171771839261055,-0.6692917346954346, 150, 132, 6, 132
1731654660739,9i,12.12187156664565,1.7s : 0.2s,0.8771606457030856,7.578253192188807,2.779383622594688,0.6226078024488435,-4.382697105407715,1.295336365699768,1.0942264795303345,0.027213752269744873,0.022703230381011963,0.6215983033180237,-0.2113965834011362,-0.8166153467365458,2.4049191224908566,-0.7126079201698303,0.20982560515403748,-0.6694499254226685, 150, 132, 6, 132
1731654660749,9i,12.12187156664565,1.7s : 0.2s,0.8771606457030856,7.590848049445756,2.8637978300601077,0.5767029743594888,-4.251787185668945,1.2475130558013916,1.1193281412124634,0.06594359874725342,0.0473998486995697,0.5709562301635742,-0.2486576554617889,-0.809217089883862,2.3809403718396154,-0.7014873623847961,0.24610312283039093,-0.6688414216041565, 150, 132, 6, 132
1731654660759,9i,12.12187156664565,1.7s : 0.2s,0.8771606457030856,7.602475178168269,3.0249408819790604,0.45082544051583395,-4.776487350463867,1.1358028650283813,1.2603031396865845,0.14936083555221558,0.05357089638710022,0.42197757959365845,-0.28826513296330203,-0.8040670211217249,2.35568948271801,-0.690467894077301,0.2842893600463867,-0.6651570200920105, 150, 132, 6, 132
1731654660769,9i,12.12187156664565,1.7s : 0.2s,0.8771606457030856,7.6136815890596035,3.205045496082123,0.4728860089134863,-5.058785438537598,1.2048861980438232,1.4740352630615234,0.18615210056304932,0.150344580411911,0.4078787565231323,-0.3324614595066048,-0.8008189060019488,2.3282973008624426,-0.6786141395568848,0.3263706862926483,-0.6580009460449219, 150, 132, 6, 132
1731654660779,9i,12.12187156664565,1.7s : 0.2s,0.8771606457030856,7.624465934390351,3.316840274031287,0.47912950486814504,-4.928412437438965,1.3033474683761597,1.5796152353286743,0.1288279891014099,0.22723793983459473,0.4016607403755188,-0.3782770274811851,-0.7975966405337125,2.3015540834102968,-0.6650828123092651,0.3693198561668396,-0.6490515470504761, 150, 132, 6, 132
1731654660789,9i,12.12187156664565,1.7s : 0.2s,0.8771606457030856,7.633517311906695,3.3873143789280866,0.2809160487541605,-4.835756778717041,1.4104700088500977,1.6483123302459717,0.0037332773208618164,0.10805732011795044,0.259274959564209,-0.42395368677574463,-0.794155868019037,2.2759156284239084,-0.6501259803771973,0.4113673269748688,-0.6388373374938965, 150, 132, 6, 132
1731654660799,9i,12.12187156664565,1.7s : 0.2s,0.8771606457030856,7.640388206642709,3.3554302623131673,0.19928114916998518,-4.376128196716309,1.5843350887298584,1.549652338027954,-0.09584182500839233,0.06042134761810303,0.16394078731536865,-0.4678427661702864,-0.7894342712305438,2.2519899206157987,-0.6336655020713806,0.4509619176387787,-0.6285709738731384, 150, 132, 6, 132
1731654660809,9i,12.12187156664565,1.7s : 0.2s,0.8771606457030856,7.645645528078231,3.245837429923433,0.30148747158176853,-3.9133424758911133,1.6436935663223267,1.4230623245239258,-0.11561340093612671,0.2639653980731964,0.08860307931900024,-0.5073547947341336,-0.783268167861883,2.230825801427468,-0.616716742515564,0.4858669638633728,-0.6193495392799377, 150, 132, 6, 132
1731654660819,9i,12.12187156664565,1.7s : 0.2s,0.8771606457030856,7.649778168223211,3.1021369481104353,0.464640902950578,-3.5286481380462646,1.7005850076675415,1.369924545288086,-0.09320449829101562,0.45519495010375977,0.0012835860252380371,-0.5436142344859027,-0.7760388858467303,2.21203176045628,-0.5994833707809448,0.5172325968742371,-0.610811173915863, 150, 132, 6, 132
1731654660829,9i,12.12187156664565,1.7s : 0.2s,0.8771606457030856,7.652947417610891,2.914263348466535,0.5597914779042671,-3.0006015300750732,1.8397692441940308,1.2666704654693604,-0.09185993671417236,0.5477870106697083,-0.06969678401947021,-0.5761730162794729,-0.7667208381929238,2.1964118752282764,-0.5817697048187256,0.5448188185691833,-0.6039177179336548, 150, 132, 6, 132
1731654660858,9i,12.12187156664565,1.7s : 0.2s,0.8771606457030856,7.6488433302375505,2.6669393526251417,0.7162261371972896,-2.3656365871429443,2.059610605239868,0.7845277190208435,-0.4153536558151245,0.30894404649734497,-0.49498969316482544,-0.6533885441247924,-0.7301334167775497,2.1578863446629337,-0.5295924544334412,0.6078804731369019,-0.5916191339492798, 150, 132, 6, 132
1731654660878,9i,12.12187156664565,1.7s : 0.2s,0.8771606457030856,7.640940852346601,2.460712409750034,0.9020704523039897,-2.1703619956970215,1.9909672737121582,0.7078906297683716,-0.26811859011650085,0.6074148416519165,-0.6106477975845337,-0.699063218616276,-0.7057710551429,2.132335040109243,-0.4964839220046997,0.6435009241104126,-0.5825894474983215, 150, 132, 6, 132
1731654660888,9i,12.12187156664565,1.7s : 0.2s,0.8771606457030856,7.636039162126956,2.2471691363096746,0.9014520853830964,-1.7152519226074219,2.0009326934814453,0.6168324947357178,-0.21901419758796692,0.7049534916877747,-0.5173869132995605,-0.7182710347466359,-0.6923081006644312,2.1224153981558205,-0.48061639070510864,0.6580838561058044,-0.5795978903770447, 150, 132, 6, 132
1731654660908,9i,12.12187156664565,1.7s : 0.2s,0.8771606457030856,7.62388437110552,2.0000738220940875,0.9855776555583081,-0.9008224606513977,2.215182304382324,0.33707159757614136,-0.2985943555831909,0.7431259751319885,-0.5744288563728333,-0.7438785954858553,-0.6572478999567491,2.1114747850697397,-0.44955912232398987,0.6771470308303833,-0.5825534462928772, 150, 132, 6, 132
1731654660928,9i,12.12187156664565,1.7s : 0.2s,0.8771606457030856,7.607420863920911,1.824175552302417,0.9716285033382855,-1.1177071332931519,1.8818647861480713,0.17197944223880768,-0.2893316447734833,0.5156606435775757,-0.7710014581680298,-0.762202658537032,-0.6236171135891233,2.1010622721733796,-0.4223991632461548,0.6905163526535034,-0.5871680378913879, 150, 132, 6, 132
1731654660938,9i,12.12187156664565,1.7s : 0.2s,0.8771606457030856,7.5981090046098725,1.6503220559472709,0.8676307780307274,-0.7591835260391235,1.7940398454666138,0.16356465220451355,-0.1976945400238037,0.4292147159576416,-0.7276501655578613,-0.7707884401690804,-0.6091608162389698,2.0954654818477194,-0.41045960783958435,0.6967010498046875,-0.5883287191390991, 150, 132, 6, 132
1731654660958,9i,12.12187156664565,1.7s : 0.2s,0.8771606457030856,7.578944890338895,1.447960089318913,0.8310561835833921,-0.23458372056484222,1.6320401430130005,-0.01577141508460045,-0.12020158767700195,0.35460782051086426,-0.7419294118881226,-0.7798565766842293,-0.5786193036881342,2.090688290189277,-0.3888314664363861,0.7031774520874023,-0.5952745079994202, 150, 132, 6, 132
1731654660968,9i,12.12187156664565,1.7s : 0.2s,0.8771606457030856,7.569117756071298,1.2738475514850784,0.7987838874453159,0.10694918036460876,1.5400382280349731,-0.17365649342536926,-0.1664520502090454,0.279762864112854,-0.7294396162033081,-0.7800720156190178,-0.5640575789658859,2.088777449128976,-0.38004130125045776,0.7033306360244751,-0.6007452011108398, 150, 132, 6, 132
1731654660978,9i,12.12187156664565,1.7s : 0.2s,0.8771606457030856,7.558592323407099,1.1240916613895569,0.6991559725127352,0.5963425636291504,1.4070005416870117,-0.15236638486385345,-0.20974889397621155,0.1804942488670349,-0.642064094543457,-0.7761016891659727,-0.5490455069618211,2.0892897361933422,-0.3724347949028015,0.7005026936531067,-0.6087597608566284, 150, 132, 6, 132
1731654660988,9i,12.12187156664565,1.7s : 0.2s,0.8771606457030856,7.547749996645594,1.0235210505376335,0.6077795514360954,0.8942071199417114,1.2615166902542114,-0.08188725262880325,-0.18022850155830383,0.04853641986846924,-0.5784097909927368,-0.7691334387406299,-0.5329739540868161,2.093334531546717,-0.36507469415664673,0.6955128908157349,-0.6188557147979736, 150, 132, 6, 132
1731654660998,9i,12.12187156664565,1.7s : 0.2s,0.8771606457030856,7.537272965276928,1.0057229635982443,0.535902551740429,1.4019118547439575,1.2176337242126465,-0.14690940082073212,-0.10024946928024292,0.04636657238006592,-0.524396538734436,-0.758846634786758,-0.5161745866808729,2.099820261029565,-0.35813966393470764,0.6880849599838257,-0.6310904026031494, 150, 132, 6, 132
1731654661008,9i,12.12187156664565,1.7s : 0.2s,0.8771606457030856,7.527647464212021,1.0788235594796027,0.47108052304825193,1.8952667713165283,1.141622543334961,-0.21793772280216217,-0.09849897027015686,0.1346340775489807,-0.44055473804473877,-0.7435494078930006,-0.49852868957853685,2.1085073506090932,-0.3519402742385864,0.6769047975540161,-0.6464812755584717, 150, 132, 6, 132
1731654661018,9i,12.12187156664565,1.7s : 0.2s,0.8771606457030856,7.51861543770522,1.2136556900787454,0.4328947568263491,2.2333602905273438,1.0800050497055054,-0.29814496636390686,-0.14747276902198792,0.11154848337173462,-0.39141613245010376,-0.7241100205437715,-0.4808590872347193,2.1184681388595,-0.34648454189300537,0.6624690294265747,-0.664141058921814, 150, 132, 6, 132
1731654661028,9i,12.12187156664565,1.7s : 0.2s,0.8771606457030856,7.509982591561728,1.3648411133714327,0.41332503453916475,2.4570350646972656,1.0153478384017944,-0.3558942973613739,-0.15719205141067505,0.08062845468521118,-0.3736673593521118,-0.7018867464470856,-0.4640602234755966,2.1284724087086655,-0.3417854309082031,0.6456596255302429,-0.6828663349151611, 150, 132, 6, 132
1731654661088,9i,12.12187156664565,1.7s : 0.2s,0.8771606457030856,7.471298116534497,1.6162713884146604,0.24429105495137682,3.1516921520233154,0.9712973833084106,-0.8677154779434204,-0.08107474446296692,0.2059963345527649,-0.10329818725585938,-0.5289958829357553,-0.38326954466429247,2.176188400685901,-0.32284051179885864,0.5046667456626892,-0.8006781935691833, 150, 132, 6, 132
1731654661108,9i,12.12187156664565,1.7s : 0.2s,0.8771606457030856,7.462135674963599,1.7653551692240785,0.326462835523754,2.7915310859680176,1.041596531867981,-1.2023355960845947,-0.12482240796089172,0.29925644397735596,-0.037985920906066895,-0.466077618336459,-0.36170614779582566,2.1790400774631546,-0.31612589955329895,0.44938573241233826,-0.8355339169502258, 150, 132, 6, 132
1731654661128,9i,12.12187156664565,1.7s : 0.2s,0.8771606457030856,7.456126848113049,1.8067902589769564,0.25699487881397753,2.270444869995117,1.1012294292449951,-1.4491416215896606,-0.13330334424972534,0.2105390429496765,0.06284821033477783,-0.41051361952784343,-0.3440318933479764,2.1703264426414766,-0.3092624247074127,0.3990803360939026,-0.8631868958473206, 150, 132, 6, 132
1731654661148,9i,12.12187156664565,1.7s : 0.2s,0.8771606457030856,7.451188621040832,1.8592266984834758,0.2859618799337343,2.202362298965454,1.2352921962738037,-1.6493556499481201,-0.1170358657836914,0.21654099225997925,0.14555686712265015,-0.3586657038051758,-0.32708704376294834,2.154606067629527,-0.30084118247032166,0.35102516412734985,-0.8867220282554626, 150, 132, 6, 132
1731654661158,9i,12.12187156664565,1.7s : 0.2s,0.8771606457030856,7.450444253927417,1.9182000419252183,0.35095500387818385,2.194643974304199,1.3224159479141235,-1.7518603801727295,-0.10762053728103638,0.2888006269931793,0.16787326335906982,-0.3324154186236152,-0.31757065334502044,2.1448750289484626,-0.2951655685901642,0.3263271749019623,-0.8979910612106323, 150, 132, 6, 132
1731654661168,9i,12.12187156664565,1.7s : 0.2s,0.8771606457030856,7.4509813607756215,1.952123439881,0.3768776679574655,2.0677833557128906,1.3174152374267578,-1.8319673538208008,-0.09847742319107056,0.32724472880363464,0.15890204906463623,-0.3066591660122246,-0.3078754152342587,2.1338301595208216,-0.2888972759246826,0.30187535285949707,-0.9085205793380737, 150, 132, 6, 132
1731654661178,9i,12.12187156664565,1.7s : 0.2s,0.8771606457030856,7.452410400483445,1.9689676922661967,0.3424037216075341,1.9351933002471924,1.3420498371124268,-1.8943034410476685,-0.07673132419586182,0.2970171570777893,0.15209674835205078,-0.2820083007894209,-0.2982734814434345,2.121498222440102,-0.28226205706596375,0.2782851755619049,-0.9180879592895508, 150, 132, 6, 132
1731654661188,9i,12.12187156664565,1.7s : 0.2s,0.8771606457030856,7.454234204955703,1.9712455361274506,0.3213264573965636,1.8296693563461304,1.3349653482437134,-1.9223731756210327,-0.03757447004318237,0.27900829911231995,0.15489745140075684,-0.2585775766960706,-0.2885239627929556,2.1081618755737863,-0.2750779688358307,0.25570568442344666,-0.9267938137054443, 150, 132, 6, 132
1731654661198,9i,12.12187156664565,1.7s : 0.2s,0.8771606457030856,7.456291769581653,1.9553622598410336,0.2856164007346364,1.7069178819656372,1.2829570770263672,-1.930704951286316,0.0033228397369384766,0.24657206237316132,0.14411073923110962,-0.23619370645793117,-0.27889552970212333,2.094191103138677,-0.26765069365501404,0.2340037226676941,-0.9346686005592346, 150, 132, 6, 132
1731654661208,9i,12.12187156664565,1.7s : 0.2s,0.8771606457030856,7.458896146489142,1.9266765179147634,0.2359714195762726,1.588649868965149,1.25251042842865,-1.9177815914154053,0.0385475754737854,0.19977721571922302,0.11952263116836548,-0.21527297690094355,-0.26951733757746427,2.0797285419671514,-0.26012030243873596,0.2136141061782837,-0.941650927066803, 150, 132, 6, 132
1731654661218,9i,12.12187156664565,1.7s : 0.2s,0.8771606457030856,7.4617621298533825,1.9034031160206755,0.2399591456851775,1.6041902303695679,1.2109246253967285,-1.8943153619766235,0.06607750058174133,0.2095492035150528,0.09645354747772217,-0.19497378224058443,-0.260251701804866,2.0651915717005696,-0.2524482011795044,0.1937408149242401,-0.9480160474777222, 150, 132, 6, 132
1731654661228,9i,12.12187156664565,1.7s : 0.2s,0.8771606457030856,7.464728863303849,1.8756367729724326,0.25589329622588775,1.5960941314697266,1.163209080696106,-1.8421262502670288,0.08499392867088318,0.23248432576656342,0.06487256288528442,-0.17476092434906632,-0.25105967584693634,2.0509411807075906,-0.24464648962020874,0.173872709274292,-0.9538953900337219, 150, 132, 6, 132
1731654661238,9i,12.12187156664565,1.7s : 0.2s,0.8771606457030856,7.4677998800383225,1.8393798019043859,0.2305626492852063,1.5812665224075317,1.0806821584701538,-1.7821038961410522,0.11220142245292664,0.19709962606430054,0.04149353504180908,-0.15506855667522385,-0.2421639986683547,2.037070689327301,-0.2369266152381897,0.15444783866405487,-0.9591723680496216, 150, 132, 6, 132
1731654661248,9i,12.12187156664565,1.7s : 0.2s,0.8771606457030856,7.470966705278984,1.8005475910682627,0.22408798400662758,1.5940570831298828,0.9767346382141113,-1.7351536750793457,0.14555422961711884,0.1658441722393036,0.03905254602432251,-0.13550417907697218,-0.23388083628357145,2.0236307481823954,-0.2296300232410431,0.13508988916873932,-0.9638572335243225, 150, 132, 6, 132
1731654661258,9i,12.12187156664565,1.7s : 0.2s,0.8771606457030856,7.474223988645309,1.7614666048621979,0.21811416546114312,1.582572102546692,0.8865988850593567,-1.7101290225982666,0.16868703067302704,0.1280483603477478,0.0521736741065979,-0.1162626814082248,-0.22634410286460338,2.0103842635447693,-0.2229013741016388,0.1160009354352951,-0.9679146409034729, 150, 132, 6, 132
1731654661268,9i,12.12187156664565,1.7s : 0.2s,0.8771606457030856,7.4775718037737615,1.7368974613133987,0.23186582569575656,1.6908286809921265,0.8153738975524902,-1.6668709516525269,0.19020976126194,0.1259893774986267,0.041336238384246826,-0.09666497738900126,-0.21928447936508602,1.997459446879802,-0.21651576459407806,0.0965145081281662,-0.9714967012405396, 150, 132, 6, 132
1731654661278,9i,12.12187156664565,1.7s : 0.2s,0.8771606457030856,7.481247056363524,1.7207209122994211,0.2630331075252294,1.7752103805541992,0.7673014402389526,-1.612099289894104,0.20537735521793365,0.1607193946838379,0.034290432929992676,-0.07626269217624786,-0.21253053827089222,1.9851385179413965,-0.2103210687637329,0.07618878781795502,-0.9746590852737427, 150, 132, 6, 132
1731654661288,9i,12.12187156664565,1.7s : 0.2s,0.8771606457030856,7.48513795268393,1.6990186441965622,0.26881771508367125,1.7493849992752075,0.7055385708808899,-1.5844452381134033,0.2108522355556488,0.16526645421981812,0.022165238857269287,-0.055709849214799045,-0.20601664465307395,1.9731825564739505,-0.20424506068229675,0.05568103864789009,-0.9773349165916443, 150, 132, 6, 132
1731654661298,9i,12.12187156664565,1.7s : 0.2s,0.8771606457030856,7.489053620365373,1.6533940976279013,0.2662510537912402,1.6080336570739746,0.614453911781311,-1.540098786354065,0.20837315917015076,0.16573919355869293,-0.0008774399757385254,-0.03618848001622622,-0.20000726904919375,1.961259554106389,-0.1985463798046112,0.03618058189749718,-0.979423463344574, 150, 132, 6, 132
1731654661308,9i,12.12187156664565,1.7s : 0.2s,0.8771606457030856,7.492905553850835,1.5957589652171242,0.2302541042046536,1.5319571495056152,0.4922453463077545,-1.477774977684021,0.19053605198860168,0.1284807026386261,-0.014341354370117188,-0.017928563431725372,-0.19488051306921172,1.9495376364139743,-0.19361819326877594,0.01792760379612446,-0.9809131622314453, 150, 132, 6, 132
1731654661318,9i,12.12187156664565,1.7s : 0.2s,0.8771606457030856,7.496535644133645,1.5414525051661265,0.18928061975769625,1.5114864110946655,0.4021894931793213,-1.4263144731521606,0.17669744789600372,0.06620468199253082,0.01490318775177002,-0.0003085979328243999,-0.1905591066625476,1.938239833236194,-0.18940789997577667,0.0003085979260504246,-0.9818984270095825, 150, 132, 6, 132
1731654661328,9i,12.12187156664565,1.7s : 0.2s,0.8771606457030856,7.500097740275433,1.4883716593920455,0.18838820469103687,1.4396686553955078,0.3492220640182495,-1.4025812149047852,0.18304234743118286,0.027420073747634888,0.03512483835220337,0.01677001019266069,-0.18679246456867302,1.927152165095594,-0.1856819987297058,-0.016769224777817726,-0.9824668169021606, 150, 132, 6, 132
1731654661338,9i,12.12187156664565,1.7s : 0.2s,0.8771606457030856,7.503647004813691,1.4361953077111247,0.2032100892393302,1.3675262928009033,0.3253958523273468,-1.370017170906067,0.1931193321943283,0.058650825172662735,0.02365046739578247,0.03306764836060751,-0.18320992351627483,1.916095098115101,-0.18208710849285126,-0.03306162357330322,-0.9827263951301575, 150, 132, 6, 132
1731654661348,9i,12.12187156664565,1.7s : 0.2s,0.8771606457030856,7.5071375207697635,1.3644437104634957,0.1977331420477104,1.2086149454116821,0.30042096972465515,-1.28094482421875,0.1800614893436432,0.08158169686794281,-0.004547774791717529,0.04812227134238403,-0.1797081208879159,1.9053780248447993,-0.17853547632694244,-0.0481037013232708,-0.9827569127082825, 150, 132, 6, 132
1731654661368,9i,12.12187156664565,1.7s : 0.2s,0.8771606457030856,7.5136332300146105,1.250755471988154,0.1525339839797612,0.9192503094673157,0.21281015872955322,-1.1361726522445679,0.13738150894641876,-0.02535828948020935,0.06123638153076172,0.07314114292051642,-0.17370410652543525,1.8852426937524287,-0.1723698079586029,-0.07307595014572144,-0.9823179841041565, 150, 132, 6, 132
1731654661378,9i,12.12187156664565,1.7s : 0.2s,0.8771606457030856,7.516839935009414,1.1558246169608544,0.18088450137012171,0.8395799398422241,0.19361436367034912,-1.1036142110824585,0.13946644961833954,-0.0724538117647171,0.08954751491546631,0.08363404138625491,-0.1710765483466302,1.8756926550233914,-0.16964823007583618,-0.08353658020496368,-0.9819577932357788, 150, 132, 6, 132
1731654661388,9i,12.12187156664565,1.7s : 0.2s,0.8771606457030856,7.520019019007771,1.0759311743784317,0.16467999737152994,0.7714675068855286,0.22695261240005493,-1.060465931892395,0.1191948801279068,-0.04960954189300537,0.1022300124168396,0.0933326986422808,-0.1682162854292361,1.8663762401404982,-0.16669540107250214,-0.09319725632667542,-0.9815940856933594, 150, 132, 6, 132
1731654661398,9i,12.12187156664565,1.7s : 0.2s,0.8771606457030856,7.523185826104885,1.0087114651135045,0.15383218013351413,0.7173054218292236,0.2746082842350006,-1.016589879989624,0.11768096685409546,-0.01795237511396408,0.09743326902389526,0.10232783171381954,-0.16494091767969873,1.8573563041832892,-0.1633351594209671,-0.1021493449807167,-0.9812681078910828, 150, 132, 6, 132
1731654661407,9i,12.12187156664565,1.7s : 0.2s,0.8771606457030856,7.526366634435392,0.9475233525157002,0.16005312202348795,0.6213619709014893,0.27787187695503235,-0.9967440962791443,0.10729697346687317,-0.010232962667942047,0.11832010746002197,0.11053621469518149,-0.1613290046419376,1.84850229067993,-0.1596497893333435,-0.11031126230955124,-0.980991005897522, 150, 132, 6, 132
1731654661417,9i,12.12187156664565,1.7s : 0.2s,0.8771606457030856,7.529537532008843,0.8903203901821174,0.1631840950740033,0.5143588185310364,0.29073867201805115,-0.9754129648208618,0.08375458419322968,-0.035789407789707184,0.135400652885437,0.11763395299645164,-0.15758828589498317,1.8396287444909114,-0.15585225820541382,-0.117362841963768,-0.9807834029197693, 150, 132, 6, 132
1731654661427,9i,12.12187156664565,1.7s : 0.2s,0.8771606457030856,7.53265639362194,0.8188151652130528,0.14933378598753616,0.5438926219940186,0.44241049885749817,-0.7059234976768494,0.06012625992298126,-0.04012884944677353,0.1306716799736023,0.12412989963106381,-0.15323874983864388,1.8318758458077848,-0.1514652818441391,-0.12381137162446976,-0.9806778430938721, 150, 132, 6, 132
1731654661437,9i,12.12187156664565,1.7s : 0.2s,0.8771606457030856,7.535439599663725,0.7742407817751282,0.11300890361272158,0.22742891311645508,0.3013114333152771,-0.983310341835022,0.045885488390922546,-0.034369587898254395,0.09738719463348389,0.12913578536258385,-0.14888142246611655,1.8241546121767143,-0.14709694683551788,-0.1287771761417389,-0.9807032942771912, 150, 132, 6, 132
1731654661447,9i,12.12187156664565,1.7s : 0.2s,0.8771606457030856,7.537964878036577,0.7327378909560877,0.11918173986220723,0.02346114069223404,0.2330184131860733,-1.0056283473968506,0.005126163363456726,-0.10578106343746185,0.05466604232788086,0.13159773250325912,-0.14520787447504793,1.8141853730986417,-0.14344698190689087,-0.13121822476387024,-0.9809203743934631, 150, 132, 6, 132
1731654661457,9i,12.12187156664565,1.7s : 0.2s,0.8771606457030856,7.540265091332636,0.6765798153298033,0.12218450149325162,-0.04313226789236069,0.20115341246128082,-0.8446045517921448,0.014215230941772461,-0.1091986894607544,0.05293983221054077,0.13269098840957128,-0.14206632844075215,1.8050582716969166,-0.1403442770242691,-0.1323019564151764,-0.9812235832214355, 150, 132, 6, 132
1731654661467,9i,12.12187156664565,1.7s : 0.2s,0.8771606457030856,7.542457171056244,0.6245448550353707,0.1371622835477671,-0.09100125730037689,0.13537688553333282,-0.7776012420654297,0.11435456573963165,-0.07476703822612762,0.0121002197265625,0.13302216115788842,-0.13961178592488263,1.7969167194907942,-0.137929305434227,-0.13263019919395447,-0.9815216660499573, 150, 132, 6, 132
1731654661477,9i,12.12187156664565,1.7s : 0.2s,0.8771606457030856,7.544178185551113,0.5812579766921677,0.17061913569018966,-0.025485098361968994,0.11807752400636673,-0.7187195420265198,0.13257035613059998,-0.10383421182632446,-0.027467191219329834,0.13339247665807585,-0.137594688587404,1.7893976571201933,-0.1359424591064453,-0.13299724459648132,-0.9817491769790649, 150, 132, 6, 132
1731654661487,9i,12.12187156664565,1.7s : 0.2s,0.8771606457030856,7.545728512619804,0.5454357175821568,0.12816907377235737,0.07127879559993744,0.10684608668088913,-0.6775044798851013,0.08674219250679016,-0.08815561234951019,-0.03364062309265137,0.13453972683919713,-0.135744822440093,1.7824666727751668,-0.134105384349823,-0.1341342180967331,-0.9818471074104309, 150, 132, 6, 132
1731654661497,9i,12.12187156664565,1.7s : 0.2s,0.8771606457030856,7.547010244194662,0.5131953038619472,0.09277988185663845,0.16507427394390106,0.08153273910284042,-0.6327657699584961,0.05928894877433777,-0.06361253559589386,-0.032347679138183594,0.13654873475112314,-0.1341008168969553,1.7761133568414287,-0.1324547380208969,-0.13612478971481323,-0.9817972183227539, 150, 132, 6, 132
1731654661507,9i,12.12187156664565,1.7s : 0.2s,0.8771606457030856,7.548029563686474,0.4823480846118575,0.07307243380673951,0.2610973119735718,0.05371824651956558,-0.5722652077674866,0.06393468379974365,-0.02957986295223236,-0.019415676593780518,0.13940432501184483,-0.13282453029180097,1.7703661931960992,-0.131149560213089,-0.13895323872566223,-0.9815762042999268, 150, 132, 6, 132
1731654661517,9i,12.12187156664565,1.7s : 0.2s,0.8771606457030856,7.549043818930267,0.45577849428707734,0.08256594249403704,0.40057265758514404,0.04343791306018829,-0.4923756718635559,0.08170464634895325,-0.011042401194572449,-0.004421651363372803,0.1433325389571258,-0.131819449236552,1.7654972744526911,-0.13009019196033478,-0.14284226298332214,-0.9811587929725647, 150, 132, 6, 132
1731654661527,9i,12.12187156664565,1.7s : 0.2s,0.8771606457030856,7.550070103549243,0.4501104287448302,0.09133739787246062,0.5445243716239929,0.043988652527332306,-0.4230104088783264,0.09109964966773987,-0.004202932119369507,-0.00507044792175293,0.14861072009255055,-0.1309529589711668,1.7615657397845716,-0.1291397213935852,-0.14806431531906128,-0.9805099964141846, 150, 132, 6, 132
1731654661537,9i,12.12187156664565,1.7s : 0.2s,0.8771606457030856,7.551074734879843,0.4404553477355249,0.08701640289388612,0.6553813815116882,0.0256490595638752,-0.3427467346191406,0.08424289524555206,0.0011935234069824219,-0.021761536598205566,0.15507336204479444,-0.13028317856163785,1.7585367627736457,-0.1283559799194336,-0.15445257723331451,-0.9796270728111267, 150, 132, 6, 132
1731654661547,9i,12.12187156664565,1.7s : 0.2s,0.8771606457030856,7.55201676747285,0.4384689958256019,0.077290663641761,0.6910194754600525,0.021110855042934418,-0.2520386874675751,0.06977994740009308,-0.007554873824119568,-0.03236556053161621,0.16217646956471798,-0.12981081941390574,1.7564809857558477,-0.12774798274040222,-0.16146649420261383,-0.9785749912261963, 150, 132, 6, 132
1731654661557,9i,12.12187156664565,1.7s : 0.2s,0.8771606457030856,7.552872663463501,0.4342267781770147,0.07732897727869463,0.6658257246017456,-0.014592812396585941,-0.18418772518634796,0.06326021254062653,-0.0167587548494339,-0.04119539260864258,0.16916634516432605,-0.1296625665608863,1.755191344233449,-0.12745386362075806,-0.1683606505393982,-0.9774508476257324, 150, 132, 6, 132
1731654661567,9i,12.12187156664565,1.7s : 0.2s,0.8771606457030856,7.553632941920264,0.43050864193279303,0.08678203115432145,0.6768289804458618,-0.03418267145752907,-0.09665088355541229,0.06568124890327454,-0.02445155382156372,-0.05117827653884888,0.1759945508518852,-0.12990640716384932,1.754687473103425,-0.12754030525684357,-0.17508740723133087,-0.9762570858001709, 150, 132, 6, 132
1731654661577,9i,12.12187156664565,1.7s : 0.2s,0.8771606457030856,7.554296819411071,0.4331866235294344,0.09863368105059155,0.6861715912818909,-0.03436696156859398,-0.06951619684696198,0.0719931423664093,-0.02703709900379181,-0.061762332916259766,0.18288862164213457,-0.13034619543345694,1.7548119585727844,-0.12780970335006714,-0.18187077343463898,-0.974980890750885, 150, 132, 6, 132
1731654661587,9i,12.12187156664565,1.7s : 0.2s,0.8771606457030856,7.554886102587947,0.4315509496848371,0.10106148649945143,0.6187258958816528,-0.04420112818479538,-0.11763212829828262,0.07620739936828613,-0.008882403373718262,-0.06577962636947632,0.18953095855440735,-0.1307483106401115,1.7547829804541903,-0.12804141640663147,-0.18839827179908752,-0.9737101793289185, 150, 132, 6, 132
1731654661597,9i,12.12187156664565,1.7s : 0.2s,0.8771606457030856,7.555415299451968,0.4060972610623029,0.0933413556237798,0.4835893213748932,-0.08295811712741852,-0.17603366076946259,0.06887824833393097,0.007708802819252014,-0.06252175569534302,0.1951789649238264,-0.13126450276176577,1.7540126228255744,-0.1284026950597763,-0.1939420998096466,-0.9725735187530518, 150, 132, 6, 132
1731654661607,9i,12.12187156664565,1.7s : 0.2s,0.8771606457030856,7.555901757635639,0.37273585016571503,0.08016073738746436,0.39429035782814026,-0.09739723056554794,-0.18424245715141296,0.06268122792243958,0.006074637174606323,-0.04959744215011597,0.19973690310952028,-0.13196399834980618,1.7527410876207912,-0.1289653182029724,-0.1984114646911621,-0.9715970754623413, 150, 132, 6, 132
1731654661617,9i,12.12187156664565,1.7s : 0.2s,0.8771606457030856,7.5563817238424145,0.3332470774405272,0.07213545390191947,0.3066478371620178,-0.10112006962299347,-0.17600663006305695,0.06506077945232391,0.003986641764640808,-0.030898630619049072,0.20344607340500442,-0.13270823271601,1.75144082180314,-0.12959010899066925,-0.2020455300807953,-0.9707646369934082, 150, 132, 6, 132
1731654661637,9i,12.12187156664565,1.7s : 0.2s,0.8771606457030856,7.557386669333498,0.2952376661421238,0.0645111862210718,0.25017377734184265,-0.07896647602319717,-0.17391517758369446,0.05551053583621979,-0.031317517161369324,0.009974300861358643,0.20929694961993175,-0.13405411519460247,1.748467501803742,-0.13073629140853882,-0.20777224004268646,-0.9694012403488159, 150, 132, 6, 132
1731654661647,9i,12.12187156664565,1.7s : 0.2s,0.8771606457030856,7.5579195879405985,0.25860272460050054,0.05841471880227159,0.19539828598499298,-0.06965836882591248,-0.16669608652591705,0.051767632365226746,-0.023174777626991272,0.013975739479064941,0.2117254893712217,-0.13449744162998833,1.7470446535555677,-0.13109800219535828,-0.2101471722126007,-0.9688403010368347, 150, 132, 6, 132
1731654661657,9i,12.12187156664565,1.7s : 0.2s,0.8771606457030856,7.55847890749645,0.22373181213909749,0.06290048020343679,0.14951574802398682,-0.07713146507740021,-0.14282111823558807,0.052372485399246216,-0.029914364218711853,0.017852842807769775,0.2136192396481008,-0.13495677321177893,1.745726277267756,-0.13148921728134155,-0.21199825406074524,-0.9683838486671448, 150, 132, 6, 132
1731654661627,9i,12.12187156664565,1.7s : 0.2s,0.8771606457030856,7.55680174562705,0.22430520635370135,0.06781009440932591,0.26757726073265076,-0.10266381502151489,-0.18994900584220886,0.06375929713249207,-0.020635709166526794,-0.010350286960601807,0.20647501624029543,-0.13344832499368778,1.749990231998957,-0.1302265077829361,-0.20501106977462769,-0.970057487487793, 150, 132, 6, 132
1731654661667,9i,12.12187156664565,1.7s : 0.2s,0.8771606457030856,7.559100175935745,0.19759332640127317,0.07498209740694828,0.16828736662864685,-0.060174234211444855,-0.09452291578054428,0.04707561433315277,-0.05178181827068329,0.026922941207885742,0.21535106544406693,-0.1354945501278306,1.7447010633486453,-0.1319601833820343,-0.2136904001235962,-0.967947781085968, 150, 132, 6, 132
1731654661677,9i,12.12187156664565,1.7s : 0.2s,0.8771606457030856,7.559704101545089,0.1756629054400906,0.07927277275538053,0.19205182790756226,-0.01839110255241394,-0.03698372840881348,0.04661916196346283,-0.05251187086105347,0.03678762912750244,0.217275088946417,-0.13580589998027587,1.744326430428542,-0.13220563530921936,-0.21556958556175232,-0.9674975275993347, 150, 132, 6, 132
1731654661687,9i,12.12187156664565,1.7s : 0.2s,0.8771606457030856,7.5603292615816065,0.15959331215400463,0.05714221988192917,0.1919649988412857,-0.020316479727625847,-0.014515833929181099,0.04788908362388611,-0.02380366623401642,0.020130932331085205,0.21923537252460798,-0.13604244033983195,1.744341290697436,-0.13237692415714264,-0.21748335659503937,-0.9670456647872925, 150, 132, 6, 132
1731654661697,9i,12.12187156664565,1.7s : 0.2s,0.8771606457030856,7.560936524662867,0.14800573678498846,0.03968872900026585,0.19613178074359894,-0.008114674128592014,0.018364084884524345,0.03154461085796356,-0.019299179315567017,0.014410912990570068,0.221161860422776,-0.1363358785718544,1.7446171952137564,-0.1326034963130951,-0.21936333179473877,-0.9665899276733398, 150, 132, 6, 132
1731654661707,9i,12.12187156664565,1.7s : 0.2s,0.8771606457030856,7.561559124470234,0.14459419260154874,0.05076663258283617,0.19253139197826385,-0.004443950019776821,0.05157047510147095,0.03289124369621277,-0.02462129294872284,0.029819607734680176,0.22305795756472252,-0.13657235756993577,1.7452404897081506,-0.1327752023935318,-0.22121284902095795,-0.9661447405815125, 150, 132, 6, 132
1731654661717,9i,12.12187156664565,1.7s : 0.2s,0.8771606457030856,7.562244882896575,0.14228659213968228,0.06545609073222519,0.19765929877758026,0.011173891834914684,0.060475822538137436,0.04901991784572601,-0.012664437294006348,0.04148685932159424,0.2249141020643612,-0.13675702566066872,1.7460932534725058,-0.13289740681648254,-0.22302262485027313,-0.965711772441864, 150, 132, 6, 132
1731654661727,9i,12.12187156664565,1.7s : 0.2s,0.8771606457030856,7.563006470386133,0.13976868598954545,0.07282401186224585,0.18619592487812042,0.01970435120165348,0.05067775025963783,0.04533571004867554,-0.011460095643997192,0.055827200412750244,0.22674474537615574,-0.13682361968118298,1.7468866446870348,-0.13290581107139587,-0.2248067855834961,-0.9652968049049377, 150, 132, 6, 132
1731654661737,9i,12.12187156664565,1.7s : 0.2s,0.8771606457030856,7.5638211774094515,0.13935413710273142,0.06373071580429399,0.21121180057525635,0.026765190064907074,0.05071956291794777,0.03691349923610687,-0.006540015339851379,0.05153858661651611,0.2286782451910303,-0.13679112361991283,1.747684530397136,-0.1328149139881134,-0.2266903817653656,-0.9648687243461609, 150, 132, 6, 132
1731654661747,9i,12.12187156664565,1.7s : 0.2s,0.8771606457030856,7.564673902333128,0.13807251114263092,0.058454231046162694,0.19424007833003998,0.022410567849874496,0.0532529279589653,0.030825942754745483,-0.004141613841056824,0.049492478370666504,0.230655546325424,-0.13677638009983117,1.7484882362628817,-0.13273932039737701,-0.22861576080322266,-0.9644247889518738, 150, 132, 6, 132
