timestamp,club,max_speed,tempo,w.rotation,l.speed,t.spped,acc,rotation.x,rotation.y,rotation.z,userAcceleration.x,userAcceleration.y,userAcceleration.z,pitch,roll,yaw,gravity.x,gravity.y,gravity.z,impactIndex,minDownIndex,StartIndex,endIndex
1731649519745,9i,5.678281600774103,1.5s : 0.4s,1.3952547589248496,0.0002507852359601994,0.10614346826238205,0.0743492581988384,0.06346235424280167,-0.05069475248456001,-0.00622215773910284,-0.009889662265777588,-0.06104278564453125,0.04127693176269531,-0.3343260845337927,1.8728257839976707,2.8945258995840915,0.9018726348876953,0.32813262939453125,0.2809886038303375, 194, 120, 1, 156
1731649519755,9i,5.678281600774103,1.5s : 0.4s,1.3952547589248496,0.0008910328046838853,0.08543161798248554,0.060120635439632766,0.03333301097154617,-0.06145632266998291,-0.0003388025797903538,-0.0034827589988708496,-0.044005125761032104,0.0408155620098114,-0.33418744492502467,1.8721043575539293,2.894060640052964,0.9021185040473938,0.3280016779899597,0.2803514003753662, 194, 120, 1, 156
1731649519765,9i,5.678281600774103,1.5s : 0.4s,1.3952547589248496,0.00162715222389899,0.0697763252260995,0.05709365754027189,-0.04555567726492882,-0.04358624294400215,0.002609849674627185,-0.002530395984649658,-0.040653228759765625,0.04000747203826904,-0.33374056547266645,1.8717003505644907,2.894115760053817,0.9023717045783997,0.3275794982910156,0.28003036975860596, 194, 120, 1, 156
1731649519775,9i,5.678281600774103,1.5s : 0.4s,1.3952547589248496,0.002627692778810262,0.06561186213900927,0.07701281552349341,-0.1331959068775177,-0.027990417554974556,0.02697504311800003,-0.01719433069229126,-0.060612887144088745,0.04428777098655701,-0.33267609476703996,1.8717971340358777,2.8950259807149306,0.9026769995689392,0.32657355070114136,0.2802208662033081, 194, 120, 1, 156
1731649519785,9i,5.678281600774103,1.5s : 0.4s,1.3952547589248496,0.0038003515477635814,0.07918542173108295,0.08009860625623386,-0.2104041427373886,-0.019941546022892,0.02138586714863777,-0.026061832904815674,-0.061283767223358154,0.04450693726539612,-0.3307067035289418,1.8723407073326501,2.896760582455066,0.9031371474266052,0.32471153140068054,0.28090202808380127, 194, 120, 1, 156
1731649519795,9i,5.678281600774103,1.5s : 0.4s,1.3952547589248496,0.005002030274546629,0.10576509687079648,0.06318767707296759,-0.26552605628967285,-0.009888023138046265,0.04435959458351135,-0.017956793308258057,-0.04632657766342163,0.03903952240943909,-0.32826784313582036,1.873454193709785,2.899250439209016,0.9035770297050476,0.32240384817123413,0.282142698764801, 194, 120, 1, 156
1731649519805,9i,5.678281600774103,1.5s : 0.4s,1.3952547589248496,0.006185108211820041,0.1342439796483472,0.0439872219571193,-0.30132824182510376,0.004663754720240831,0.062413692474365234,-0.013015687465667725,-0.03364759683609009,0.025165587663650513,-0.3256748965478492,1.8749051360930689,2.9021432615528835,0.903961181640625,0.3199482858181,0.2837027907371521, 194, 120, 1, 156
1731649519815,9i,5.678281600774103,1.5s : 0.4s,1.3952547589248496,0.0071317724635681055,0.16372985923787203,0.01654612722350892,-0.3445969820022583,0.015217151492834091,0.06311407685279846,-0.009399771690368652,-0.007929027080535889,0.011070191860198975,-0.32297850475190676,1.876657689616062,2.9054261747736914,0.9042817950248718,0.3173924684524536,0.2855452597141266, 194, 120, 1, 156
1731649519825,9i,5.678281600774103,1.5s : 0.4s,1.3952547589248496,0.007815653572307816,0.1962407449460577,0.009545041563346507,-0.4029303193092346,0.012873569503426552,0.056258831173181534,-0.001986265182495117,0.005366623401641846,-0.007639497518539429,-0.3202710520514629,1.8788039966592454,2.9092452944195015,0.9044827222824097,0.31482383608818054,0.28774502873420715, 194, 120, 1, 156
1731649519835,9i,5.678281600774103,1.5s : 0.4s,1.3952547589248496,0.008392411587193503,0.2266862935401256,0.022409777510149664,-0.44080227613449097,0.005522002466022968,0.0541943795979023,0.013913333415985107,0.010548651218414307,-0.014047890901565552,-0.31775434702297073,1.8809843135760607,2.9135661917833366,0.9046046137809753,0.3124341070652008,0.2899572551250458, 194, 120, 1, 156
1731649519845,9i,5.678281600774103,1.5s : 0.4s,1.3952547589248496,0.008842717333549788,0.2525455556039449,0.04157242167320223,-0.4649922847747803,-0.000496208667755127,0.04113264009356499,0.02978384494781494,0.018245011568069458,-0.022545695304870605,-0.3154359149702663,1.8829312136850904,2.9180691573508675,0.9047253727912903,0.31023091077804565,0.29193955659866333, 194, 120, 1, 156
1731649519855,9i,5.678281600774103,1.5s : 0.4s,1.3952547589248496,0.008984607924802844,0.27481507716727244,0.053456437891965566,-0.4864286780357361,0.009617944248020649,0.032705165445804596,0.03520476818084717,0.020438015460968018,-0.03464826941490173,-0.3130337859450278,1.884991506498474,2.922912007548339,0.9048282504081726,0.30794641375541687,0.2940324544906616, 194, 120, 1, 156
1731649519865,9i,5.678281600774103,1.5s : 0.4s,1.3952547589248496,0.008898562090854401,0.29451805639223,0.056655691236146936,-0.45332133769989014,-0.14584168791770935,0.28587377071380615,0.026901066303253174,0.002097994089126587,-0.04981765151023865,-0.31040354966178346,1.8869602052971215,2.9276444132405537,0.9050143361091614,0.3054429292678833,0.29606401920318604, 194, 120, 1, 156
1731649519875,9i,5.678281600774103,1.5s : 0.4s,1.3952547589248496,0.008770955996563596,0.3099040355115532,0.05927870136293816,-0.3505648374557495,-0.16114509105682373,0.4532274901866913,0.009375989437103271,-0.013231128454208374,-0.05701747536659241,-0.3089072710147935,1.8891105516529196,2.9321258129403645,0.9048084616661072,0.3040178120136261,0.29815205931663513, 194, 120, 1, 156
1731649519885,9i,5.678281600774103,1.5s : 0.4s,1.3952547589248496,0.008650550631038983,0.28263440916255805,0.059128949257346644,-0.21888326108455658,-0.1325126588344574,0.2308516800403595,0.03931218385696411,-0.002593785524368286,-0.04409146308898926,-0.30786432549628656,1.8901118291777073,2.9353425662805877,0.9048101305961609,0.3030240535736084,0.2991572916507721, 194, 120, 1, 156
1731649519895,9i,5.678281600774103,1.5s : 0.4s,1.3952547589248496,0.00851805312639928,0.22565893995339456,0.06200241234621437,-0.11362394690513611,-0.050790272653102875,0.06334470212459564,-0.026083052158355713,0.009004980325698853,-0.05552372336387634,-0.3063094257871195,1.8902392773144352,2.9368793435818827,0.905218243598938,0.30154189467430115,0.29942020773887634, 194, 120, 1, 156
1731649519905,9i,5.678281600774103,1.5s : 0.4s,1.3952547589248496,0.008401704625319206,0.1762904483286891,0.061668921948366005,-0.038205888122320175,-0.016299672424793243,0.10283166170120239,-0.01490628719329834,0.008629977703094482,-0.05921471118927002,-0.30550251108094906,1.890422774775178,2.9375434461954413,0.9053939580917358,0.30077245831489563,0.29966264963150024, 194, 120, 1, 156
1731649519915,9i,5.678281600774103,1.5s : 0.4s,1.3952547589248496,0.008388091527316038,0.12499941453744394,0.042223410104955776,0.05306830257177353,-0.027870574966073036,0.0629863440990448,-0.0007288455963134766,-0.008673876523971558,-0.041316449642181396,-0.3048470854212282,1.8900347281562728,2.9371952109234645,0.9056972861289978,0.30014732480049133,0.29937314987182617, 194, 120, 1, 156
1731649519925,9i,5.678281600774103,1.5s : 0.4s,1.3952547589248496,0.008509811023420834,0.10977255799286609,0.04070276353438224,0.15290355682373047,-0.012965396046638489,0.07706008106470108,-0.018535375595092773,-0.024790585041046143,-0.02643069624900818,-0.3044987488841911,1.8894501745491414,2.935874377364324,0.905971348285675,0.29981502890586853,0.29887640476226807, 194, 120, 1, 156
1731649519935,9i,5.678281600774103,1.5s : 0.4s,1.3952547589248496,0.008743224320787371,0.07221962414532117,0.026163594454772822,0.21887104213237762,-0.019318100064992905,0.051750827580690384,0.00042361021041870117,-0.022839516401290894,-0.012755811214447021,-0.30446891931455883,1.8886859422257052,2.933792515972453,0.9062080979347229,0.2997865676879883,0.2981867492198944, 194, 120, 1, 156
1731649519945,9i,5.678281600774103,1.5s : 0.4s,1.3952547589248496,0.009049091834842753,0.07731424349585306,0.027037377704455582,0.24110710620880127,-0.025108344852924347,0.04919499531388283,-0.019021570682525635,-0.01839756965637207,-0.005543380975723267,-0.3047390489291218,1.8877427979670125,2.931320995862193,0.9064115881919861,0.3000442683696747,0.2973065674304962, 194, 120, 1, 156
1731649519955,9i,5.678281600774103,1.5s : 0.4s,1.3952547589248496,0.009397257329095974,0.10053742489667583,0.024029387893417502,0.26050034165382385,-0.02312730811536312,0.04593411833047867,-0.01778125762939453,-0.016110777854919434,0.00129660964012146,-0.3050931305821851,1.8866975442150788,2.92865625557274,0.9066208600997925,0.30038201808929443,0.2963259816169739, 194, 120, 1, 156
1731649519965,9i,5.678281600774103,1.5s : 0.4s,1.3952547589248496,0.009735782816978412,0.11667240250108864,0.015974194052057012,0.24378818273544312,-0.009489791467785835,0.022985395044088364,-0.012281656265258789,0.0044592320919036865,-0.009189724922180176,-0.3055878746661401,1.8857258120102478,2.9260060095869336,0.9067671298980713,0.3008538782596588,0.2953988313674927, 194, 120, 1, 156
1731649519975,9i,5.678281600774103,1.5s : 0.4s,1.3952547589248496,0.010042317841737034,0.11670628842971122,0.02332968510517136,0.1836833655834198,0.0044255792163312435,0.008341372013092041,-0.016345679759979248,0.013654738664627075,-0.009520560503005981,-0.3061216814988253,1.8850348669641999,2.9238140469860134,0.9068180322647095,0.30136290192604065,0.2947225272655487, 194, 120, 1, 156
1731649519985,9i,5.678281600774103,1.5s : 0.4s,1.3952547589248496,0.010323957084217662,0.11485020515292162,0.02404797980464132,0.15392093360424042,0.003500663209706545,0.0022328791674226522,-0.022735774517059326,0.007514357566833496,-0.002219080924987793,-0.30662452785831495,1.8845563311170297,2.92212720506821,0.9068147540092468,0.3018423318862915,0.2942417562007904, 194, 120, 1, 156
1731649519995,9i,5.678281600774103,1.5s : 0.4s,1.3952547589248496,0.010565556684975,0.10404939548686923,0.020684572031785763,0.12316715717315674,0.0011223717592656612,-0.005394747480750084,-0.016265034675598145,0.012187451124191284,0.003842681646347046,-0.3071005973063312,1.8841465375081277,2.9207323820796374,0.9067983627319336,0.30229616165161133,0.29382574558258057, 194, 120, 1, 156
1731649520005,9i,5.678281600774103,1.5s : 0.4s,1.3952547589248496,0.010738522442118089,0.09056265933544025,0.02722834755767333,0.0928790271282196,0.015831010416150093,-0.014320864342153072,-0.0061484575271606445,0.025349080562591553,0.007810473442077637,-0.307555916641988,1.883856228905607,2.9196596649497097,0.9067526459693909,0.30273014307022095,0.29352009296417236, 194, 120, 1, 156
1731649520015,9i,5.678281600774103,1.5s : 0.4s,1.3952547589248496,0.010831668958213594,0.10112028941630434,0.03649399721119309,0.053176622837781906,-0.15588854253292084,0.2599443793296814,-0.009378910064697266,0.034637272357940674,0.00664132833480835,-0.3069201285110445,1.8832462288980345,2.9187920321395335,0.9071143269538879,0.30212414264678955,0.2930259704589844, 194, 120, 1, 156
1731649520025,9i,5.678281600774103,1.5s : 0.4s,1.3952547589248496,0.010861797324813361,0.2163436507343109,0.03691345432755051,0.05604325234889984,-0.4227522015571594,0.6641795039176941,-0.020044982433319092,0.029975861310958862,0.00788983702659607,-0.30737622459142333,1.8836828160365857,2.9188078959856645,0.9068552255630493,0.30255886912345886,0.2933795750141144, 194, 120, 1, 156
1731649520035,9i,5.678281600774103,1.5s : 0.4s,1.3952547589248496,0.010764135900097118,0.3066965740307734,0.04227635925412365,0.02671285904943943,-0.5793689489364624,0.5468342304229736,0.02114689350128174,0.03262874484062195,0.016597121953964233,-0.30859540076184033,1.885110808452566,2.919409447199891,0.9060838222503662,0.3037206828594208,0.2945599853992462, 194, 120, 1, 156
1731649520045,9i,5.678281600774103,1.5s : 0.4s,1.3952547589248496,0.010524890787258327,0.24748326707153626,0.04520951051151098,-0.022057343274354935,-0.1898616999387741,0.054027996957302094,-0.023852944374084473,0.03660458326339722,0.01162073016166687,-0.3087626070905424,1.8850967708060933,2.9197606073740396,0.9060397148132324,0.3038800060749054,0.29453158378601074, 194, 120, 1, 156
1731649520055,9i,5.678281600774103,1.5s : 0.4s,1.3952547589248496,0.01014868636170098,0.17036085377696322,0.04946901032404876,-0.08050287514925003,-0.024074150249361992,-0.03709994629025459,-0.021664202213287354,0.0402807891368866,0.018849492073059082,-0.3088920072558138,1.8851481062441466,2.920448658865517,0.9059872627258301,0.3040032684803009,0.29456594586372375, 194, 120, 1, 156
1731649520065,9i,5.678281600774103,1.5s : 0.4s,1.3952547589248496,0.0097672586767997,0.11094783140539793,0.028733904648882702,-0.10022890567779541,0.0005169466603547335,-0.0738675519824028,-0.011343419551849365,0.021756649017333984,0.014953672885894775,-0.3092282944403187,1.8854074207156917,2.9215556038879993,0.9058133959770203,0.30432361364364624,0.29476916790008545, 194, 120, 1, 156
1731649520075,9i,5.678281600774103,1.5s : 0.4s,1.3952547589248496,0.00943098347691974,0.07995852021093897,0.021922748086107453,-0.10231929272413254,0.009610132314264774,-0.08106330782175064,-0.020998060703277588,0.0033315718173980713,0.005346864461898804,-0.30962085945082246,1.8858119987084552,2.9227656707893126,0.9055804014205933,0.30469754338264465,0.29509857296943665, 194, 120, 1, 156
1731649520085,9i,5.678281600774103,1.5s : 0.4s,1.3952547589248496,0.009136140943519727,0.04900508224973641,0.0160892440248373,-0.09261926263570786,0.08094742894172668,-0.13806533813476562,-0.012769758701324463,0.009401589632034302,-0.0027216076850891113,-0.3100084649312561,1.8862194287941987,2.9239536156434935,0.9053477048873901,0.30506670475006104,0.29543083906173706, 194, 120, 1, 156
1731649520095,9i,5.678281600774103,1.5s : 0.4s,1.3952547589248496,0.008893381988882036,0.06829403458645883,0.029366294533122197,-0.09678810834884644,0.15264053642749786,-0.23199352622032166,-0.017332494258880615,0.016382038593292236,-0.017134547233581543,-0.3104496843467079,1.8866628575358202,2.925089889774205,0.9050888419151306,0.30548685789108276,0.29579049348831177, 194, 120, 1, 156
1731649520105,9i,5.678281600774103,1.5s : 0.4s,1.3952547589248496,0.008739380499401171,0.12379112924976364,0.02747512312662528,-0.07487162202596664,0.23314735293388367,-0.33041465282440186,-0.014042317867279053,-0.0016520917415618896,-0.023557722568511963,-0.3109926450650056,1.8870899663664227,2.9261139039833752,0.9048044085502625,0.3060038089752197,0.2961253225803375, 194, 120, 1, 156
1731649520114,9i,5.678281600774103,1.5s : 0.4s,1.3952547589248496,0.00867869450834979,0.17745331478769233,0.02748489961725075,-0.04865792766213417,0.2608269155025482,-0.37790948152542114,-0.014206171035766602,-0.013250738382339478,-0.01944279670715332,-0.3115397705464852,1.8873386616804602,2.926859922092959,0.9045717716217041,0.3065246641635895,0.2962982654571533, 194, 120, 1, 156
1731649520124,9i,5.678281600774103,1.5s : 0.4s,1.3952547589248496,0.008684515134460186,0.20746584678586147,0.024351338950061575,0.016583392396569252,0.23279395699501038,-0.3538249135017395,-0.01631718873977661,-0.0020760297775268555,-0.017956256866455078,-0.31209537322039826,1.8872889506659414,2.926985800396978,0.9044244885444641,0.30705344676971436,0.2962002456188202, 194, 120, 1, 156
1731649520134,9i,5.678281600774103,1.5s : 0.4s,1.3952547589248496,0.008735143824985667,0.2013006860967309,0.031533396251751986,0.04224248602986336,0.12480267882347107,-0.24384206533432007,-0.006300508975982666,0.014764338731765747,-0.027141720056533813,-0.31267818220043114,1.8870464889653278,2.92658696778796,0.9043259620666504,0.30760806798934937,0.29592519998550415, 194, 120, 1, 156
1731649520144,9i,5.678281600774103,1.5s : 0.4s,1.3952547589248496,0.008844068989189912,0.14391640039595824,0.04504865868006267,0.04810383543372154,-0.06422662734985352,-0.05318290740251541,-0.0009493231773376465,0.024702638387680054,-0.037659794092178345,-0.3132344256342708,1.88679008663083,2.9260806494193634,0.9042389392852783,0.30813729763031006,0.29564008116722107, 194, 120, 1, 156
1731649520154,9i,5.678281600774103,1.5s : 0.4s,1.3952547589248496,0.00899413723747525,0.055825912373969826,0.036678659626098536,0.04204268380999565,-0.30363547801971436,0.1970169097185135,-0.0038130879402160645,0.020599842071533203,-0.03010699152946472,-0.31381006217412805,1.8866488821184735,2.9257189683764824,0.9041122794151306,0.3086848556995392,0.2954573631286621, 194, 120, 1, 156
1731649520164,9i,5.678281600774103,1.5s : 0.4s,1.3952547589248496,0.009198685122486646,0.140160115843389,0.028948645815037567,0.02729222923517227,-0.5615946054458618,0.4761175215244293,-0.0027015209197998047,0.004528820514678955,-0.028464287519454956,-0.31437528844232504,1.8866471891090038,2.92563159572319,0.9039466977119446,0.30922242999076843,0.29540157318115234, 194, 120, 1, 156
1731649520174,9i,5.678281600774103,1.5s : 0.4s,1.3952547589248496,0.009453584326533275,0.3069705561002402,0.029847773248071852,0.03344426676630974,-0.771282434463501,0.7169420123100281,0.0034899115562438965,-0.0017828047275543213,-0.02958938479423523,-0.3148990108654759,1.8866814542397374,2.925748041728442,0.9037824869155884,0.3097204566001892,0.29538217186927795, 194, 120, 1, 156
1731649520184,9i,5.678281600774103,1.5s : 0.4s,1.3952547589248496,0.009724620007427666,0.4346665661539125,0.023271097233397355,0.045643940567970276,-0.7888358235359192,0.7583786845207214,0.01065438985824585,0.0022742748260498047,-0.020563453435897827,-0.31543045800177216,1.8866955045440503,2.9259309307039314,0.9036218523979187,0.3102257251739502,0.2953437268733978, 194, 120, 1, 156
1731649520194,9i,5.678281600774103,1.5s : 0.4s,1.3952547589248496,0.009993549741155855,0.49689284919382215,0.02390466540301703,0.060348983854055405,-0.6726229190826416,0.6806871294975281,0.014690279960632324,0.00803038477897644,-0.017062872648239136,-0.3159404188680506,1.8866247723120397,2.926001134994741,0.9034921526908875,0.31071048974990845,0.29523059725761414, 194, 120, 1, 156
1731649520204,9i,5.678281600774103,1.5s : 0.4s,1.3952547589248496,0.010271656885128528,0.48685648233170276,0.024071486960814185,0.0807754248380661,-0.4560120701789856,0.5174816846847534,0.006192505359649658,0.011687040328979492,-0.02011224627494812,-0.31633147952552043,1.8864443571050389,2.925785467241939,0.9034298062324524,0.3110821545124054,0.2950298488140106, 194, 120, 1, 156
1731649520214,9i,5.678281600774103,1.5s : 0.4s,1.3952547589248496,0.010539051045651034,0.40520939696623165,0.01971619064549481,0.059564150869846344,-0.18555821478366852,0.2614727318286896,-0.00108414888381958,0.01785808801651001,-0.00828501582145691,-0.3166136406361746,1.886219286467273,2.9253820985493575,0.9034126996994019,0.3113503158092499,0.294799268245697, 194, 120, 1, 156
1731649520224,9i,5.678281600774103,1.5s : 0.4s,1.3952547589248496,0.010786508909811818,0.27111339927941114,0.01858990841603974,0.03414294496178627,0.08824723958969116,-0.008277252316474915,-0.006762146949768066,0.017313271760940552,0.00032967329025268555,-0.3167213425637581,1.8860015538859134,2.9250134406655386,0.9034450650215149,0.3114526569843292,0.2945921719074249, 194, 120, 1, 156
1731649520234,9i,5.678281600774103,1.5s : 0.4s,1.3952547589248496,0.011012727440996217,0.18095528684837384,0.010995256263641846,-0.019004827365279198,0.3328975439071655,-0.27192121744155884,-0.00729745626449585,0.00647386908531189,0.005072653293609619,-0.31672715766575515,1.885836073983147,2.9248430793692517,0.9034916758537292,0.31145817041397095,0.29444199800491333, 194, 120, 1, 156
1731649520244,9i,5.678281600774103,1.5s : 0.4s,1.3952547589248496,0.011218011742173198,0.02218783595061319,0.014716015947876528,-0.055216360837221146,0.49980586767196655,-0.4716348648071289,-0.008309543132781982,-0.008257359266281128,0.008906662464141846,-0.3166377816480024,1.8858051707877101,2.9250301600114876,0.9035276770591736,0.3113732635974884,0.29442283511161804, 194, 120, 1, 156
1731649520254,9i,5.678281600774103,1.5s : 0.4s,1.3952547589248496,0.01141537020680577,0.17427003169699443,0.02384406526238026,-0.07601059228181839,0.5738969445228577,-0.579412043094635,-0.010917365550994873,-0.020465046167373657,0.0055256187915802,-0.31651000448068484,1.8858351266074365,2.925410481853697,0.9035565853118896,0.31125181913375854,0.2944622039794922, 194, 120, 1, 156
1731649520264,9i,5.678281600774103,1.5s : 0.4s,1.3952547589248496,0.011615901269366471,0.2854483929496612,0.032131868301395416,-0.0937855914235115,0.55690997838974,-0.5858198404312134,-0.014481186866760254,-0.028609514236450195,0.0020610392093658447,-0.3163615420529005,1.885955315055316,2.9259259765448324,0.9035651683807373,0.3111107349395752,0.29458510875701904, 194, 120, 1, 156
1731649520274,9i,5.678281600774103,1.5s : 0.4s,1.3952547589248496,0.011825456608624328,0.33698701300327466,0.034852038840099596,-0.0902358666062355,0.4533037543296814,-0.5021249651908875,-0.01762259006500244,-0.030045270919799805,0.0011792480945587158,-0.3162185738450801,1.8861052953318949,2.9265279925165153,0.9035632610321045,0.3109748661518097,0.2947344183921814, 194, 120, 1, 156
1731649520284,9i,5.678281600774103,1.5s : 0.4s,1.3952547589248496,0.012038068952583303,0.3287469638447696,0.024311429322707277,-0.09069366008043289,0.2942299544811249,-0.3452634811401367,-0.01646500825881958,-0.017884552478790283,-0.000303119421005249,-0.31605858722062896,1.8863102492749082,2.92714804474408,0.9035500288009644,0.3108227849006653,0.294935017824173, 194, 120, 1, 156
1731649520294,9i,5.678281600774103,1.5s : 0.4s,1.3952547589248496,0.012259730045064915,0.2673204455649766,0.018399060595763878,-0.06174769625067711,0.09358741343021393,-0.1549556851387024,-0.01096254587173462,-0.013120710849761963,-0.006796687841415405,-0.3158947886129189,1.8864542995781615,2.92771801216389,0.9035560488700867,0.31066709756851196,0.2950810194015503, 194, 120, 1, 156
1731649520304,9i,5.678281600774103,1.5s : 0.4s,1.3952547589248496,0.012476694253386725,0.17069849717495467,0.01314421505728952,-0.038377925753593445,-0.08870356529951096,0.04360055923461914,-0.003557264804840088,-0.011999964714050293,-0.00401461124420166,-0.3157912457432498,1.8865221990411891,2.928120905527691,0.9035664200782776,0.3105686902999878,0.2951522767543793, 194, 120, 1, 156
1731649520314,9i,5.678281600774103,1.5s : 0.4s,1.3952547589248496,0.012683666138024742,0.060428861351091975,0.013103285338833603,0.0007423786446452141,-0.23942410945892334,0.21043723821640015,0.0029320716857910156,-0.012019455432891846,-0.004316449165344238,-0.3157154277917354,1.886561056124805,2.928315245191544,0.9035772681236267,0.31049662828445435,0.29519471526145935, 194, 120, 1, 156
1731649520324,9i,5.678281600774103,1.5s : 0.4s,1.3952547589248496,0.01288699372993333,0.06199997319678542,0.015330701087007736,0.005273480899631977,-0.33782362937927246,0.3240290582180023,0.0005711913108825684,-0.014382272958755493,-0.005277723073959351,-0.3157130305255014,1.886577590608725,2.9283820742931956,0.903573215007782,0.3104943335056305,0.2952099144458771, 194, 120, 1, 156
1731649520334,9i,5.678281600774103,1.5s : 0.4s,1.3952547589248496,0.013092113782655568,0.14683522270687382,0.022892890301335737,0.001010092906653881,-0.3709161579608917,0.3699074983596802,0.00015789270401000977,-0.02220451831817627,-0.0055694580078125,-0.3157072249429879,1.8865790554765052,2.928525195386815,0.9035743474960327,0.31048882007598877,0.2952117621898651, 194, 120, 1, 156
1731649520344,9i,5.678281600774103,1.5s : 0.4s,1.3952547589248496,0.01330197467312977,0.2031295166568179,0.027091760496750963,-0.009564520791172981,-0.347060889005661,0.3595070540904999,0.005456864833831787,-0.025053471326828003,-0.008746981620788574,-0.31567044672627487,1.8866298502173675,2.92876808937512,0.9035702347755432,0.310453861951828,0.2952612042427063, 194, 120, 1, 156
1731649520354,9i,5.678281600774103,1.5s : 0.4s,1.3952547589248496,0.01353870042248656,0.2226472404682672,0.031047937171641504,-0.007275866344571114,-0.27381038665771484,0.29174116253852844,0.005283653736114502,-0.022787421941757202,-0.020415455102920532,-0.31554987005230095,1.8866288441832744,2.9290426904371247,0.9036060571670532,0.3103392422199249,0.2952719032764435, 194, 120, 1, 156
1731649520364,9i,5.678281600774103,1.5s : 0.4s,1.3952547589248496,0.013807175040316425,0.20733358056939433,0.02748767485582581,0.0028513360302895308,-0.1667044460773468,0.19505509734153748,0.0012568831443786621,-0.010974228382110596,-0.025170594453811646,-0.3154505290239884,1.8865783076640448,2.9291879287057427,0.9036502242088318,0.3102447986602783,0.2952357828617096, 194, 120, 1, 156
1731649520374,9i,5.678281600774103,1.5s : 0.4s,1.3952547589248496,0.0141091755750048,0.16465969162399943,0.02764445748432072,-0.007108154706656933,-0.05748111009597778,0.07895082980394363,-0.004534661769866943,-0.003352820873260498,-0.027063101530075073,-0.3153145510047284,1.8865304806364727,2.9292791741000617,0.9037047028541565,0.3101155161857605,0.2952057421207428, 194, 120, 1, 156
1731649520384,9i,5.678281600774103,1.5s : 0.4s,1.3952547589248496,0.014440291373569867,0.10785723483070152,0.02609835269467639,0.005918432027101517,0.041367173194885254,-0.01206829585134983,-0.008291780948638916,-0.0065438151359558105,-0.023865222930908203,-0.31513997877367966,1.8864346073987024,2.929282777319194,0.9037843346595764,0.3099495470523834,0.29513585567474365, 194, 120, 1, 156
1731649520394,9i,5.678281600774103,1.5s : 0.4s,1.3952547589248496,0.014774012379117598,0.07857996568067308,0.016066170037421203,0.008738718926906586,0.11086840182542801,-0.07785596698522568,-0.009559035301208496,-0.0008303821086883545,-0.01288631558418274,-0.3149082721401519,1.886249366160882,2.9290768663805915,0.9039071202278137,0.3097292482852936,0.2949906885623932, 194, 120, 1, 156
1731649520404,9i,5.678281600774103,1.5s : 0.4s,1.3952547589248496,0.015108889554623278,0.019576277233932383,0.018638974351218467,0.013451183214783669,0.15327337384223938,-0.11885106563568115,-0.006140589714050293,0.005974143743515015,-0.016553372144699097,-0.31460439037220844,1.8860369305461029,2.928767267886268,0.9040593504905701,0.3094403147697449,0.2948278784751892, 194, 120, 1, 156
1731649520414,9i,5.678281600774103,1.5s : 0.4s,1.3952547589248496,0.015458616734257004,0.03288125002909925,0.02747658388710804,0.010196267627179623,0.16444258391857147,-0.12112101167440414,-0.007639706134796143,0.009645909070968628,-0.024567335844039917,-0.314305425190481,1.8858567445458216,2.9284155935360334,0.9042004346847534,0.30915600061416626,0.29469364881515503, 194, 120, 1, 156
1731649520424,9i,5.678281600774103,1.5s : 0.4s,1.3952547589248496,0.015837237235067414,0.057031267914987575,0.03238272842424869,0.0005556244868785143,0.14351972937583923,-0.09329178184270859,-0.013460874557495117,0.006371855735778809,-0.02875491976737976,-0.3139455200095858,1.8857754089229997,2.9281029342769203,0.9043300747871399,0.3088136911392212,0.29465451836586, 194, 120, 1, 156
1731649520434,9i,5.678281600774103,1.5s : 0.4s,1.3952547589248496,0.01624230047017988,0.06279835027483195,0.03388294943859037,-0.03213447704911232,0.10214681178331375,-0.05720691382884979,-0.01906794309616089,0.008265405893325806,-0.026760995388031006,-0.3135590206232238,1.8857738137582238,2.9280178939724495,0.9044440984725952,0.30844607949256897,0.2946900725364685, 194, 120, 1, 156
1731649520444,9i,5.678281600774103,1.5s : 0.4s,1.3952547589248496,0.016650918810573533,0.05818485069613149,0.026572691765332213,-0.04370830953121185,0.04934884235262871,-0.010304383933544159,-0.014785826206207275,0.010969668626785278,-0.019161254167556763,-0.313074078998338,1.8858228811216176,2.928199247205718,0.904571533203125,0.30798473954200745,0.2947807013988495, 194, 120, 1, 156
1731649520454,9i,5.678281600774103,1.5s : 0.4s,1.3952547589248496,0.017043968774380976,0.04656307648160679,0.016037351837568298,-0.0396510474383831,0.015323322266340256,0.0340498648583889,-0.008240222930908203,0.007716536521911621,-0.0113908052444458,-0.3126282313318867,1.8847093706649858,2.928057823113452,0.9050297141075134,0.307560533285141,0.29381564259529114, 194, 120, 1, 156
1731649520464,9i,5.678281600774103,1.5s : 0.4s,1.3952547589248496,0.017408689355215487,0.04185399558281599,0.023080977293295737,-0.03824596479535103,0.00268422719091177,0.05180222913622856,-0.004626452922821045,0.020482003688812256,-0.00958201289176941,-0.3120574653646536,1.883865174045228,2.927961889162704,0.9054443836212158,0.30701738595962524,0.2931055724620819, 194, 120, 1, 156
1731649520474,9i,5.678281600774103,1.5s : 0.4s,1.3952547589248496,0.01774986887766893,0.03808265754397661,0.03344005523155396,-0.035679612308740616,0.0021208797115832567,0.04222237318754196,-0.006418347358703613,0.03043857216835022,-0.012269288301467896,-0.311744586767831,1.8835816351190693,2.9280744398515717,0.9056186676025391,0.3067196011543274,0.29287832975387573, 194, 120, 1, 156
1731649520484,9i,5.678281600774103,1.5s : 0.4s,1.3952547589248496,0.01807864172160243,0.033924920333978814,0.02540537748668615,-0.014924264512956142,-0.0059447698295116425,0.05230003967881203,-0.011637866497039795,0.020106524229049683,-0.010282069444656372,-0.31169843502922295,1.88305065013956,2.928011760732189,0.9057875275611877,0.30667567253112793,0.2924017608165741, 194, 120, 1, 156
1731649520494,9i,5.678281600774103,1.5s : 0.4s,1.3952547589248496,0.01840512583265867,0.030057091046772146,0.026723597667568547,-0.0010908746626228094,-0.008460747078061104,0.05611082538962364,-0.013897418975830078,0.018925845623016357,-0.012760281562805176,-0.31183274439605063,1.8821282704239004,2.9276750006715955,0.9060177206993103,0.30680349469184875,0.2915535569190979, 194, 120, 1, 156
1731649520504,9i,5.678281600774103,1.5s : 0.4s,1.3952547589248496,0.018724786438383142,0.02646446304172658,0.025778777909639665,0.0031957493629306555,-0.01686222106218338,0.056256767362356186,-0.0114516019821167,0.020169824361801147,-0.011250972747802734,-0.3118884588419708,1.8810915076148067,2.9272043546049074,0.9063032865524292,0.30685654282569885,0.29060888290405273, 194, 120, 1, 156
1731649520514,9i,5.678281600774103,1.5s : 0.4s,1.3952547589248496,0.01902970016791346,0.022994671578764555,0.019422919550060518,0.01744505949318409,-0.008600296452641487,0.06676523387432098,-0.013785004615783691,0.013271301984786987,-0.0033310651779174805,-0.3120183407288979,1.8802287795388568,2.9267104743294254,0.9065157175064087,0.3069801330566406,0.2898147404193878, 194, 120, 1, 156
1731649520524,9i,5.678281600774103,1.5s : 0.4s,1.3952547589248496,0.019318050479448696,0.022399440111119284,0.0148047833349675,0.014906533993780613,-0.010212041437625885,0.05697492137551308,-0.014454901218414307,0.002912580966949463,0.0013245046138763428,-0.31214448974848374,1.8796846340106572,2.926227925116909,0.9066362380981445,0.30710020661354065,0.2893095910549164, 194, 120, 1, 156
1731649520534,9i,5.678281600774103,1.5s : 0.4s,1.3952547589248496,0.019613185521354343,0.02279092101811707,0.02096518867856095,0.0018082424066960812,-0.0050360108725726604,0.05257295072078705,-0.019103288650512695,-0.006666243076324463,-0.0054922401905059814,-0.31202839381970143,1.8793990914457885,2.925933354664991,0.9067527055740356,0.30698972940444946,0.2890615165233612, 194, 120, 1, 156
1731649520544,9i,5.678281600774103,1.5s : 0.4s,1.3952547589248496,0.019917288672919094,0.022747077360161027,0.025346056654999324,-0.02953183837234974,-0.0010300837457180023,0.03320937231183052,-0.021573543548583984,-0.012430071830749512,-0.004743218421936035,-0.3122807256764162,1.8792553057895864,2.925908565948315,0.9067205786705017,0.3072298467159271,0.28890764713287354, 194, 120, 1, 156
1731649520554,9i,5.678281600774103,1.5s : 0.4s,1.3952547589248496,0.020238144331571024,0.022705771652401507,0.02776701107014241,-0.03729148954153061,-0.0019968999549746513,0.02806028164923191,-0.020662009716033936,-0.016125023365020752,-0.009169071912765503,-0.3127963571831761,1.879140938595736,2.9261022750671493,0.9066026210784912,0.30772051215171814,0.288755863904953, 194, 120, 1, 156
1731649520564,9i,5.678281600774103,1.5s : 0.4s,1.3952547589248496,0.020576782153481375,0.021306137714973278,0.026248799719594998,0.0072860983200371265,-0.005792703945189714,0.02016747184097767,-0.021153151988983154,-0.010394513607025146,-0.011554121971130371,-0.3131242198375559,1.8790620702338083,2.9261853371808155,0.9065291285514832,0.30803245306015015,0.288653701543808, 194, 120, 1, 156
1731649520574,9i,5.678281600774103,1.5s : 0.4s,1.3952547589248496,0.02093186180238617,0.02188368280732454,0.02411667495905248,0.08797215670347214,-0.005147330928593874,0.017043983563780785,-0.019076526165008545,-0.00046452879905700684,-0.01474735140800476,-0.31364120140680224,1.8786991387176235,2.925650632567185,0.9064820408821106,0.3085242509841919,0.28827640414237976, 194, 120, 1, 156
1731649520584,9i,5.678281600774103,1.5s : 0.4s,1.3952547589248496,0.02129849505882473,0.03930792219735469,0.026535456828490355,0.1310780793428421,-0.0014399443753063679,0.02105763368308544,-0.02383667230606079,0.0038331151008605957,-0.011011391878128052,-0.3143205668588892,1.8781659532480688,2.924438760782726,0.9064354300498962,0.3091703951358795,0.28772950172424316, 194, 120, 1, 156
1731649520594,9i,5.678281600774103,1.5s : 0.4s,1.3952547589248496,0.021651327320321913,0.05611524220179859,0.033805455975885315,0.14542905986309052,-0.004556197207421064,0.013542191125452518,-0.027953505516052246,0.018937736749649048,0.0016650855541229248,-0.3149319558912405,1.8777615375665975,2.923032025990823,0.9063714146614075,0.3097517788410187,0.2873057425022125, 194, 120, 1, 156
1731649520604,9i,5.678281600774103,1.5s : 0.4s,1.3952547589248496,0.021969420337255165,0.0688266563963737,0.043705682219231996,0.1494152694940567,-0.00010419124737381935,-0.00018160929903388023,-0.027008473873138428,0.033961743116378784,0.005227714776992798,-0.31543577270302087,1.8774519541983283,2.9215983817008433,0.906311571598053,0.3102307617664337,0.2869780361652374, 194, 120, 1, 156
1731649520614,9i,5.678281600774103,1.5s : 0.4s,1.3952547589248496,0.022275088329345775,0.08163023105753153,0.0486465381819802,0.16653980314731598,0.03698636218905449,-0.028274429962038994,-0.03192245960235596,0.03665119409561157,0.0020327866077423096,-0.3159293052846907,1.877206396351118,2.9201061118325455,0.906235933303833,0.3106999099254608,0.2867092490196228, 194, 120, 1, 156
1731649520624,9i,5.678281600774103,1.5s : 0.4s,1.3952547589248496,0.022597389958666458,0.0912730492428509,0.08203677787177588,0.14990437030792236,0.08405373990535736,-0.08176322281360626,-0.04965251684188843,0.06508752703666687,0.005317360162734985,-0.316722365947868,1.877452630702156,2.918693450089138,0.9059301018714905,0.311453640460968,0.2868579030036926, 194, 120, 1, 156
1731649520634,9i,5.678281600774103,1.5s : 0.4s,1.3952547589248496,0.023019087108876513,0.11412097750086725,0.13465579904346497,0.16161248087882996,0.14478987455368042,-0.18199019134044647,-0.06488484144210815,0.11791947484016418,0.004139930009841919,-0.31825791677203485,1.8782387611649913,2.9175578758733627,0.9052474498748779,0.3129124343395233,0.2874249517917633, 194, 120, 1, 156
1731649520644,9i,5.678281600774103,1.5s : 0.4s,1.3952547589248496,0.02362659055992475,0.14892183628623543,0.1942695993227111,0.10344159603118896,0.1952325403690338,-0.3243718445301056,-0.07159203290939331,0.18028831481933594,0.010553747415542603,-0.32104814614261645,1.8797584827131324,2.916949797967883,0.9039743542671204,0.31556132435798645,0.2885337471961975, 194, 120, 1, 156
1731649520654,9i,5.678281600774103,1.5s : 0.4s,1.3952547589248496,0.02455169997920468,0.1995512325479185,0.26503901525660845,-0.027232663705945015,0.24604156613349915,-0.4730742871761322,-0.06394308805465698,0.2557910084724426,0.02698001265525818,-0.32492366215409163,1.8822102240773393,2.9178447023731566,0.9020929932594299,0.3192364573478699,0.29037219285964966, 194, 120, 1, 156
1731649520664,9i,5.678281600774103,1.5s : 0.4s,1.3952547589248496,0.026168922061187497,0.27953226286771915,0.34857206872108465,-0.10963379591703415,0.3016241490840912,-0.6550491452217102,-0.050039052963256836,0.3429160714149475,0.037511974573135376,-0.3300511146082758,1.8857349121790667,2.9204246745741864,0.8994959592819214,0.324091374874115,0.29303914308547974, 194, 120, 1, 156
1731649520674,9i,5.678281600774103,1.5s : 0.4s,1.3952547589248496,0.029027664474496437,0.3785700789120471,0.397977677743181,-0.054438188672065735,0.3794727623462677,-0.8280366659164429,-0.04168599843978882,0.3949906826019287,0.02511712908744812,-0.3367886697161064,1.8901942476893212,2.9237960599940935,0.8960865139961243,0.3304578959941864,0.2963549494743347, 194, 120, 1, 156
1731649520683,9i,5.678281600774103,1.5s : 0.4s,1.3952547589248496,0.03341283442536652,0.4919681845562623,0.4415592631121695,0.15343058109283447,0.45452409982681274,-1.0268759727478027,-0.05029034614562988,0.43694761395454407,0.03901597857475281,-0.34569956445999184,1.895246128830101,2.9264676514790002,0.8917514681816101,0.33885493874549866,0.29992741346359253, 194, 120, 1, 156
1731649520693,9i,5.678281600774103,1.5s : 0.4s,1.3952547589248496,0.039470606531991616,0.6321128336960365,0.5256641842065454,0.5474165081977844,0.5638967156410217,-1.2413499355316162,-0.04803121089935303,0.5166906118392944,0.08394432067871094,-0.35733593534606145,1.9003763456905172,2.9269761855020398,0.886410117149353,0.3497796952724457,0.3032016158103943, 194, 120, 1, 156
1731649520703,9i,5.678281600774103,1.5s : 0.4s,1.3952547589248496,0.04736413116252261,0.7988045258571717,0.6249789367425523,0.8805755376815796,0.6227855682373047,-1.458362340927124,-0.03616279363632202,0.6083434820175171,0.1385970115661621,-0.37253433502655736,1.9054248437594505,2.924628615905326,0.8797449469566345,0.3639771044254303,0.3058914244174957, 194, 120, 1, 156
1731649520713,9i,5.678281600774103,1.5s : 0.4s,1.3952547589248496,0.057330378450426316,1.0352752471667246,0.7273472318814781,1.4635902643203735,0.732818603515625,-1.789166808128357,-0.037851810455322266,0.7022813558578491,0.1854781210422516,-0.39145659167876057,1.9098047168747334,2.9185569136923935,0.871744692325592,0.38153523206710815,0.3073959946632385, 194, 120, 1, 156
1731649520723,9i,5.678281600774103,1.5s : 0.4s,1.3952547589248496,0.06951722958609992,1.3386716627618256,0.8342592564157154,2.0429532527923584,0.8116968870162964,-2.1812942028045654,-0.0739489197731018,0.787418007850647,0.2655050754547119,-0.4159559553000597,1.913523379071933,2.9082433924293696,0.8615312576293945,0.4040645658969879,0.3074013590812683, 194, 120, 1, 156
1731649520733,9i,5.678281600774103,1.5s : 0.4s,1.3952547589248496,0.08367820507428125,1.6685783929773774,0.8726360167950129,2.5568594932556152,1.0814478397369385,-2.39513897895813,-0.151780366897583,0.8031179904937744,0.30570873618125916,-0.4457501731395432,1.9162405128275661,2.8919433072579532,0.8489848375320435,0.4311348795890808,0.3055277168750763, 194, 120, 1, 156
1731649520743,9i,5.678281600774103,1.5s : 0.4s,1.3952547589248496,0.09984071848839712,1.9373765784602834,0.9676127342170283,2.586806058883667,1.0680921077728271,-2.6106269359588623,-0.25294774770736694,0.8573246002197266,0.37052175402641296,-0.47780290404135994,1.9193890813678327,2.875009733953849,0.8345974087715149,0.4598292410373688,0.3033215403556824, 194, 120, 1, 156
1731649520753,9i,5.678281600774103,1.5s : 0.4s,1.3952547589248496,0.11808685191940195,2.2387252507838284,1.064904324451022,3.11879301071167,1.20646333694458,-2.850844144821167,-0.281072735786438,0.9416486024856567,0.41026484966278076,-0.5130960638805021,1.9211970639931977,2.855087063045887,0.8182889223098755,0.4908769726753235,0.29907044768333435, 194, 120, 1, 156
1731649520763,9i,5.678281600774103,1.5s : 0.4s,1.3952547589248496,0.1385600685431135,2.5638023884264434,1.1696965068465857,3.4608957767486572,1.4371654987335205,-3.2389962673187256,-0.2813194990158081,1.0487631559371948,0.4349081516265869,-0.5529635120629558,1.9221842055192302,2.8311463522873295,0.7989739179611206,0.5252113938331604,0.2929055094718933, 194, 120, 1, 156
1731649520773,9i,5.678281600774103,1.5s : 0.4s,1.3952547589248496,0.16081662113582684,2.882629709754772,1.192782462568009,3.6294822692871094,1.6548091173171997,-3.6469101905822754,-0.3539152145385742,1.0600087642669678,0.4169597625732422,-0.5975589711116579,1.9237676104234536,2.805550842613501,0.7757443785667419,0.5626261234283447,0.2857837378978729, 194, 120, 1, 156
1731649520783,9i,5.678281600774103,1.5s : 0.4s,1.3952547589248496,0.18474656902444797,3.1720096463077243,1.2670954789165723,3.7303197383880615,1.7689130306243896,-3.9812376499176025,-0.4197450280189514,1.0954020023345947,0.47899845242500305,-0.6461193105427978,1.925662969218666,2.779440128084165,0.7486787438392639,0.6020925045013428,0.27742549777030945, 194, 120, 1, 156
1731649520793,9i,5.678281600774103,1.5s : 0.4s,1.3952547589248496,0.21024426103424712,3.449701216610922,1.3223654940566012,3.9637303352355957,1.8431634902954102,-4.2651214599609375,-0.39456307888031006,1.1537349224090576,0.5117286443710327,-0.6982731924926137,1.9263949230795976,2.7516940347239647,0.7180342078208923,0.6428959965705872,0.2666679620742798, 194, 120, 1, 156
1731649520803,9i,5.678281600774103,1.5s : 0.4s,1.3952547589248496,0.23734621754542523,3.7552454072426187,1.3912067363606693,4.383932113647461,2.06410813331604,-4.566690921783447,-0.32347482442855835,1.2480964660644531,0.5225661993026733,-0.7545532103973066,1.924441656771134,2.719649222887792,0.6834905743598938,0.6849632263183594,0.2523208558559418, 194, 120, 1, 156
1731649520813,9i,5.678281600774103,1.5s : 0.4s,1.3952547589248496,0.2658033517558641,4.022828428118938,1.4226699527709092,4.430676460266113,2.0710668563842773,-4.90539026260376,-0.29452580213546753,1.2929041385650635,0.5154058933258057,-0.8144218614115375,1.9201330507713947,2.6843139750758183,0.644836962223053,0.7273289561271667,0.23489929735660553, 194, 120, 1, 156
1731649520823,9i,5.678281600774103,1.5s : 0.4s,1.3952547589248496,0.2954630062348787,4.26715149484715,1.4561898479615236,4.581791400909424,2.0158274173736572,-5.191523551940918,-0.29012244939804077,1.3457088470458984,0.4747478663921356,-0.87704685441358,1.9119365674870985,2.646271690344852,0.6025766134262085,0.7688539028167725,0.21392694115638733, 194, 120, 1, 156
1731649520833,9i,5.678281600774103,1.5s : 0.4s,1.3952547589248496,0.3267002738316066,4.500525253306738,1.5724527136658386,4.463400840759277,2.0784049034118652,-5.701790809631348,-0.2764698266983032,1.4471708536148071,0.5494256019592285,-0.9435031243568609,1.900026202010475,2.605271181703958,0.5554310083389282,0.8096192479133606,0.1897711157798767, 194, 120, 1, 156
1731649520843,9i,5.678281600774103,1.5s : 0.4s,1.3952547589248496,0.35891577324036517,4.701000448526116,1.5522341617279738,4.361082077026367,2.0883545875549316,-6.021312713623047,-0.22610437870025635,1.4558924436569214,0.48855388164520264,-1.0128942818339708,1.8866445664457745,2.563995578209625,0.5032191276550293,0.8483676314353943,0.16444598138332367, 194, 120, 1, 156
1731649520853,9i,5.678281600774103,1.5s : 0.4s,1.3952547589248496,0.39142033750449495,4.875613189208863,1.4961597911698594,4.082430362701416,1.8762911558151245,-6.52105712890625,-0.1899530291557312,1.4057673215866089,0.47563663125038147,-1.0854883807360736,1.8689218922641582,2.52060635132286,0.44590407609939575,0.8845313191413879,0.13701902329921722, 194, 120, 1, 156
1731649520863,9i,5.678281600774103,1.5s : 0.4s,1.3952547589248496,0.42338849865832257,5.041971324367491,1.399252943831121,4.035569667816162,1.7405970096588135,-6.843040943145752,-0.07841643691062927,1.3171637058258057,0.4656602144241333,-1.1609463502488861,1.8462041133408202,2.475416313176258,0.3834548592567444,0.917180597782135,0.10836008936166763, 194, 120, 1, 156
1731649520873,9i,5.678281600774103,1.5s : 0.4s,1.3952547589248496,0.4553144917555451,5.229304611971552,1.4571062328968953,4.3257012367248535,1.6372874975204468,-7.088019847869873,0.06947323679924011,1.4116730690002441,0.35427558422088623,-1.2388131427244622,1.8042466851752106,2.4125178589269156,0.31707763671875,0.9453978538513184,0.0753965750336647, 194, 120, 1, 156
1731649520883,9i,5.678281600774103,1.5s : 0.4s,1.3952547589248496,0.4882892085117695,5.426599229479665,1.6913675787839868,4.602192401885986,1.5839073657989502,-7.31082820892334,0.21468831598758698,1.639510989189148,0.3558608293533325,-1.3179966884018124,1.7201039220087304,2.307999771397118,0.24733254313468933,0.9682160019874573,0.03720550984144211, 194, 120, 1, 156
1731649520893,9i,5.678281600774103,1.5s : 0.4s,1.3952547589248496,0.523115693685443,5.635666297667832,1.9014431456853111,4.809329509735107,1.4674347639083862,-7.6269989013671875,0.351904034614563,1.8383104801177979,0.33505845069885254,-1.395484108993276,1.5388242059253727,2.1070512321584993,0.17432579398155212,0.9846721291542053,-0.00557546503841877, 194, 120, 1, 156
1731649520903,9i,5.678281600774103,1.5s : 0.4s,1.3952547589248496,0.559967698949402,5.845147329735772,2.039896683142428,4.837896823883057,1.3143852949142456,-8.013754844665527,0.48412156105041504,1.9489061832427979,0.3585658669471741,-1.4604595600411394,1.084753595681049,1.6347506152500733,0.09736037999391556,0.9939190745353699,-0.05143702030181885, 194, 120, 1, 156
1731649520913,9i,5.678281600774103,1.5s : 0.4s,1.3952547589248496,0.5985908577001272,6.013465080798829,2.111512998908195,4.773992538452148,1.2306774854660034,-8.189041137695312,0.6133018136024475,1.9597623348236084,0.49160921573638916,-1.470706977477043,0.1778724367017486,0.7107175109259606,0.017679616808891296,0.9949952363967896,-0.09834446012973785, 194, 120, 1, 156
1731649520923,9i,5.678281600774103,1.5s : 0.4s,1.3952547589248496,0.6387571607335515,6.155318191368666,2.18922679556464,4.840590953826904,1.0660024881362915,-8.311018943786621,0.7580903172492981,1.9739041328430176,0.56719970703125,-1.411110480192999,-0.40419176545192015,0.11250619938679969,-0.0625336766242981,0.9872772693634033,-0.1461944729089737, 194, 120, 1, 156
1731649520933,9i,5.678281600774103,1.5s : 0.4s,1.3952547589248496,0.6799438543498404,6.258270666302162,2.2375126428638135,4.658385276794434,0.7655462026596069,-8.479131698608398,0.9399490356445312,1.9374771118164062,0.6075698137283325,-1.3276635407453794,-0.6369463372602782,-0.13402630300358329,-0.14318084716796875,0.9705885648727417,-0.19353781640529633, 194, 120, 1, 156
1731649520943,9i,5.678281600774103,1.5s : 0.4s,1.3952547589248496,0.7212441355723433,6.322138072465994,2.201302695213411,4.455164909362793,0.6061325669288635,-8.555214881896973,1.0857744216918945,1.8083083629608154,0.629958987236023,-1.2378832672405478,-0.7519572542948139,-0.2610362224831091,-0.2232256531715393,0.9450943470001221,-0.23867788910865784, 194, 120, 1, 156
1731649520953,9i,5.678281600774103,1.5s : 0.4s,1.3952547589248496,0.7626469122784978,6.33392329191415,2.2306559697283057,4.358948230743408,0.5444934368133545,-8.41423511505127,1.2021782398223877,1.7836406230926514,0.5909481048583984,-1.147000150418009,-0.8191090193911053,-0.3396223982058205,-0.3004143536090851,0.9115344285964966,-0.2808132469654083, 194, 120, 1, 156
1731649520963,9i,5.678281600774103,1.5s : 0.4s,1.3952547589248496,0.8043529854181798,6.322670155901114,2.292226481747817,4.239246845245361,0.41313406825065613,-8.37294864654541,1.3255051374435425,1.7798460721969604,0.5740090012550354,-1.0558738361248925,-0.8612560700735062,-0.3922942994579592,-0.3736160695552826,0.8703308701515198,-0.3208351731300354, 194, 120, 1, 156
1731649520973,9i,5.678281600774103,1.5s : 0.4s,1.3952547589248496,0.8457899198971557,6.2681773475311156,2.2736654083399084,3.8893368244171143,0.015456924214959145,-8.314912796020508,1.4411052465438843,1.6316603422164917,0.6560903787612915,-0.9657430968751606,-0.8941089449783975,-0.43356841360916165,-0.44347038865089417,0.8224717974662781,-0.3561941683292389, 194, 120, 1, 156
1731649520983,9i,5.678281600774103,1.5s : 0.4s,1.3952547589248496,0.8867800737596493,6.165967426476245,2.2088753340830616,3.611799478530884,-0.32754597067832947,-8.094429969787598,1.5132019519805908,1.4337646961212158,0.7305264472961426,-0.8779345774449904,-0.9232746183353538,-0.46797387188605694,-0.5094483494758606,0.7694212198257446,-0.38529637455940247, 194, 120, 1, 156
1731649520993,9i,5.678281600774103,1.5s : 0.4s,1.3952547589248496,0.9270365523423277,6.048896965488759,2.254648411376007,3.545833110809326,-0.6916677951812744,-7.856136322021484,1.6104769706726074,1.3941144943237305,0.7390860319137573,-0.7928135389125097,-0.9487799494729715,-0.4954556251386884,-0.5703921318054199,0.7123307585716248,-0.4089468717575073, 194, 120, 1, 156
1731649521003,9i,5.678281600774103,1.5s : 0.4s,1.3952547589248496,0.9675460150090867,5.943652784205788,2.354850131787477,3.7452685832977295,-0.9338535666465759,-7.602015495300293,1.6944878101348877,1.4436445236206055,0.768062949180603,-0.7087880326744357,-0.9707274110962201,-0.5154298842677678,-0.6265251040458679,0.650914192199707,-0.4286922514438629, 194, 120, 1, 156
1731649521013,9i,5.678281600774103,1.5s : 0.4s,1.3952547589248496,1.0088236763735943,5.8340147227211006,2.3860756993010575,3.8576974868774414,-1.0128934383392334,-7.322755813598633,1.7009503841400146,1.476890206336975,0.7867149114608765,-0.6256697026984654,-0.9882680088582332,-0.5278437389242403,-0.6768870949745178,0.5856402516365051,-0.44592514634132385, 194, 120, 1, 156
1731649521023,9i,5.678281600774103,1.5s : 0.4s,1.3952547589248496,1.0507191647150287,5.707854449503365,2.3390237255769533,3.77365779876709,-1.0994019508361816,-7.06702184677124,1.650695562362671,1.4424238204956055,0.8158735632896423,-0.5447014006930071,-1.0035114253071207,-0.536385836185645,-0.7213132977485657,0.518162727355957,-0.4595808982849121, 194, 120, 1, 156
1731649521033,9i,5.678281600774103,1.5s : 0.4s,1.3952547589248496,1.0931900975527882,5.5735547368175355,2.2747293616540736,3.696368932723999,-1.2292569875717163,-6.82296085357666,1.5953656435012817,1.3442885875701904,0.9066919684410095,-0.46609067490408773,-1.0180083692601807,-0.5422657846976383,-0.7602826952934265,0.44939741492271423,-0.4690546989440918, 194, 120, 1, 156
1731649521043,9i,5.678281600774103,1.5s : 0.4s,1.3952547589248496,1.1350208552390773,5.403272776806763,2.1945394038724992,3.4083948135375977,-1.360111951828003,-6.514468193054199,1.5872445106506348,1.2191411256790161,0.9001960754394531,-0.3906820606860432,-1.032801377779422,-0.5467615544287996,-0.7940315008163452,0.380819171667099,-0.4738044738769531, 194, 120, 1, 156
1731649521053,9i,5.678281600774103,1.5s : 0.4s,1.3952547589248496,1.1758314493169555,5.1920651625015255,2.141449727277139,3.018348455429077,-1.471877098083496,-6.167951583862305,1.6299498081207275,1.10686457157135,0.8390002250671387,-0.31987275872757714,-1.0486286844993242,-0.5514531311236032,-0.8227750062942505,0.31444576382637024,-0.4734606444835663, 194, 120, 1, 156
1731649521063,9i,5.678281600774103,1.5s : 0.4s,1.3952547589248496,1.2156370426080134,4.965126403325916,2.121848089936949,2.663757085800171,-1.5920674800872803,-5.865607738494873,1.6658778190612793,1.0207960605621338,0.8276870250701904,-0.25364335431420393,-1.0653286390447274,-0.5563678223496266,-0.8469537496566772,0.25093239545822144,-0.46872395277023315, 194, 120, 1, 156
1731649521073,9i,5.678281600774103,1.5s : 0.4s,1.3952547589248496,1.2539806705870216,4.725017645783119,2.0330044577749145,2.191640615463257,-1.670819878578186,-5.603219509124756,1.662757158279419,0.8850873708724976,0.7648307681083679,-0.19180057074760082,-1.0830218638124556,-0.5624580160520682,-0.8671792149543762,0.19062675535678864,-0.4600670337677002, 194, 120, 1, 156
1731649521083,9i,5.678281600774103,1.5s : 0.4s,1.3952547589248496,1.2903167598722356,4.4763448408325734,1.9070067599651048,1.7869597673416138,-1.7228955030441284,-5.299844264984131,1.6241484880447388,0.7349075078964233,0.6772941946983337,-0.13431618988749888,-1.1012603727022077,-0.5700763255708294,-0.8837462067604065,0.13391269743442535,-0.44839712977409363, 194, 120, 1, 156
1731649521093,9i,5.678281600774103,1.5s : 0.4s,1.3952547589248496,1.3245379059883657,4.216041243955251,1.786571103588759,1.4326503276824951,-1.7056965827941895,-4.946489334106445,1.5532373189926147,0.6344590783119202,0.613801121711731,-0.08138999517190398,-1.1193415605452053,-0.5784000746715181,-0.896834671497345,0.08130016922950745,-0.43483078479766846, 194, 120, 1, 156
1731649521103,9i,5.678281600774103,1.5s : 0.4s,1.3952547589248496,1.3566683176885936,3.9524712705228713,1.6710045093324153,1.045625925064087,-1.6150671243667603,-4.642518997192383,1.4832004308700562,0.5662079453468323,0.5213263034820557,-0.03287328055878537,-1.1365030907590963,-0.5877828117991051,-0.9066775441169739,0.03286736086010933,-0.42054203152656555, 194, 120, 1, 156
1731649521113,9i,5.678281600774103,1.5s : 0.4s,1.3952547589248496,1.3867349958990984,3.6898652916014942,1.5684693183222727,0.7692598700523376,-1.5497938394546509,-4.299301624298096,1.4163365364074707,0.4945797026157379,0.4576873779296875,0.011471440568171183,-1.1522870478332883,-0.5980181564777908,-0.9136356711387634,-0.011471188627183437,-0.4063721001148224, 194, 120, 1, 156
1731649521123,9i,5.678281600774103,1.5s : 0.4s,1.3952547589248496,1.4143510671969333,3.439621699972215,1.4407972010964902,0.6680818200111389,-1.5279994010925293,-3.951435089111328,1.346569538116455,0.372528076171875,0.351951539516449,0.05201013771291246,-1.1673086062183786,-0.608133313874566,-0.918453574180603,-0.0519866943359375,-0.39209744334220886, 194, 120, 1, 156
1731649521133,9i,5.678281600774103,1.5s : 0.4s,1.3952547589248496,1.439319647280496,3.201799698534882,1.355625395068558,0.43827617168426514,-1.5706545114517212,-3.6372263431549072,1.3064072132110596,0.24356631934642792,0.2677608132362366,0.08905140274997686,-1.1822918982526747,-0.6175509553553296,-0.9218094348907471,-0.08893375098705292,-0.37730371952056885, 194, 120, 1, 156
1731649521143,9i,5.678281600774103,1.5s : 0.4s,1.3952547589248496,1.4620370894781793,2.9662862247965767,1.3254100296999247,0.12305857241153717,-1.4873889684677124,-3.337360143661499,1.2920899391174316,0.17449161410331726,0.2382603883743286,0.12235219239327287,-1.1964068676937634,-0.6280163234509413,-0.9237731695175171,-0.12204714864492416,-0.3629704415798187, 194, 120, 1, 156
1731649521153,9i,5.678281600774103,1.5s : 0.4s,1.3952547589248496,1.4830659197752851,2.7481514776345173,1.3007726020039727,-0.05271964892745018,-1.4298551082611084,-3.071701765060425,1.2744476795196533,0.1551252007484436,0.2091139554977417,0.15223350758826168,-1.2093798823711646,-0.6393016881610147,-0.9245789051055908,-0.1516461819410324,-0.3495101034641266, 194, 120, 1, 156
1731649521163,9i,5.678281600774103,1.5s : 0.4s,1.3952547589248496,1.5023894939887161,2.5367556299552825,1.2662168398657199,-0.19794341921806335,-1.355237603187561,-2.774003028869629,1.2516251802444458,0.06649833917617798,0.1797705888748169,0.17916492123807182,-1.2214398374676236,-0.6508281027600136,-0.9245529770851135,-0.17820791900157928,-0.33681410551071167, 194, 120, 1, 156
1731649521173,9i,5.678281600774103,1.5s : 0.4s,1.3952547589248496,1.5197457630641493,2.328764513637296,1.2493901534168088,-0.29371950030326843,-1.3115811347961426,-2.447795867919922,1.242179274559021,-0.06191495060920715,0.11888206005096436,0.20282422870610095,-1.2326026668585184,-0.6620905175683675,-0.9240182042121887,-0.20143646001815796,-0.32498255372047424, 194, 120, 1, 156
1731649521183,9i,5.678281600774103,1.5s : 0.4s,1.3952547589248496,1.535511480761673,2.138973408561082,1.260195169961212,-0.3884667754173279,-1.323438048362732,-2.176529884338379,1.2542986869812012,-0.1056014746427536,0.06062176823616028,0.22341619485608183,-1.2434046776974734,-0.6731845759230318,-0.9233506917953491,-0.2215621918439865,-0.3135819733142853, 194, 120, 1, 156
1731649521193,9i,5.678281600774103,1.5s : 0.4s,1.3952547589248496,1.5505427426607632,1.9678620791650323,1.269271846397608,-0.48505881428718567,-1.311547040939331,-1.9383647441864014,1.2609859704971313,-0.14402584731578827,0.014898240566253662,0.2413204426616282,-1.2540341766669272,-0.6840924719188122,-0.9227138757705688,-0.23898501694202423,-0.30246543884277344, 194, 120, 1, 156
1731649521203,9i,5.678281600774103,1.5s : 0.4s,1.3952547589248496,1.5644350730491214,1.8194191977386491,1.2538231864381693,-0.6602429151535034,-1.2683247327804565,-1.7502321004867554,1.2353003025054932,-0.2142157256603241,-0.014743417501449585,0.2561512876698194,-1.2640118985816666,-0.6955886948836099,-0.9222051501274109,-0.25335928797721863,-0.292141318321228, 194, 120, 1, 156
1731649521213,9i,5.678281600774103,1.5s : 0.4s,1.3952547589248496,1.5768882446880679,1.6866898048590004,1.2133326444200987,-0.7205549478530884,-1.2137912511825562,-1.5669193267822266,1.1838356256484985,-0.26548805832862854,-0.01501360535621643,0.26978564705231295,-1.2733571418331895,-0.7075530423428149,-0.9215064644813538,-0.2665248513221741,-0.28247177600860596, 194, 120, 1, 156
1731649521223,9i,5.678281600774103,1.5s : 0.4s,1.3952547589248496,1.5883176191376018,1.5584091069692216,1.1412409132321313,-0.7772062420845032,-1.0977586507797241,-1.3804371356964111,1.1088027954101562,-0.26698943972587585,0.04127737879753113,0.2816092704895249,-1.2816718729204595,-0.7195683351202165,-0.9207382202148438,-0.27790188789367676,-0.27388235926628113, 194, 120, 1, 156
1731649521233,9i,5.678281600774103,1.5s : 0.4s,1.3952547589248496,1.5989549859394934,1.4315065698981815,1.0627028677263588,-0.7774761915206909,-0.9711223244667053,-1.2056405544281006,1.0217905044555664,-0.27063891291618347,0.10970929265022278,0.2917719084902559,-1.288688256253371,-0.7311490347003187,-0.9198771715164185,-0.2876496911048889,-0.26661545038223267, 194, 120, 1, 156
1731649521242,9i,5.678281600774103,1.5s : 0.4s,1.3952547589248496,1.6087012557053706,1.2943087481865987,0.9755543014845828,-0.6955354809761047,-0.8334598541259766,-1.0034477710723877,0.921785295009613,-0.2909882366657257,0.13169628381729126,0.3003287812120843,-1.294612495678393,-0.7417776068784774,-0.919038712978363,-0.2958342730998993,-0.26048049330711365, 194, 120, 1, 156
1731649521252,9i,5.678281600774103,1.5s : 0.4s,1.3952547589248496,1.6173124757693518,1.1532151562861719,0.8931660692002892,-0.6578910946846008,-0.7040353417396545,-0.8032594323158264,0.8228373527526855,-0.3266271650791168,0.11831742525100708,0.30714669760150637,-1.2995233234441006,-0.7510398505336754,-0.918342113494873,-0.3023400902748108,-0.25541767477989197, 194, 120, 1, 156
1731649521262,9i,5.678281600774103,1.5s : 0.4s,1.3952547589248496,1.624949763903349,1.0166155051316919,0.8174574050762852,-0.657055139541626,-0.5683310627937317,-0.6321479082107544,0.7541387677192688,-0.3050721287727356,0.08026409149169922,0.31225149478234515,-1.3032584120437174,-0.7597241386969326,-0.9177892804145813,-0.3072020411491394,-0.2515745460987091, 194, 120, 1, 156
1731649521272,9i,5.678281600774103,1.5s : 0.4s,1.3952547589248496,1.6321815177747634,0.8881053890777234,0.733613915084503,-0.6738944053649902,-0.4230789840221405,-0.477588951587677,0.6968302130699158,-0.21530574560165405,0.0791231095790863,0.3158601232569611,-1.3056788417552945,-0.7679318788505203,-0.9173195958137512,-0.31063416600227356,-0.2490602433681488, 194, 120, 1, 156
1731649521282,9i,5.678281600774103,1.5s : 0.4s,1.3952547589248496,1.6390590304808295,0.7741778784518403,0.6540245945961055,-0.7643590569496155,-0.2682236135005951,-0.3028682768344879,0.6274402141571045,-0.17380163073539734,0.062128424644470215,0.3177391344723541,-1.3065061877755864,-0.7764132193490187,-0.9169604182243347,-0.3124196529388428,-0.2481483519077301, 194, 120, 1, 156
1731649521292,9i,5.678281600774103,1.5s : 0.4s,1.3952547589248496,1.6452135683178974,0.669354715227863,0.5879321430410875,-0.7847972512245178,-0.1193927675485611,-0.096894770860672,0.5535058975219727,-0.19693151116371155,0.022658467292785645,0.31766141159981004,-1.3057759116682455,-0.7849021067767289,-0.9168024063110352,-0.31234583258628845,-0.24882426857948303, 194, 120, 1, 156
1731649521302,9i,5.678281600774103,1.5s : 0.4s,1.3952547589248496,1.6504696611277099,0.5884916298224333,0.5462140697038969,-0.8157157301902771,-0.001564136240631342,0.11322250962257385,0.49805748462677,-0.22424113750457764,-0.002112865447998047,0.3154654355154102,-1.3038154042478962,-0.793060304024419,-0.916972279548645,-0.31025898456573486,-0.25080156326293945, 194, 120, 1, 156
1731649521312,9i,5.678281600774103,1.5s : 0.4s,1.3952547589248496,1.6548086656657097,0.5650798241952603,0.5317751809793808,-0.8042317628860474,0.13736693561077118,0.36332935094833374,0.46458590030670166,-0.2587207555770874,-0.0028904974460601807,0.3110601462266527,-1.300830354816979,-0.8006444160419204,-0.9175279140472412,-0.3060680627822876,-0.2538996934890747, 194, 120, 1, 156
1731649521322,9i,5.678281600774103,1.5s : 0.4s,1.3952547589248496,1.6584320026446155,0.49474122523201225,0.5071893228673392,-0.6799181699752808,0.29002413153648376,0.6470028758049011,0.4359869956970215,-0.2589983642101288,0.008729040622711182,0.30418853925607997,-1.2968599467037478,-0.8068335656735953,-0.9185156226158142,-0.29951906204223633,-0.25810351967811584, 194, 120, 1, 156
1731649521332,9i,5.678281600774103,1.5s : 0.4s,1.3952547589248496,1.6614612368643338,0.4775393946527381,0.4808099448945911,-0.46907198429107666,0.4415622651576996,0.9130791425704956,0.4089919328689575,-0.252727746963501,-0.005699813365936279,0.2951324709567403,-1.2921356219408764,-0.8103895584282328,-0.9198561906814575,-0.29086658358573914,-0.2631753087043762, 194, 120, 1, 156
1731649521342,9i,5.678281600774103,1.5s : 0.4s,1.3952547589248496,1.6639065484501567,0.5354360689164925,0.4801962132062404,-0.31779593229293823,0.5635201334953308,1.1364643573760986,0.3974927067756653,-0.26687943935394287,-0.036923110485076904,0.28420274449759514,-1.286849320743788,-0.8113390854062068,-0.9214489459991455,-0.28039225935935974,-0.268908828496933, 194, 120, 1, 156
1731649521352,9i,5.678281600774103,1.5s : 0.4s,1.3952547589248496,1.665976726428979,0.6593617650672176,0.49668391207987067,-0.22817476093769073,0.6836366057395935,1.4028992652893066,0.41043728590011597,-0.27726757526397705,-0.03686237335205078,0.27130608742167656,-1.2808540955824002,-0.8103338694026456,-0.9232088923454285,-0.26798996329307556,-0.2754392623901367, 194, 120, 1, 156
1731649521362,9i,5.678281600774103,1.5s : 0.4s,1.3952547589248496,1.6680484880739332,0.8334908545201671,0.5175410208374077,-0.20369577407836914,0.8305304646492004,1.7203240394592285,0.4304983615875244,-0.2871343195438385,-0.008587867021560669,0.2557760249462423,-1.2739638367204382,-0.807723915248085,-0.9251577258110046,-0.2529962658882141,-0.2829771041870117, 194, 120, 1, 156
1731649521372,9i,5.678281600774103,1.5s : 0.4s,1.3952547589248496,1.67000362200321,1.0274793104884101,0.5571482646159516,-0.23230712115764618,0.932644784450531,2.0148489475250244,0.4475511908531189,-0.3298235833644867,0.036448925733566284,0.23730835914199255,-1.2660225790321091,-0.8042696343433605,-0.9271805882453918,-0.23508727550506592,-0.2916674315929413, 194, 120, 1, 156
1731649521382,9i,5.678281600774103,1.5s : 0.4s,1.3952547589248496,1.6718995091258537,1.22304489608553,0.6114907446398061,-0.2166605144739151,1.040319561958313,2.280421257019043,0.48136353492736816,-0.36963951587677,0.07467734813690186,0.21614603120946824,-1.2572193037537724,-0.7998595902206009,-0.9291021823883057,-0.21446692943572998,-0.30128562450408936, 194, 120, 1, 156
1731649521392,9i,5.678281600774103,1.5s : 0.4s,1.3952547589248496,1.6739730338323158,1.4117722512402098,0.6607012372118691,-0.20328904688358307,1.1827245950698853,2.493300199508667,0.5255071520805359,-0.3859598636627197,0.10678642988204956,0.19283927778912904,-1.247288486309415,-0.7943609106175187,-0.9305517077445984,-0.19164630770683289,-0.31200191378593445, 194, 120, 1, 156
1731649521402,9i,5.678281600774103,1.5s : 0.4s,1.3952547589248496,1.6765383099406694,1.5959182778762167,0.7037459614997827,-0.14718396961688995,1.3237786293029785,2.7156858444213867,0.5767762064933777,-0.3785203695297241,0.1389601230621338,0.16768984732860148,-1.2360272763860614,-0.7876450455955988,-0.9312378168106079,-0.16690504550933838,-0.3239424526691437, 194, 120, 1, 156
1731649521412,9i,5.678281600774103,1.5s : 0.4s,1.3952547589248496,1.6799020370383781,1.7776117919761918,0.7292604370856018,-0.10423676669597626,1.4605835676193237,2.941199779510498,0.6213251352310181,-0.3442344069480896,0.16516214609146118,0.1406650235568864,-1.2233892621923512,-0.7794356270479977,-0.9309716820716858,-0.140201598405838,-0.3370981812477112, 194, 120, 1, 156
1731649521422,9i,5.678281600774103,1.5s : 0.4s,1.3952547589248496,1.6842750151116808,1.9690623620783028,0.7613178360131881,-0.08269418776035309,1.6203827857971191,3.21709942817688,0.6698779463768005,-0.3114601969718933,0.18401339650154114,0.11148482783060683,-1.209185109074579,-0.7698221111183069,-0.9295215606689453,-0.11125403642654419,-0.3515854477882385, 194, 120, 1, 156
1731649521432,9i,5.678281600774103,1.5s : 0.4s,1.3952547589248496,1.6898898082885259,2.174731169409572,0.805598688635897,-0.026673465967178345,1.8191256523132324,3.516484260559082,0.7292223572731018,-0.2725812494754791,0.20717978477478027,0.07999731349379455,-1.1931551293469338,-0.758284870261165,-0.9265642762184143,-0.07991201430559158,-0.36754968762397766, 194, 120, 1, 156
1731649521442,9i,5.678281600774103,1.5s : 0.4s,1.3952547589248496,1.6969158381929221,2.4022172621316824,0.865630885878157,-0.004633678123354912,1.9875226020812988,3.894665479660034,0.7920388579368591,-0.24536675214767456,0.24856877326965332,0.04571056416542996,-1.175072064506207,-0.7445924559500716,-0.9217538237571716,-0.04569464921951294,-0.3850739300251007, 194, 120, 1, 156
1731649521452,9i,5.678281600774103,1.5s : 0.4s,1.3952547589248496,1.7053169407165814,2.6291940313829865,0.9281291356365483,-0.07348351925611496,2.128086566925049,4.197989463806152,0.860749363899231,-0.240706205368042,0.2501894235610962,0.008378350662473277,-1.1549309300288264,-0.7290704311900615,-0.9147350192070007,-0.008378252387046814,-0.40396758913993835, 194, 120, 1, 156
1731649521462,9i,5.678281600774103,1.5s : 0.4s,1.3952547589248496,1.7153183864566366,2.8464934039033123,1.0413920947254265,-0.1917790025472641,2.2454993724823,4.460693359375,0.9710014462471008,-0.2420252561569214,0.28823161125183105,-0.03152024084285548,-1.1328868138862345,-0.7126342138728338,-0.9051902294158936,0.03151502087712288,-0.42383652925491333, 194, 120, 1, 156
1731649521472,9i,5.678281600774103,1.5s : 0.4s,1.3952547589248496,1.7268784973063886,3.0663263790336006,1.1515596753356123,-0.3049508333206177,2.393458604812622,4.758378505706787,1.061147928237915,-0.283002108335495,0.3463590145111084,-0.07399369827311116,-1.108814325813732,-0.6949895880377974,-0.89272141456604,0.07392619550228119,-0.4445036053657532, 194, 120, 1, 156
1731649521482,9i,5.678281600774103,1.5s : 0.4s,1.3952547589248496,1.7398367748401915,3.2895630451229656,1.2494831024016517,-0.5136278867721558,2.563011646270752,5.046443939208984,1.131441354751587,-0.3396507799625397,0.40704524517059326,-0.11935289096163855,-1.082265801215457,-0.6763523174175458,-0.8767415285110474,0.11906972527503967,-0.46598994731903076, 194, 120, 1, 156
1731649521492,9i,5.678281600774103,1.5s : 0.4s,1.3952547589248496,1.7545573342359815,3.5235241425522665,1.3515857644179226,-0.770854115486145,2.7322568893432617,5.369804859161377,1.2239185571670532,-0.3173704147338867,0.47758084535598755,-0.167997789754544,-1.0530126222184646,-0.6570072937188893,-0.856685221195221,0.16720865666866302,-0.48798736929893494, 194, 120, 1, 156
1731649521502,9i,5.678281600774103,1.5s : 0.4s,1.3952547589248496,1.7715512693831255,3.770198880141687,1.4549590918813482,-0.7586826682090759,2.9175174236297607,5.734548091888428,1.3237135410308838,-0.24645403027534485,0.5513155460357666,-0.21963594512646384,-1.0206478257669516,-0.6354738976308247,-0.8319684863090515,0.21787433326244354,-0.5102542042732239, 194, 120, 1, 156
1731649521512,9i,5.678281600774103,1.5s : 0.4s,1.3952547589248496,1.790798623771596,4.0281748225944485,1.5525001583171847,-0.5741645693778992,3.1643779277801514,6.1045451164245605,1.4048993587493896,-0.24094915390014648,0.6151894330978394,-0.27303051305588305,-0.9837113787503153,-0.6087460161625926,-0.8017193675041199,0.269650936126709,-0.5334175825119019, 194, 120, 1, 156
1731649521522,9i,5.678281600774103,1.5s : 0.4s,1.3952547589248496,1.8119187167575461,4.28445418896616,1.642547995654311,-0.5090393424034119,3.497683048248291,6.362774848937988,1.4822659492492676,-0.3019421100616455,0.6400644779205322,-0.32717225032201563,-0.9407932244636678,-0.5763654348436139,-0.7651638388633728,0.3213665783405304,-0.5578958988189697, 194, 120, 1, 156
1731649521532,9i,5.678281600774103,1.5s : 0.4s,1.3952547589248496,1.8351467993982948,4.5361217508209855,1.7381538512608423,-0.6266645193099976,3.8791871070861816,6.553353309631348,1.5802631378173828,-0.27183806896209717,0.67085862159729,-0.3817017355083894,-0.891123910135215,-0.5396503952509885,-0.7218035459518433,0.3725002706050873,-0.583303689956665, 194, 120, 1, 156
1731649521542,9i,5.678281600774103,1.5s : 0.4s,1.3952547589248496,1.8612852319996183,4.799231503645086,1.8812877252169098,-0.8609297871589661,4.277624607086182,6.797911167144775,1.7073497772216797,-0.15783455967903137,0.7741372585296631,-0.4370586071797458,-0.833994343039487,-0.49892836522218137,-0.6710031628608704,0.4232763946056366,-0.6087624430656433, 194, 120, 1, 156
1731649521552,9i,5.678281600774103,1.5s : 0.4s,1.3952547589248496,1.8908477226720428,5.079773618519374,2.0664727172777773,-1.095517635345459,4.583499431610107,7.140935897827148,1.8705108165740967,-0.09801101684570312,0.8728646039962769,-0.49384849405981146,-0.7690110439355202,-0.4532764777721976,-0.6123321652412415,0.47401803731918335,-0.6327371001243591, 194, 120, 1, 156
1731649521562,9i,5.678281600774103,1.5s : 0.4s,1.3952547589248496,1.924269114901974,5.381818750283447,2.2865829380085887,-1.2304259538650513,4.958580493927002,7.505355358123779,2.0735981464385986,-0.06982064247131348,0.9611333608627319,-0.5512701279587985,-0.6943753367243041,-0.39977044880800844,-0.5451099276542664,0.5237696170806885,-0.6546148657798767, 194, 120, 1, 156
1731649521572,9i,5.678281600774103,1.5s : 0.4s,1.3952547589248496,1.9621298641335239,5.713331127145504,2.5463443499654943,-1.8499400615692139,5.311993598937988,7.890493869781494,2.3074100017547607,-0.034225642681121826,1.07636296749115,-0.6097312619231986,-0.6091653776399368,-0.33826726873828394,-0.46907684206962585,0.5726471543312073,-0.6723406910896301, 194, 120, 1, 156
1731649521582,9i,5.678281600774103,1.5s : 0.4s,1.3952547589248496,2.005115380619671,6.1426527934821,2.8488846415165265,-2.800135374069214,5.641234874725342,8.649808883666992,2.5523619651794434,0.009779632091522217,1.2655024528503418,-0.6730628863931825,-0.5114227706675682,-0.26709183069552744,-0.3826841115951538,0.6233838200569153,-0.6818690896034241, 194, 120, 1, 156
1731649521592,9i,5.678281600774103,1.5s : 0.4s,1.3952547589248496,2.05438555438683,6.68615079600032,3.2458078206165855,-3.7624287605285645,5.824763774871826,9.704706192016602,2.8805994987487793,0.08605235815048218,1.4933217763900757,-0.7427793362583283,-0.3961679360947723,-0.17850692429685308,-0.28424033522605896,0.6763377785682678,-0.6795400381088257, 194, 120, 1, 156
1731649521602,9i,5.678281600774103,1.5s : 0.4s,1.3952547589248496,2.1111897067163428,7.286131363638929,3.733953874126365,-4.428384780883789,5.828214168548584,10.759148597717285,3.3591654300689697,0.12033206224441528,1.6260194778442383,-0.8144370760279578,-0.2547999188461008,-0.061251443915880804,-0.17297758162021637,0.7273393869400024,-0.664120614528656, 194, 120, 1, 156
1731649521612,9i,5.678281600774103,1.5s : 0.4s,1.3952547589248496,2.1762598506034054,7.87971903146924,4.206254570398035,-5.487427711486816,5.702780723571777,11.43372631072998,3.8651111125946045,0.12482351064682007,1.6546639204025269,-0.88140032034986,-0.0824221305694838,0.09106210411306354,-0.05236700922250748,0.7716303467750549,-0.6339119076728821, 194, 120, 1, 156
1731649521622,9i,5.678281600774103,1.5s : 0.4s,1.3952547589248496,2.2491208792880997,8.557095981023638,4.538752219511558,-7.172952175140381,5.918890953063965,12.097081184387207,4.2791290283203125,0.08893066644668579,1.5104362964630127,-0.9417019816409379,0.12937250138545658,0.2847525056606838,0.075912244617939,0.8085607290267944,-0.5834953784942627, 194, 120, 1, 156
1731649521632,9i,5.678281600774103,1.5s : 0.4s,1.3952547589248496,2.329049010526647,9.28338889318418,4.725724884910576,-9.699850082397461,5.556435585021973,12.38559627532959,4.524899482727051,0.23099011182785034,1.3432810306549072,-0.9913092749309544,0.3905207832339836,0.5308046349555772,0.2084529548883438,0.8367436528205872,-0.5063669681549072, 194, 120, 1, 156
1731649521642,9i,5.678281600774103,1.5s : 0.4s,1.3952547589248496,2.416842954413283,10.062713307681655,4.991547319115748,-12.623485565185547,4.545626163482666,12.394683837890625,4.746412754058838,0.7019385099411011,1.3763694763183594,-1.0222784387588806,0.7018343726212025,0.8375984824489385,0.33664098381996155,0.8532982468605042,-0.398189514875412, 194, 120, 1, 156
1731649521652,9i,5.678281600774103,1.5s : 0.4s,1.3952547589248496,2.515856410484345,10.806006797705297,5.7054368862631,-15.779565811157227,2.379267692565918,11.472378730773926,5.293456554412842,1.3927398920059204,1.609845757484436,-1.0210691655613724,1.0420616145198012,1.1940790561446046,0.45111122727394104,0.8526670932769775,-0.2635475695133209, 194, 120, 1, 156
1731649521662,9i,5.678281600774103,1.5s : 0.4s,1.3952547589248496,2.6292749527049883,11.690225408873067,6.635945195393316,-19.56623077392578,0.2611485421657562,9.79086971282959,6.0371928215026855,2.123647451400757,1.7544779777526855,-0.9835474593247153,1.3725537820859683,1.571108287094773,0.5432208776473999,0.8324681520462036,-0.10912276059389114, 194, 120, 1, 156
1731649521672,9i,5.678281600774103,1.5s : 0.4s,1.3952547589248496,2.758158368431191,13.050997034544437,7.401785872369292,-23.663251876831055,-1.5992789268493652,9.22301197052002,6.5100603103637695,2.8951597213745117,2.0058910846710205,-0.897639603873577,1.6703250564958412,1.945663636668453,0.6203718781471252,0.7818574905395508,0.06194951757788658, 194, 120, 1, 156
1731649521682,9i,5.678281600774103,1.5s : 0.4s,1.3952547589248496,2.9041036216383835,14.840716882687204,8.322483244253888,-28.488719940185547,-5.497961044311523,7.280782222747803,6.774020671844482,3.946821689605713,2.79266357421875,-0.7582528332740441,1.896456147001288,2.297823486551807,0.6878780126571655,0.6876539587974548,0.23228447139263153, 194, 120, 1, 156
1731649521692,9i,5.678281600774103,1.5s : 0.4s,1.3952547589248496,3.071385677105788,16.530840358009762,9.895376684892561,-30.798084259033203,-7.919088363647461,3.779843807220459,7.193039417266846,5.502106666564941,3.988168239593506,-0.5902803194473364,2.0282984368779156,2.6210053400035584,0.7453456521034241,0.5565939545631409,0.3669646382331848, 194, 120, 1, 156
1731649521702,9i,5.678281600774103,1.5s : 0.4s,1.3952547589248496,3.2552211441478125,18.00030113713116,10.511808340108425,-32.998470306396484,-5.855347156524658,-2.4153215885162354,6.472968101501465,6.2561211585998535,5.427683353424072,-0.427983128958654,2.1127922009384443,2.938376652562101,0.7794120907783508,0.415036678314209,0.46931979060173035, 194, 120, 1, 156
1731649521712,9i,5.678281600774103,1.5s : 0.4s,1.3952547589248496,3.4241998783668226,18.672648805393088,7.9334712863506995,-30.514394760131836,-5.863171100616455,-6.85667610168457,2.760510206222534,2.722407102584839,6.921564102172852,-0.2960910197150612,2.1705494439520585,-3.025168594556523,0.7895538806915283,0.29178357124328613,0.5398767590522766, 194, 120, 1, 156
1731649521722,9i,5.678281600774103,1.5s : 0.4s,1.3952547589248496,3.5676198472082277,16.85666063348064,9.75397803721049,-16.65468406677246,-12.113879203796387,-4.3384222984313965,0.16333401203155518,-0.56647127866745,9.73614501953125,-0.2126316489143311,2.138927321099633,-2.787596303183191,0.8239248394966125,0.21103301644325256,0.52593994140625, 194, 120, 1, 156
1731649521732,9i,5.678281600774103,1.5s : 0.4s,1.3952547589248496,3.718395413406599,14.472903774393394,12.801439376602938,-10.400688171386719,-10.676568031311035,-1.2277902364730835,1.6409730911254883,1.6916180849075317,12.582626342773438,-0.16618617606796526,2.041569172076483,-2.6640431381057508,0.8789393901824951,0.16542227566242218,0.447326123714447, 194, 120, 1, 156
1731649521742,9i,5.678281600774103,1.5s : 0.4s,1.3952547589248496,3.9001729897673094,12.891524026493558,13.498051464560879,-10.686004638671875,-8.457359313964844,-7.02011775970459,3.9964311122894287,7.059608459472656,10.788320541381836,-0.1605318662329043,1.9676743617559018,-2.55184342027536,0.9104140400886536,0.15984325110912323,0.3815709352493286, 194, 120, 1, 156
1731649521752,9i,5.678281600774103,1.5s : 0.4s,1.3952547589248496,4.061673175286148,12.098356061777245,6.430293625194491,-11.232819557189941,-8.10263729095459,-9.4161958694458,0.859164834022522,3.637399673461914,5.232574462890625,-0.1994766507409386,1.9097884660610254,-2.416088504504703,0.924389123916626,0.19815638661384583,0.32594266533851624, 194, 120, 1, 156
1731649521762,9i,5.678281600774103,1.5s : 0.4s,1.3952547589248496,4.170983389585238,11.457873735298136,5.525331646817114,-9.5209379196167,-8.315328598022461,-9.872452735900879,-2.5634355545043945,-2.499748706817627,4.208247184753418,-0.2576559793675613,1.857697967935722,-2.282677361873843,0.9274642467498779,0.25481459498405457,0.27364057302474976, 194, 120, 1, 156
1731649521772,9i,5.678281600774103,1.5s : 0.4s,1.3952547589248496,4.26084599269216,11.044340613567181,5.880249603249757,-7.1978020668029785,-8.068687438964844,-12.904228210449219,-1.6158300638198853,-0.14248165488243103,5.652090549468994,-0.3420930294037686,1.8058330897818498,-2.1707510713300735,0.9161536693572998,0.33545956015586853,0.21938450634479523, 194, 120, 1, 156
1731649521782,9i,5.678281600774103,1.5s : 0.4s,1.3952547589248496,4.347922297882862,11.075790974823368,5.564143970255781,-6.762487411499023,-7.273831367492676,-15.115824699401855,-0.5869050621986389,2.6550960540771484,4.854452133178711,-0.4577711729235027,1.7641045272008236,-2.0666185934571817,0.8803316354751587,0.44194987416267395,0.1723272055387497, 194, 120, 1, 156
1731649521792,9i,5.678281600774103,1.5s : 0.4s,1.3952547589248496,4.424534158485103,11.2972553444819,3.9384822916225537,-6.544516563415527,-6.737685680389404,-15.92328929901123,-0.8275073170661926,2.0324997901916504,3.270446300506592,-0.59480833860325,1.745054517714055,-1.9581606540822736,0.8157123327255249,0.5603500008583069,0.14360103011131287, 194, 120, 1, 156
1731649521802,9i,5.678281600774103,1.5s : 0.4s,1.3952547589248496,4.493182198250089,11.423939919703194,3.1971801334051064,-4.9079742431640625,-5.955259323120117,-16.55389404296875,-0.3032441735267639,1.8829786777496338,2.566007614135742,-0.7446999786511813,1.7487093778774871,-1.8487798030272447,0.7236848473548889,0.6777512431144714,0.130128875374794, 194, 120, 1, 156
1731649521811,9i,5.678281600774103,1.5s : 0.4s,1.3952547589248496,4.562873667288707,11.135846540148162,3.5593795256690166,-1.863465666770935,-4.488321304321289,-15.886650085449219,0.9983711242675781,2.55554461479187,2.2675161361694336,-0.8989382575792708,1.7638196303611713,-1.7562392549788164,0.6108818054199219,0.7826665043830872,0.1194010004401207, 194, 120, 1, 156
1731649521821,9i,5.678281600774103,1.5s : 0.4s,1.3952547589248496,4.636790457726843,10.541790365780278,3.7960846989439303,1.4419419765472412,-3.7537026405334473,-14.417171478271484,1.8992233276367188,2.3065648078918457,2.34157395362854,-1.0464392882945677,1.7679381199659612,-1.7017977791224934,0.4909592866897583,0.8656460046768188,0.09806229174137115, 194, 120, 1, 156
1731649521831,9i,5.678281600774103,1.5s : 0.4s,1.3952547589248496,4.7118968275419,9.972883722024093,3.592836803122262,4.823352336883545,-3.6312949657440186,-13.383066177368164,2.4845550060272217,0.5649659633636475,2.533036947250366,-1.188353215158846,1.7156312115406211,-1.718450353287663,0.3692811131477356,0.9277556538581848,0.053861938416957855, 194, 120, 1, 156
1731649521841,9i,5.678281600774103,1.5s : 0.4s,1.3952547589248496,4.781111959909885,9.827359335103198,3.8569079745453747,7.024199485778809,-4.157727241516113,-12.415425300598145,2.3050544261932373,-1.6043202877044678,2.64359974861145,-1.3204317403633887,1.508925272817013,-1.894364727418386,0.2472832202911377,0.968822181224823,-0.015319225378334522, 194, 120, 1, 156
1731649521851,9i,5.678281600774103,1.5s : 0.4s,1.3952547589248496,4.837619544722938,9.287031928669439,4.270605272440426,8.620851516723633,-4.6138787269592285,-10.373101234436035,1.6274856328964233,-3.1783266067504883,2.342562675476074,-1.4044920480882521,0.9211849528569391,-2.44959426888333,0.13182222843170166,0.9862033128738403,-0.10013101994991302, 194, 120, 1, 156
1731649521861,9i,5.678281600774103,1.5s : 0.4s,1.3952547589248496,4.8772156190366776,8.896601676596632,4.244505748283536,9.508906364440918,-4.982117176055908,-8.525129318237305,1.0816419124603271,-3.875105142593384,1.3525679111480713,-1.3746929254916718,0.14210451827669382,3.0882925680837015,0.027595778927206993,0.9808332920074463,-0.19288460910320282, 194, 120, 1, 156
1731649521871,9i,5.678281600774103,1.5s : 0.4s,1.3952547589248496,4.8999670385267,8.720757285872866,3.585382075452264,9.802334785461426,-5.126175403594971,-7.759655952453613,0.5262628793716431,-3.5237839221954346,0.40119680762290955,-1.2727005934159694,-0.23096414179495076,2.752337226446205,-0.06723274290561676,0.9558975100517273,-0.28590139746665955, 194, 120, 1, 156
1731649521881,9i,5.678281600774103,1.5s : 0.4s,1.3952547589248496,4.912600266364965,8.633264053598959,2.253461168047572,9.939430236816406,-5.114803791046143,-7.115886688232422,0.3304678797721863,-2.2258026599884033,0.12116408348083496,-1.155158665690241,-0.39139430992669727,2.634932771055312,-0.15403053164482117,0.9148590564727783,-0.37323927879333496, 194, 120, 1, 156
1731649521891,9i,5.678281600774103,1.5s : 0.4s,1.3952547589248496,4.9210516254247265,8.590167231933536,1.1266930271605091,10.049115180969238,-5.195634841918945,-6.144888401031494,0.2260214239358902,-1.0824061632156372,0.21621376276016235,-1.0364851347195378,-0.47699835506526145,2.5965262762879733,-0.2338034063577652,0.8606196045875549,-0.45240458846092224, 194, 120, 1, 156
1731649521901,9i,5.678281600774103,1.5s : 0.4s,1.3952547589248496,4.928362416296702,8.411026020143275,0.6448605813971905,9.531647682189941,-5.376250743865967,-5.698700428009033,0.12967312335968018,-0.48304033279418945,0.407065212726593,-0.9219918003239892,-0.5357638452467974,2.5895213221965077,-0.3084603250026703,0.7968066930770874,-0.5195682048797607, 194, 120, 1, 156
1731649521911,9i,5.678281600774103,1.5s : 0.4s,1.3952547589248496,4.937425070843598,8.153367382282957,0.7609980917979137,8.496743202209473,-5.421054840087891,-5.391587257385254,0.2860602140426636,-0.17783254384994507,0.6823952198028564,-0.816385000439916,-0.5885020171854578,2.5911996436479017,-0.3801764249801636,0.7286748290061951,-0.569648027420044, 194, 120, 1, 156
1731649521921,9i,5.678281600774103,1.5s : 0.4s,1.3952547589248496,4.950270154033512,7.814456140268094,1.0807889479287922,7.53338098526001,-5.335009574890137,-5.0963358879089355,0.4875960648059845,0.02368950843811035,0.964258074760437,-0.7208537785233142,-0.6390916232140328,2.5956906328166607,-0.448091059923172,0.6600263118743896,-0.6029757261276245, 194, 120, 1, 156
1731649521931,9i,5.678281600774103,1.5s : 0.4s,1.3952547589248496,4.967406553254336,7.463362318628096,1.2613136771478928,6.87425422668457,-5.195300102233887,-4.950021743774414,0.6786994338035583,0.22191518545150757,1.0397273302078247,-0.6338459423169015,-0.6879700992360642,2.601785475715797,-0.5116309523582458,0.5922480225563049,-0.6224757432937622, 194, 120, 1, 156
1731649521941,9i,5.678281600774103,1.5s : 0.4s,1.3952547589248496,4.988598193789105,7.193931577864865,1.3673994957378133,6.641580104827881,-4.928762435913086,-5.235157489776611,0.9262043237686157,0.44426482915878296,0.902527391910553,-0.5515547989731432,-0.7349536672931632,2.6114147515718242,-0.5711170434951782,0.5240120887756348,-0.6318517327308655, 194, 120, 1, 156
1731649521951,9i,5.678281600774103,1.5s : 0.4s,1.3952547589248496,5.013319927989614,6.940804732316375,1.5013784551475484,6.376142501831055,-4.555770397186279,-5.306327819824219,1.1132822036743164,0.6874580979347229,0.7363024950027466,-0.4711879073449254,-0.7806118578082196,2.622525991474033,-0.6270302534103394,0.4539450705051422,-0.6330614686012268, 194, 120, 1, 156
1731649521961,9i,5.678281600774103,1.5s : 0.4s,1.3952547589248496,5.041147231331692,6.587806213004875,1.6079842134536895,5.7772674560546875,-4.325685024261475,-4.661282062530518,1.1299054622650146,0.8231977224349976,0.7945265173912048,-0.3954980930263376,-0.8230838533733978,2.6334784166209717,-0.6766431331634521,0.38526788353919983,-0.6274732947349548, 194, 120, 1, 156
1731649521971,9i,5.678281600774103,1.5s : 0.4s,1.3952547589248496,5.072863704155021,6.151013506098154,1.8634141379543552,5.174919605255127,-3.854219436645508,-4.106466770172119,1.1761224269866943,0.9885810613632202,1.0543982982635498,-0.32688659462870273,-0.860083110152519,2.6455122868806256,-0.7177636027336121,0.3210960626602173,-0.6178290843963623, 194, 120, 1, 156
1731649521981,9i,5.678281600774103,1.5s : 0.4s,1.3952547589248496,5.1089963004527705,5.708592061093221,2.103142684039027,4.87906551361084,-3.4562177658081055,-3.5856306552886963,1.3241347074508667,1.0239561796188354,1.2733381986618042,-0.26571979446409344,-0.8921545079953427,2.66022463454265,-0.7511061429977417,0.26260387897491455,-0.6057051420211792, 194, 120, 1, 156
1731649521991,9i,5.678281600774103,1.5s : 0.4s,1.3952547589248496,5.148459117473455,5.287959597022905,2.116454394022525,4.548129558563232,-3.072068691253662,-3.330463409423828,1.4738185405731201,0.6797071695327759,1.358394742012024,-0.20954889276182173,-0.9207010375756318,2.676575453620457,-0.7786129117012024,0.20801867544651031,-0.5920220017433167, 194, 120, 1, 156
1731649522001,9i,5.678281600774103,1.5s : 0.4s,1.3952547589248496,5.18876337147794,4.839820530142564,1.9823246739075122,3.880711078643799,-2.7423996925354004,-3.063891649246216,1.3681249618530273,0.12439176440238953,1.4291157722473145,-0.15863664414793444,-0.9470519605144956,2.691872020712542,-0.8015051484107971,0.15797211229801178,-0.5767446160316467, 194, 120, 1, 156
1731649522011,9i,5.678281600774103,1.5s : 0.4s,1.3952547589248496,5.228615642190423,4.338715045130789,1.7985501586527666,3.0765771865844727,-2.3775134086608887,-2.69042706489563,1.1089988946914673,-0.15803107619285583,1.407099962234497,-0.11548671443417405,-0.9711351944575954,2.703729260711985,-0.8200278878211975,0.11523017287254333,-0.5606033802032471, 194, 120, 1, 156
1731649522021,9i,5.678281600774103,1.5s : 0.4s,1.3952547589248496,5.266575466222817,3.8155019641399006,1.6761888826628246,2.365823268890381,-1.9518117904663086,-2.38010573387146,0.9652460217475891,-0.096126027405262,1.366992712020874,-0.07927178138072423,-0.9919172816465487,2.7123475294750667,-0.8344477415084839,0.07918878644704819,-0.545367956161499, 194, 120, 1, 156
1731649522031,9i,5.678281600774103,1.5s : 0.4s,1.3952547589248496,5.303183482105668,3.265216921564512,1.6751596327152325,1.5751562118530273,-1.5163965225219727,-2.048872947692871,0.9486689567565918,-0.10214356333017349,1.376863718032837,-0.050193192668731554,-1.0089350072718797,2.716853083257866,-0.8451991677284241,0.050172120332717896,-0.5320913791656494, 194, 120, 1, 156
1731649522041,9i,5.678281600774103,1.5s : 0.4s,1.3952547589248496,5.338398567253017,2.7763786711476066,1.6490785048703838,1.2306456565856934,-1.1265002489089966,-1.8456482887268066,0.9781660437583923,-0.2285606414079666,1.3078268766403198,-0.026537393484017707,-1.0221033673592566,2.718303731443441,-0.8529065847396851,0.026534277945756912,-0.5213888883590698, 194, 120, 1, 156
1731649522051,9i,5.678281600774103,1.5s : 0.4s,1.3952547589248496,5.371657823255244,2.3491974281360077,1.5468816304280286,1.0009876489639282,-0.7528216242790222,-1.6532310247421265,0.8246265649795532,-0.2972436249256134,1.2745509147644043,-0.005846573509592297,-1.03141660756266,2.7188028877477968,-0.8580127358436584,0.005846539977937937,-0.5135951042175293, 194, 120, 1, 156
1731649522061,9i,5.678281600774103,1.5s : 0.4s,1.3952547589248496,5.401984273438997,1.9765259219353586,1.4425534002701514,0.8445312976837158,-0.42817193269729614,-1.432018756866455,0.5726479887962341,-0.4407288134098053,1.2485162019729614,0.012014994636387647,-1.037281661758703,2.7187208049184686,-0.8609627485275269,-0.012014705687761307,-0.5085259675979614, 194, 120, 1, 156
1731649522071,9i,5.678281600774103,1.5s : 0.4s,1.3952547589248496,5.42920699871906,1.6667034857344283,1.2966434598897059,0.7974607348442078,-0.24375857412815094,-1.2008713483810425,0.4563325047492981,-0.44891124963760376,1.1276185512542725,0.027425825477891047,-1.0405410110255258,2.7191584148945687,-0.8623536229133606,-0.027422387152910233,-0.5055634379386902, 194, 120, 1, 156
1731649522081,9i,5.678281600774103,1.5s : 0.4s,1.3952547589248496,5.453257959422963,1.3936468475492294,1.098383229381285,0.6376742124557495,-0.21569152176380157,-0.9350772500038147,0.43129855394363403,-0.4353892207145691,0.9115171432495117,0.04023810399254988,-1.0428062956026982,2.7199389443986446,-0.863122284412384,-0.040227245539426804,-0.5033903121948242, 194, 120, 1, 156
1731649522091,9i,5.678281600774103,1.5s : 0.4s,1.3952547589248496,5.474169844323581,1.1421279414672754,1.0016240449936646,0.45235776901245117,-0.2655295431613922,-0.6417945623397827,0.4132254123687744,-0.5124105215072632,0.7549377083778381,0.04968265064904585,-1.0452553870396828,2.7206898609148036,-0.8639853000640869,-0.049662213772535324,-0.5010619759559631, 194, 120, 1, 156
1731649522101,9i,5.678281600774103,1.5s : 0.4s,1.3952547589248496,5.4921980569475695,0.9052504972709011,0.9686471495610304,0.2696675658226013,-0.2880527079105377,-0.3620321452617645,0.3548145294189453,-0.5796539783477783,0.6902066469192505,0.0557355940970038,-1.0481278846263358,2.721327044777935,-0.865144670009613,-0.05570674315094948,-0.498418927192688, 194, 120, 1, 156
1731649522111,9i,5.678281600774103,1.5s : 0.4s,1.3952547589248496,5.507649415058151,0.686172977396991,0.9283139052328928,0.11240792274475098,-0.260270893573761,-0.12907624244689941,0.2684096693992615,-0.5981429815292358,0.6572274565696716,0.058644151827728946,-1.0509460090919887,2.721707829508386,-0.8664015531539917,-0.058610543608665466,-0.49589627981185913, 194, 120, 1, 156
1731649522121,9i,5.678281600774103,1.5s : 0.4s,1.3952547589248496,5.520985644982658,0.5071274526752579,0.8294173915434276,0.04811335727572441,-0.22061561048030853,-0.008394565433263779,0.19309020042419434,-0.5164633989334106,0.6196087002754211,0.05940775146021088,-1.0534261722013265,2.722054495443689,-0.8675897121429443,-0.05937281250953674,-0.49372369050979614, 194, 120, 1, 156
1731649522131,9i,5.678281600774103,1.5s : 0.4s,1.3952547589248496,5.532485455975105,0.3578649589008248,0.6949280892809653,-0.08701743185520172,-0.1763276904821396,0.05300681293010712,0.15106165409088135,-0.4199412763118744,0.5326863527297974,0.05908171463447179,-1.0554856202582357,2.7221064518354425,-0.8686213493347168,-0.05904734879732132,-0.4919453561306, 194, 120, 1, 156
1731649522141,9i,5.678281600774103,1.5s : 0.4s,1.3952547589248496,5.542090574423911,0.23047630934422703,0.6080112107712496,-0.191711887717247,-0.09153317660093307,0.12186390906572342,0.10053575038909912,-0.40813571214675903,0.4393124580383301,0.0574262473251095,-1.0568282190271125,2.7212092078625316,-0.8693650960922241,-0.057394690811634064,-0.4908261299133301, 194, 120, 1, 156
1731649522151,9i,5.678281600774103,1.5s : 0.4s,1.3952547589248496,5.550015420800618,0.13645637408528097,0.5653508287457178,-0.16153135895729065,-0.014666356146335602,0.1658453345298767,0.0314478874206543,-0.38143858313560486,0.41609758138656616,0.05514332164064425,-1.0574168368556873,2.720402979093506,-0.8697656989097595,-0.05511537939310074,-0.49037739634513855, 194, 120, 1, 156
1731649522161,9i,5.678281600774103,1.5s : 0.4s,1.3952547589248496,5.55668891366976,0.07269248646750057,0.49332697351335053,-0.17687809467315674,0.062027353793382645,0.17884743213653564,0.008329927921295166,-0.30667173862457275,0.38633477687835693,0.052651299297021954,-1.0572389012454455,2.719802792336188,-0.8697953820228577,-0.05262697488069534,-0.4905981123447418, 194, 120, 1, 156
1731649522171,9i,5.678281600774103,1.5s : 0.4s,1.3952547589248496,5.5625163442884125,0.06962340595851949,0.3914847739042631,-0.23041553795337677,0.13252905011177063,0.18076680600643158,0.01651585102081299,-0.2026829719543457,0.33452528715133667,0.049947028936243684,-1.0563239381042293,2.7189256342912094,-0.8694668412208557,-0.0499262660741806,-0.49146196246147156, 194, 120, 1, 156
1731649522181,9i,5.678281600774103,1.5s : 0.4s,1.3952547589248496,5.567904176609001,0.13226680815566946,0.33553558126079397,-0.3592315912246704,0.20489245653152466,0.2091987133026123,0.00948023796081543,-0.08981387317180634,0.3231527805328369,0.04666239302882677,-1.0546460707243346,2.7173638106776354,-0.8687788844108582,-0.04664546251296997,-0.4929983615875244, 194, 120, 1, 156
1731649522191,9i,5.678281600774103,1.5s : 0.4s,1.3952547589248496,5.5728673179055646,0.22171586852422684,0.32444911273494487,-0.5527634620666504,0.21658967435359955,0.25274550914764404,-0.0125235915184021,-0.0790509581565857,0.31442221999168396,0.042284265953803,-1.052510553876954,2.7146020093274417,-0.8678931593894958,-0.04227166622877121,-0.49494895339012146, 194, 120, 1, 156
1731649522201,9i,5.678281600774103,1.5s : 0.4s,1.3952547589248496,5.5773107737246885,0.3243745854336714,0.3057702267229429,-0.7631068825721741,0.20282647013664246,0.29348814487457275,-0.010487020015716553,-0.11940857768058777,0.2812952995300293,0.03643748475799472,-1.0503379518698772,2.71021185734265,-0.8670154809951782,-0.036429423838853836,-0.4969478249549866, 194, 120, 1, 156
1731649522211,9i,5.678281600774103,1.5s : 0.4s,1.3952547589248496,5.581273110792989,0.42147304108341777,0.3021239544808121,-0.8882334232330322,0.1683938354253769,0.3461317718029022,0.0067310333251953125,-0.15979352593421936,0.2563193440437317,0.02937392159022541,-1.048443654095163,2.7046102352515455,-0.8662739396095276,-0.029369696974754333,-0.4987052381038666, 194, 120, 1, 156
1731649522221,9i,5.678281600774103,1.5s : 0.4s,1.3952547589248496,5.5847463861669615,0.49871737945147965,0.293645407791307,-0.9133340120315552,0.159103125333786,0.4086465537548065,0.007933199405670166,-0.18149878084659576,0.23070085048675537,0.021383712513700446,-1.0468326588140608,2.6986295083140415,-0.8656449913978577,-0.021382082253694534,-0.5002015829086304, 194, 120, 1, 156
1731649522231,9i,5.678281600774103,1.5s : 0.4s,1.3952547589248496,5.58776953145473,0.5473373451812572,0.288266816740477,-0.8477714657783508,0.1798727661371231,0.4745621681213379,-0.006186962127685547,-0.1841164231300354,0.22172194719314575,0.012966468733172837,-1.0452312224324247,2.693235915654078,-0.8649678826332092,-0.012966105714440346,-0.5016598105430603, 194, 120, 1, 156
1731649522241,9i,5.678281600774103,1.5s : 0.4s,1.3952547589248496,5.590474003298681,0.5846002825519381,0.254091975765573,-0.8333147764205933,0.21338865160942078,0.5196614861488342,-0.011046111583709717,-0.1456705927848816,0.20789611339569092,0.004262289380696066,-1.043387932790093,2.6885031092988965,-0.8641064167022705,-0.0042622764594852924,-0.5032910108566284, 194, 120, 1, 156
1731649522251,9i,5.678281600774103,1.5s : 0.4s,1.3952547589248496,5.593130897397482,0.6207313392606414,0.22914638177876587,-0.8614355325698853,0.2503485381603241,0.5527915954589844,0.013529360294342041,-0.10486757755279541,0.20329242944717407,-0.004815709255017653,-1.0412610003065343,2.6839136662098078,-0.8630318641662598,0.0048156906850636005,-0.5051264762878418, 194, 120, 1, 156
1731649522261,9i,5.678281600774103,1.5s : 0.4s,1.3952547589248496,5.59591868609174,0.6632134134243515,0.22325493305051805,-0.9322106242179871,0.2882082760334015,0.5845921635627747,0.048930585384368896,-0.09119893610477448,0.1978163719177246,-0.014447713684895594,-1.0387979686889797,2.6790674458476365,-0.8617051839828491,0.014447211287915707,-0.5072035789489746, 194, 120, 1, 156
1731649522271,9i,5.678281600774103,1.5s : 0.4s,1.3952547589248496,5.598764142188018,0.7091871793400961,0.2512746520717278,-0.9994342923164368,0.3158622086048126,0.6191129684448242,0.06964486837387085,-0.1232554167509079,0.20759731531143188,-0.024792998877778312,-1.0361258780404223,2.6738313369383637,-0.8601722121238708,0.024790458381175995,-0.5094009041786194, 194, 120, 1, 156
1731649522281,9i,5.678281600774103,1.5s : 0.4s,1.3952547589248496,5.601662800176049,0.7531902961871806,0.26294911399101883,-1.0210177898406982,0.37797537446022034,0.6684602499008179,0.08400017023086548,-0.14413735270500183,0.20325016975402832,-0.03574653322584226,-1.0330322452086123,2.668352660754729,-0.858307421207428,0.03573892265558243,-0.5118896961212158, 194, 120, 1, 156
1731649522291,9i,5.678281600774103,1.5s : 0.4s,1.3952547589248496,5.604622048188037,0.7837890690725385,0.25052978052738806,-0.9783599972724915,0.41146320104599,0.7130693197250366,0.08947592973709106,-0.12568451464176178,0.19738954305648804,-0.047073338706530334,-1.0295308365446405,2.663376986085145,-0.8561078906059265,0.04705595597624779,-0.5146502256393433, 194, 120, 1, 156
1731649522301,9i,5.678281600774103,1.5s : 0.4s,1.3952547589248496,5.607654462322264,0.8054897448746846,0.23938327792678066,-0.9484004974365234,0.43802663683891296,0.7405986785888672,0.10080206394195557,-0.10567004978656769,0.1896764039993286,-0.058584403669950456,-1.0258164589476502,2.658879135628202,-0.8536707162857056,0.05855089798569679,-0.5175115466117859, 194, 120, 1, 156
1731649522311,9i,5.678281600774103,1.5s : 0.4s,1.3952547589248496,5.610788469034786,0.8251269059981698,0.24047512404151505,-0.9330784678459167,0.4587845504283905,0.7849733829498291,0.1339256763458252,-0.09538432955741882,0.17548227310180664,-0.07037219959157691,-1.0219736900890548,2.6547812846166727,-0.8510277271270752,0.07031413167715073,-0.5203919410705566, 194, 120, 1, 156
1731649522321,9i,5.678281600774103,1.5s : 0.4s,1.3952547589248496,5.614066423220025,0.8505870777974278,0.2670754994409069,-0.9454480409622192,0.47772547602653503,0.8541942834854126,0.15974420309066772,-0.10298991948366165,0.18762779235839844,-0.08277494920887109,-1.0180851715266606,2.6510907525967338,-0.848190188407898,0.08268045634031296,-0.5231990814208984, 194, 120, 1, 156
1731649522331,9i,5.678281600774103,1.5s : 0.4s,1.3952547589248496,5.617776953416462,0.8859372742792663,0.29124485878179296,-1.008701205253601,0.5088142156600952,0.901070237159729,0.18263745307922363,-0.1259232461452484,0.1887073516845703,-0.09630213930625688,-1.0143819949832549,2.647266230532531,-0.8452198505401611,0.09615335613489151,-0.5256977081298828, 194, 120, 1, 156
1731649522341,9i,5.678281600774103,1.5s : 0.4s,1.3952547589248496,5.621896987948204,0.9206202175131264,0.30094603167572964,-1.0026257038116455,0.5374354720115662,0.971217691898346,0.21152323484420776,-0.11893878132104874,0.17798876762390137,-0.11114130295652305,-1.0110928224313585,2.6435353850605745,-0.8421841859817505,0.11091263592243195,-0.5276591777801514, 194, 120, 1, 156
1731649522351,9i,5.678281600774103,1.5s : 0.4s,1.3952547589248496,5.626520849924071,0.9570854886459632,0.3182426449814068,-1.0257858037948608,0.5838235020637512,1.013203740119934,0.24368923902511597,-0.09322091937065125,0.18221908807754517,-0.12579424903160336,-1.0067400088611929,2.6401604268275705,-0.8384158611297607,0.12546274065971375,-0.5303941965103149, 194, 120, 1, 156
1731649522361,9i,5.678281600774103,1.5s : 0.4s,1.3952547589248496,5.631678466772268,1.0008147712210156,0.3398520419884511,-1.0959140062332153,0.6444900631904602,1.0432347059249878,0.2704508900642395,-0.0798913985490799,0.18966573476791382,-0.14048792734519125,-1.0014545622785354,2.6366634583416544,-0.8339579105377197,0.14002625644207,-0.5337666869163513, 194, 120, 1, 156
1731649522370,9i,5.678281600774103,1.5s : 0.4s,1.3952547589248496,5.6374448010909886,1.0534797470655812,0.36819160270175255,-1.158578634262085,0.7209565043449402,1.1026817560195923,0.28445881605148315,-0.07028552889823914,0.22295331954956055,-0.15579970563025095,-0.9954023771185414,2.632910980250496,-0.8288161158561707,0.15517017245292664,-0.537574291229248, 194, 120, 1, 156
1731649522380,9i,5.678281600774103,1.5s : 0.4s,1.3952547589248496,5.643805660093627,1.1145315758096421,0.40189075772079974,-1.2292747497558594,0.8020575046539307,1.1662276983261108,0.2933969497680664,-0.08950522541999817,0.2596598267555237,-0.17193988139667524,-0.9885663674399376,2.6290388120878636,-0.8229226469993591,0.17109394073486328,-0.5417795777320862, 194, 120, 1, 156
1731649522390,9i,5.678281600774103,1.5s : 0.4s,1.3952547589248496,5.650684243892767,1.1695238098013296,0.4366003593037802,-1.2077546119689941,0.8697493076324463,1.2399495840072632,0.30048733949661255,-0.12562595307826996,0.2907668352127075,-0.1888342063507302,-0.9809426545326141,2.625442466113801,-0.8162496089935303,0.18771395087242126,-0.5463515520095825, 194, 120, 1, 156
1731649522400,9i,5.678281600774103,1.5s : 0.4s,1.3952547589248496,5.658115813806678,1.2179160294883062,0.4720623166824171,-1.1959328651428223,0.9357495903968811,1.281825065612793,0.32278716564178467,-0.13834375143051147,0.31545567512512207,-0.2060524040324774,-0.9726257932071058,2.622507349886774,-0.8088864088058472,0.20459741353988647,-0.5512192249298096, 194, 120, 1, 156
1731649522410,9i,5.678281600774103,1.5s : 0.4s,1.3952547589248496,5.666176482852617,1.2774620772122605,0.49783068356619653,-1.3012166023254395,1.0321308374404907,1.306782603263855,0.3644407391548157,-0.11761997640132904,0.3180941343307495,-0.2237924043527166,-0.9635353436319437,2.619521228151744,-0.8007352948188782,0.22192904353141785,-0.556390643119812, 194, 120, 1, 156
1731649522420,9i,5.678281600774103,1.5s : 0.4s,1.3952547589248496,5.675020204215399,1.3470014740343546,0.5284646664884759,-1.4257044792175293,1.1169065237045288,1.3375160694122314,0.39004868268966675,-0.07411527633666992,0.348774790763855,-0.242469240671829,-0.9537006631727679,2.6158278586379167,-0.7917057871818542,0.24010036885738373,-0.5617417693138123, 194, 120, 1, 156
1731649522430,9i,5.678281600774103,1.5s : 0.4s,1.3952547589248496,5.684691138865745,1.4289760216935334,0.5588752493624257,-1.6124613285064697,1.1886268854141235,1.3551760911941528,0.39900892972946167,-0.0459153950214386,0.388619601726532,-0.2622124440472964,-0.943391883015183,2.611193502124226,-0.7818824648857117,0.2592180073261261,-0.5669795870780945, 194, 120, 1, 156
1731649522440,9i,5.678281600774103,1.5s : 0.4s,1.3952547589248496,5.695017531625767,1.5209558679571662,0.5746746780313697,-1.7512152194976807,1.2788041830062866,1.4158514738082886,0.39706742763519287,-0.05549740791320801,0.4117140769958496,-0.283349041504488,-0.9326391128553632,2.605540173330313,-0.7711671590805054,0.2795726954936981,-0.5719618797302246, 194, 120, 1, 156
1731649522450,9i,5.678281600774103,1.5s : 0.4s,1.3952547589248496,5.7056805509935655,1.6009765189307992,0.5565453651407576,-1.7669237852096558,1.3512053489685059,1.4683839082717896,0.36792153120040894,-0.056142836809158325,0.41379278898239136,-0.3055017564775151,-0.9212121505728001,2.599837312126159,-0.7594619989395142,0.3007717430591583,-0.5768482089042664, 194, 120, 1, 156
1731649522460,9i,5.678281600774103,1.5s : 0.4s,1.3952547589248496,5.716330480382775,1.6608347249330415,0.5039296949088512,-1.7469370365142822,1.430918574333191,1.4534435272216797,0.32717061042785645,-0.031504422426223755,0.38198429346084595,-0.32781031790980736,-0.9089964224432309,2.5945714740412953,-0.7468788623809814,0.32197073101997375,-0.581813395023346, 194, 120, 1, 156
1731649522470,9i,5.678281600774103,1.5s : 0.4s,1.3952547589248496,5.726409060862875,1.7130276046055455,0.41166485104694545,-1.8044925928115845,1.443529486656189,1.4634965658187866,0.2931821346282959,-0.008354634046554565,0.2888639569282532,-0.3502010258628653,-0.8963699639093454,2.5893558696915995,-0.7336575388908386,0.3430866301059723,-0.5865476131439209, 194, 120, 1, 156
1731649522480,9i,5.678281600774103,1.5s : 0.4s,1.3952547589248496,5.735669782101374,1.7564199750483398,0.3430557670189509,-1.808669924736023,1.4436943531036377,1.5191690921783447,0.26411575078964233,0.007376760244369507,0.218805193901062,-0.37309063798428665,-0.8837594102779204,2.5844248932985416,-0.7199415564537048,0.364495187997818,-0.5906161069869995, 194, 120, 1, 156
1731649522490,9i,5.678281600774103,1.5s : 0.4s,1.3952547589248496,5.744330043000853,1.806065495947661,0.33494661592514785,-1.9161334037780762,1.4481757879257202,1.5603864192962646,0.25796353816986084,0.021800071001052856,0.21252954006195068,-0.39679468585714084,-0.8710959275058099,2.57958152967225,-0.7055953145027161,0.38646405935287476,-0.5939534902572632, 194, 120, 1, 156
1731649522500,9i,5.678281600774103,1.5s : 0.4s,1.3952547589248496,5.752700939161929,1.8960473068238761,0.3513514553744965,-2.2809534072875977,1.4707067012786865,1.5924676656723022,0.27065175771713257,0.04382532835006714,0.21971529722213745,-0.4224891983772897,-0.8589885797380726,2.5733440132982146,-0.690604031085968,0.4100320339202881,-0.59576815366745, 194, 120, 1, 156
1731649522510,9i,5.678281600774103,1.5s : 0.4s,1.3952547589248496,5.761063476589942,1.9399401630304722,0.37250767404583884,-2.1781630516052246,1.403798222541809,1.600963830947876,0.2717897295951843,0.12149259448051453,0.22390145063400269,-0.44942322954818975,-0.847854975855052,2.5659386778975306,-0.6753999590873718,0.4344460964202881,-0.5958954691886902, 194, 120, 1, 156
1731649522520,9i,5.678281600774103,1.5s : 0.4s,1.3952547589248496,5.769459816549585,1.9395278296435925,0.39878619811694144,-1.8586254119873047,1.5261554718017578,1.6040689945220947,0.24457484483718872,0.19624373316764832,0.24637770652770996,-0.4746026148519532,-0.8354182334192696,2.5613598054369695,-0.6596139073371887,0.4569850265979767,-0.5967195630073547, 194, 120, 1, 156
1731649522530,9i,5.678281600774103,1.5s : 0.4s,1.3952547589248496,5.777874526873752,1.9731915092237482,0.4045640322728327,-2.0313479900360107,1.6941227912902832,1.5447909832000732,0.17222756147384644,0.10595139861106873,0.3504055142402649,-0.499317414783332,-0.8211690870925035,2.5572626450297418,-0.6425796747207642,0.4788264036178589,-0.5981776714324951, 194, 120, 1, 156
1731649522540,9i,5.678281600774103,1.5s : 0.4s,1.3952547589248496,5.785626098464725,1.974997430917763,0.31839823629679415,-1.8646798133850098,1.7900806665420532,1.461446762084961,0.07813024520874023,0.07933562994003296,0.29829341173171997,-0.5238218461774599,-0.8061260155954025,2.5526551174673324,-0.6248525977134705,0.500193178653717,-0.599471390247345, 194, 120, 1, 156
1731649522550,9i,5.678281600774103,1.5s : 0.4s,1.3952547589248496,5.792458852176646,1.9504009135944407,0.2950228364849654,-1.7036198377609253,1.8434782028198242,1.334950566291809,-0.005422532558441162,0.1623983383178711,0.24624347686767578,-0.5461783204244114,-0.7896383224463747,2.5492622968210887,-0.6067906022071838,0.5194253325462341,-0.6016665101051331, 194, 120, 1, 156
1731649522560,9i,5.678281600774103,1.5s : 0.4s,1.3952547589248496,5.79842516379708,1.9234401072411318,0.25498036774744265,-1.6687062978744507,1.8663688898086548,1.2315938472747803,0.012665271759033203,0.19308555126190186,0.16604983806610107,-0.5671682673379321,-0.7729863385219253,2.545903809514992,-0.5889439582824707,0.5372458696365356,-0.6037482023239136, 194, 120, 1, 156
1731649522570,9i,5.678281600774103,1.5s : 0.4s,1.3952547589248496,5.803888439980922,1.8860394077996385,0.3390688936996772,-1.5936567783355713,1.818649411201477,1.1802600622177124,0.06624376773834229,0.3227289319038391,0.08015930652618408,-0.5871739939651175,-0.7561947745557716,2.542916172971328,-0.5712333917617798,0.5540105700492859,-0.6056110262870789, 194, 120, 1, 156
1731649522580,9i,5.678281600774103,1.5s : 0.4s,1.3952547589248496,5.808947719321078,1.8570116863635426,0.4462447494760481,-1.5821523666381836,1.7640801668167114,1.228248953819275,0.07714533805847168,0.4394587278366089,0.007681131362915039,-0.6070094222095566,-0.7398967796324325,2.5403120270807564,-0.5537688732147217,0.5704137086868286,-0.6066039204597473, 194, 120, 1, 156
1731649522590,9i,5.678281600774103,1.5s : 0.4s,1.3952547589248496,5.813030101804412,1.856135705436209,0.4398933718456755,-1.7128909826278687,1.8402881622314453,1.1384814977645874,0.02622586488723755,0.42960530519485474,-0.09087169170379639,-0.6269290683197052,-0.7233400799193643,2.5379601005758343,-0.5360220670700073,0.5866605639457703,-0.6070501208305359, 194, 120, 1, 156
1731649522600,9i,5.678281600774103,1.5s : 0.4s,1.3952547589248496,5.81542731435096,1.8757311785855229,0.39259413709682467,-1.8642998933792114,1.8839187622070312,1.103907823562622,-0.12070858478546143,0.34953850507736206,-0.13184243440628052,-0.6480492138174145,-0.7073355465362259,2.5335385311200556,-0.5180701017379761,0.6036322712898254,-0.605996310710907, 194, 120, 1, 156
1731649522610,9i,5.678281600774103,1.5s : 0.4s,1.3952547589248496,5.81584918120642,1.8623063870578291,0.4366502022102947,-1.599098801612854,1.9305821657180786,1.0950133800506592,-0.28718289732933044,0.3050720691680908,-0.12296509742736816,-0.6683823961018687,-0.6904623534165475,2.530043891572564,-0.49985015392303467,0.6197172403335571,-0.6050621867179871, 194, 120, 1, 156
1731649522620,9i,5.678281600774103,1.5s : 0.4s,1.3952547589248496,5.814534947107773,1.823219164633778,0.510090192309988,-1.3612478971481323,1.964702844619751,1.018581509590149,-0.32449617981910706,0.34825628995895386,-0.18333518505096436,-0.6866525793858523,-0.6719378390360073,2.5286480056995186,-0.48142725229263306,0.6339519619941711,-0.6052542924880981, 194, 120, 1, 156
1731649522630,9i,5.678281600774103,1.5s : 0.4s,1.3952547589248496,5.811776811997599,1.738730938816182,0.5813135919445848,-0.9616491794586182,1.9547165632247925,0.867250382900238,-0.27067816257476807,0.4072933793067932,-0.31427842378616333,-0.7016603084119262,-0.652147763826091,2.528947251958549,-0.46352893114089966,0.6454866528511047,-0.6070319414138794, 194, 120, 1, 156
1731649522640,9i,5.678281600774103,1.5s : 0.4s,1.3952547589248496,5.807981520365107,1.6525416366192691,0.6496137172533073,-0.7448590993881226,1.9576188325881958,0.7389781475067139,-0.23895370960235596,0.46914905309677124,-0.380523681640625,-0.7132089924020903,-0.6316076683043812,2.5307034414461547,-0.44653210043907166,0.654263973236084,-0.6103668212890625, 194, 120, 1, 156
1731649522650,9i,5.678281600774103,1.5s : 0.4s,1.3952547589248496,5.803093614061848,1.5816114036751854,0.6382879561089415,-0.45703384280204773,2.057931661605835,0.6381393671035767,-0.2693006098270416,0.41077858209609985,-0.4076145887374878,-0.7221896360139171,-0.6098266207172288,2.5333841524195404,-0.4297502636909485,0.6610292792320251,-0.6151056885719299, 194, 120, 1, 156
1731649522660,9i,5.678281600774103,1.5s : 0.4s,1.3952547589248496,5.796855688946527,1.526899529052505,0.6721676102206267,-0.20656806230545044,2.1423544883728027,0.46933040022850037,-0.33799558877944946,0.36683279275894165,-0.4505574107170105,-0.728021079356851,-0.5863575416521113,2.53713705173732,-0.41305720806121826,0.6653937101364136,-0.6217997074127197, 194, 120, 1, 156
1731649522670,9i,5.678281600774103,1.5s : 0.4s,1.3952547589248496,5.7891656598919,1.5009031393217318,0.7070806397254993,-0.29777252674102783,2.169593572616577,0.3071290850639343,-0.37066274881362915,0.31907713413238525,-0.5106485486030579,-0.7319877655222786,-0.5631401069069629,2.5396759654201646,-0.39709848165512085,0.66834956407547,-0.6289846301078796, 194, 120, 1, 156
1731649522680,9i,5.678281600774103,1.5s : 0.4s,1.3952547589248496,5.780563317081033,1.4656148471316126,0.6725663893533685,-0.11148788779973984,2.0963854789733887,0.2784830629825592,-0.35017263889312744,0.28926974534988403,-0.4960319399833679,-0.7357163339354261,-0.5408334566159747,2.541237336476097,-0.3816846013069153,0.6711183786392212,-0.6355445384979248, 194, 120, 1, 156
1731649522690,9i,5.678281600774103,1.5s : 0.4s,1.3952547589248496,5.771766783343657,1.4136027946776106,0.6679004411163301,0.19208018481731415,2.011448383331299,0.0898384302854538,-0.28419631719589233,0.3507233262062073,-0.49225664138793945,-0.7361811720300728,-0.5186263812012035,2.543859144408505,-0.36732345819473267,0.671462893486023,-0.6435922980308533, 194, 120, 1, 156
1731649522700,9i,5.678281600774103,1.5s : 0.4s,1.3952547589248496,5.762824040549953,1.3610643269666651,0.6741680220816177,0.3115168511867523,1.9163191318511963,-0.11650435626506805,-0.20946907997131348,0.31724393367767334,-0.5567598342895508,-0.7341672383095111,-0.49828283301742443,2.545256450831389,-0.35480090975761414,0.6699691414833069,-0.6521177291870117, 194, 120, 1, 156
1731649522710,9i,5.678281600774103,1.5s : 0.4s,1.3952547589248496,5.753420430176335,1.3083467861389368,0.7016872978874586,0.3297920823097229,1.7953076362609863,-0.24466772377490997,-0.2325698733329773,0.283363938331604,-0.5983152985572815,-0.7308088898570818,-0.48026102303932033,2.5446854258916165,-0.34402918815612793,0.6674721837043762,-0.660397469997406, 194, 120, 1, 156
1731649522720,9i,5.678281600774103,1.5s : 0.4s,1.3952547589248496,5.7436277503595194,1.2405692360741414,0.7822981747549786,0.6066197156906128,1.5803780555725098,-0.2505809962749481,-0.2358720898628235,0.3664742112159729,-0.6496548652648926,-0.726295223735946,-0.4644376269778311,2.5438949598520084,-0.334882915019989,0.6641043424606323,-0.6684451103210449, 194, 120, 1, 156
1731649522730,9i,5.678281600774103,1.5s : 0.4s,1.3952547589248496,5.733718680845755,1.1680560068567993,0.7957446901841337,0.792246401309967,1.3644567728042603,-0.30572953820228577,-0.1746007800102234,0.371543824672699,-0.6816739439964294,-0.7190276135577278,-0.4496891490800353,2.5445997455141187,-0.3270776867866516,0.6586533188819885,-0.6776400208473206, 194, 120, 1, 156
1731649522740,9i,5.678281600774103,1.5s : 0.4s,1.3952547589248496,5.723835424124079,1.1057915700190417,0.7433389089549964,0.7833825945854187,1.2396142482757568,-0.38116759061813354,-0.1235666275024414,0.2889605760574341,-0.673636257648468,-0.7107467406117045,-0.43676101550863616,2.544797472033835,-0.3205862045288086,0.6523998975753784,-0.6867305636405945, 194, 120, 1, 156
1731649522750,9i,5.678281600774103,1.5s : 0.4s,1.3952547589248496,5.71388289457151,1.0595991082075207,0.7342343976113788,0.9653102159500122,1.0919865369796753,-0.45048001408576965,-0.17819485068321228,0.25373971462249756,-0.6655545830726624,-0.7012068187038517,-0.4253812233420467,2.5445908666779777,-0.31530487537384033,0.6451402306556702,-0.6959719061851501, 194, 120, 1, 156
1731649522760,9i,5.678281600774103,1.5s : 0.4s,1.3952547589248496,5.70363095862035,1.0249251695468022,0.6915317732180336,1.0675092935562134,0.934847891330719,-0.5363432765007019,-0.2669074237346649,0.21794438362121582,-0.5995638966560364,-0.6900334598305407,-0.41537907900048837,2.544190623533699,-0.3112175464630127,0.6365630030632019,-0.7056424021720886, 194, 120, 1, 156
1731649522770,9i,5.678281600774103,1.5s : 0.4s,1.3952547589248496,5.693058304305333,1.0290684116491202,0.6250723756926597,1.3088096380233765,0.8140667080879211,-0.6658856868743896,-0.3081165552139282,0.1469806432723999,-0.5236185193061829,-0.6767252338795997,-0.40728825221056963,2.543255565886933,-0.3088268041610718,0.6262432932853699,-0.7158529162406921, 194, 120, 1, 156
1731649522780,9i,5.678281600774103,1.5s : 0.4s,1.3952547589248496,5.682751063839079,1.084210923350904,0.5593335204535467,1.7058792114257812,0.6706637740135193,-0.683182418346405,-0.29644137620925903,0.17696213722229004,-0.44006919860839844,-0.6604710412205834,-0.4003453448655449,2.542707015986473,-0.3077761232852936,0.6134889125823975,-0.7272586822509766, 194, 120, 1, 156
1731649522790,9i,5.678281600774103,1.5s : 0.4s,1.3952547589248496,5.673389480313673,1.266309166358288,0.5033626882409663,2.6123430728912354,0.4452255070209503,-0.6752657294273376,-0.23510819673538208,0.25046008825302124,-0.3679237365722656,-0.6385368103970854,-0.3931899259303302,2.545080624911554,-0.3076469302177429,0.5960211753845215,-0.7416954636573792, 194, 120, 1, 156
1731649522800,9i,5.678281600774103,1.5s : 0.4s,1.3952547589248496,5.665440194351192,1.4426312079618824,0.45260027497725364,2.569080114364624,0.7911403179168701,-0.744437038898468,-0.16643917560577393,0.30109477043151855,-0.29408663511276245,-0.611415717973169,-0.3818757816049146,2.5493139933616793,-0.3051489591598511,0.5740272998809814,-0.759853184223175, 194, 120, 1, 156
1731649522810,9i,5.678281600774103,1.5s : 0.4s,1.3952547589248496,5.658694782566158,1.5896257669001328,0.4306553136721775,2.582636594772339,0.8700010180473328,-0.9547106027603149,-0.14172038435935974,0.3019571900367737,-0.2723989486694336,-0.5844143457638131,-0.3719346003790214,2.551104614339874,-0.30310380458831787,0.5517110228538513,-0.7770090103149414, 194, 120, 1, 156
1731649522820,9i,5.678281600774103,1.5s : 0.4s,1.3952547589248496,5.653171326527233,1.7362779309750265,0.4349857069504341,2.807616949081421,0.8197477459907532,-1.046447515487671,-0.258906751871109,0.338762104511261,-0.086139976978302,-0.5557924045979119,-0.3635642160216622,2.551504998151829,-0.3020825684070587,0.5276166200637817,-0.7939563989639282, 194, 120, 1, 156
1731649522830,9i,5.678281600774103,1.5s : 0.4s,1.3952547589248496,5.64854118520526,1.8171970536275228,0.3592770997215917,2.6408345699310303,0.8025720715522766,-1.1697604656219482,-0.2915067672729492,0.20911872386932373,0.019318342208862305,-0.5261942127065682,-0.3558593609495617,2.550806532907754,-0.3012666702270508,0.5022460222244263,-0.8105475902557373, 194, 120, 1, 156
1731649522840,9i,5.678281600774103,1.5s : 0.4s,1.3952547589248496,5.644718090740763,1.8519610997141864,0.19229806280152514,2.4735732078552246,0.771447479724884,-1.2889902591705322,-0.18160277605056763,0.05898776650428772,0.02279078960418701,-0.4982715425691356,-0.3496804608957906,2.5476815175556045,-0.30094113945961,0.4779079556465149,-0.825250506401062, 194, 120, 1, 156
1731649522850,9i,5.678281600774103,1.5s : 0.4s,1.3952547589248496,5.641971890980718,1.9105289745584635,0.22377475729926866,2.5845658779144287,0.8770127892494202,-1.3792082071304321,-0.14411324262619019,0.16433700919151306,0.047956883907318115,-0.4700111873814538,-0.34361337904349004,2.5433287534879376,-0.3003599941730499,0.45289626717567444,-0.8394455313682556, 194, 120, 1, 156
1731649522860,9i,5.678281600774103,1.5s : 0.4s,1.3952547589248496,5.640229646444193,1.95155474756198,0.3195071242750636,2.4737207889556885,0.9785993099212646,-1.523715615272522,-0.10592341423034668,0.28626781702041626,0.09442335367202759,-0.4412278397920151,-0.33685016408874724,2.5377673489086674,-0.2988617420196533,0.42705002427101135,-0.8534107804298401, 194, 120, 1, 156
1731649522870,9i,5.678281600774103,1.5s : 0.4s,1.3952547589248496,5.638821918959286,1.9621734244948157,0.29846674048591826,2.298238754272461,0.9948970675468445,-1.618186593055725,-0.0954199731349945,0.2756271958351135,0.0633014440536499,-0.41370046329739807,-0.3302042295720955,2.530081898810324,-0.2968834936618805,0.402000367641449,-0.8661731481552124, 194, 120, 1, 156
1731649522880,9i,5.678281600774103,1.5s : 0.4s,1.3952547589248496,5.637730123180023,1.9602176350038243,0.289103987356108,2.1639604568481445,0.9789093136787415,-1.7052518129348755,-0.09938627481460571,0.2574809789657593,0.08606410026550293,-0.3872744354950838,-0.32399429047968964,2.521030217393071,-0.2947787344455719,0.3776661157608032,-0.8777663707733154, 194, 120, 1, 156
1731649522890,9i,5.678281600774103,1.5s : 0.4s,1.3952547589248496,5.637018277068735,1.9393744715938155,0.26536958967464674,1.9814404249191284,0.9760748744010925,-1.8159396648406982,-0.07004839181900024,0.2118147611618042,0.14369672536849976,-0.3620854411042644,-0.31823988405934306,2.510438935124981,-0.29260721802711487,0.354225218296051,-0.8882035613059998, 194, 120, 1, 156
