timestamp,club,max_speed,tempo,w.rotation,l.speed,t.spped,acc,rotation.x,rotation.y,rotation.z,userAcceleration.x,userAcceleration.y,userAcceleration.z,pitch,roll,yaw,gravity.x,gravity.y,gravity.z,impactIndex,minDownIndex,StartIndex,endIndex
1731649590365,9i,6.40959767402758,1.6s : 0.4s,-4.8421337014705585,0.0004250240135479541,0.12318943971974777,0.04254392590481051,0.12571953237056732,-0.023995675146579742,0.05547752603888512,-0.01885455846786499,-0.037988752126693726,0.003368377685546875,-0.21096743242190696,2.1091211174117137,3.021551222759268,0.8395332098007202,0.20940597355365753,0.5013312697410583, 204, 129, 3, 162
1731649590375,9i,6.40959767402758,1.6s : 0.4s,-4.8421337014705585,0.0011954169513270789,0.10939448336620346,0.03852520864420747,0.10394812375307083,-0.02871754951775074,0.04829467833042145,-0.02087336778640747,-0.03225107491016388,-0.0028917789459228516,-0.21112310432197426,2.108873283643797,3.020352288373169,0.8396294713020325,0.20955820381641388,0.5011065006256104, 204, 129, 3, 162
1731649590385,9i,6.40959767402758,1.6s : 0.4s,-4.8421337014705585,0.0019448637146250616,0.09344506901790267,0.05555785466324079,0.07705844938755035,-0.016697904095053673,0.034257154911756516,-0.013947904109954834,-0.053638800978660583,-0.0038743019104003906,-0.2113987535595852,2.108770261641867,3.019357372577155,0.8396312594413757,0.209827721118927,0.5009902715682983, 204, 129, 3, 162
1731649590395,9i,6.40959767402758,1.6s : 0.4s,-4.8421337014705585,0.0028271598747089096,0.07153785970989647,0.08493884885399365,0.013551849871873856,-0.0029546613804996014,0.04523840174078941,-0.011610329151153564,-0.0810617208480835,-0.022556722164154053,-0.21118324310327766,2.1086403972440433,3.0187632630960235,0.8397352695465088,0.2096170037984848,0.5009044408798218, 204, 129, 3, 162
1731649590405,9i,6.40959767402758,1.6s : 0.4s,-4.8421337014705585,0.0037724374850044893,0.04937532625896556,0.06294865010553734,-0.03990578278899193,-0.004528323654085398,0.04547915235161781,-0.00860905647277832,-0.05838015675544739,-0.021912872791290283,-0.21027110484814,2.1086839369319406,3.0186695931438767,0.8398774862289429,0.20872503519058228,0.5010388493537903, 204, 129, 3, 162
1731649590415,9i,6.40959767402758,1.6s : 0.4s,-4.8421337014705585,0.004735706206736207,0.03393403274232002,0.046401394399454246,-0.13176873326301575,-0.0005967877805233002,0.044632069766521454,-0.007346093654632568,-0.04574181139469147,0.0026097893714904785,-0.2090188589679694,2.1089407299483707,3.0191755019879465,0.8399723768234253,0.20750021934509277,0.5013880133628845, 204, 129, 3, 162
1731649590425,9i,6.40959767402758,1.6s : 0.4s,-4.8421337014705585,0.0057161740049690235,0.05285233357741769,0.05308059746906182,-0.18894200026988983,0.008184453472495079,0.056918028742074966,-0.009199440479278564,-0.05141761898994446,0.009441852569580078,-0.20728731543851037,2.109326281200069,3.0203748010390727,0.8400862216949463,0.20580604672431946,0.5018953680992126, 204, 129, 3, 162
1731649590435,9i,6.40959767402758,1.6s : 0.4s,-4.8421337014705585,0.006662253191789355,0.08563714156047245,0.03285930099228964,-0.2415214478969574,0.01328769139945507,0.0711662769317627,-0.012184321880340576,-0.029866665601730347,0.0062656402587890625,-0.20502127181221277,2.1098268032513694,3.021961037043515,0.8402330279350281,0.20358797907829285,0.5025538802146912, 204, 129, 3, 162
1731649590445,9i,6.40959767402758,1.6s : 0.4s,-4.8421337014705585,0.007475777103428836,0.11335169023009867,0.014836739794253264,-0.246908500790596,0.033421456813812256,0.09721092134714127,-0.007581591606140137,-0.012568295001983643,-0.002164781093597412,-0.2025646660323454,2.110603407276976,3.0237086238526687,0.8402690291404724,0.20118221640586853,0.5034618377685547, 204, 129, 3, 162
1731649590455,9i,6.40959767402758,1.6s : 0.4s,-4.8421337014705585,0.008147709489275408,0.12137165728865776,0.010682839305045317,-0.1833365112543106,0.011334972456097603,0.10017858445644379,0.0024001598358154297,0.0029219239950180054,-0.009991228580474854,-0.20030387266932093,2.1111966281043557,3.0250823552545234,0.8403581380844116,0.19896714389324188,0.5041929483413696, 204, 129, 3, 162
1731649590465,9i,6.40959767402758,1.6s : 0.4s,-4.8421337014705585,0.008729283651046568,0.1218869036993364,0.02237027753572155,-0.15269684791564941,0.0011965851299464703,0.11704624444246292,0.014910876750946045,0.016431152820587158,-0.002848207950592041,-0.19785466493372225,2.111442368751361,3.026026751711618,0.8406494855880737,0.19656629860401154,0.504648745059967, 204, 129, 3, 162
1731649590475,9i,6.40959767402758,1.6s : 0.4s,-4.8421337014705585,0.00920066194244561,0.10740782481504697,0.04458528092634143,-0.04539228975772858,0.004404362756758928,0.13303357362747192,0.02832341194152832,0.033081114292144775,-0.009553611278533936,-0.19512932053141874,2.1111975356087256,3.0261858822038894,0.8412293195724487,0.1938934028148651,0.5047166347503662, 204, 129, 3, 162
1731649590485,9i,6.40959767402758,1.6s : 0.4s,-4.8421337014705585,0.009418593655075037,0.10146490402626054,0.05454940859171163,0.044519223272800446,0.06819372624158859,0.15640920400619507,0.027308166027069092,0.03899812698364258,-0.026627957820892334,-0.19345322395206027,2.111035710584132,3.0253441168030104,0.8415883779525757,0.19224883615970612,0.5047469139099121, 204, 129, 3, 162
1731649590495,9i,6.40959767402758,1.6s : 0.4s,-4.8421337014705585,0.009552882834061131,0.12999470313429126,0.038295659363889005,0.008095566183328629,0.5642319917678833,-0.28753411769866943,0.00020766258239746094,0.026296719908714294,-0.02783876657485962,-0.1924799623089281,2.1111999051372075,3.024211544708188,0.8416656255722046,0.1912936419248581,0.5049811601638794, 204, 129, 3, 162
1731649590505,9i,6.40959767402758,1.6s : 0.4s,-4.8421337014705585,0.009566164864956588,0.24460959788783157,0.046004921900164905,0.03446192294359207,0.7041879892349243,-0.4166633188724518,0.016630172729492188,0.032728925347328186,-0.027725577354431152,-0.19006245235937783,2.1101145802579606,3.021881183797146,0.842607319355011,0.18892022967338562,0.5043032169342041, 204, 129, 3, 162
1731649590515,9i,6.40959767402758,1.6s : 0.4s,-4.8421337014705585,0.009578707385809678,0.21847773565858647,0.04897610855854301,0.10790225118398666,0.25457248091697693,0.0005007258150726557,0.023055851459503174,0.01930268108844757,-0.03865867853164673,-0.18903548912134155,2.110205085633019,3.020175450421725,0.842727780342102,0.18791165947914124,0.504478931427002, 204, 129, 3, 162
1731649590525,9i,6.40959767402758,1.6s : 0.4s,-4.8421337014705585,0.00966887405520439,0.16216943910162135,0.04067626218334906,0.1278485208749771,0.0641639232635498,0.15253552794456482,-0.004571855068206787,-0.018494725227355957,-0.03593885898590088,-0.1887262102131327,2.110527395745368,3.018571423864575,0.842615008354187,0.18760786950588226,0.5047804117202759, 204, 129, 3, 162
1731649590535,9i,6.40959767402758,1.6s : 0.4s,-4.8421337014705585,0.009946374937178247,0.12737683706953706,0.052680985428219106,0.09340094029903412,0.046636324375867844,0.11323785781860352,-0.005309879779815674,-0.051993370056152344,-0.006616711616516113,-0.18828148884589516,2.1106276139840308,3.016891834309758,0.8426361083984375,0.18717102706432343,0.5049078464508057, 204, 129, 3, 162
1731649590545,9i,6.40959767402758,1.6s : 0.4s,-4.8421337014705585,0.010520270513723343,0.11101454659971421,0.07158866373722587,0.08043348044157028,0.04229244217276573,0.12578986585140228,0.007817447185516357,-0.06714434921741486,0.02356821298599243,-0.1878920958721499,2.110760704870978,3.015537955378354,0.8426311016082764,0.18678849935531616,0.5050572156906128, 204, 129, 3, 162
1731649590555,9i,6.40959767402758,1.6s : 0.4s,-4.8421337014705585,0.011200205149187122,0.10681314207623084,0.0605201021416576,0.08990241587162018,0.03790408745408058,0.11344348639249802,0.006544709205627441,-0.05483631789684296,0.024755358695983887,-0.18730783176102583,2.1109332102594394,3.0141957666810844,0.8426374197006226,0.18621449172496796,0.5052586197853088, 204, 129, 3, 162
1731649590565,9i,6.40959767402758,1.6s : 0.4s,-4.8421337014705585,0.011860042802256237,0.10381534559375767,0.026849346230026137,0.11600299179553986,0.03728490322828293,0.09541362524032593,-0.00781404972076416,-0.025575459003448486,0.0023924708366394043,-0.18698731396536525,2.111033949853631,3.012738950709453,0.8426377773284912,0.18589957058429718,0.5053742527961731, 204, 129, 3, 162
1731649590575,9i,6.40959767402758,1.6s : 0.4s,-4.8421337014705585,0.012482876613451783,0.09980193023068328,0.030731185667549628,0.10218018293380737,0.03751268982887268,0.07489107549190521,-0.021609842777252197,-0.01810315251350403,-0.012235045433044434,-0.1868676814226423,2.1111586142440757,3.011348917036954,0.8425939083099365,0.1857820302248001,0.505490779876709, 204, 129, 3, 162
1731649590585,9i,6.40959767402758,1.6s : 0.4s,-4.8421337014705585,0.013052356672001114,0.09695785458284648,0.03752922382324796,0.10706096142530441,0.0358109325170517,0.061345431953668594,-0.030265092849731445,-0.009665682911872864,-0.019976019859313965,-0.18685276026140651,2.1113074203944007,3.0100995901379304,0.8425209522247314,0.18576736748218536,0.5056175589561462, 204, 129, 3, 162
1731649590594,9i,6.40959767402758,1.6s : 0.4s,-4.8421337014705585,0.013553991809649153,0.09432591788768072,0.033195370565629066,0.11322718113660812,0.029051030054688454,0.05124509707093239,-0.02671736478805542,0.0017581433057785034,-0.01962202787399292,-0.18696654373127472,2.1114072317740638,3.0088289360129026,0.8424521684646606,0.1858791708946228,0.5056906342506409, 204, 129, 3, 162
1731649590604,9i,6.40959767402758,1.6s : 0.4s,-4.8421337014705585,0.014015623115443573,0.0887991004477871,0.024193210255406786,0.10016677528619766,0.02649625949561596,0.04208968207240105,-0.013832390308380127,-0.003457888960838318,-0.019545316696166992,-0.18702613174692023,2.1111600262576884,3.0075769556059515,0.8425675630569458,0.18593771755695343,0.5054765939712524, 204, 129, 3, 162
1731649590614,9i,6.40959767402758,1.6s : 0.4s,-4.8421337014705585,0.014458375935186585,0.0759114917070349,0.015560477852164483,0.06349097937345505,0.01933448761701584,0.03307964280247688,-0.004815876483917236,-0.010649770498275757,-0.010272204875946045,-0.18662747217539466,2.1111923078871437,3.006652031284105,0.8426148295402527,0.18554599583148956,0.505541980266571, 204, 129, 3, 162
1731649590624,9i,6.40959767402758,1.6s : 0.4s,-4.8421337014705585,0.014869219941539516,0.0624430131158729,0.015271232047563749,0.03443509340286255,0.016414064913988113,0.029131239280104637,-0.0074530839920043945,-0.00893104076385498,0.009894371032714844,-0.18590331266807594,2.111424812219298,3.00612301786312,0.8426123261451721,0.18483436107635498,0.5058069229125977, 204, 129, 3, 162
1731649590634,9i,6.40959767402758,1.6s : 0.4s,-4.8421337014705585,0.015225741830329747,0.06168004313884693,0.013089262194069473,0.021521758288145065,0.09100805222988129,0.03279764577746391,-0.007768690586090088,0.0031112730503082275,0.01006460189819336,-0.18510840858191863,2.1118937494899916,3.0057364912105276,0.8425009250640869,0.18405309319496155,0.5062776207923889, 204, 129, 3, 162
1731649590644,9i,6.40959767402758,1.6s : 0.4s,-4.8421337014705585,0.015500994983456582,0.14237765841797861,0.022863508431658113,-0.03222668915987015,0.5440987944602966,-0.2893761098384857,-0.012652695178985596,0.01896163821220398,0.0017622709274291992,-0.18494120796906566,2.1120942168111987,3.005474777779523,0.8424257636070251,0.1838887482881546,0.5064623951911926, 204, 129, 3, 162
1731649590654,9i,6.40959767402758,1.6s : 0.4s,-4.8421337014705585,0.015687557498755018,0.20171216553850996,0.03017224052899096,-0.07595033943653107,0.48032739758491516,-0.18233057856559753,0.002664029598236084,0.02979855239391327,0.003913223743438721,-0.1840997417293138,2.1108417982067693,3.004536224068947,0.8431918025016785,0.18306156992912292,0.505486249923706, 204, 129, 3, 162
1731649590664,9i,6.40959767402758,1.6s : 0.4s,-4.8421337014705585,0.015613676696973399,0.16212652703014246,0.04428580337299889,-0.04062856361269951,0.10142562538385391,-0.020989885553717613,0.0019901394844055176,0.04423600435256958,0.0006690621376037598,-0.18383320995551106,2.110949751336697,3.0044115063933376,0.8431790471076965,0.1827995330095291,0.5056023597717285, 204, 129, 3, 162
1731649590674,9i,6.40959767402758,1.6s : 0.4s,-4.8421337014705585,0.01528572923837538,0.11503713679552537,0.04475389378091139,-0.03996497392654419,0.015292519703507423,0.03914812207221985,-0.0028643012046813965,0.044269859790802,-0.005906462669372559,-0.1837832152156701,2.1114135534893848,3.0046860930355357,0.8429520130157471,0.1827503740787506,0.505997896194458, 204, 129, 3, 162
1731649590684,9i,6.40959767402758,1.6s : 0.4s,-4.8421337014705585,0.014929393263485883,0.0866907648242188,0.036643525428852824,-0.06658938527107239,0.017816130071878433,-0.003066711826249957,-0.008393585681915283,0.030756548047065735,-0.01806461811065674,-0.18343573501637364,2.111479728938473,3.005055987949413,0.8429730534553528,0.18240873515605927,0.5060864090919495, 204, 129, 3, 162
1731649590694,9i,6.40959767402758,1.6s : 0.4s,-4.8421337014705585,0.014570560534475236,0.06823441445720878,0.03265687372299306,-0.07238223403692245,0.012937752529978752,0.002189735881984234,0.014476895332336426,0.026293307542800903,-0.012866735458374023,-0.1829780268233157,2.1116161615575892,3.005642807656445,0.8429756760597229,0.18195869028568268,0.5062444806098938, 204, 129, 3, 162
1731649590704,9i,6.40959767402758,1.6s : 0.4s,-4.8421337014705585,0.014198055376863979,0.06861182747552752,0.030759489217598603,-0.08187640458345413,0.06236601993441582,-0.0678306296467781,0.00719684362411499,0.029054924845695496,-0.007082581520080566,-0.1824816501370505,2.1121572846498795,3.0064368925143,0.842778742313385,0.1814705729484558,0.5067469477653503, 204, 129, 3, 162
1731649590714,9i,6.40959767402758,1.6s : 0.4s,-4.8421337014705585,0.013800095995993302,0.0800067527386219,0.03716821996172264,-0.07920610904693604,0.095905601978302,-0.12122597545385361,0.00448918342590332,0.035873427987098694,-0.008626759052276611,-0.18222008835710982,2.112765613725353,3.0072128957969886,0.8425108194351196,0.1812133491039276,0.5072839260101318, 204, 129, 3, 162
1731649590724,9i,6.40959767402758,1.6s : 0.4s,-4.8421337014705585,0.013394426678384542,0.08932468283150201,0.03544508963996503,-0.0758979320526123,0.08349554240703583,-0.13361074030399323,0.0035116076469421387,0.031527385115623474,-0.01581287384033203,-0.18255869852313064,2.1132913683835586,3.0080618187019215,0.8421914577484131,0.18154634535312653,0.5076951384544373, 204, 129, 3, 162
1731649590734,9i,6.40959767402758,1.6s : 0.4s,-4.8421337014705585,0.013002604018523493,0.07561171285617183,0.025954388197119278,-0.062211621552705765,-0.0061958166770637035,-0.058571480214595795,-0.004715979099273682,0.020229727029800415,-0.015561103820800781,-0.18310806162730367,2.1136878842428106,3.0089384498787903,0.8419046998023987,0.18208655714988708,0.5079774856567383, 204, 129, 3, 162
1731649590744,9i,6.40959767402758,1.6s : 0.4s,-4.8421337014705585,0.012612848920149305,0.038457685505644545,0.029117898762535267,-0.02685948833823204,-0.17631055414676666,0.10075905174016953,-0.013091504573822021,0.022825047373771667,-0.012469232082366943,-0.18408446318752877,2.113930938018827,3.0096906478298013,0.8416286110877991,0.18304654955863953,0.5080900192260742, 204, 129, 3, 162
1731649590754,9i,6.40959767402758,1.6s : 0.4s,-4.8421337014705585,0.012213338251578748,0.09672842785107649,0.03469702506872087,0.015545759350061417,-0.36578115820884705,0.30266115069389343,-0.010318994522094727,0.03067237138748169,-0.012514293193817139,-0.18513558282505818,2.1138671802590907,3.010015255623039,0.8414956331253052,0.18407979607582092,0.5079365372657776, 204, 129, 3, 162
1731649590764,9i,6.40959767402758,1.6s : 0.4s,-4.8421337014705585,0.011800364685780875,0.213694126826505,0.0466917137926225,0.0286818016320467,-0.5343997478485107,0.5064374208450317,-0.010467827320098877,0.03800204396247864,-0.025027692317962646,-0.18590633221141412,2.1134845358889263,3.0100648385450848,0.8415684103965759,0.18483732640743256,0.5075411796569824, 204, 129, 3, 162
1731649590774,9i,6.40959767402758,1.6s : 0.4s,-4.8421337014705585,0.011377827070277003,0.3303876193383831,0.05270328161268139,0.04972117394208908,-0.6282318830490112,0.6452109813690186,-0.016075432300567627,0.03959563374519348,-0.030844807624816895,-0.18648960337130074,2.112866048836388,3.009812918125526,0.841789722442627,0.1854105144739151,0.506964921951294, 204, 129, 3, 162
1731649590784,9i,6.40959767402758,1.6s : 0.4s,-4.8421337014705585,0.011008820303705652,0.4171434161721974,0.03612146326912322,0.04097481817007065,-0.60980224609375,0.6954895853996277,-0.014791548252105713,0.017501816153526306,-0.027922332286834717,-0.1867060553019586,2.112772232970423,3.0094759035211953,0.8418027758598328,0.18562321364879608,0.5068652033805847, 204, 129, 3, 162
1731649590794,9i,6.40959767402758,1.6s : 0.4s,-4.8421337014705585,0.010730815965608908,0.44634709832847763,0.025550176118005943,0.012251429259777069,-0.46608930826187134,0.6133978962898254,-0.010979056358337402,-0.0039960891008377075,-0.022722303867340088,-0.186983784719849,2.112680798605774,3.0090626293377385,0.8418046832084656,0.185896098613739,0.5067614912986755, 204, 129, 3, 162
1731649590804,9i,6.40959767402758,1.6s : 0.4s,-4.8421337014705585,0.010535277974416592,0.39844764193494686,0.018232079567515762,-0.005687624216079712,-0.20492666959762573,0.3863987624645233,-0.007358551025390625,-0.007174953818321228,-0.015059232711791992,-0.18723739509601317,2.1125791054503202,3.0085884763654223,0.8418159484863281,0.18614529073238373,0.5066516399383545, 204, 129, 3, 162
1731649590814,9i,6.40959767402758,1.6s : 0.4s,-4.8421337014705585,0.010398606169177082,0.27736099659738783,0.007613294720918134,-0.0171462744474411,0.10107240825891495,0.06487835198640823,-0.0012201666831970215,-0.0030648261308670044,-0.006861507892608643,-0.18748025171024174,2.1123304363586217,3.008011980037533,0.8419030904769897,0.18638388812541962,0.5064188838005066, 204, 129, 3, 162
1731649590824,9i,6.40959767402758,1.6s : 0.4s,-4.8421337014705585,0.010309331748320718,0.15885208785328947,0.005963593063346026,-0.0014091224875301123,0.3850862979888916,-0.2239971160888672,0.000545203685760498,-0.001799359917640686,-0.00565946102142334,-0.1877453768994409,2.112056692911139,3.007362484134664,0.8419994711875916,0.18664436042308807,0.5061630606651306, 204, 129, 3, 162
1731649590834,9i,6.40959767402758,1.6s : 0.4s,-4.8421337014705585,0.010263818879718696,0.07427294982610086,0.01954077077186739,0.04085930436849594,0.5830034613609314,-0.47177746891975403,0.004864513874053955,0.008407339453697205,-0.016955673694610596,-0.18808853008977527,2.1117391205287084,3.0065067426409735,0.8421051502227783,0.18698148429393768,0.5058625936508179, 204, 129, 3, 162
1731649590844,9i,6.40959767402758,1.6s : 0.4s,-4.8421337014705585,0.010249697930671113,0.22393442072996744,0.020727575939137398,0.059289976954460144,0.6798972487449646,-0.6204689145088196,0.004014015197753906,0.012964114546775818,-0.0156669020652771,-0.1885602131709365,2.1114766363422075,3.0055515956379457,0.8421622514724731,0.18744482100009918,0.5055961012840271, 204, 129, 3, 162
1731649590854,9i,6.40959767402758,1.6s : 0.4s,-4.8421337014705585,0.010257131147590788,0.3438671615127187,0.004908712537792722,0.06413926184177399,0.6592888236045837,-0.6670576930046082,-0.0025998950004577637,0.002082422375679016,-0.003605484962463379,-0.18896636498754446,2.1113338251012608,3.0047267037257193,0.8421691656112671,0.18784375488758087,0.5054366588592529, 204, 129, 3, 162
1731649590864,9i,6.40959767402758,1.6s : 0.4s,-4.8421337014705585,0.010257507161100323,0.4016714993195826,0.01954380415623916,0.06413526833057404,0.5336611270904541,-0.5995068550109863,-0.005776822566986084,-0.007708549499511719,0.01700490713119507,-0.18930281444000532,2.1112505959582415,3.004182460649864,0.842156708240509,0.18817420303821564,0.5053338408470154, 204, 129, 3, 162
1731649590874,9i,6.40959767402758,1.6s : 0.4s,-4.8421337014705585,0.010242231672598832,0.3986269911714595,0.029279729094618585,0.08519787341356277,0.3380481004714966,-0.4570893943309784,-0.007126510143280029,-0.015158697962760925,0.024015188217163086,-0.18966412990630985,2.1112119649478984,3.003770831308897,0.842117965221405,0.18852905929088593,0.5052663683891296, 204, 129, 3, 162
1731649590884,9i,6.40959767402758,1.6s : 0.4s,-4.8421337014705585,0.010217884925213588,0.33282896625345004,0.02442168176674165,0.0973256453871727,0.12029208242893219,-0.24249587953090668,-0.013195693492889404,-0.013505905866622925,0.015488147735595703,-0.19006318487022827,2.111272977124085,3.0034363557793533,0.8420225977897644,0.18892094492912292,0.505279004573822, 204, 129, 3, 162
1731649590894,9i,6.40959767402758,1.6s : 0.4s,-4.8421337014705585,0.010172568325762618,0.22701841006602405,0.02943348478733745,0.10582312196493149,-0.10161083936691284,-0.021072477102279663,-0.024428188800811768,-0.007524654269218445,0.01459360122680664,-0.19049849177565964,2.111461490411426,3.003148104805859,0.8418567776679993,0.18934839963912964,0.5053953528404236, 204, 129, 3, 162
1731649590904,9i,6.40959767402758,1.6s : 0.4s,-4.8421337014705585,0.010104468670750046,0.1852228599871732,0.03182777981093739,0.08847849071025848,-0.29198184609413147,0.17906062304973602,-0.023646831512451172,-0.012444525957107544,0.017290711402893066,-0.19097135953680772,2.1116477052260003,3.00290948643651,0.8416857719421387,0.18981269001960754,0.5055059790611267, 204, 129, 3, 162
1731649590914,9i,6.40959767402758,1.6s : 0.4s,-4.8421337014705585,0.010013055290456518,0.06064873847511261,0.031187447690249788,0.06156165525317192,-0.419560045003891,0.3405555188655853,-0.016462385654449463,-0.013648062944412231,0.022701919078826904,-0.19135800344955706,2.111789976493124,3.0028300851177083,0.8415510058403015,0.19019228219985962,0.5055879354476929, 204, 129, 3, 162
1731649590924,9i,6.40959767402758,1.6s : 0.4s,-4.8421337014705585,0.009884170973585682,0.12715907359128242,0.032243864400895834,0.03702302277088165,-0.4651419222354889,0.42434069514274597,-0.015079140663146973,-0.008088082075119019,0.027328908443450928,-0.19163188972185932,2.1118720986199793,3.002813093542601,0.8414646983146667,0.1904611587524414,0.5056301355361938, 204, 129, 3, 162
1731649590934,9i,6.40959767402758,1.6s : 0.4s,-4.8421337014705585,0.009758714603101964,0.2059142616053398,0.022398827013005183,0.008081451058387756,-0.4262632429599762,0.42309486865997314,-0.014644920825958252,-0.010383188724517822,0.01339489221572876,-0.19190251748289877,2.1119794545747075,3.002857248332742,0.8413662314414978,0.19072683155536652,0.5056939125061035, 204, 129, 3, 162
1731649590944,9i,6.40959767402758,1.6s : 0.4s,-4.8421337014705585,0.009662229448510931,0.2396249682589641,0.023520652333835122,-0.014825994148850441,-0.32578057050704956,0.35487136244773865,-0.016659140586853027,-0.01605410873889923,0.0042378902435302734,-0.19213025810322532,2.112116901691934,3.0030335824838317,0.8412594795227051,0.1909503936767578,0.505787193775177, 204, 129, 3, 162
1731649590954,9i,6.40959767402758,1.6s : 0.4s,-4.8421337014705585,0.009600465541628965,0.22977477299058502,0.020596947486538165,-0.027967829257249832,-0.19605842232704163,0.24352316558361053,-0.0153045654296875,-0.013769373297691345,-0.0006394386291503906,-0.19232089165495173,2.112259587806767,3.003205498910287,0.8411558270454407,0.19113750755786896,0.5058882832527161, 204, 129, 3, 162
1731649590964,9i,6.40959767402758,1.6s : 0.4s,-4.8421337014705585,0.009569538148550428,0.18416986861216075,0.013910032513967665,-0.03251544386148453,-0.058018267154693604,0.10559485852718353,-0.0087815523147583,0.0013333112001419067,-0.01070493459701538,-0.19246439973160678,2.112288248494488,3.0032940673059967,0.8411179184913635,0.1912783682346344,0.5058982968330383, 204, 129, 3, 162
1731649590974,9i,6.40959767402758,1.6s : 0.4s,-4.8421337014705585,0.00956605742819192,0.11503904977405106,0.019787288166005754,-0.04604729637503624,0.07756219804286957,-0.0268056970089674,0.0022258758544921875,0.009415820240974426,-0.017260491847991943,-0.19254686132697746,2.112273004174613,3.003374337636371,0.8411120772361755,0.19135931134223938,0.5058773159980774, 204, 129, 3, 162
1731649590984,9i,6.40959767402758,1.6s : 0.4s,-4.8421337014705585,0.009595394180283105,0.03911871154745957,0.017979435827186727,-0.040897008031606674,0.18236105144023895,-0.14435896277427673,0.0038722753524780273,0.0020510703325271606,-0.017437279224395752,-0.19255705310792143,2.1122667333298697,3.0034978795905096,0.8411135077476501,0.19136931002140045,0.5058709979057312, 204, 129, 3, 162
1731649590994,9i,6.40959767402758,1.6s : 0.4s,-4.8421337014705585,0.00967368951867408,0.047510634236897026,0.024081121998430776,-0.030406085774302483,0.2401050329208374,-0.2241751253604889,0.004139900207519531,-0.006347343325614929,-0.022857666015625,-0.19262545626200298,2.112260781516421,3.0036105188567093,0.8411054611206055,0.19143645465373993,0.5058593153953552, 204, 129, 3, 162
1731649591004,9i,6.40959767402758,1.6s : 0.4s,-4.8421337014705585,0.009798119061038342,0.1020566787988559,0.026512645194917125,-0.02461530826985836,0.25081920623779297,-0.24274961650371552,0.004733622074127197,-0.0053844153881073,-0.025524914264678955,-0.19265486514423952,2.1122787401691805,3.0037238680304985,0.8410914540290833,0.1914653182029724,0.5058715343475342, 204, 129, 3, 162
1731649591014,9i,6.40959767402758,1.6s : 0.4s,-4.8421337014705585,0.009990215603718322,0.13489366621414534,0.033926730000528524,-0.008087464608252048,0.2178409993648529,-0.23166926205158234,0.007259964942932129,0.0018427520990371704,-0.03308957815170288,-0.19267601348695376,2.1122587316193444,3.0038042031462115,0.8410980701446533,0.19148607552051544,0.5058525800704956, 204, 129, 3, 162
1731649591024,9i,6.40959767402758,1.6s : 0.4s,-4.8421337014705585,0.010316748817233197,0.14398403597636944,0.04396657804022087,-0.019764628261327744,0.15633264183998108,-0.19103315472602844,0.010002374649047852,-0.0004439055919647217,-0.04281139373779297,-0.19272053019134533,2.1122663228351026,3.0039780960940052,0.841087281703949,0.1915297657251358,0.5058547258377075, 204, 129, 3, 162
1731649591034,9i,6.40959767402758,1.6s : 0.4s,-4.8421337014705585,0.010702357442722868,0.12826331606221203,0.03882433980401415,-0.0004772823303937912,0.0818081647157669,-0.11105512827634811,0.006584048271179199,-0.0124586820602417,-0.03617680072784424,-0.1927111381147013,2.112268635785631,3.0042005818763857,0.841087281703949,0.1915205419063568,0.5058574080467224, 204, 129, 3, 162
1731649591044,9i,6.40959767402758,1.6s : 0.4s,-4.8421337014705585,0.011112084899027621,0.09852938702886667,0.02971142618441761,0.02168314717710018,0.016745541244745255,-0.044638291001319885,0.005601763725280762,-0.006020307540893555,-0.02855074405670166,-0.192758649533664,2.1122419538144985,3.0042025917583133,0.8410931825637817,0.19156718254089355,0.5058304071426392, 204, 129, 3, 162
1731649591054,9i,6.40959767402758,1.6s : 0.4s,-4.8421337014705585,0.01153516352893101,0.0615335068306695,0.02745621200905571,0.03129562735557556,-0.035420726984739304,0.01982715353369713,0.004734396934509277,-0.0010481476783752441,-0.02702462673187256,-0.19283863639546786,2.1121603279767482,3.004064401682824,0.8411213159561157,0.19164568185806274,0.5057538151741028, 204, 129, 3, 162
1731649591064,9i,6.40959767402758,1.6s : 0.4s,-4.8421337014705585,0.011951184480682064,0.05005553648317177,0.016387218037789242,0.06469273567199707,-0.06378312408924103,0.06200123578310013,-9.101629257202148e-05,-0.0009943991899490356,-0.01635676622390747,-0.19292378227212262,2.1120047835585893,3.0036623861438883,0.8411859273910522,0.19172924757003784,0.5056145787239075, 204, 129, 3, 162
1731649591074,9i,6.40959767402758,1.6s : 0.4s,-4.8421337014705585,0.012365683569775169,0.02614649452323993,0.021817630405663167,0.07652635872364044,-0.06493112444877625,0.07312691956758499,-0.0022764205932617188,0.0033394694328308105,-0.02144002914428711,-0.19309443924990327,2.1117915003441676,3.0030212195804675,0.8412656784057617,0.1918967366218567,0.5054183006286621, 204, 129, 3, 162
1731649591084,9i,6.40959767402758,1.6s : 0.4s,-4.8421337014705585,0.012776490044991184,0.029728673997036895,0.021074100988603944,0.07130150496959686,-0.044047944247722626,0.06032697483897209,-0.010344147682189941,0.0013214945793151855,-0.018313109874725342,-0.19308280569105582,2.1106855035473777,3.002111557336531,0.8418262004852295,0.1918853223323822,0.5044887661933899, 204, 129, 3, 162
1731649591094,9i,6.40959767402758,1.6s : 0.4s,-4.8421337014705585,0.013173401286139736,0.03486801581725581,0.01827103912154205,0.06010403856635094,-0.02174139767885208,0.050191815942525864,-0.01446312665939331,-0.0013923496007919312,-0.011077463626861572,-0.19325156811738056,2.1094514190020637,3.0011660937109306,0.8424203395843506,0.19205094873905182,0.5034328699111938, 204, 129, 3, 162
1731649591104,9i,6.40959767402758,1.6s : 0.4s,-4.8421337014705585,0.013541435128894977,0.03517375302736305,0.013707367309129801,0.050044745206832886,-0.0008843201212584972,0.02989613264799118,-0.013289809226989746,-0.0024766623973846436,-0.0022669434547424316,-0.19326806788142764,2.1079251657635667,3.0002334173090133,0.8431849479675293,0.19206713140010834,0.5021448731422424, 204, 129, 3, 162
1731649591114,9i,6.40959767402758,1.6s : 0.4s,-4.8421337014705585,0.01387214353776082,0.03460069023067632,0.01853945456236095,0.03697967901825905,0.0016611290629953146,0.028145436197519302,-0.014415740966796875,-0.009273096919059753,0.007064521312713623,-0.192901268094147,2.10680527181528,2.9995139711705834,0.8438071012496948,0.19170714914798737,0.5012361407279968, 204, 129, 3, 162
1731649591124,9i,6.40959767402758,1.6s : 0.4s,-4.8421337014705585,0.014162808659633248,0.03363231914846745,0.02314088532551173,0.02910577692091465,-0.0024430681951344013,0.026593346148729324,-0.015173077583312988,-0.012710601091384888,0.011988282203674316,-0.19268798811269777,2.10597276080653,2.998956346756318,0.8442593812942505,0.1914978325366974,0.5005543828010559, 204, 129, 3, 162
1731649591134,9i,6.40959767402758,1.6s : 0.4s,-4.8421337014705585,0.014413490180879797,0.032332359146878153,0.01680098332406571,0.02669381909072399,-0.00022944854572415352,0.0163055881857872,-0.012779831886291504,-0.005028203129768372,0.009678125381469727,-0.19268067710566722,2.105238320329859,2.9984459328789743,0.8446281552314758,0.19149065017700195,0.4999350309371948, 204, 129, 3, 162
1731649591144,9i,6.40959767402758,1.6s : 0.4s,-4.8421337014705585,0.014633753259664884,0.02426026559860266,0.014945263017728302,-0.0009298198856413364,-0.0024675694294273853,0.010524398647248745,-0.013766646385192871,-0.0019469857215881348,0.005481749773025513,-0.19266613650524492,2.1049478399556696,2.9982235774617965,0.844775378704071,0.19147637486457825,0.49969086050987244, 204, 129, 3, 162
1731649591153,9i,6.40959767402758,1.6s : 0.4s,-4.8421337014705585,0.014819558296583787,0.021274892068038263,0.02010586922326676,-0.0013930769637227058,-0.0025635315105319023,0.011546985246241093,-0.01651298999786377,-0.004026919603347778,0.010740160942077637,-0.19274872389610068,2.1045850398997987,2.9981189069639345,0.844943106174469,0.19155743718147278,0.4993763864040375, 204, 129, 3, 162
1731649591163,9i,6.40959767402758,1.6s : 0.4s,-4.8421337014705585,0.014973901503211165,0.018970072416522012,0.015069952777963526,0.0014157590921968222,-0.0036831246688961983,0.007503241300582886,-0.010756194591522217,-0.0029552876949310303,0.010132819414138794,-0.1928383863797525,2.1044112786211753,2.998057239505728,0.8450150489807129,0.19164544343948364,0.49922075867652893, 204, 129, 3, 162
1731649591173,9i,6.40959767402758,1.6s : 0.4s,-4.8421337014705585,0.015108266408556512,0.016656618088160272,0.012919685062003505,-0.003209685906767845,0.001296364702284336,0.005033392924815416,-0.00891023874282837,-0.005778476595878601,0.007357656955718994,-0.19288536073997925,2.1044865554167385,2.99804163370283,0.8449696898460388,0.1916915476322174,0.49927979707717896, 204, 129, 3, 162
1731649591183,9i,6.40959767402758,1.6s : 0.4s,-4.8421337014705585,0.015220156090774262,0.014859829275667952,0.023700728483271177,-0.006859814282506704,0.0041307671926915646,0.007199874613434076,-0.017926156520843506,-0.008759751915931702,0.012792348861694336,-0.19282910173033585,2.104784066368551,2.998090512787689,0.8448304533958435,0.191636323928833,0.4995366930961609, 204, 129, 3, 162
1731649591193,9i,6.40959767402758,1.6s : 0.4s,-4.8421337014705585,0.015309792937916596,0.01286715137164056,0.02577838165260594,-0.01310679130256176,0.00308893877081573,0.004771071020513773,-0.021439075469970703,-0.0053698718547821045,0.013268589973449707,-0.19248461914462153,2.105318574821995,2.9982362886156166,0.8446201682090759,0.1912982165813446,0.5000218152999878, 204, 129, 3, 162
1731649591203,9i,6.40959767402758,1.6s : 0.4s,-4.8421337014705585,0.015382201513166436,0.010670856712547066,0.019168957320337916,-0.024101918563246727,0.006337728817015886,0.006202786695212126,-0.01624685525894165,-0.002057299017906189,0.009962737560272217,-0.19201680542389177,2.105999082599741,2.9984954716067773,0.8443565368652344,0.190839022397995,0.5006420612335205, 204, 129, 3, 162
1731649591213,9i,6.40959767402758,1.6s : 0.4s,-4.8421337014705585,0.01544251353968447,0.009036734682180775,0.018758487057288904,-0.015075400471687317,0.006608394905924797,0.002083275932818651,-0.015239477157592773,-0.004534304141998291,0.009953856468200684,-0.1917888247212145,2.1065617081348935,2.998756083662964,0.8441121578216553,0.1906152218580246,0.501139223575592, 204, 129, 3, 162
1731649591223,9i,6.40959767402758,1.6s : 0.4s,-4.8421337014705585,0.01549444154161124,0.007940019534183872,0.014845130554241139,-0.013856736943125725,0.0038546861615031958,0.005761367734521627,-0.012417614459991455,-0.00281737744808197,0.00763171911239624,-0.19170304885932757,2.106952898327381,2.9989320308452614,0.843930184841156,0.19053101539611816,0.5014777779579163, 204, 129, 3, 162
1731649591233,9i,6.40959767402758,1.6s : 0.4s,-4.8421337014705585,0.015538842162106182,0.00781458096093554,0.014511549138140564,0.0027831592597067356,0.004892874974757433,0.009906810708343983,-0.011661767959594727,0.008541181683540344,0.0012792348861694336,-0.1915726001620218,2.107467989744182,2.9990348770840733,0.843693196773529,0.19040295481681824,0.5019251704216003, 204, 129, 3, 162
1731649591243,9i,6.40959767402758,1.6s : 0.4s,-4.8421337014705585,0.015588021504118258,0.008685794386081209,0.022250405602298275,0.025282343849539757,0.011312957853078842,0.012571570463478565,-0.017472922801971436,0.012607231736183167,-0.005552947521209717,-0.1915185993412244,2.107855156788223,2.9989158070014565,0.8435075879096985,0.19034995138645172,0.5022570490837097, 204, 129, 3, 162
1731649591253,9i,6.40959767402758,1.6s : 0.4s,-4.8421337014705585,0.01566262748685029,0.01646490471001558,0.026640763374164746,0.04636505991220474,0.017093615606427193,0.022628232836723328,-0.0211409330368042,0.009182944893836975,-0.01335906982421875,-0.1914317630666368,2.1081451659172217,2.9985627355458733,0.8433760404586792,0.19026470184326172,0.5025100708007812, 204, 129, 3, 162
1731649591263,9i,6.40959767402758,1.6s : 0.4s,-4.8421337014705585,0.015758351862977426,0.02762912515353904,0.02218604700065383,0.07081633806228638,0.022144565358757973,0.03179137036204338,-0.01767730712890625,0.006866395473480225,-0.011514604091644287,-0.19135121781394002,2.108717161103568,2.9980179280363153,0.8431015610694885,0.19018562138080597,0.5030001997947693, 204, 129, 3, 162
1731649591273,9i,6.40959767402758,1.6s : 0.4s,-4.8421337014705585,0.015881076645952376,0.03911185544916185,0.02138295512851597,0.09090409427881241,0.026937812566757202,0.02897111512720585,-0.017046451568603516,0.0019811242818832397,-0.01275634765625,-0.19146250364345888,2.109298047367718,2.9972551897530493,0.8427910208702087,0.19029487669467926,0.50347900390625, 204, 129, 3, 162
1731649591283,9i,6.40959767402758,1.6s : 0.4s,-4.8421337014705585,0.016029041793292866,0.04960685100329011,0.027853246002327928,0.10295969247817993,0.04041473940014839,0.01857679896056652,-0.01856762170791626,0.0111074298620224,-0.017540574073791504,-0.19174070310037672,2.109792697592793,2.9963293224436116,0.8424964547157288,0.1905679851770401,0.5038686394691467, 204, 129, 3, 162
1731649591293,9i,6.40959767402758,1.6s : 0.4s,-4.8421337014705585,0.016185373269270532,0.05951936012129357,0.03553201655182706,0.11035575717687607,0.06633936613798141,-0.005976248532533646,-0.01656728982925415,0.02576977014541626,-0.017999112606048584,-0.1921462759602299,2.1104205539027325,2.9954304022137093,0.8421136140823364,0.19096611440181732,0.5043578147888184, 204, 129, 3, 162
1731649591303,9i,6.40959767402758,1.6s : 0.4s,-4.8421337014705585,0.016240363088892807,0.07984292968367539,0.05071734556703457,0.15783140063285828,0.11242909729480743,-0.02875426411628723,-0.017466187477111816,0.0474625825881958,-0.003805875778198242,-0.19291327587007143,2.111322777808211,2.9944140417648817,0.8415323495864868,0.1917189359664917,0.5050418376922607, 204, 129, 3, 162
1731649591313,9i,6.40959767402758,1.6s : 0.4s,-4.8421337014705585,0.015974450541799842,0.10860319566505884,0.08670145708613751,0.20527420938014984,0.15911990404129028,-0.06197536736726761,-0.020046770572662354,0.08066870272159576,0.02465420961380005,-0.19440299244079653,2.1124932028145413,2.993081820089455,0.8406950235366821,0.19318081438541412,0.5058786273002625, 204, 129, 3, 162
1731649591323,9i,6.40959767402758,1.6s : 0.4s,-4.8421337014705585,0.015249248325175732,0.14784713965701501,0.13179871129450726,0.26836901903152466,0.2138121873140335,-0.11316665261983871,-0.01860862970352173,0.11581850051879883,0.060089051723480225,-0.19646275917105732,2.1140238587693405,2.991481852961627,0.8395771384239197,0.19520136713981628,0.5069580078125, 204, 129, 3, 162
1731649591333,9i,6.40959767402758,1.6s : 0.4s,-4.8421337014705585,0.014093591681021308,0.19647935873083938,0.17179194407041187,0.30260249972343445,0.30133867263793945,-0.19725722074508667,-0.013826727867126465,0.14679665863513947,0.08815914392471313,-0.19929225871982403,2.1161936478333754,2.989769327964735,0.8379995822906494,0.19797565042972565,0.5084899067878723, 204, 129, 3, 162
1731649591343,9i,6.40959767402758,1.6s : 0.4s,-4.8421337014705585,0.012742240244996754,0.257648050454231,0.21528548501545242,0.33574074506759644,0.40784752368927,-0.29953327775001526,-0.015760838985443115,0.18356023728847504,0.11137807369232178,-0.20305565801887843,2.1194019248929887,2.988294404955211,0.8357223272323608,0.20166315138339996,0.5107837319374084, 204, 129, 3, 162
1731649591353,9i,6.40959767402758,1.6s : 0.4s,-4.8421337014705585,0.011732806997911814,0.3432879079009637,0.25949326982814,0.4333782196044922,0.5440431237220764,-0.42580872774124146,-0.017993569374084473,0.21939168870449066,0.13740551471710205,-0.20808635678986176,2.1238194349923454,2.9869856863770665,0.832584023475647,0.20658791065216064,0.513931155204773, 204, 129, 3, 162
1731649591363,9i,6.40959767402758,1.6s : 0.4s,-4.8421337014705585,0.012027411037392941,0.4735689992986568,0.30012536420535413,0.686843752861023,0.750216007232666,-0.5551888346672058,-0.023767948150634766,0.2525898814201355,0.16033923625946045,-0.21517693669061752,2.129782604975185,2.9848080421205836,0.8282417058944702,0.21352028846740723,0.5180968642234802, 204, 129, 3, 162
1731649591373,9i,6.40959767402758,1.6s : 0.4s,-4.8421337014705585,0.014539418657607231,0.6339999900285322,0.36212896863018423,0.9647266268730164,0.9364900588989258,-0.6739568114280701,-0.053375065326690674,0.2946687340736389,0.20361441373825073,-0.2248292854132334,2.137428624566344,2.981037814912009,0.8224791288375854,0.22293995320796967,0.523283839225769, 204, 129, 3, 162
1731649591383,9i,6.40959767402758,1.6s : 0.4s,-4.8421337014705585,0.019429401765456683,0.8237758843439382,0.43384604456009057,1.363799810409546,1.045203685760498,-0.8044479489326477,-0.06827306747436523,0.3472583591938019,0.2509438395500183,-0.23720472769339981,2.1460839202464785,2.975202680902086,0.8155418634414673,0.2349865436553955,0.5288413166999817, 204, 129, 3, 162
1731649591393,9i,6.40959767402758,1.6s : 0.4s,-4.8421337014705585,0.02623264341799601,1.065034597984556,0.4776350147358803,1.8769205808639526,1.2189791202545166,-0.9742332696914673,-0.06454336643218994,0.3816463053226471,0.27984899282455444,-0.2539952680465825,2.1547747525501992,2.9660514959832684,0.807509183883667,0.2512730360031128,0.5336582064628601, 204, 129, 3, 162
1731649591403,9i,6.40959767402758,1.6s : 0.4s,-4.8421337014705585,0.03461830966343032,1.2227516094205053,0.5224855948790066,1.553592562675476,1.5206327438354492,-0.9653660655021667,-0.1070871353149414,0.4108722507953644,0.30447912216186523,-0.27141835697504024,2.166406723152195,2.9568648096112997,0.7975016832351685,0.2680981457233429,0.5404764413833618, 204, 129, 3, 162
1731649591413,9i,6.40959767402758,1.6s : 0.4s,-4.8421337014705585,0.04489241239250862,1.3944169694782105,0.6551739798565284,1.775334358215332,1.669771432876587,-1.1060653924942017,-0.1451416015625,0.5073385238647461,0.388322651386261,-0.2892659590649978,2.180121327990034,2.94879884439081,0.7859649062156677,0.2852487564086914,0.5485363602638245, 204, 129, 3, 162
1731649591423,9i,6.40959767402758,1.6s : 0.4s,-4.8421337014705585,0.057028308054499724,1.5897193118559472,0.7468385627036445,2.063500165939331,1.845788836479187,-1.2748349905014038,-0.16991883516311646,0.5521382093429565,0.4733273983001709,-0.31004408590964055,2.195013365350666,2.9397590455344615,0.772732675075531,0.30510061979293823,0.5565952062606812, 204, 129, 3, 162
1731649591433,9i,6.40959767402758,1.6s : 0.4s,-4.8421337014705585,0.07099870030487145,1.8033258549636735,0.8109279622753784,2.4139180183410645,1.9990184307098389,-1.3961641788482666,-0.2395908236503601,0.6306970119476318,0.449912965297699,-0.33402143006623264,2.210852504728908,2.9291609905630467,0.7577334046363831,0.3278448283672333,0.5642318725585938, 204, 129, 3, 162
1731649591443,9i,6.40959767402758,1.6s : 0.4s,-4.8421337014705585,0.08739246745081354,2.0291779843341,0.9861560385704107,2.766080617904663,2.1149632930755615,-1.5530741214752197,-0.3436877727508545,0.7703438401222229,0.5108354091644287,-0.36148571030458865,2.2271974741141833,2.916619068948531,0.7409961223602295,0.3536643087863922,0.5708295702934265, 204, 129, 3, 162
1731649591453,9i,6.40959767402758,1.6s : 0.4s,-4.8421337014705585,0.10658431086576049,2.2537004938494247,1.160119753242559,2.9953997135162354,2.2873198986053467,-1.714613676071167,-0.4631562829017639,0.8769897818565369,0.601874589920044,-0.3921550389428289,2.2441294470751174,2.9031391980475374,0.7224031090736389,0.38218075037002563,0.5762564539909363, 204, 129, 3, 162
1731649591463,9i,6.40959767402758,1.6s : 0.4s,-4.8421337014705585,0.12891668260722253,2.5063669926734273,1.3420736212063138,3.3155250549316406,2.592604398727417,-1.8895410299301147,-0.5675212144851685,0.9807463884353638,0.7191785573959351,-0.42605466291864164,2.2628422449845718,2.8889293003168106,0.7011120915412903,0.4132813811302185,0.5810686945915222, 204, 129, 3, 162
1731649591473,9i,6.40959767402758,1.6s : 0.4s,-4.8421337014705585,0.15423203732905302,2.793641733265702,1.4661155575976286,3.7043869495391846,2.898942232131958,-2.1255531311035156,-0.6525212526321411,1.0151063203811646,0.8326283693313599,-0.46431990390142736,2.2838396959760856,2.8736825299099027,0.6762943863868713,0.44781482219696045,0.5848826169967651, 204, 129, 3, 162
1731649591483,9i,6.40959767402758,1.6s : 0.4s,-4.8421337014705585,0.18179504916956313,3.10937051878251,1.4950702510192897,4.127574443817139,3.169740676879883,-2.4013798236846924,-0.6907063722610474,0.984163224697113,0.888584554195404,-0.507932772381054,2.3069604181022947,2.8576559247910787,0.6474934220314026,0.48637205362319946,0.5866808891296387, 204, 129, 3, 162
1731649591493,9i,6.40959767402758,1.6s : 0.4s,-4.8421337014705585,0.21069781789588712,3.4325474058762935,1.450922994411543,4.515769958496094,3.382307529449463,-2.664937973022461,-0.6764298677444458,0.9587242603302002,0.8535033464431763,-0.5559748519994429,2.3312854686843623,2.8409677512248064,0.6153793334960938,0.5277715921401978,0.5854613780975342, 204, 129, 3, 162
1731649591503,9i,6.40959767402758,1.6s : 0.4s,-4.8421337014705585,0.24027298092321464,3.742512260142752,1.3976943568353102,4.793920993804932,3.512688159942627,-3.0018720626831055,-0.6256215572357178,0.9764159321784973,0.7802301645278931,-0.6088491225482698,2.3568534658635105,2.8247339672199643,0.5796619653701782,0.5719237923622131,0.5804264545440674, 204, 129, 3, 162
1731649591513,9i,6.40959767402758,1.6s : 0.4s,-4.8421337014705585,0.2702116715835065,4.003932136780933,1.3746422341274531,4.784319877624512,3.591252088546753,-3.4133641719818115,-0.5456094741821289,1.0207148790359497,0.7416823506355286,-0.6656176969182713,2.384622290512863,2.8118646399416716,0.5401316285133362,0.6175450682640076,0.5717484354972839, 204, 129, 3, 162
1731649591523,9i,6.40959767402758,1.6s : 0.4s,-4.8421337014705585,0.3003820169068114,4.213013587730599,1.381304906723451,4.634401321411133,3.6446259021759033,-3.8321354389190674,-0.44661688804626465,1.0843892097473145,0.7298195958137512,-0.7248007410209305,2.4166056570404533,2.8053734113589717,0.4964368939399719,0.6629862785339355,0.5603567957878113, 204, 129, 3, 162
1731649591533,9i,6.40959767402758,1.6s : 0.4s,-4.8421337014705585,0.3308304413315001,4.377947767671951,1.408116740510074,4.456719398498535,3.646224021911621,-4.2168192863464355,-0.324145644903183,1.1347382068634033,0.7681741714477539,-0.7853731204804509,2.4541990153003117,2.8071120705432984,0.448687881231308,0.7070890665054321,0.5465379953384399, 204, 129, 3, 162
1731649591543,9i,6.40959767402758,1.6s : 0.4s,-4.8421337014705585,0.3613130431657654,4.526374098660236,1.4072052632683993,4.347174167633057,3.643089771270752,-4.608109951019287,-0.19452181458473206,1.1525365114212036,0.7836118340492249,-0.8471481409741992,2.4986257549723128,2.818167934441156,0.39699065685272217,0.7493951916694641,0.5299103856086731, 204, 129, 3, 162
1731649591553,9i,6.40959767402758,1.6s : 0.4s,-4.8421337014705585,0.39199794144360933,4.662645122611587,1.4544250328419033,4.126916408538818,3.649837017059326,-5.066212177276611,-0.10788282752037048,1.18346107006073,0.8385304808616638,-0.9096217850302482,2.5530835479561502,2.841658619337566,0.34086930751800537,0.7892715334892273,0.510743260383606, 204, 129, 3, 162
1731649591563,9i,6.40959767402758,1.6s : 0.4s,-4.8421337014705585,0.42336950171771387,4.827918695460083,1.544219062602132,4.149265289306641,3.7324366569519043,-5.478277206420898,-0.06905245780944824,1.2895410060882568,0.8467161655426025,-0.9723501931809242,2.6216721104959446,2.8810485034119786,0.27988311648368835,0.8262119889259338,0.4889160990715027, 204, 129, 3, 162
1731649591573,9i,6.40959767402758,1.6s : 0.4s,-4.8421337014705585,0.45592141092426614,5.036794542196095,1.665659876794296,4.370771408081055,3.9070427417755127,-5.817304611206055,-0.020837068557739258,1.444549322128296,0.8290150165557861,-1.0360193115523055,2.7079355148759907,2.93816518702615,0.21415066719055176,0.8603823184967041,0.46247366070747375, 204, 129, 3, 162
1731649591583,9i,6.40959767402758,1.6s : 0.4s,-4.8421337014705585,0.49021447476712793,5.263113398842872,1.8165123528554135,4.469181060791016,4.03290319442749,-6.213363170623779,0.051653265953063965,1.556835651397705,0.9345115423202515,-1.0994975391341149,2.819377630032706,3.0200376918803458,0.14378130435943604,0.8909793496131897,0.43067699670791626, 204, 129, 3, 162
1731649591593,9i,6.40959767402758,1.6s : 0.4s,-4.8421337014705585,0.5262273242726644,5.483170903007711,1.9085862130579143,4.494569301605225,4.043215751647949,-6.610418319702148,0.14722484350204468,1.578378438949585,1.0628958940505981,-1.1585800349379853,2.968061409853435,3.139744434917055,0.06917528808116913,0.9162351489067078,0.39462363719940186, 204, 129, 3, 162
1731649591603,9i,6.40959767402758,1.6s : 0.4s,-4.8421337014705585,0.5630183594656869,5.646686431934286,1.8856721715060156,4.253509998321533,3.91532039642334,-6.917659759521484,0.30387336015701294,1.5150160789489746,1.080808401107788,-1.207517881169277,-3.117988024248612,-2.973467166421299,-0.008386912755668163,0.9347369074821472,0.355241984128952, 204, 129, 3, 162
1731649591613,9i,6.40959767402758,1.6s : 0.4s,-4.8421337014705585,0.6002116082515864,5.772689696042067,1.9224913675014723,4.245187282562256,3.8026108741760254,-7.046376705169678,0.48283013701438904,1.5017998218536377,1.098838210105896,-1.2391619526149475,-2.871383531437047,-2.7521514472028015,-0.08691032975912094,0.9455114603042603,0.31377464532852173, 204, 129, 3, 162
1731649591623,9i,6.40959767402758,1.6s : 0.4s,-4.8421337014705585,0.6383001934607468,5.892752704563512,2.0503319565184186,4.4956207275390625,3.707263469696045,-7.131715297698975,0.6169595718383789,1.5585567951202393,1.1807297468185425,-1.2509098479091256,-2.589695331223188,-2.494398545879819,-0.1648721694946289,0.9492711424827576,0.2677718698978424, 204, 129, 3, 162
1731649591633,9i,6.40959767402758,1.6s : 0.4s,-4.8421337014705585,0.6772277358985767,6.031269223579328,2.09130713582754,4.789039134979248,3.646608352661133,-7.322040557861328,0.6964948177337646,1.540158748626709,1.2314103841781616,-1.2402006633618665,-2.299451809602355,-2.22695583780633,-0.24217963218688965,0.9458491802215576,0.2161450982093811, 204, 129, 3, 162
1731649591643,9i,6.40959767402758,1.6s : 0.4s,-4.8421337014705585,0.7169828157010475,6.1720188040882915,2.1231830524265596,4.959426403045654,3.6097025871276855,-7.507750034332275,0.7484358549118042,1.5112566947937012,1.2899043560028076,-1.2060336954123267,-2.0368191092178143,-1.9861868564581389,-0.3186873197555542,0.9342084527015686,0.16029095649719238, 204, 129, 3, 162
1731649591653,9i,6.40959767402758,1.6s : 0.4s,-4.8421337014705585,0.7576725557039898,6.3108807057945056,2.1952032004452726,5.237094879150391,3.609680414199829,-7.578919887542725,0.8429327011108398,1.5075404644012451,1.3548812866210938,-1.1529955314992277,-1.8209790646585142,-1.7916673997103947,-0.39311882853507996,0.9139834642410278,0.10045623779296875, 204, 129, 3, 162
1731649591663,9i,6.40959767402758,1.6s : 0.4s,-4.8421337014705585,0.799582188699136,6.4283406461071335,2.328260803681299,5.508983135223389,3.508793592453003,-7.570422172546387,1.0043598413467407,1.5329701900482178,1.435988187789917,-1.0869826953741721,-1.6501352849019495,-1.6413544132415696,-0.46369507908821106,0.8852274417877197,0.03686647117137909, 204, 129, 3, 162
1731649591673,9i,6.40959767402758,1.6s : 0.4s,-4.8421337014705585,0.8430263418457592,6.531359151985303,2.485326239045111,5.875093460083008,3.261387825012207,-7.55886697769165,1.1837050914764404,1.5605690479278564,1.5298081636428833,-1.0120856622492969,-1.5156013209691757,-1.5251461570430007,-0.52928626537323,0.8479393124580383,-0.02924366109073162, 204, 129, 3, 162
1731649591683,9i,6.40959767402758,1.6s : 0.4s,-4.8421337014705585,0.8878985392088593,6.59180867736614,2.58900278120774,5.999064922332764,2.8580594062805176,-7.5584492683410645,1.3487824201583862,1.5278270244598389,1.5967047214508057,-0.9305453190826936,-1.4104554017940376,-1.4347338435233465,-0.589733898639679,0.8019458055496216,-0.09537724405527115, 204, 129, 3, 162
1731649591693,9i,6.40959767402758,1.6s : 0.4s,-4.8421337014705585,0.9336466246687352,6.614112815687123,2.60536396061779,6.131581783294678,2.4278860092163086,-7.484571933746338,1.4733006954193115,1.4489995241165161,1.5867283344268799,-0.8448466920716314,-1.3295802329498514,-1.3642369226041788,-0.6446264386177063,0.7478693723678589,-0.15858198702335358, 204, 129, 3, 162
1731649591703,9i,6.40959767402758,1.6s : 0.4s,-4.8421337014705585,0.9796683598715138,6.603764135718618,2.5797920192336155,6.110672950744629,1.9504338502883911,-7.446133613586426,1.5664594173431396,1.3559398651123047,1.5371918678283691,-0.7566154505561645,-1.2675158701150724,-1.3079930757368454,-0.6939771771430969,0.686464250087738,-0.21716925501823425, 204, 129, 3, 162
1731649591713,9i,6.40959767402758,1.6s : 0.4s,-4.8421337014705585,1.025449119725951,6.5502391617386175,2.481801410376632,6.0120415687561035,1.4836972951889038,-7.392045497894287,1.6257480382919312,1.2517766952514648,1.3961864709854126,-0.667017645858335,-1.2214211570662685,-1.2633180891339855,-0.7382052540779114,0.6186456084251404,-0.2689433693885803, 204, 129, 3, 162
1731649591722,9i,6.40959767402758,1.6s : 0.4s,-4.8421337014705585,1.0700492992943489,6.471295180797902,2.385473629984076,5.865777492523193,1.050634741783142,-7.3158440589904785,1.6543431282043457,1.1692688465118408,1.2595410346984863,-0.577147883825902,-1.1877731833096328,-1.2270082531863489,-0.7772983908653259,0.545635998249054,-0.31319093704223633, 204, 129, 3, 162
1731649591732,9i,6.40959767402758,1.6s : 0.4s,-4.8421337014705585,1.113286492079489,6.350526189466775,2.298710707206548,5.554370403289795,0.6340314149856567,-7.191689968109131,1.6598470211029053,1.084289789199829,1.1633118391036987,-0.48834141314623586,-1.1648803483064858,-1.1980019692720658,-0.8113515377044678,0.4691618084907532,-0.34870612621307373, 204, 129, 3, 162
1731649591742,9i,6.40959767402758,1.6s : 0.4s,-4.8421337014705585,1.1552621098545874,6.197384282306109,2.2277439630994156,5.287891864776611,0.2848915159702301,-6.9823479652404785,1.642378330230713,1.0331342220306396,1.0945639610290527,-0.4018660542653668,-1.1502278800518841,-1.1741896836362302,-0.8401322364807129,0.39113640785217285,-0.3757529556751251, 204, 129, 3, 162
1731649591752,9i,6.40959767402758,1.6s : 0.4s,-4.8421337014705585,1.1957989620922984,6.018296207695095,2.136812950079469,4.932129383087158,-0.06578866392374039,-6.808487892150879,1.6270318031311035,0.9626256227493286,0.9960366487503052,-0.3180545248931556,-1.1422196974228103,-1.154229647263547,-0.8639399409294128,0.3127192556858063,-0.39473363757133484, 204, 129, 3, 162
1731649591762,9i,6.40959767402758,1.6s : 0.4s,-4.8421337014705585,1.234590528960638,5.796087383578574,2.0310031032558395,4.424080848693848,-0.39711064100265503,-6.5723347663879395,1.6069293022155762,0.876653254032135,0.8799039125442505,-0.2378103322143549,-1.1404296592935892,-1.1385918025912725,-0.8832353353500366,0.23557515442371368,-0.4054623246192932, 204, 129, 3, 162
1731649591772,9i,6.40959767402758,1.6s : 0.4s,-4.8421337014705585,1.2716284311001065,5.51461400389364,1.9477514705077894,3.851384162902832,-0.575800359249115,-6.176573276519775,1.5823321342468262,0.8061625957489014,0.8000391721725464,-0.16260102012066874,-1.1428590703623216,-1.1265979999825209,-0.8978227972984314,0.16188547015190125,-0.4095210134983063, 204, 129, 3, 162
1731649591782,9i,6.40959767402758,1.6s : 0.4s,-4.8421337014705585,1.3068020635690225,5.22105822201745,1.8651020611810054,3.3336992263793945,-0.821408748626709,-5.907968044281006,1.5589905977249146,0.6884596347808838,0.7577449083328247,-0.092878095039841,-1.1488358517253308,-1.1185098125310702,-0.9083557724952698,0.0927446186542511,-0.4077845811843872, 204, 129, 3, 162
1731649591792,9i,6.40959767402758,1.6s : 0.4s,-4.8421337014705585,1.3399545703879792,4.9327749831651735,1.767293632531242,2.7421600818634033,-1.126268744468689,-5.7331438064575195,1.511716365814209,0.547715425491333,0.7335177063941956,-0.02737652145276259,-1.15842591425193,-1.11376432056324,-0.9158300757408142,0.02737310156226158,-0.40063199400901794, 204, 129, 3, 162
1731649591802,9i,6.40959767402758,1.6s : 0.4s,-4.8421337014705585,1.3708159057822333,4.6307021034498,1.6346219058451876,2.1642487049102783,-1.1290677785873413,-5.428641319274902,1.4457981586456299,0.48258376121520996,0.5905669927597046,0.033478073494543535,-1.1697389152755409,-1.1131935651324532,-0.9201328754425049,-0.03347181901335716,-0.3901733160018921, 204, 129, 3, 162
1731649591812,9i,6.40959767402758,1.6s : 0.4s,-4.8421337014705585,1.399807352593457,4.321966750178859,1.547213557814361,1.8291199207305908,-1.114220380783081,-5.002326488494873,1.372882604598999,0.4822552502155304,0.5258260369300842,0.0892615791493391,-1.1807847240064442,-1.1144351606581449,-0.9212225079536438,-0.08914308995008469,-0.37868553400039673, 204, 129, 3, 162
1731649591822,9i,6.40959767402758,1.6s : 0.4s,-4.8421337014705585,1.4267334492284311,3.9968752513806804,1.4479893407781887,1.4358360767364502,-1.1617170572280884,-4.536016941070557,1.3143686056137085,0.364094078540802,0.4863576889038086,0.13946334542120267,-1.1917698944334651,-1.1168817300030076,-0.920005202293396,-0.1390116959810257,-0.3664236068725586, 204, 129, 3, 162
1731649591832,9i,6.40959767402758,1.6s : 0.4s,-4.8421337014705585,1.451519941142202,3.6660899393890243,1.3932960672147794,1.0921452045440674,-1.1869837045669556,-4.074841499328613,1.2997627258300781,0.249522402882576,0.4354645311832428,0.18404663921905237,-1.2028261958126125,-1.1204913742060396,-0.9173012375831604,-0.18300935626029968,-0.3536469340324402, 204, 129, 3, 162
1731649591842,9i,6.40959767402758,1.6s : 0.4s,-4.8421337014705585,1.4739446677701673,3.350131562297406,1.3434880336653237,0.8739920258522034,-1.2105798721313477,-3.660494804382324,1.291529893875122,0.12584498524665833,0.34795641899108887,0.22352693290162431,-1.2138144876501287,-1.1248519796288179,-0.9136459231376648,-0.22167018055915833,-0.34075427055358887, 204, 129, 3, 162
1731649591852,9i,6.40959767402758,1.6s : 0.4s,-4.8421337014705585,1.4937326486723737,3.0650970231599417,1.3150917368454085,0.6475397944450378,-1.2392593622207642,-3.356204032897949,1.292956829071045,-0.011931300163269043,0.23997199535369873,0.25895865904253307,-1.2248776458747306,-1.1295575027849005,-0.9093966484069824,-0.25607407093048096,-0.3277558386325836, 204, 129, 3, 162
1731649591862,9i,6.40959767402758,1.6s : 0.4s,-4.8421337014705585,1.511168861105065,2.7916695840078503,1.3051826444178918,0.44476404786109924,-1.1794332265853882,-3.0077900886535645,1.289299726486206,-0.09387969970703125,0.17998486757278442,0.2907379226094264,-1.235416636521817,-1.134981518533055,-0.904656171798706,-0.28665927052497864,-0.3153150975704193, 204, 129, 3, 162
1731649591872,9i,6.40959767402758,1.6s : 0.4s,-4.8421337014705585,1.5269700309667276,2.525946842401447,1.2847176490382684,0.3443216383457184,-1.0617470741271973,-2.6482391357421875,1.271993637084961,-0.09112399816513062,0.15565359592437744,0.3185963919583646,-1.244867333759924,-1.140401683043291,-0.8996791243553162,-0.313233882188797,-0.30407583713531494, 204, 129, 3, 162
1731649591882,9i,6.40959767402758,1.6s : 0.4s,-4.8421337014705585,1.5417848785155581,2.282980651820826,1.2767480990646332,0.335640549659729,-0.9379774332046509,-2.371511459350586,1.2647294998168945,-0.08118698000907898,0.15476974844932556,0.34335100902185633,-1.253239250542364,-1.145163942974953,-0.8945512175559998,-0.33664438128471375,-0.29402145743370056, 204, 129, 3, 162
1731649591892,9i,6.40959767402758,1.6s : 0.4s,-4.8421337014705585,1.5557322455388858,2.0525341352277047,1.2529349162472956,0.22586272656917572,-0.7967933416366577,-2.112807273864746,1.2395985126495361,-0.11776438355445862,0.13918685913085938,0.3653457353037239,-1.2603345799902455,-1.1493922229188682,-0.8893482089042664,-0.3572722375392914,-0.2853355407714844, 204, 129, 3, 162
1731649591902,9i,6.40959767402758,1.6s : 0.4s,-4.8421337014705585,1.5688658004217675,1.835346460646444,1.2230500668349944,0.1389981359243393,-0.6963277459144592,-1.8598369359970093,1.2071683406829834,-0.1542215645313263,0.1217036247253418,0.3846755408379428,-1.26606964147891,-1.1536786276217228,-0.8842161297798157,-0.3752584159374237,-0.2781061828136444, 204, 129, 3, 162
1731649591912,9i,6.40959767402758,1.6s : 0.4s,-4.8421337014705585,1.581466599538669,1.638347487994585,1.2007139429299232,0.06136857718229294,-0.585970938205719,-1.6662784814834595,1.1822279691696167,-0.16388902068138123,0.13111594319343567,0.40179736751446593,-1.2707266846468763,-1.1580386689417532,-0.879234254360199,-0.39107319712638855,-0.27204611897468567, 204, 129, 3, 162
1731649591922,9i,6.40959767402758,1.6s : 0.4s,-4.8421337014705585,1.5935870014833404,1.44208317337444,1.1450620530623563,0.0032461495138704777,-0.3736312687397003,-1.4326719045639038,1.124444842338562,-0.17274227738380432,0.13019603490829468,0.4166631261318631,-1.2737592554354709,-1.1623969128757448,-0.8743990063667297,-0.4047113358974457,-0.2676472067832947, 204, 129, 3, 162
1731649591932,9i,6.40959767402758,1.6s : 0.4s,-4.8421337014705585,1.6051622136969608,1.2506821596161124,1.0551625714450512,-0.1539386808872223,-0.25503775477409363,-1.1940333843231201,1.0341193675994873,-0.17067033052444458,0.12180650234222412,0.4292263205680608,-1.2720197470485703,-1.1662442228457086,-0.8690040707588196,-0.4161674380302429,-0.2676500082015991, 204, 129, 3, 162
1731649591942,9i,6.40959767402758,1.6s : 0.4s,-4.8421337014705585,1.6162448716226707,1.0459884163411441,0.9576097514558144,-0.25505515933036804,-0.16526874899864197,-0.8429638147354126,0.9102499485015869,-0.2065943479537964,0.21396318078041077,0.43801525453963835,-1.2701007728721423,-1.1727237052635011,-0.8649617433547974,-0.4241429269313812,-0.268223375082016, 204, 129, 3, 162
1731649591952,9i,6.40959767402758,1.6s : 0.4s,-4.8421337014705585,1.626279160973592,0.8591701566904995,0.8754391080208994,-0.5099270343780518,-0.17872178554534912,-0.5739182829856873,0.829950749874115,-0.24567162990570068,0.13122817873954773,0.44371855067132265,-1.2694087360067952,-1.1783507172353662,-0.86245197057724,-0.42930087447166443,-0.26809945702552795, 204, 129, 3, 162
1731649591962,9i,6.40959767402758,1.6s : 0.4s,-4.8421337014705585,1.6357304034162798,0.7038836090681154,0.934481879411445,-0.7381389141082764,-0.036006443202495575,-0.35913994908332825,0.8765148520469666,-0.2822910249233246,0.15902790427207947,0.44627311750129905,-1.2667101665867673,-1.1865817323883985,-0.8606761693954468,-0.431606650352478,-0.2700966000556946, 204, 129, 3, 162
1731649591972,9i,6.40959767402758,1.6s : 0.4s,-4.8421337014705585,1.645004950106145,0.5749807077664548,0.8394445665399126,-0.7683164477348328,0.016268568113446236,-0.09246493130922318,0.7795909643173218,-0.22139757871627808,0.2188337743282318,0.44623440941662845,-1.2630008215783806,-1.1950648985640044,-0.8596842885017395,-0.43157175183296204,-0.2732923626899719, 204, 129, 3, 162
1731649591982,9i,6.40959767402758,1.6s : 0.4s,-4.8421337014705585,1.6535467304714757,0.49909011584573537,0.7577655375465395,-0.9174217581748962,0.10979292541742325,0.18837766349315643,0.6788075566291809,-0.2732371389865875,0.19690194725990295,0.4432703148422003,-1.2586490312606031,-1.2035660048876045,-0.8597004413604736,-0.4288960099220276,-0.27742254734039307, 204, 129, 3, 162
1731649591992,9i,6.40959767402758,1.6s : 0.4s,-4.8421337014705585,1.6610129825357276,0.4939766632267322,0.7022095787492383,-1.005852460861206,0.25535881519317627,0.49743035435676575,0.5949150323867798,-0.3280929923057556,0.17756515741348267,0.43704605509165445,-1.2529742408861324,-1.2123426962549826,-0.8606315851211548,-0.4232650101184845,-0.28312546014785767, 204, 129, 3, 162
1731649592002,9i,6.40959767402758,1.6s : 0.4s,-4.8421337014705585,1.6673708943962005,0.5668468822445691,0.6306831476592513,-1.070739507675171,0.3796948790550232,0.8077213764190674,0.512579619884491,-0.33210521936416626,0.1572561264038086,0.427619352196003,-1.2461855237592452,-1.220680942216853,-0.862433135509491,-0.41470569372177124,-0.2902211844921112, 204, 129, 3, 162
1731649592012,9i,6.40959767402758,1.6s : 0.4s,-4.8421337014705585,1.6727564837478939,0.6890389115037285,0.5940290271454749,-1.0925663709640503,0.47435081005096436,1.1123411655426025,0.47327572107315063,-0.33207735419273376,0.13640090823173523,0.4150753716958297,-1.2386635607727439,-1.228366898326409,-0.8650755882263184,-0.40325888991355896,-0.29837289452552795, 204, 129, 3, 162
1731649592022,9i,6.40959767402758,1.6s : 0.4s,-4.8421337014705585,1.6774462441649998,0.8435719273450853,0.5759730466557542,-1.119684100151062,0.5599040985107422,1.4353810548782349,0.46010130643844604,-0.32186180353164673,0.12828373908996582,0.39947894105531984,-1.23082082957479,-1.2349394002993086,-0.8685333132743835,-0.38893836736679077,-0.3072082996368408, 204, 129, 3, 162
1731649592032,9i,6.40959767402758,1.6s : 0.4s,-4.8421337014705585,1.6816388976868428,1.0180930816274416,0.5770561005342563,-1.14990234375,0.6444746255874634,1.7530221939086914,0.4638158082962036,-0.322681725025177,0.11723968386650085,0.380658699712111,-1.2226008794095564,-1.240490157185042,-0.8727054595947266,-0.3715321123600006,-0.31677886843681335, 204, 129, 3, 162
1731649592042,9i,6.40959767402758,1.6s : 0.4s,-4.8421337014705585,1.6856301810918575,1.2007641029808385,0.5866400875161939,-1.1372700929641724,0.7408418655395508,2.0705816745758057,0.4866486191749573,-0.3078330159187317,0.11206492781639099,0.35878090247648403,-1.2140736097896883,-1.2448281818548028,-0.87738037109375,-0.3511330187320709,-0.3269696831703186, 204, 129, 3, 162
1731649592052,9i,6.40959767402758,1.6s : 0.4s,-4.8421337014705585,1.689713846808422,1.3868427782222084,0.6219783852392037,-1.1337534189224243,0.8404518961906433,2.359769821166992,0.52488774061203,-0.3098544478416443,0.12385553121566772,0.33411410522273355,-1.2051465558088121,-1.247540055593359,-0.88224858045578,-0.3279323875904083,-0.3377837538719177, 204, 129, 3, 162
1731649592062,9i,6.40959767402758,1.6s : 0.4s,-4.8421337014705585,1.6940206691250725,1.571366614996698,0.6651512489234193,-1.1364963054656982,0.9102504253387451,2.632154703140259,0.5661227703094482,-0.32175201177597046,0.13567179441452026,0.30680253546263614,-1.19589541491793,-1.2490536817605038,-0.8870913982391357,-0.30201202630996704,-0.34908124804496765, 204, 129, 3, 162
1731649592072,9i,6.40959767402758,1.6s : 0.4s,-4.8421337014705585,1.6987185872264574,1.7573384185923546,0.7090313328291155,-1.1409498453140259,0.9779791235923767,2.9198648929595947,0.6113839745521545,-0.32717373967170715,0.1479608416557312,0.27685929697173167,-1.1863884002990093,-1.2492009161248883,-0.8917184472084045,-0.27333590388298035,-0.360729455947876, 204, 129, 3, 162
1731649592082,9i,6.40959767402758,1.6s : 0.4s,-4.8421337014705585,1.7039508188697345,1.9517596633544307,0.7481946388781976,-1.1670925617218018,1.0678694248199463,3.2313616275787354,0.660083532333374,-0.31923526525497437,0.14890867471694946,0.244125997449981,-1.176463165389318,-1.2480011577970445,-0.8958775997161865,-0.24170832335948944,-0.37280091643333435, 204, 129, 3, 162
1731649592092,9i,6.40959767402758,1.6s : 0.4s,-4.8421337014705585,1.709912268756716,2.165681540797157,0.7855826140728133,-1.2767411470413208,1.165400743484497,3.582339286804199,0.7121576070785522,-0.29434460401535034,0.1527509093284607,0.2080845737203444,-1.165757272349342,-1.2457883937492482,-0.8992608785629272,-0.20658616721630096,-0.3855542838573456, 204, 129, 3, 162
1731649592102,9i,6.40959767402758,1.6s : 0.4s,-4.8421337014705585,1.7167519531758673,2.397788697406481,0.8374505782988958,-1.4646681547164917,1.2604281902313232,3.932518720626831,0.7711225152015686,-0.2823217511177063,0.16428014636039734,0.16826976650369815,-1.1541210758041789,-1.2431394250630745,-0.9015240669250488,-0.1674768030643463,-0.3990061283111572, 204, 129, 3, 162
1731649592112,9i,6.40959767402758,1.6s : 0.4s,-4.8421337014705585,1.7246480437854252,2.633391310322592,0.9232287852847043,-1.6031968593597412,1.3269758224487305,4.263214111328125,0.8488266468048096,-0.3007006049156189,0.2035285234451294,0.12464015878642934,-1.1416025953914584,-1.2402975501798519,-0.9022476673126221,-0.12431769073009491,-0.412909597158432, 204, 129, 3, 162
1731649592122,9i,6.40959767402758,1.6s : 0.4s,-4.8421337014705585,1.7337975707039708,2.8538090007731105,1.027204682272363,-1.586944341659546,1.3686758279800415,4.563182353973389,0.939769983291626,-0.3287143409252167,0.2528412938117981,0.0779349596184612,-1.1285356189678453,-1.236100881873328,-0.9010431170463562,-0.07785608619451523,-0.4266846776008606, 204, 129, 3, 162
1731649592132,9i,6.40959767402758,1.6s : 0.4s,-4.8421337014705585,1.7444709958068039,3.0566683461413082,1.1289686066571787,-1.4683642387390137,1.4147714376449585,4.856511116027832,1.043349027633667,-0.32233622670173645,0.28651750087738037,0.02895568737976026,-1.1149688151176604,-1.229413810451905,-0.8975206613540649,-0.02895164117217064,-0.44002094864845276, 204, 129, 3, 162
1731649592142,9i,6.40959767402758,1.6s : 0.4s,-4.8421337014705585,1.757170547274625,3.245283466976801,1.2140553161918117,-1.2571133375167847,1.5056471824645996,5.146113872528076,1.154784917831421,-0.22168201208114624,0.3020913600921631,-0.02180886518259399,-1.1004614198190785,-1.2192902265771606,-0.8912045955657959,0.02180713601410389,-0.4530770778656006, 204, 129, 3, 162
1731649592152,9i,6.40959767402758,1.6s : 0.4s,-4.8421337014705585,1.7722640924191255,3.4303902543732883,1.301544466638705,-1.2345937490463257,1.5578972101211548,5.412911891937256,1.2514703273773193,-0.11927393823862076,0.3370663821697235,-0.0741606059976507,-1.0845067982917576,-1.2057656732998883,-0.8816429972648621,0.07409264892339706,-0.4660641849040985, 204, 129, 3, 162
1731649592162,9i,6.40959767402758,1.6s : 0.4s,-4.8421337014705585,1.7898454666090022,3.6285821056107634,1.3877883426966249,-1.1584975719451904,1.6272238492965698,5.771900177001953,1.315758466720581,-0.0907316505908966,0.4318609833717346,-0.12903804903620392,-1.0670047268807294,-1.1899009811678671,-0.8684775233268738,0.1286802440881729,-0.478736013174057, 204, 129, 3, 162
1731649592172,9i,6.40959767402758,1.6s : 0.4s,-4.8421337014705585,1.8094878963800574,3.8292128793920637,1.4623271005177643,-1.106583595275879,1.7681187391281128,6.064392566680908,1.3796560764312744,-0.13561676442623138,0.4653576612472534,-0.18603493891118258,-1.0469988393602345,-1.1703411138101998,-0.8509848713874817,0.18496371805667877,-0.4915418326854706, 204, 129, 3, 162
1731649592182,9i,6.40959767402758,1.6s : 0.4s,-4.8421337014705585,1.8306448746671875,4.03315666231006,1.5425479119806704,-1.1789402961730957,1.9305974245071411,6.331198692321777,1.4608293771743774,-0.2192154824733734,0.44427037239074707,-0.24508386923143602,-1.0237362184637033,-1.148196056722997,-0.8285356760025024,0.24263769388198853,-0.5046341419219971, 204, 129, 3, 162
1731649592192,9i,6.40959767402758,1.6s : 0.4s,-4.8421337014705585,1.8535769652059524,4.230700170615237,1.6313848184871127,-1.0568212270736694,2.0192720890045166,6.6161088943481445,1.5509388446807861,-0.18332120776176453,0.47159141302108765,-0.30578589295923153,-0.9969245728173222,-1.122417930904225,-0.8008472919464111,0.30104270577430725,-0.5177034139633179, 204, 129, 3, 162
1731649592202,9i,6.40959767402758,1.6s : 0.4s,-4.8421337014705585,1.8785174132924802,4.435242181035794,1.7334565770956776,-1.0220073461532593,2.1139965057373047,6.93910026550293,1.6585297584533691,-0.14101406931877136,0.48401010036468506,-0.3676879451538713,-0.966192215109899,-1.0917406389684245,-0.7677368521690369,0.359458863735199,-0.5304426550865173, 204, 129, 3, 162
1731649592212,9i,6.40959767402758,1.6s : 0.4s,-4.8421337014705585,1.905442018245235,4.661053902288372,1.8259852606502294,-1.017845869064331,2.295523166656494,7.316043376922607,1.7484462261199951,-0.14495915174484253,0.5061075091362,-0.4314777460463234,-0.9301995264662313,-1.0557809930206978,-0.7282587885856628,0.4182135760784149,-0.5428964495658875, 204, 129, 3, 162
1731649592222,9i,6.40959767402758,1.6s : 0.4s,-4.8421337014705585,1.9344206291138644,4.882930367632365,1.9254787133066835,-1.1563135385513306,2.5129148960113525,7.559563636779785,1.820246934890747,-0.18642282485961914,0.599513053894043,-0.4967127823603563,-0.8874881566326683,-1.0141731985220306,-0.6817734837532043,0.47653815150260925,-0.5550642013549805, 204, 129, 3, 162
1731649592232,9i,6.40959767402758,1.6s : 0.4s,-4.8421337014705585,1.9651849846665403,5.113473663608758,2.006856118288426,-1.6101053953170776,2.8335044384002686,7.7757463455200195,1.8763010501861572,-0.26735973358154297,0.6599125862121582,-0.5637299527679622,-0.8378497516740203,-0.9688560291571624,-0.628208339214325,0.5343427062034607,-0.5655370354652405, 204, 129, 3, 162
1731649592242,9i,6.40959767402758,1.6s : 0.4s,-4.8421337014705585,1.9980371197966453,5.3904535120245916,2.1106065279332396,-2.0085811614990234,3.200793743133545,8.183658599853516,1.9668388366699219,-0.25078415870666504,0.7234032154083252,-0.6338425901939343,-0.779155356375265,-0.9184843690472526,-0.5661888122558594,0.59224534034729,-0.5733025074005127, 204, 129, 3, 162
1731649592252,9i,6.40959767402758,1.6s : 0.4s,-4.8421337014705585,2.0338710674565914,5.71785847572493,2.293166241501368,-2.320117235183716,3.5202744007110596,8.708629608154297,2.1412136554718018,-0.16099727153778076,0.8049194812774658,-0.7067958714091448,-0.7080273760231015,-0.8583660096618169,-0.49454620480537415,0.649400532245636,-0.5776703953742981, 204, 129, 3, 162
1731649592262,9i,6.40959767402758,1.6s : 0.4s,-4.8421337014705585,2.0736055931549977,6.064947694148012,2.5309205567551083,-2.2971158027648926,3.616039991378784,9.308357238769531,2.3742570877075195,-0.04773992300033569,0.8753188252449036,-0.7806132755209223,-0.6201863257416935,-0.7819168027634317,-0.41292285919189453,0.7037152647972107,-0.5781692266464233, 204, 129, 3, 162
1731649592272,9i,6.40959767402758,1.6s : 0.4s,-4.8421337014705585,2.118235016739651,6.362071059755754,2.8193932279029683,-2.3758535385131836,3.521111488342285,9.6182861328125,2.6442301273345947,0.08500874042510986,0.9745761752128601,-0.8509009991065855,-0.5125996994549141,-0.6836290827446453,-0.3233529329299927,0.7518747448921204,-0.5745669603347778, 204, 129, 3, 162
1731649592281,9i,6.40959767402758,1.6s : 0.4s,-4.8421337014705585,2.1687671829673674,6.63985302272265,3.1624234586008315,-2.9191651344299316,3.5895533561706543,9.837291717529297,2.946967840194702,0.19592618942260742,1.1304492950439453,-0.9166130249082489,-0.38433476528040617,-0.5639869510540687,-0.22815674543380737,0.7935451865196228,-0.5641192197799683, 204, 129, 3, 162
1731649592291,9i,6.40959767402758,1.6s : 0.4s,-4.8421337014705585,2.2265596467980933,6.993263964846463,3.5743803953190016,-3.9755823612213135,3.7456703186035156,10.344416618347168,3.283780336380005,0.38717299699783325,1.357600450515747,-0.9796372634033036,-0.22834122745385393,-0.41754885688342597,-0.1261569857597351,0.8302952647209167,-0.5428574681282043, 204, 129, 3, 162
1731649592301,9i,6.40959767402758,1.6s : 0.4s,-4.8421337014705585,2.2932397095696926,7.411476594007321,4.057775630501483,-4.931020736694336,3.7069714069366455,10.953070640563965,3.6402838230133057,0.747766375541687,1.6293318271636963,-1.0380097240807558,-0.03213824916344692,-0.2306656522339723,-0.01632135547697544,0.861395001411438,-0.507673442363739, 204, 129, 3, 162
1731649592311,9i,6.40959767402758,1.6s : 0.4s,-4.8421337014705585,2.3700047244833513,7.789225792217967,4.565023860191305,-5.4366655349731445,3.52060604095459,11.252342224121094,3.9807159900665283,1.20780611038208,1.8800392150878906,-1.0801043902507792,0.20956792374027103,0.004419758249079083,0.09803470969200134,0.8820070028305054,-0.46092596650123596, 204, 129, 3, 162
1731649592321,9i,6.40959767402758,1.6s : 0.4s,-4.8421337014705585,2.456515127363058,8.128594186680488,4.937904967832847,-6.050431728363037,3.2301344871520996,11.468118667602539,4.199796199798584,1.6756831407546997,1.9841127395629883,-1.0953207732816739,0.4847351022260409,0.27619181625601963,0.21330486238002777,0.8890751600265503,-0.40502646565437317, 204, 129, 3, 162
1731649592331,9i,6.40959767402758,1.6s : 0.4s,-4.8421337014705585,2.5511499243452036,8.456866866819311,5.143417303804262,-7.6384053230285645,2.486905097961426,11.392342567443848,4.24119234085083,2.169201374053955,1.9394830465316772,-1.082668971577774,0.7673196837645356,0.5618049659935123,0.3255648612976074,0.8832126259803772,-0.33755433559417725, 204, 129, 3, 162
1731649592341,9i,6.40959767402758,1.6s : 0.4s,-4.8421337014705585,2.6520459575518585,8.93569764189829,5.239848422128976,-10.59836196899414,1.6815054416656494,11.16989517211914,4.177897930145264,2.4471797943115234,2.0031204223632812,-1.049392523824425,1.0433083726170367,0.8525987568295104,0.4303935170173645,0.8671208024024963,-0.2507246732711792, 204, 129, 3, 162
1731649592351,9i,6.40959767402758,1.6s : 0.4s,-4.8421337014705585,2.757572691721575,9.802659449905555,5.246112410355241,-14.706406593322754,0.6495408415794373,11.170631408691406,4.166227340698242,2.3446311950683594,2.1603124141693115,-0.9939177447032149,1.3150164269074092,1.1568426723444436,0.5276662707328796,0.8381691575050354,-0.1379888653755188, 204, 129, 3, 162
1731649592361,9i,6.40959767402758,1.6s : 0.4s,-4.8421337014705585,2.8662744349086116,11.20555096761577,5.255650331915518,-19.28635597229004,-0.4925834834575653,11.542989730834961,4.391334056854248,2.115358591079712,1.9655288457870483,-0.9017382412231129,1.5710939878168666,1.46995508835971,0.6202472448348999,0.7844062447547913,0.00018462343723513186, 204, 129, 3, 162
1731649592371,9i,6.40959767402758,1.6s : 0.4s,-4.8421337014705585,2.9803427095469686,12.774493350495298,5.839105147626447,-23.41050910949707,-3.3499252796173096,10.005935668945312,5.166143417358398,2.131197214126587,1.6923680305480957,-0.7684059030849426,1.7778027574220387,1.7711497820221282,0.7036688327789307,0.6949899196624756,0.1477809101343155, 204, 129, 3, 162
1731649592381,9i,6.40959767402758,1.6s : 0.4s,-4.8421337014705585,3.108201413512739,14.036512964832788,7.281918372684819,-25.20482063293457,-7.180294990539551,6.28395414352417,6.318655014038086,2.64685320854187,2.4688260555267334,-0.6253743692326473,1.9011077369504508,2.0488539178515666,0.7669162154197693,0.5854008197784424,0.2629547715187073, 204, 129, 3, 162
1731649592391,9i,6.40959767402758,1.6s : 0.4s,-4.8421337014705585,3.251854696129991,15.512904561349897,8.076011699557128,-28.103906631469727,-6.477851867675781,4.664024353027344,6.128124237060547,3.1026201248168945,4.247564792633057,-0.47792838275399013,1.9706529271729794,2.31654726498182,0.817905068397522,0.45994067192077637,0.3456664979457855, 204, 129, 3, 162
1731649592401,9i,6.40959767402758,1.6s : 0.4s,-4.8421337014705585,3.39958160396944,16.880696228934696,7.597345824128207,-30.708850860595703,-5.490334510803223,-0.20490020513534546,3.9252753257751465,2.7383460998535156,5.900282859802246,-0.33189203175047344,2.024129221331602,2.598816412365511,0.8499321341514587,0.32583239674568176,0.41406339406967163, 204, 129, 3, 162
1731649592411,9i,6.40959767402758,1.6s : 0.4s,-4.8421337014705585,3.545998559974757,17.19052750324513,8.272107185509268,-26.995840072631836,-7.285609245300293,-6.207192420959473,2.6716063022613525,1.138000726699829,7.745658874511719,-0.2301135655735392,2.0413856032015483,2.8888351367213634,0.8678070306777954,0.22808809578418732,0.44145992398262024, 204, 129, 3, 162
1731649592421,9i,6.40959767402758,1.6s : 0.4s,-4.8421337014705585,3.700325533592702,15.80767808925201,10.559000244822231,-17.12935447692871,-9.60366439819336,-6.1498918533325195,3.023725748062134,0.25802719593048096,10.113505363464355,-0.19318433750093736,2.0042792418880464,3.120688843817027,0.8906266093254089,0.19198496639728546,0.4122205376625061, 204, 129, 3, 162
1731649592431,9i,6.40959767402758,1.6s : 0.4s,-4.8421337014705585,3.8691237401434364,13.76302918454588,11.408730069901235,-11.236104965209961,-8.314433097839355,-3.5814778804779053,2.4278836250305176,3.906402349472046,10.440523147583008,-0.17994010773367836,1.9429039388492815,-3.0157495556807534,0.9165225028991699,0.17897064983844757,0.3577094078063965, 204, 129, 3, 162
1731649592441,9i,6.40959767402758,1.6s : 0.4s,-4.8421337014705585,4.039029512484832,12.554492711051482,9.701977403217557,-11.640395164489746,-8.165574073791504,-6.585918426513672,1.5334268808364868,6.329195022583008,7.191540718078613,-0.18863005194265292,1.8832684815997378,-2.891030992027886,0.9346976280212402,0.18751342594623566,0.30195921659469604, 204, 129, 3, 162
1731649592451,9i,6.40959767402758,1.6s : 0.4s,-4.8421337014705585,4.1854348319673855,12.101888890383353,5.1243163676817565,-12.312810897827148,-7.83622932434082,-10.444683074951172,0.5522791147232056,2.3876876831054688,4.500283718109131,-0.23728992276461264,1.8330951961217246,-2.748137130920667,0.9387333989143372,0.23506934940814972,0.2520354688167572, 204, 129, 3, 162
1731649592461,9i,6.40959767402758,1.6s : 0.4s,-4.8421337014705585,4.301813365223655,11.737030600638892,3.8037859538873824,-10.73432731628418,-7.249938488006592,-11.852184295654297,-0.3258330225944519,-0.269922137260437,3.7801802158355713,-0.3177533106457125,1.797750488302448,-2.6018746006533484,0.9255797266960144,0.312433123588562,0.21374674141407013, 204, 129, 3, 162
1731649592471,9i,6.40959767402758,1.6s : 0.4s,-4.8421337014705585,4.399000843761098,11.182497536199378,3.448491045739162,-7.090341091156006,-7.273245334625244,-12.878758430480957,-0.24997848272323608,1.1166552305221558,3.253103494644165,-0.42056645005183607,1.7701175809281278,-2.4795364004183345,0.8947843313217163,0.40827760100364685,0.1807495653629303, 204, 129, 3, 162
1731649592481,9i,6.40959767402758,1.6s : 0.4s,-4.8421337014705585,4.48426097182649,10.599298114707889,3.161424160841993,-3.8411340713500977,-7.259582996368408,-13.278772354125977,0.2951781153678894,1.9202123880386353,2.494044303894043,-0.5451055027404748,1.741641398579015,-2.3916012217975213,0.8426239490509033,0.5185083150863647,0.1453753262758255, 204, 129, 3, 162
1731649592491,9i,6.40959767402758,1.6s : 0.4s,-4.8421337014705585,4.558391848848525,10.144387784348536,2.3737214581846744,-1.6000629663467407,-6.591860771179199,-13.662254333496094,0.5973079800605774,1.0766654014587402,2.029425621032715,-0.6796482488120598,1.7106489763011656,-2.33352611549319,0.7701999545097351,0.6285194754600525,0.10842229425907135, 204, 129, 3, 162
1731649592501,9i,6.40959767402758,1.6s : 0.4s,-4.8421337014705585,4.6263306810674125,9.779052705970178,2.5891042272324114,0.6093900203704834,-6.049903869628906,-13.589057922363281,0.9738346338272095,0.5746153593063354,2.32914662361145,-0.8155292985148767,1.668227363203255,-2.3058552621902884,0.6822323203086853,0.7280884981155396,0.06668173521757126, 204, 129, 3, 162
1731649592511,9i,6.40959767402758,1.6s : 0.4s,-4.8421337014705585,4.691440379032043,9.463849082607357,2.9004070599227383,2.6763925552368164,-5.736110687255859,-12.977663040161133,1.3766610622406006,0.10228747129440308,2.550823926925659,-0.9487547862084076,1.5991917039892236,-2.31906526948715,0.5824605822563171,0.8126905560493469,0.016543636098504066, 204, 129, 3, 162
1731649592521,9i,6.40959767402758,1.6s : 0.4s,-4.8421337014705585,4.7533084696612296,9.35401603329029,2.875351279644393,4.509746551513672,-5.345346927642822,-12.267704010009766,1.5610456466674805,-0.41819900274276733,2.378211736679077,-1.0737273401274852,1.479681574295879,-2.3946113357156453,0.47487354278564453,0.8789839744567871,-0.04338812083005905, 204, 129, 3, 162
1731649592531,9i,6.40959767402758,1.6s : 0.4s,-4.8421337014705585,4.810237446788492,8.981123076046826,2.761842205878129,5.711895942687988,-5.1121978759765625,-11.268535614013672,1.632368564605713,-0.9749687314033508,2.003142833709717,-1.1794621717661857,1.2725171039239107,-2.565951797845291,0.3645796775817871,0.9244009852409363,-0.11209068447351456, 204, 129, 3, 162
1731649592541,9i,6.40959767402758,1.6s : 0.4s,-4.8421337014705585,4.865714982482228,8.679136257062023,2.864694862728369,6.564444065093994,-5.018774032592773,-10.056419372558594,1.6283142566680908,-1.3632745742797852,1.9226418733596802,-1.2481617448171518,0.9470794427024003,-2.8590426467360097,0.25736695528030396,0.9484033584594727,-0.18518459796905518, 204, 129, 3, 162
1731649592551,9i,6.40959767402758,1.6s : 0.4s,-4.8421337014705585,4.91988314990972,8.447116569974238,2.8452295601968114,7.113409042358398,-5.068775177001953,-9.064837455749512,1.514877438545227,-1.3455252647399902,1.9975082874298096,-1.2623114916952223,0.5378238662913399,3.0474013605746197,0.15553270280361176,0.9527946710586548,-0.26075291633605957, 204, 129, 3, 162
1731649592561,9i,6.40959767402758,1.6s : 0.4s,-4.8421337014705585,4.969025429164456,8.274820774998618,2.6480642497014495,7.4669013023376465,-4.949913501739502,-8.40391731262207,1.2365703582763672,-1.269898772239685,1.9673573970794678,-1.2227757300534756,0.17835237905989476,2.723587661575809,0.060502998530864716,0.9400495886802673,-0.33562833070755005, 204, 129, 3, 162
1731649592571,9i,6.40959767402758,1.6s : 0.4s,-4.8421337014705585,5.013399685500997,8.091519788463774,2.4525317805871105,7.854219913482666,-4.9555583000183105,-7.403397560119629,0.8948729038238525,-1.1853448152542114,1.9516844749450684,-1.1504432869532468,-0.06617084282732393,2.5172231102209905,-0.026983484625816345,0.9129449129104614,-0.4071897864341736, 204, 129, 3, 162
1731649592581,9i,6.40959767402758,1.6s : 0.4s,-4.8421337014705585,5.052717472010048,7.874749062397045,2.234778653164374,8.108129501342773,-5.187915325164795,-6.139451026916504,0.4718221426010132,-1.0753252506256104,1.901392936706543,-1.0628735979079311,-0.22290773461834346,2.4006509193215244,-0.10751853883266449,0.8737567067146301,-0.47432997822761536, 204, 129, 3, 162
1731649592591,9i,6.40959767402758,1.6s : 0.4s,-4.8421337014705585,5.087376438003601,7.672871914688156,2.039539155498016,7.922377109527588,-5.067032337188721,-5.686339855194092,0.18604621291160583,-0.9000195860862732,1.8207337856292725,-0.9698643005192337,-0.33006766468690457,2.335011488167839,-0.18325385451316833,0.8248090147972107,-0.5348908305168152, 204, 129, 3, 162
1731649592601,9i,6.40959767402758,1.6s : 0.4s,-4.8421337014705585,5.1183251145889495,7.436542112181542,1.8779970008581075,7.305674076080322,-4.849613189697266,-5.513749599456787,0.04485619068145752,-0.6994314193725586,1.7423135042190552,-0.8786072208255703,-0.41214390963454356,2.2946857910168066,-0.25565633177757263,0.7698507308959961,-0.5847817063331604, 204, 129, 3, 162
1731649592611,9i,6.40959767402758,1.6s : 0.4s,-4.8421337014705585,5.14665024658875,7.128871233296118,1.7457260985790581,6.661550521850586,-4.534851551055908,-5.199846267700195,0.018215954303741455,-0.5264071226119995,1.664368748664856,-0.7926679615368097,-0.47925630787568274,2.2677834612185457,-0.32368162274360657,0.7122285962104797,-0.6228647828102112, 204, 129, 3, 162
1731649592621,9i,6.40959767402758,1.6s : 0.4s,-4.8421337014705585,5.173428703645908,6.779929210397352,1.5898599416206152,6.106027603149414,-4.298281192779541,-4.853559494018555,0.1411105990409851,-0.38957440853118896,1.5349183082580566,-0.7126704927390132,-0.5354213765909341,2.25054171844801,-0.3860294222831726,0.653856635093689,-0.6507325768470764, 204, 129, 3, 162
1731649592631,9i,6.40959767402758,1.6s : 0.4s,-4.8421337014705585,5.199316456998034,6.404587612005373,1.3802854320854636,5.366145133972168,-4.17770528793335,-4.661623001098633,0.3099595904350281,-0.21048027276992798,1.3284618854522705,-0.6390725886340193,-0.5857637404660514,2.238234192723416,-0.4437333643436432,0.5964512825012207,-0.668839693069458, 204, 129, 3, 162
1731649592641,9i,6.40959767402758,1.6s : 0.4s,-4.8421337014705585,5.22504250343854,6.050794787837293,1.3041935979485522,5.036375999450684,-4.269958019256592,-4.166023254394531,0.442968487739563,-0.04289841651916504,1.2259117364883423,-0.5706175122011045,-0.6322974044117102,2.2292787998201304,-0.4973660707473755,0.540151834487915,-0.6788688898086548, 204, 129, 3, 162
1731649592651,9i,6.40959767402758,1.6s : 0.4s,-4.8421337014705585,5.250473398575094,5.709241596948283,1.2297565703943534,4.645461559295654,-4.090222358703613,-3.9349961280822754,0.5152779221534729,-0.032658934593200684,1.1161197423934937,-0.5047826216037442,-0.6747250765465479,2.2220886101914714,-0.5467720627784729,0.4836171865463257,-0.6834872961044312, 204, 129, 3, 162
1731649592661,9i,6.40959767402758,1.6s : 0.4s,-4.8421337014705585,5.275425764365611,5.390683049898792,1.1568085509171588,4.384068489074707,-3.563215732574463,-4.0078043937683105,0.5875637531280518,-0.041616231203079224,0.995611846446991,-0.44134947745416214,-0.7123046062983173,2.217067155467788,-0.590951144695282,0.42716002464294434,-0.684332549571991, 204, 129, 3, 162
1731649592671,9i,6.40959767402758,1.6s : 0.4s,-4.8421337014705585,5.301279104076007,5.100883498215467,1.3271885850034362,4.2585649490356445,-3.083066701889038,-3.993591785430908,0.8281727433204651,-0.015071868896484375,1.0369822978973389,-0.38131654929860864,-0.7455556283105367,2.2158855103922015,-0.6296557784080505,0.3721427917480469,-0.6819407939910889, 204, 129, 3, 162
1731649592681,9i,6.40959767402758,1.6s : 0.4s,-4.8421337014705585,5.329076872508744,4.8152803984415655,1.5391726910573578,4.136364459991455,-2.7718899250030518,-3.6787846088409424,1.040971040725708,-0.061364173889160156,1.1321070194244385,-0.3244258927075594,-0.7745189253370344,2.2173426794970417,-0.6628888249397278,0.31876468658447266,-0.6774714589118958, 204, 129, 3, 162
1731649592691,9i,6.40959767402758,1.6s : 0.4s,-4.8421337014705585,5.358819135312952,4.513291832933239,1.662683100218957,3.8815715312957764,-2.4757111072540283,-3.3322057723999023,1.115842580795288,-0.14588868618011475,1.2239799499511719,-0.271273913805681,-0.7995556153467255,2.2216727595917187,-0.6908242106437683,0.26795896887779236,-0.6715354323387146, 204, 129, 3, 162
1731649592701,9i,6.40959767402758,1.6s : 0.4s,-4.8421337014705585,5.389832773720705,4.181682330025495,1.7200479696256006,3.470578908920288,-2.2615935802459717,-2.9422175884246826,1.1214103698730469,-0.30885443091392517,1.2671277523040771,-0.22331891857579614,-0.8218884316117149,2.2272291788077854,-0.7142449021339417,0.22146734595298767,-0.6639325022697449, 204, 129, 3, 162
1731649592711,9i,6.40959767402758,1.6s : 0.4s,-4.8421337014705585,5.421029848967886,3.8502087244166416,1.6979887001823744,3.2326557636260986,-2.029975414276123,-2.5485053062438965,1.0515689849853516,-0.4704982042312622,1.2473971843719482,-0.18072414330067232,-0.8420815914941056,2.2339908526390486,-0.733880877494812,0.1797419637441635,-0.655066192150116, 204, 129, 3, 162
1731649592721,9i,6.40959767402758,1.6s : 0.4s,-4.8421337014705585,5.451900706341318,3.5350207285738886,1.5988470321624213,3.0558125972747803,-1.7734378576278687,-2.2366116046905518,0.9715734720230103,-0.5933913588523865,1.1226056814193726,-0.14202504871104416,-0.8597668983411115,2.2425530147888284,-0.750061571598053,0.1415480673313141,-0.6460431814193726, 204, 129, 3, 162
1731649592731,9i,6.40959767402758,1.6s : 0.4s,-4.8421337014705585,5.480896848811556,3.1888230740065726,1.4774014334657726,2.6179039478302,-1.5370591878890991,-1.8492742776870728,0.93959641456604,-0.6203708648681641,0.956563413143158,-0.10823771295528169,-0.8752639051817371,2.251250144761737,-0.7632200121879578,0.10802649706602097,-0.637044370174408, 204, 129, 3, 162
1731649592741,9i,6.40959767402758,1.6s : 0.4s,-4.8421337014705585,5.508492622665422,2.8496361293621093,1.3767931312608956,2.370509624481201,-1.2827067375183105,-1.4913028478622437,0.922519326210022,-0.4935203492641449,0.8949609398841858,-0.07967947355344011,-0.8884845099535127,2.2602621286678657,-0.773654580116272,0.079595185816288,-0.6285882592201233, 204, 129, 3, 162
1731649592751,9i,6.40959767402758,1.6s : 0.4s,-4.8421337014705585,5.534706417577104,2.4952511481055057,1.3102916425873212,1.8696848154067993,-1.1213685274124146,-1.2042253017425537,0.8546216487884521,-0.4862883388996124,0.8660309910774231,-0.05608091543867216,-0.8999527482961447,2.268595407004411,-0.7820661067962646,0.05605152249336243,-0.6206696629524231, 204, 129, 3, 162
1731649592761,9i,6.40959767402758,1.6s : 0.4s,-4.8421337014705585,5.559179386980171,2.1747849935651,1.2844819106846177,1.7669333219528198,-0.7818570137023926,-0.9382359385490417,0.7045588493347168,-0.6078617572784424,0.8854347467422485,-0.03656559501447764,-0.9090462465559781,2.276310024607466,-0.7883906364440918,0.03655744716525078,-0.614087700843811, 204, 129, 3, 162
1731649592771,9i,6.40959767402758,1.6s : 0.4s,-4.8421337014705585,5.581697626356344,1.843735385412178,1.3240682221038353,1.309715747833252,-0.5804064869880676,-0.7242429852485657,0.5540217161178589,-0.7672964930534363,0.9259982109069824,-0.02060911473409655,-0.9156262915962468,2.2834811190977087,-0.7927759885787964,0.020607655867934227,-0.6091647148132324, 204, 129, 3, 162
1731649592781,9i,6.40959767402758,1.6s : 0.4s,-4.8421337014705585,5.602567185503747,1.520716162197873,1.3043425561014743,1.0040125846862793,-0.3370579779148102,-0.47516244649887085,0.47050940990448,-0.7726308107376099,0.9396659135818481,-0.009142164689703488,-0.9201999413117,2.2888886761958758,-0.7956894636154175,0.009142037481069565,-0.6056357622146606, 204, 129, 3, 162
1731649592791,9i,6.40959767402758,1.6s : 0.4s,-4.8421337014705585,5.62288462663846,1.2078307592325606,1.2908098184766554,0.6518979072570801,-0.13383181393146515,-0.3067331314086914,0.4031023383140564,-0.6281989812850952,1.0531213283538818,-0.0013068935545674878,-0.9225029803821934,2.293496494696184,-0.7971147894859314,0.0013068931875750422,-0.6038263440132141, 204, 129, 3, 162
1731649592801,9i,6.40959767402758,1.6s : 0.4s,-4.8421337014705585,5.642768770414689,0.8868725098110004,1.2523819513103105,0.19639989733695984,0.039865151047706604,-0.13086675107479095,0.35114341974258423,-0.5511664152145386,1.0683512687683105,0.002101985861311553,-0.9232080196342752,2.2956503344348933,-0.797539234161377,-0.002101984340697527,-0.6032634377479553, 204, 129, 3, 162
1731649592811,9i,6.40959767402758,1.6s : 0.4s,-4.8421337014705585,5.662389098579655,0.5821033669380632,1.233561014832548,-0.07952030003070831,0.23348309099674225,0.10903402417898178,0.3004065752029419,-0.48554253578186035,1.0934702157974243,0.0017926605076068523,-0.9219413884820437,2.2962932837964183,-0.7967749834060669,-0.001792659517377615,-0.6042734980583191, 204, 129, 3, 162
1731649592821,9i,6.40959767402758,1.6s : 0.4s,-4.8421337014705585,5.681510921509654,0.29803738327995016,1.1957143368121506,-0.3834975063800812,0.3585626780986786,0.2857499420642853,0.2757492661476135,-0.4978666603565216,1.051581621170044,-0.0014372345996911426,-0.9189933752348535,2.2958417996762437,-0.7949905395507812,0.001437234110198915,-0.6066200733184814, 204, 129, 3, 162
1731649592831,9i,6.40959767402758,1.6s : 0.4s,-4.8421337014705585,5.69984135461676,0.08201057231985909,1.1260023947946638,-0.6586294174194336,0.47786444425582886,0.4107542335987091,0.26244640350341797,-0.5073665976524353,0.9703516960144043,-0.007565008331835015,-0.9149446774808094,2.2939639042470286,-0.792506217956543,0.007564936298877001,-0.6098170280456543, 204, 129, 3, 162
1731649592841,9i,6.40959767402758,1.6s : 0.4s,-4.8421337014705585,5.717474295560432,0.22899381598209634,1.0785221820833437,-0.7155590057373047,0.6605479717254639,0.5168036818504333,0.22869324684143066,-0.45767250657081604,0.9494447708129883,-0.015595506734166096,-0.9092795589878625,2.291462434339118,-0.7889654040336609,0.015594874508678913,-0.6142396330833435, 204, 129, 3, 162
1731649592850,9i,6.40959767402758,1.6s : 0.4s,-4.8421337014705585,5.734397647589819,0.4087120082844686,1.0168133761506697,-0.804874062538147,0.766058623790741,0.5672194361686707,0.21437108516693115,-0.42189767956733704,0.8999760150909424,-0.024591798352556354,-0.9021743996623545,2.289152340009938,-0.7844394445419312,0.02458932064473629,-0.6197177767753601, 204, 129, 3, 162
1731649592860,9i,6.40959767402758,1.6s : 0.4s,-4.8421337014705585,5.7507070532683215,0.5701701050998252,0.9561904591156952,-0.9952563047409058,0.8095062375068665,0.6094672679901123,0.2428378462791443,-0.3918212056159973,0.8377386927604675,-0.03481834539300352,-0.8944345989257989,2.2859537372676506,-0.779382586479187,0.03481131047010422,-0.6255804300308228, 204, 129, 3, 162
1731649592870,9i,6.40959767402758,1.6s : 0.4s,-4.8421337014705585,5.766793971603264,0.7253977717104888,0.9427117628360935,-1.2061527967453003,0.8562781810760498,0.6837064623832703,0.26501500606536865,-0.33733248710632324,0.839451789855957,-0.04677641969318256,-0.8863326914881382,2.281629088438437,-0.7739108800888062,0.046759363263845444,-0.6315659880638123, 204, 129, 3, 162
1731649592880,9i,6.40959767402758,1.6s : 0.4s,-4.8421337014705585,5.782894431515637,0.8908954262217044,0.9435300640318542,-1.4778741598129272,0.9246101379394531,0.7861824631690979,0.26075607538223267,-0.28884974122047424,0.8595470190048218,-0.060966972785689404,-0.8777861996832641,2.2761117899323446,-0.7678971886634827,0.06092921271920204,-0.6376689076423645, 204, 129, 3, 162
1731649592890,9i,6.40959767402758,1.6s : 0.4s,-4.8421337014705585,5.799082110741205,1.0618994921706806,0.9349978904963085,-1.696737289428711,1.0293198823928833,0.906366229057312,0.24051016569137573,-0.23206230998039246,0.8732256293296814,-0.07772156115564363,-0.8685587097454642,2.2693556874864367,-0.7610942125320435,0.07764333486557007,-0.6439775824546814, 204, 129, 3, 162
1731649592900,9i,6.40959767402758,1.6s : 0.4s,-4.8421337014705585,5.815346335365834,1.213098343267212,0.9080117293223205,-1.7869404554367065,1.1093065738677979,1.0136101245880127,0.22872930765151978,-0.16622918844223022,0.8628650307655334,-0.09637094948013697,-0.8584619974731512,2.262511852959601,-0.753326416015625,0.09622184932231903,-0.650569498538971, 204, 129, 3, 162
1731649592910,9i,6.40959767402758,1.6s : 0.4s,-4.8421337014705585,5.831577242558181,1.3432972319600598,0.8666357112769713,-1.8704297542572021,1.1397751569747925,1.1107677221298218,0.24319154024124146,-0.13472752273082733,0.8208311796188354,-0.11638967936698094,-0.8479539645706631,2.2559206497294726,-0.744854748249054,0.11612707376480103,-0.6570433378219604, 204, 129, 3, 162
1731649592920,9i,6.40959767402758,1.6s : 0.4s,-4.8421337014705585,5.847760744784758,1.4625923812096642,0.8379050361418492,-1.9909108877182007,1.1676619052886963,1.1878787279129028,0.2634311318397522,-0.10809706151485443,0.7880380153656006,-0.13782992349739137,-0.837351909758476,2.249225448287194,-0.7358279824256897,0.13739393651485443,-0.6630837917327881, 204, 129, 3, 162
1731649592930,9i,6.40959767402758,1.6s : 0.4s,-4.8421337014705585,5.863950090596036,1.577425687004803,0.8261839702349428,-2.1029410362243652,1.205765724182129,1.3022291660308838,0.2751559615135193,-0.07633590698242188,0.7752689719200134,-0.16081414458699644,-0.8265372699967065,2.2425282357102283,-0.726098895072937,0.16012190282344818,-0.6686862707138062, 204, 129, 3, 162
1731649592940,9i,6.40959767402758,1.6s : 0.4s,-4.8421337014705585,5.88015007907111,1.6776168812501504,0.825460640247198,-2.138775587081909,1.2436622381210327,1.4160386323928833,0.2756287455558777,-0.07347585260868073,0.7746065855026245,-0.18523584732980292,-0.8154586344248375,2.2362863249576383,-0.7155853509902954,0.18417835235595703,-0.6738069653511047, 204, 129, 3, 162
1731649592950,9i,6.40959767402758,1.6s : 0.4s,-4.8421337014705585,5.896247380340443,1.768672163109889,0.81608565387597,-2.1559650897979736,1.3272910118103027,1.5241450071334839,0.26391834020614624,-0.08993268013000488,0.766977846622467,-0.21065842561530929,-0.8037201821211092,2.2309082716783872,-0.704027533531189,0.2091038078069687,-0.678690493106842, 204, 129, 3, 162
1731649592960,9i,6.40959767402758,1.6s : 0.4s,-4.8421337014705585,5.912023580168686,1.8468558388174223,0.7656248988221369,-2.13360857963562,1.3893067836761475,1.6413770914077759,0.248090922832489,-0.06606978178024292,0.7212954759597778,-0.23695152256209925,-0.7911374950720351,2.2265689983954884,-0.6912824511528015,0.23474042117595673,-0.6833926439285278, 204, 129, 3, 162
1731649592970,9i,6.40959767402758,1.6s : 0.4s,-4.8421337014705585,5.927278776404397,1.894679988356129,0.6856612613427038,-2.005622625350952,1.4394267797470093,1.702623963356018,0.24848926067352295,0.0014068186283111572,0.6390480995178223,-0.26348748683717604,-0.7778138280821243,2.2240489961402394,-0.677505373954773,0.26044926047325134,-0.6878609657287598, 204, 129, 3, 162
1731649592980,9i,6.40959767402758,1.6s : 0.4s,-4.8421337014705585,5.941854283449615,1.9324399411513167,0.6151747066819699,-1.9584921598434448,1.516247272491455,1.7266254425048828,0.24955826997756958,0.041858941316604614,0.5607213377952576,-0.28954725978460927,-0.7634610558933888,2.2229930618141474,-0.6626442074775696,0.2855183482170105,-0.6923741698265076, 204, 129, 3, 162
1731649592990,9i,6.40959767402758,1.6s : 0.4s,-4.8421337014705585,5.955699769944084,1.9843849063037977,0.5706672396710114,-2.0829286575317383,1.5534343719482422,1.7620213031768799,0.23728132247924805,0.052189797163009644,0.5163670182228088,-0.3161646570342547,-0.748481711275043,2.2220488799440177,-0.6467966437339783,0.31092360615730286,-0.6964054703712463, 204, 129, 3, 162
1731649593000,9i,6.40959767402758,1.6s : 0.4s,-4.8421337014705585,5.968972158617016,2.0603847983289687,0.556392267958888,-2.30576229095459,1.553596019744873,1.8414956331253052,0.23234540224075317,0.08246961236000061,0.49878525733947754,-0.3444198080311798,-0.733501178659289,2.2208767277271373,-0.6301572918891907,0.3376506268978119,-0.699209451675415, 204, 129, 3, 162
1731649593010,9i,6.40959767402758,1.6s : 0.4s,-4.8421337014705585,5.9818594277010995,2.168548615986764,0.55907560135066,-2.6185686588287354,1.590220332145691,1.9119778871536255,0.22156929969787598,0.12365010380744934,0.49817991256713867,-0.37526945078982665,-0.7187267387047331,2.218683602175849,-0.6126062273979187,0.36652323603630066,-0.7002673149108887, 204, 129, 3, 162
1731649593020,9i,6.40959767402758,1.6s : 0.4s,-4.8421337014705585,5.994243503058865,2.2887237492674295,0.5399120532527615,-2.8261759281158447,1.638535976409912,2.003734827041626,0.16516846418380737,0.1821189522743225,0.48068398237228394,-0.4087091348914121,-0.7038642494733713,2.215670675380034,-0.5938641428947449,0.39742511510849,-0.6995560526847839, 204, 129, 3, 162
1731649593030,9i,6.40959767402758,1.6s : 0.4s,-4.8421337014705585,6.005775185504344,2.3957239966368546,0.49531225508480886,-2.8773348331451416,1.7304885387420654,2.066844940185547,0.10041570663452148,0.25812211632728577,0.41063839197158813,-0.44371931389421837,-0.6883029372881426,2.2129093289122426,-0.5737127065658569,0.42930155992507935,-0.6975340843200684, 204, 129, 3, 162
1731649593040,9i,6.40959767402758,1.6s : 0.4s,-4.8421337014705585,6.016271708037532,2.4534961565553512,0.48937960037202355,-2.6870007514953613,1.875295877456665,2.0393331050872803,0.07304167747497559,0.3720360994338989,0.30942922830581665,-0.47833343170462767,-0.6710883045568178,2.2114014543639158,-0.5520455241203308,0.4603002965450287,-0.6952477097511292, 204, 129, 3, 162
1731649593050,9i,6.40959767402758,1.6s : 0.4s,-4.8421337014705585,6.026419101942357,2.4515182460700813,0.5311966087081086,-2.4213552474975586,1.9225434064865112,1.916748046875,0.0894167423248291,0.4874178469181061,0.19130688905715942,-0.5106015011018904,-0.6521396172609952,2.2115680888021676,-0.5294801592826843,0.48870211839675903,-0.6934126019477844, 204, 129, 3, 162
1731649593060,9i,6.40959767402758,1.6s : 0.4s,-4.8421337014705585,6.035414758396733,2.4374711901618524,0.5648738276853608,-2.4644241333007812,1.9419208765029907,1.7509840726852417,0.10296887159347534,0.5420501232147217,0.12108474969863892,-0.5409393702513365,-0.6326799243601049,2.2119226049372496,-0.5068842768669128,0.5149414539337158,-0.6913056969642639, 204, 129, 3, 162
1731649593070,9i,6.40959767402758,1.6s : 0.4s,-4.8421337014705585,6.043632829786531,2.4287989523053035,0.5986499429921146,-2.5672404766082764,1.8354068994522095,1.7155030965805054,0.10447514057159424,0.5786119699478149,0.11258280277252197,-0.5714281089393694,-0.614144466277088,2.211218570798358,-0.48470890522003174,0.5408338308334351,-0.6874271631240845, 204, 129, 3, 162
1731649593080,9i,6.40959767402758,1.6s : 0.4s,-4.8421337014705585,6.051250185542126,2.39329410681815,0.6254399025504118,-2.455467939376831,1.6676056385040283,1.7449140548706055,0.11099669337272644,0.6096917986869812,0.08444356918334961,-0.60201342966065,-0.5967812826023771,2.211260179190155,-0.46318480372428894,0.5663030743598938,-0.6817336082458496, 204, 129, 3, 162
1731649593090,9i,6.40959767402758,1.6s : 0.4s,-4.8421337014705585,6.057822065989089,2.3365635431742726,0.6526499362755916,-2.3263089656829834,1.6513794660568237,1.6282252073287964,0.09391897916793823,0.6445850729942322,-0.0405123233795166,-0.631233362849194,-0.579653023018818,2.2124110449937096,-0.44218558073043823,0.5901408791542053,-0.6754300594329834, 204, 129, 3, 162
1731649593120,9i,6.40959767402758,1.6s : 0.4s,-4.8421337014705585,6.0681679039803775,2.2294805312223196,0.9544074836619321,-2.0348243713378906,1.7958455085754395,1.2142081260681152,-0.15670716762542725,0.8575575351715088,-0.3884991407394409,-0.7087035872129545,-0.5262085251800361,2.2153899176968226,-0.38131773471832275,0.6508500576019287,-0.6564990282058716, 204, 129, 3, 162
1731649593130,9i,6.40959767402758,1.6s : 0.4s,-4.8421337014705585,6.0690482675749635,2.1381612899608484,0.9128279996457849,-1.9664312601089478,1.8097484111785889,1.1000771522521973,-0.18845197558403015,0.7864865064620972,-0.42329633235931396,-0.7318003611138829,-0.5080870776782866,2.2156645259798147,-0.36194780468940735,0.6682101488113403,-0.6499916315078735, 204, 129, 3, 162
1731649593140,9i,6.40959767402758,1.6s : 0.4s,-4.8421337014705585,6.067738728499537,2.049833335795829,0.8748697440703785,-1.8160423040390015,1.8268789052963257,1.0135856866836548,-0.18825730681419373,0.7090371251106262,-0.476678729057312,-0.7534813058920202,-0.48972163626095244,2.215938632418375,-0.3430537283420563,0.6841818690299988,-0.6435909867286682, 204, 129, 3, 162
1731649593150,9i,6.40959767402758,1.6s : 0.4s,-4.8421337014705585,6.064499142833415,1.9480113438832776,0.8962955066871305,-1.6104516983032227,1.7856098413467407,0.9062788486480713,-0.17910492420196533,0.6779701709747314,-0.5582324862480164,-0.7731638473709458,-0.4711197797116453,2.216781580914222,-0.32484710216522217,0.6984031200408936,-0.6377361416816711, 204, 129, 3, 162
1731649593210,9i,6.40959767402758,1.6s : 0.4s,-4.8421337014705585,6.031580302618514,1.6727631487933863,0.8205755986060649,0.08126578480005264,2.315182685852051,-0.13693852722644806,-0.2585512399673462,0.46629172563552856,-0.6237528324127197,-0.8241409698808829,-0.34278145716713815,2.226498156735987,-0.2282804399728775,0.7339646220207214,-0.6396749019622803, 204, 129, 3, 162
1731649593220,9i,6.40959767402758,1.6s : 0.4s,-4.8421337014705585,6.024877440235541,1.5416311862720968,0.7292643719449371,0.05682888627052307,2.297776699066162,-0.28000888228416443,-0.25306230783462524,0.35370904207229614,-0.585385262966156,-0.8229111063733667,-0.32174864485856064,2.2237817196429033,-0.21506206691265106,0.7331287264823914,-0.6451902985572815, 204, 129, 3, 162
1731649593230,9i,6.40959767402758,1.6s : 0.4s,-4.8421337014705585,6.016924650381118,1.4625615094444009,0.6974162023641979,0.27439334988594055,2.192984104156494,-0.34198492765426636,-0.21370065212249756,0.2887765169143677,-0.5977704524993896,-0.8207689803362345,-0.3019942321066836,2.2200723202848303,-0.20274221897125244,0.7316702008247375,-0.6508104801177979, 204, 129, 3, 162
1731649593240,9i,6.40959767402758,1.6s : 0.4s,-4.8421337014705585,6.008669840766473,1.4397439794137357,0.6941397949918685,0.47739920020103455,2.059983730316162,-0.46272918581962585,-0.14394161105155945,0.25590360164642334,-0.628986656665802,-0.8157761099324888,-0.28393950672961793,2.216039749602267,-0.19198060035705566,0.7282577157020569,-0.6578633189201355, 204, 129, 3, 162
1731649593250,9i,6.40959767402758,1.6s : 0.4s,-4.8421337014705585,6.000110420050672,1.411614572792207,0.7273368994273623,0.7696826457977295,1.9396681785583496,-0.5639939308166504,-0.12316371500492096,0.2080652117729187,-0.6859726905822754,-0.8087914058356107,-0.2675071808530533,2.2112458257837857,-0.18248507380485535,0.7234533429145813,-0.6658186912536621, 204, 129, 3, 162
1731649593270,9i,6.40959767402758,1.6s : 0.4s,-4.8421337014705585,5.98119783363955,1.3550138474418816,0.7367442682350287,1.000838041305542,1.7131268978118896,-0.7747511863708496,-0.19177687168121338,0.16685867309570312,-0.6914997696876526,-0.788116543854553,-0.24002963567599134,2.198568811240825,-0.16764390468597412,0.7090263366699219,-0.6849650740623474, 204, 129, 3, 162
1731649593280,9i,6.40959767402758,1.6s : 0.4s,-4.8421337014705585,5.971478917956221,1.2845268876815263,0.687931136169466,1.0623797178268433,1.555828332901001,-0.8341751098632812,-0.19945701956748962,0.127244770526886,-0.6459681987762451,-0.7775296877543892,-0.23041542974167767,2.189980677147009,-0.16275611519813538,0.701521098613739,-0.6938145160675049, 204, 129, 3, 162
1731649593300,9i,6.40959767402758,1.6s : 0.4s,-4.8421337014705585,5.9520472822866095,1.2213899884207977,0.5533793355163151,1.3423186540603638,1.1923210620880127,-0.7950858473777771,-0.12537020444869995,0.08660471439361572,-0.5319874286651611,-0.7526809249474902,-0.2144200699083386,2.174260801788071,-0.15529996156692505,0.6835979223251343,-0.7131450176239014, 204, 129, 3, 162
1731649593310,9i,6.40959767402758,1.6s : 0.4s,-4.8421337014705585,5.942944232239501,1.2238337524939247,0.4920429323738541,1.6852071285247803,1.0391780138015747,-0.8362036347389221,-0.0767085999250412,0.13355976343154907,-0.46731555461883545,-0.7363672205380973,-0.20788935609104808,2.1677726945449276,-0.1529209166765213,0.6716007590293884,-0.724960446357727, 204, 129, 3, 162
1731649593320,9i,6.40959767402758,1.6s : 0.4s,-4.8421337014705585,5.93442211606792,1.28768060068733,0.477055442769388,1.9766370058059692,0.9362567663192749,-0.9110496640205383,-0.07902657985687256,0.15925627946853638,-0.4426896572113037,-0.7167480396128525,-0.20251049904711815,2.1612906191993626,-0.15164053440093994,0.6569363474845886,-0.7385389804840088, 204, 129, 3, 162
1731649593330,9i,6.40959767402758,1.6s : 0.4s,-4.8421337014705585,5.926169983862701,1.3932830105019822,0.5054086636783638,2.2059571743011475,0.9004542827606201,-0.9829610586166382,-0.12812817096710205,0.20123225450515747,-0.44556331634521484,-0.6944585643500689,-0.19784106544968844,2.1545438277802913,-0.15103136003017426,0.6399694681167603,-0.7534112930297852, 204, 129, 3, 162
1731649593340,9i,6.40959767402758,1.6s : 0.4s,-4.8421337014705585,5.918099286388892,1.5470680696983266,0.49887983141625214,2.6766762733459473,0.7134061455726624,-1.072428584098816,-0.17405544221401215,0.21762621402740479,-0.4137929677963257,-0.6691186254107586,-0.19394223867836927,2.1475292709637714,-0.15117037296295166,0.6202949285507202,-0.7696634531021118, 204, 129, 3, 162
1731649593350,9i,6.40959767402758,1.6s : 0.4s,-4.8421337014705585,5.9102978654588965,1.719229260930819,0.4177166626628077,2.682624340057373,1.3451396226882935,-1.007286548614502,-0.20753371715545654,0.15292304754257202,-0.32868146896362305,-0.6377235726990321,-0.1876736855694822,2.141537159967071,-0.14990341663360596,0.595367968082428,-0.7893452644348145, 204, 129, 3, 162
1731649593360,9i,6.40959767402758,1.6s : 0.4s,-4.8421337014705585,5.903103957288323,1.796271368277003,0.344050393572085,2.422166109085083,1.1106613874435425,-1.279107928276062,-0.1732342541217804,0.13547801971435547,-0.2645869851112366,-0.6119163315091828,-0.18121246997132878,2.1331372307211285,-0.1475207358598709,0.574437141418457,-0.8051456809043884, 204, 129, 3, 162
1731649593370,9i,6.40959767402758,1.6s : 0.4s,-4.8421337014705585,5.896901224681992,1.8120826592526749,0.364584263778828,2.4658684730529785,0.5741326808929443,-1.211607813835144,-0.24903738498687744,0.23703670501708984,-0.12130814790725708,-0.5855788504046653,-0.1789577718338269,2.1232689260302835,-0.14834722876548767,0.5526818633079529,-0.8200827836990356, 204, 129, 3, 162
1731649593380,9i,6.40959767402758,1.6s : 0.4s,-4.8421337014705585,5.891611454327206,1.8174664495772967,0.2169215308849035,2.482495069503784,0.43461692333221436,-1.1450741291046143,-0.09557077288627625,0.11110919713973999,-0.15992474555969238,-0.5591992814752652,-0.1785720106215954,2.1149488981194793,-0.15056873857975006,0.5305076241493225,-0.8342006206512451, 204, 129, 3, 162
1731649593390,9i,6.40959767402758,1.6s : 0.4s,-4.8421337014705585,5.887903096781063,1.8311239605686802,0.1579567667785375,2.4384045600891113,0.3935062289237976,-1.328863501548767,0.050351932644844055,0.11611759662628174,-0.09450781345367432,-0.532875949233706,-0.17911328776027882,2.10588755051677,-0.15345557034015656,0.5080126523971558,-0.8475698232650757, 204, 129, 3, 162
1731649593429,9i,6.40959767402758,1.6s : 0.4s,-4.8421337014705585,5.8778237203469015,1.8829312278722967,0.1803967958591861,2.5005476474761963,0.43921858072280884,-1.6188746690750122,-0.11270307004451752,0.126499205827713,0.06195944547653198,-0.42253751097990055,-0.18249861991523592,2.0604695241580635,-0.16552568972110748,0.4100761115550995,-0.8969051241874695, 204, 129, 3, 162
1731649593439,9i,6.40959767402758,1.6s : 0.4s,-4.8421337014705585,5.876294977998473,1.9221183009960157,0.14925896735824887,2.509568929672241,0.3919418752193451,-1.6240198612213135,-0.06272521615028381,0.12537625432014465,0.051230669021606445,-0.3951579187080571,-0.183371058507709,2.048151637149652,-0.16829286515712738,0.38495394587516785,-0.9074623584747314, 204, 129, 3, 162
1731649593449,9i,6.40959767402758,1.6s : 0.4s,-4.8421337014705585,5.875283641733268,1.963924884946139,0.20402712020470296,2.5890052318573,0.3788028359413147,-1.6214956045150757,-0.0005279332399368286,0.1834501326084137,0.08929073810577393,-0.3671960376286283,-0.18408368799568312,2.036176014438165,-0.17084351181983948,0.3589997887611389,-0.9175683259963989, 204, 129, 3, 162
1731649593459,9i,6.40959767402758,1.6s : 0.4s,-4.8421337014705585,5.8755652337871105,2.00216975554325,0.22419328827004012,2.620518684387207,0.3627602159976959,-1.6548844575881958,0.018681228160858154,0.19568204879760742,0.10780620574951172,-0.3386467480953784,-0.18455305073894906,2.02432108477731,-0.17308491468429565,0.3322109878063202,-0.9271879196166992, 204, 129, 3, 162
1731649593469,9i,6.40959767402758,1.6s : 0.4s,-4.8421337014705585,5.8767364786532195,2.015346245026078,0.2305823159295693,2.5159597396850586,0.3782057464122772,-1.6861159801483154,-0.010740980505943298,0.18733957409858704,0.134002685546875,-0.31033955170455435,-0.18486684330364667,2.011922353647083,-0.175034761428833,0.30538198351860046,-0.936004638671875, 204, 129, 3, 162
1731649593479,9i,6.40959767402758,1.6s : 0.4s,-4.8421337014705585,5.878469739410132,2.0242267952936803,0.24674676476409685,2.526278018951416,0.37613964080810547,-1.6640170812606812,-0.04545795917510986,0.18989726901054382,0.15085279941558838,-0.28267869637979565,-0.1848091556436002,1.999775544148709,-0.17646586894989014,0.2789290249347687,-0.9439588785171509, 204, 129, 3, 162
1731649593489,9i,6.40959767402758,1.6s : 0.4s,-4.8421337014705585,5.8806932817040956,2.0372085002455784,0.2568460050539809,2.5401039123535156,0.3845731019973755,-1.7020366191864014,-0.04617898166179657,0.18268346786499023,0.1745397448539734,-0.2547240698602775,-0.18426982585480606,1.9877392246842422,-0.17731650173664093,0.25197839736938477,-0.9513494372367859, 204, 129, 3, 162
1731649593539,9i,6.40959767402758,1.6s : 0.4s,-4.8421337014705585,5.896980998179401,2.034441283001827,0.323793214587329,2.4494147300720215,0.3361165225505829,-1.7181129455566406,0.09409572184085846,0.2665487229824066,0.15792346000671387,-0.11446892392938846,-0.1783229591748791,1.9262427232257298,-0.17621852457523346,0.11421910673379898,-0.9777019023895264, 204, 129, 3, 162
1731649593549,9i,6.40959767402758,1.6s : 0.4s,-4.8421337014705585,5.900913453283368,2.012719553168134,0.3048858085653654,2.3437888622283936,0.3276752829551697,-1.7226978540420532,0.10379043221473694,0.24583597481250763,0.1474705934524536,-0.08792594708457059,-0.17641162709301722,1.913700705090844,-0.17482008039951324,0.08781269937753677,-0.9806767106056213, 204, 129, 3, 162
1731649593529,9i,6.40959767402758,1.6s : 0.4s,-4.8421337014705585,5.892084172233413,2.034291903426169,0.3192187520282364,2.571819543838501,0.33642998337745667,-1.7100862264633179,0.08478322625160217,0.2624891996383667,0.16066062450408936,-0.14217938943347985,-0.18004483755546208,1.9384956393340238,-0.17726674675941467,0.1417008489370346,-0.9739083051681519, 204, 129, 3, 162
1731649593559,9i,6.40959767402758,1.6s : 0.4s,-4.8421337014705585,5.90569476481795,2.002500681730178,0.2866608235519892,2.2741711139678955,0.3017464578151703,-1.7366716861724854,0.11511991918087006,0.20552664995193481,0.16334205865859985,-0.06224425704684213,-0.17432071493149415,1.9008686212533865,-0.17310331761837006,0.06220407038927078,-0.9829373955726624, 204, 129, 3, 162
1731649593569,9i,6.40959767402758,1.6s : 0.4s,-4.8421337014705585,5.910333623687403,1.961704252843965,0.2640480868908192,2.1503777503967285,0.2862628400325775,-1.7493418455123901,0.12456512451171875,0.16399314999580383,0.165260910987854,-0.03752321445581696,-0.17208834725431024,1.8876839748904917,-0.17111968994140625,0.03751441091299057,-0.984535813331604, 204, 129, 3, 162
1731649593579,9i,6.40959767402758,1.6s : 0.4s,-4.8421337014705585,5.915044534907914,1.9217696646790647,0.25903031265543136,2.08311128616333,0.25502076745033264,-1.745181918144226,0.14119693636894226,0.16766357421875,0.13801831007003784,-0.013824895610382443,-0.16981431067559805,1.874239361216743,-0.16898317635059357,0.013824455440044403,-0.9855219721794128, 204, 129, 3, 162
1731649593589,9i,6.40959767402758,1.6s : 0.4s,-4.8421337014705585,5.919814335821531,1.8828515080645947,0.26528399894725113,2.033520460128784,0.22194965183734894,-1.7214665412902832,0.1553996056318283,0.18061187863349915,0.11664438247680664,0.009255805837294618,-0.16755747996542164,1.8607958049524997,-0.16676738858222961,-0.009255673736333847,-0.9859527945518494, 204, 129, 3, 162
1731649593599,9i,6.40959767402758,1.6s : 0.4s,-4.8421337014705585,5.924611837887749,1.844778710258315,0.25403148809068765,1.9924907684326172,0.19332624971866608,-1.688057780265808,0.16043566167354584,0.1689179241657257,0.1012873649597168,0.031899415691024134,-0.16528396577647647,1.8475663465452798,-0.16444872319698334,-0.031894005835056305,-0.9858698844909668, 204, 129, 3, 162
1731649593609,9i,6.40959767402758,1.6s : 0.4s,-4.8421337014705585,5.92940736165189,1.798513925365834,0.24385348880787847,1.890794038772583,0.1773248314857483,-1.658555269241333,0.16270308196544647,0.1600782871246338,0.08583223819732666,0.05368927747303985,-0.1629087243897484,1.8344197514773903,-0.16195540130138397,-0.05366348847746849,-0.9853378534317017, 204, 129, 3, 162
1731649593619,9i,6.40959767402758,1.6s : 0.4s,-4.8421337014705585,5.93418883082665,1.7561135753230235,0.2440726872772857,1.8433386087417603,0.17093750834465027,-1.636582374572754,0.17401525378227234,0.1558968424797058,0.0706140398979187,0.07466736841877611,-0.1604692986791672,1.8213865663918132,-0.15933629870414734,-0.07459800690412521,-0.9844018816947937, 204, 129, 3, 162
1731649593629,9i,6.40959767402758,1.6s : 0.4s,-4.8421337014705585,5.938917336060449,1.7124945696032838,0.2252225606756489,1.7630562782287598,0.14713364839553833,-1.625168800354004,0.17866572737693787,0.11368297040462494,0.07668077945709229,0.09493513025842283,-0.15779528794378467,1.8082868607644649,-0.15643367171287537,-0.09479258954524994,-0.9831291437149048, 204, 129, 3, 162
1731649593639,9i,6.40959767402758,1.6s : 0.4s,-4.8421337014705585,5.943581402247689,1.6789893858038336,0.2117819872647667,1.7495577335357666,0.128872349858284,-1.6184688806533813,0.17326658964157104,0.08080906420946121,0.0911054015159607,0.11470606774158718,-0.155112437691371,1.7951395478474703,-0.15347594022750854,-0.11445469409227371,-0.9815015196800232, 204, 129, 3, 162
1731649593649,9i,6.40959767402758,1.6s : 0.4s,-4.8421337014705585,5.948235950672667,1.6424263472140797,0.21547833647179226,1.663254976272583,0.10909899324178696,-1.6177003383636475,0.17398247122764587,0.08176717162132263,0.09734034538269043,0.1340173354775635,-0.15232612681832017,1.7817962008748678,-0.15037712454795837,-0.13361652195453644,-0.9795577526092529, 204, 129, 3, 162
1731649593659,9i,6.40959767402758,1.6s : 0.4s,-4.8421337014705585,5.952877597720013,1.6093298718462816,0.22268397912434826,1.6392567157745361,0.0886581689119339,-1.5886088609695435,0.18171480298042297,0.10092021524906158,0.07989364862442017,0.15258274032779318,-0.14951704875349503,1.7684332350162373,-0.14722993969917297,-0.1519913673400879,-0.9773545861244202, 204, 129, 3, 162
