timestamp,club,max_speed,tempo,w.rotation,l.speed,t.spped,acc,rotation.x,rotation.y,rotation.z,userAcceleration.x,userAcceleration.y,userAcceleration.z,pitch,roll,yaw,gravity.x,gravity.y,gravity.z,impactIndex,minDownIndex,StartIndex,endIndex
1731649506889,9i,5.488805975219986,1.5s : 0.4s,-0.24231691542492229,0.00047636279690216115,0.14462066423478653,0.028955372892508654,-0.006450552958995104,0.005938698537647724,0.010607088916003704,-0.013197541236877441,-0.003329232335090637,0.025556892156600952,-0.23609191499545057,1.924078388442519,2.976626335823848,0.9122146964073181,0.23390474915504456,0.33638131618499756, 184, 117, 0, 146
1731649506899,9i,5.488805975219986,1.5s : 0.4s,-0.24231691542492229,0.001255044635773985,0.09917208352808458,0.017515262511122665,-0.03144971281290054,0.009411993436515331,0.005255167372524738,-0.008825123310089111,-0.0014763027429580688,0.015057295560836792,-0.2356299958510649,1.924223117041122,2.976810925894738,0.9122673869132996,0.2334556132555008,0.3365507423877716, 184, 117, 0, 146
1731649506909,9i,5.488805975219986,1.5s : 0.4s,-0.24231691542492229,0.0019486956038221594,0.06753668747663782,0.01700618520169707,-0.026469867676496506,0.01532767340540886,0.002510779770091176,-0.011400938034057617,-0.008277460932731628,0.009524315595626831,-0.23523333671355343,1.9243988885212626,2.977074286244936,0.9122949242591858,0.23306989669799805,0.3367430865764618, 184, 117, 0, 146
1731649506919,9i,5.488805975219986,1.5s : 0.4s,-0.24231691542492229,0.002574819171860663,0.044157346284626,0.0222395671012698,-0.027934007346630096,0.00783558003604412,0.01933373510837555,-0.013777434825897217,-0.014698132872581482,0.0094204843044281,-0.23501026896729332,1.9245097043115555,2.9772883055955957,0.9123063087463379,0.232852965593338,0.336862176656723, 184, 117, 0, 146
1731649506929,9i,5.488805975219986,1.5s : 0.4s,-0.24231691542492229,0.00313463055933699,0.030944537305367684,0.021715438020623444,-0.018965279683470726,-0.0016165119595825672,0.023508772253990173,-0.012981057167053223,-0.010594442486763,0.013813406229019165,-0.2347602535407445,1.9245897349089716,2.9774104637721743,0.912334144115448,0.232609823346138,0.3369554281234741, 184, 117, 0, 146
1731649506939,9i,5.488805975219986,1.5s : 0.4s,-0.24231691542492229,0.003630509193575018,0.026874194709774032,0.02156029461341537,-0.013211652636528015,-0.004990115761756897,0.03308743238449097,-0.006086230278015137,-0.003410637378692627,0.020400285720825195,-0.23421431946537427,1.9249817691626185,2.977562456284569,0.9123209118843079,0.23207883536815643,0.3373570442199707, 184, 117, 0, 146
1731649506949,9i,5.488805975219986,1.5s : 0.4s,-0.24231691542492229,0.004073559500420048,0.02300512238603135,0.01984918100228729,-0.002479646587744355,-0.0016529080457985401,0.031511638313531876,-0.004547536373138428,-0.0035084187984466553,0.01900002360343933,-0.23371874968695708,1.9255195505304061,2.9776641467978657,0.9122469425201416,0.23159675300121307,0.3378874659538269, 184, 117, 0, 146
1731649506959,9i,5.488805975219986,1.5s : 0.4s,-0.24231691542492229,0.004460920522556893,0.02020739749858589,0.01773152176548522,-0.01973566599190235,-0.0003571915440261364,0.030313048511743546,-0.008982717990875244,-0.0005256682634353638,0.015278786420822144,-0.2333818779373496,1.926156901542016,2.9777905584351005,0.912104606628418,0.23126903176307678,0.33849596977233887, 184, 117, 0, 146
1731649506969,9i,5.488805975219986,1.5s : 0.4s,-0.24231691542492229,0.004805624639269057,0.018768418880770785,0.015495929262099169,-0.0368824303150177,-0.0005614561960101128,0.02733270637691021,-0.012536168098449707,-0.005138367414474487,0.007521003484725952,-0.23301015784430928,1.9268504603944165,2.9781081308965884,0.9119501113891602,0.2309073805809021,0.33915844559669495, 184, 117, 0, 146
1731649506979,9i,5.488805975219986,1.5s : 0.4s,-0.24231691542492229,0.005123718290783296,0.020144878799423335,0.017202267595247595,-0.05595412477850914,9.066332131624222e-05,0.022492144256830215,-0.013469517230987549,-0.010699912905693054,4.44948673248291e-05,-0.23264137412368682,1.9273027597491614,2.9785491663508195,0.9118765592575073,0.23054854571819305,0.33960065245628357, 184, 117, 0, 146
1731649506989,9i,5.488805975219986,1.5s : 0.4s,-0.24231691542492229,0.0054322557289956715,0.027486312490192247,0.023005590097390647,-0.06933490931987762,-0.002013766672462225,0.030125031247735023,-0.012322664260864258,-0.016290679574012756,-0.010584086179733276,-0.2320830466732182,1.9276644789760877,2.979121602829836,0.9118737578392029,0.23000521957874298,0.3399752676486969, 184, 117, 0, 146
1731649506999,9i,5.488805975219986,1.5s : 0.4s,-0.24231691542492229,0.005740342267687982,0.03480970435291388,0.026802492573034,-0.06843576580286026,-0.009491123259067535,0.04224497452378273,-0.01469123363494873,-0.021517813205718994,-0.006286889314651489,-0.23127670234069084,1.927984655532397,2.9797304539206815,0.9119384288787842,0.2292204201221466,0.3403319716453552, 184, 117, 0, 146
1731649507009,9i,5.488805975219986,1.5s : 0.4s,-0.24231691542492229,0.006042411828953766,0.09449275789873957,0.01901435601953425,-0.04380018636584282,-0.20867985486984253,0.3363434672355652,-0.010654330253601074,-0.015716612339019775,-0.0010094940662384033,-0.23028625769130665,1.9280507169961203,2.9800852262044564,0.9121281504631042,0.2282562404870987,0.34047141671180725, 184, 117, 0, 146
1731649507019,9i,5.488805975219986,1.5s : 0.4s,-0.24231691542492229,0.0063170426594569866,0.18907575824652162,0.01109479687054846,-0.006906286813318729,-0.2815355062484741,0.5554481148719788,-0.009676933288574219,-0.0035228580236434937,-0.004128068685531616,-0.23019024470050473,1.928784834346138,2.98073581257494,0.911898672580719,0.2281627506017685,0.34114870429039, 184, 117, 0, 146
1731649507029,9i,5.488805975219986,1.5s : 0.4s,-0.24231691542492229,0.006598715827842842,0.20779880377109367,0.035066050306946185,-0.012896002270281315,-0.26179376244544983,0.27993854880332947,0.034834861755371094,0.0008297115564346313,-0.003933429718017578,-0.23013930008236733,1.9294035761757191,2.98144170927904,0.9116982817649841,0.22811315953731537,0.3417169153690338, 184, 117, 0, 146
1731649507039,9i,5.488805975219986,1.5s : 0.4s,-0.24231691542492229,0.0068327612075183425,0.16650364583476204,0.03282804905345394,-0.026972537860274315,-0.08786245435476303,0.06319563090801239,-0.02782440185546875,-0.0013089030981063843,-0.017371535301208496,-0.22918584176271728,1.929398350487089,2.981662447085771,0.9119033217430115,0.2271847277879715,0.3417883515357971, 184, 117, 0, 146
1731649507049,9i,5.488805975219986,1.5s : 0.4s,-0.24231691542492229,0.0070344239966879055,0.13627356189500275,0.023252156767139515,-0.10314347594976425,-0.01925542578101158,0.08465298265218735,-0.008038163185119629,0.003402397036552429,-0.021551668643951416,-0.2286411876065662,1.929768354715969,2.9822708449400004,0.911892294883728,0.2266542762517929,0.3421690762042999, 184, 117, 0, 146
1731649507059,9i,5.488805975219986,1.5s : 0.4s,-0.24231691542492229,0.007260972412733859,0.11377223735140406,0.03375507003444707,-0.15423628687858582,-0.02192595601081848,0.029194355010986328,0.011721551418304443,-0.011202484369277954,-0.029605984687805176,-0.2277349496990404,1.9298373472038501,2.983331255485113,0.9120607376098633,0.22577153146266937,0.3423040509223938, 184, 117, 0, 146
1731649507069,9i,5.488805975219986,1.5s : 0.4s,-0.24231691542492229,0.007514069376077934,0.11107729871160575,0.030321076332404235,-0.16057300567626953,-0.03172772005200386,0.04490061476826668,-0.005986273288726807,-0.022304773330688477,-0.01964762806892395,-0.22664806664003995,1.9296823389445463,2.9845657606166984,0.9123429656028748,0.2247125804424286,0.3422486484050751, 184, 117, 0, 146
1731649507079,9i,5.488805975219986,1.5s : 0.4s,-0.24231691542492229,0.007780130531251433,0.11565832907334254,0.023840836183310378,-0.2022237777709961,-0.055760350078344345,0.054336726665496826,0.017855584621429443,-0.007966578006744385,-0.01364174485206604,-0.22527546792409947,1.929520542090061,2.9860717917982753,0.912686288356781,0.2233748733997345,0.34220898151397705, 184, 117, 0, 146
1731649507089,9i,5.488805975219986,1.5s : 0.4s,-0.24231691542492229,0.008010389771890144,0.12763058338743688,0.016268689165184015,-0.22101451456546783,-0.06817707419395447,0.07045124471187592,0.009266555309295654,0.01075795292854309,-0.007941514253616333,-0.22373965452868513,1.9293460829165894,2.9878812716315513,0.9130663871765137,0.22187760472297668,0.342169851064682, 184, 117, 0, 146
1731649507099,9i,5.488805975219986,1.5s : 0.4s,-0.24231691542492229,0.008197213549586458,0.1401335722305523,0.03223845937199853,-0.24632659554481506,-0.04971843585371971,0.0676017627120018,0.024298906326293945,0.018391326069831848,0.010518580675125122,-0.22242122072183967,1.9291705320715073,2.9898499672337158,0.9133995175361633,0.22059184312820435,0.34211182594299316, 184, 117, 0, 146
1731649507108,9i,5.488805975219986,1.5s : 0.4s,-0.24231691542492229,0.008363810859295159,0.1501510734074829,0.022325440264302287,-0.25446441769599915,-0.03181853145360947,0.06429331749677658,0.020143210887908936,0.009563267230987549,-0.0011046528816223145,-0.22097516374081602,1.9289104914739998,2.9919262013981034,0.913785994052887,0.21918118000030518,0.34198567271232605, 184, 117, 0, 146
1731649507118,9i,5.488805975219986,1.5s : 0.4s,-0.24231691542492229,0.0085099454918001,0.16482274028174057,0.02155345859491374,-0.2932455837726593,-0.023868819698691368,0.06468456983566284,-0.0015230178833007812,0.006588920950889587,-0.020465046167373657,-0.21981698074571593,1.929027219689073,2.994299194271319,0.9139835238456726,0.218051016330719,0.3421812057495117, 184, 117, 0, 146
1731649507128,9i,5.488805975219986,1.5s : 0.4s,-0.24231691542492229,0.008638834964133243,0.1845053012032913,0.025066289618260598,-0.3376476466655731,-0.02977118454873562,0.06801698356866837,-0.013215422630310059,0.0023084282875061035,-0.021174103021621704,-0.21846509785252313,1.9289722751934528,2.9969888000631975,0.9142773747444153,0.216731458902359,0.34223392605781555, 184, 117, 0, 146
1731649507138,9i,5.488805975219986,1.5s : 0.4s,-0.24231691542492229,0.008733122860872636,0.19974380425401003,0.020827223934206954,-0.34788820147514343,-0.022053875029087067,0.05471416190266609,-0.010946989059448242,0.011544570326805115,-0.013440966606140137,-0.21661642806354173,1.9286225253766591,2.9998990939185832,0.914770781993866,0.2149263620376587,0.34205392003059387, 184, 117, 0, 146
1731649507148,9i,5.488805975219986,1.5s : 0.4s,-0.24231691542492229,0.008799510665941533,0.2198066130672979,0.0250508626676813,-0.3975982069969177,-0.0108875073492527,0.043487608432769775,-0.0022051334381103516,0.01586054265499115,-0.019264638423919678,-0.21466613435524967,1.9288240567958224,3.003199099071559,0.9150924682617188,0.21302123367786407,0.3423844277858734, 184, 117, 0, 146
1731649507158,9i,5.488805975219986,1.5s : 0.4s,-0.24231691542492229,0.008877004099993972,0.2627602794061381,0.028838278105332512,-0.4199199676513672,-0.2168765366077423,0.36909568309783936,-0.011947393417358398,-0.002917543053627014,-0.02608436346054077,-0.2124121861965843,1.9291735495581812,3.0068412563919162,0.9154200553894043,0.21081848442554474,0.3428717851638794, 184, 117, 0, 146
1731649507168,9i,5.488805975219986,1.5s : 0.4s,-0.24231691542492229,0.008976467944590045,0.3730349851626655,0.035240284166756564,-0.35910746455192566,-0.5403646230697632,0.870326042175293,-0.023350834846496582,-0.010921135544776917,-0.024028003215789795,-0.21084405362455397,1.930101166658299,3.010863661012029,0.9154099822044373,0.20928533375263214,0.34383660554885864, 184, 117, 0, 146
1731649507178,9i,5.488805975219986,1.5s : 0.4s,-0.24231691542492229,0.009205369961980266,0.4486916839922565,0.04138662869923693,-0.2817749083042145,-0.6450121402740479,0.6894618272781372,0.024006962776184082,-0.021278396248817444,-0.026148587465286255,-0.21046605768313845,1.931937882454491,3.015024164249008,0.9148508906364441,0.20891569554805756,0.34554532170295715, 184, 117, 0, 146
1731649507188,9i,5.488805975219986,1.5s : 0.4s,-0.24231691542492229,0.009623489950399196,0.38048526031312635,0.05711704684172624,-0.2678031921386719,-0.20284168422222137,0.1225842833518982,-0.01858043670654297,-0.03144703805446625,-0.043911367654800415,-0.20895924737599728,1.9321685185242827,3.018110514996284,0.9150646924972534,0.20744189620018005,0.34586724638938904, 184, 117, 0, 146
1731649507198,9i,5.488805975219986,1.5s : 0.4s,-0.24231691542492229,0.010141678214127403,0.31564123471580696,0.05491631000891465,-0.3154778480529785,-0.05327180400490761,0.04028525575995445,-0.010071992874145508,-0.0281391441822052,-0.04607108235359192,-0.2075433615585995,1.9322811113391685,3.020938623363941,0.9152995347976685,0.206056609749794,0.34607380628585815, 184, 117, 0, 146
1731649507208,9i,5.488805975219986,1.5s : 0.4s,-0.24231691542492229,0.010730857928647378,0.27608474890893586,0.046424921767753945,-0.33612799644470215,-0.07021056860685349,-0.006946704350411892,0.009418964385986328,-0.03582863509654999,-0.027979731559753418,-0.20635746161100538,1.9324264734360705,3.0241015342911357,0.9154772162437439,0.2048960030078888,0.3462930917739868, 184, 117, 0, 146
1731649507218,9i,5.488805975219986,1.5s : 0.4s,-0.24231691542492229,0.011360509431969475,0.23379744071429476,0.040361326244517624,-0.24391503632068634,-0.024714196100831032,-0.022078819572925568,0.011310338973999023,-0.03832186758518219,-0.005705028772354126,-0.2054127317480462,1.932505236773611,3.0268224795535623,0.9156304597854614,0.2039712369441986,0.34643349051475525, 184, 117, 0, 146
1731649507228,9i,5.488805975219986,1.5s : 0.4s,-0.24231691542492229,0.012038164110012451,0.19512172470180358,0.04662848089058435,-0.21369054913520813,0.038196858018636703,-0.08500957489013672,0.010210216045379639,-0.042912304401397705,-0.015116244554519653,-0.20478683125638564,1.9326688013828108,3.0291132657319224,0.9156929850578308,0.203358456492424,0.3466283679008484, 184, 117, 0, 146
1731649507238,9i,5.488805975219986,1.5s : 0.4s,-0.24231691542492229,0.012901963789054317,0.15165717306507762,0.07369113933837357,-0.11161964386701584,0.10262307524681091,-0.17835049331188202,-0.032696545124053955,-0.057334452867507935,-0.03277316689491272,-0.2045401920409518,1.9327187931693741,3.030764083327263,0.9157228469848633,0.20311695337295532,0.3466919958591461, 184, 117, 0, 146
1731649507248,9i,5.488805975219986,1.5s : 0.4s,-0.24231691542492229,0.013900222879068698,0.12999306412380382,0.07889975887354458,-0.03159991651773453,0.18736672401428223,-0.27975380420684814,-0.03612762689590454,-0.0667596161365509,-0.021520227193832397,-0.20464437739185756,1.9325358860314303,3.0314752072341125,0.9157663583755493,0.2032189667224884,0.34651699662208557, 184, 117, 0, 146
1731649507258,9i,5.488805975219986,1.5s : 0.4s,-0.24231691542492229,0.014942962778056606,0.15625850692003887,0.06535036413247798,0.017447922378778458,0.23904705047607422,-0.3842240869998932,-0.023794353008270264,-0.05685192346572876,-0.021733790636062622,-0.20510704124381118,1.9322055532814821,3.0315036763631587,0.9157925844192505,0.20367196202278137,0.34618112444877625, 184, 117, 0, 146
1731649507268,9i,5.488805975219986,1.5s : 0.4s,-0.24231691542492229,0.015989902272528788,0.1907910892193784,0.055793781072433025,0.06091124564409256,0.23535004258155823,-0.38309386372566223,-0.030653834342956543,-0.045318230986595154,-0.010933727025985718,-0.20571697920134688,1.931757176289102,3.0309754637884527,0.9158315062522888,0.20426906645298004,0.3457266092300415, 184, 117, 0, 146
1731649507278,9i,5.488805975219986,1.5s : 0.4s,-0.24231691542492229,0.017033438159783577,0.20133270230015604,0.062260442132405586,0.09805002063512802,0.1525961309671402,-0.3162899315357208,-0.037461936473846436,-0.049674078822135925,0.0023349225521087646,-0.20637886227202923,1.9312499554414135,3.029936903006379,0.9158797264099121,0.20491695404052734,0.3452141582965851, 184, 117, 0, 146
1731649507288,9i,5.488805975219986,1.5s : 0.4s,-0.24231691542492229,0.01804425760892503,0.16682557231179534,0.048348308165155195,0.09508219361305237,-0.011218361556529999,-0.1457403004169464,-0.03138238191604614,-0.03585384786128998,0.008197963237762451,-0.20713155544370987,1.9308056818993937,3.0288114127373285,0.9158883690834045,0.2056536227464676,0.34475278854370117, 184, 117, 0, 146
1731649507298,9i,5.488805975219986,1.5s : 0.4s,-0.24231691542492229,0.019021889404113156,0.08956000996013773,0.054768190908762775,0.11192842572927475,-0.25534331798553467,0.11758220940828323,-0.03182268142700195,-0.039875999093055725,0.019919246435165405,-0.20785813900842876,1.9304939771718677,3.027754800234165,0.9158557653427124,0.20636461675167084,0.344414621591568, 184, 117, 0, 146
1731649507308,9i,5.488805975219986,1.5s : 0.4s,-0.24231691542492229,0.019941017995786688,0.128550747915339,0.046860585029366145,0.18957048654556274,-0.5228597521781921,0.4388110935688019,-0.02733290195465088,-0.027513772249221802,0.026302456855773926,-0.20854171318852863,1.9300762035601846,3.02637851156622,0.9158674478530884,0.2070334255695343,0.3439823389053345, 184, 117, 0, 146
1731649507318,9i,5.488805975219986,1.5s : 0.4s,-0.24231691542492229,0.020723544815581068,0.29498849921505665,0.03326291078133611,0.23627454042434692,-0.7500990629196167,0.7141588926315308,-0.014789283275604248,0.017125606536865234,0.02438056468963623,-0.20931400065104952,1.9295537854836857,3.0245784626021233,0.915897011756897,0.20778892934322357,0.34344756603240967, 184, 117, 0, 146
1731649507328,9i,5.488805975219986,1.5s : 0.4s,-0.24231691542492229,0.02134212518690415,0.43654487037629564,0.04440080395952406,0.239054337143898,-0.7825344800949097,0.8130338191986084,-0.005965769290924072,0.03949420154094696,0.0193919837474823,-0.21007922823767755,1.9291304988983982,3.022768416993427,0.915893018245697,0.20853738486766815,0.3430039584636688, 184, 117, 0, 146
1731649507338,9i,5.488805975219986,1.5s : 0.4s,-0.24231691542492229,0.021833224444714198,0.5179076964922469,0.03588333539181616,0.21193191409111023,-0.6899366974830627,0.7763920426368713,-0.00845491886138916,0.03329360485076904,0.010376125574111938,-0.21074025270258137,1.9288811815248732,3.021195564365106,0.9158493876457214,0.20918382704257965,0.34272727370262146, 184, 117, 0, 146
1731649507348,9i,5.488805975219986,1.5s : 0.4s,-0.24231691542492229,0.022238569980740558,0.5287662600647397,0.02750810145031492,0.20478399097919464,-0.5070909857749939,0.6234357953071594,-0.016069412231445312,0.021838903427124023,0.004640251398086548,-0.2113284730970947,1.9286768027244707,3.0198102868772634,0.9158039689064026,0.20975899696350098,0.3424969017505646, 184, 117, 0, 146
1731649507358,9i,5.488805975219986,1.5s : 0.4s,-0.24231691542492229,0.02256645129921568,0.4700498974933814,0.02564576939513565,0.18154218792915344,-0.25669389963150024,0.39619988203048706,-0.01340019702911377,0.021185874938964844,0.005412846803665161,-0.21184034213275624,1.928424135859156,3.0183635561706064,0.9157898426055908,0.21025945246219635,0.34222790598869324, 184, 117, 0, 146
1731649507368,9i,5.488805975219986,1.5s : 0.4s,-0.24231691542492229,0.022808100977654816,0.3468352706695746,0.03590761977214058,0.08732300996780396,0.015225229784846306,0.09953226149082184,-0.01023334264755249,0.034115344285964966,-0.0045584142208099365,-0.21217831929584768,1.9282092503288106,3.017298710647267,0.9157967567443848,0.21058987081050873,0.34200623631477356, 184, 117, 0, 146
1731649507378,9i,5.488805975219986,1.5s : 0.4s,-0.24231691542492229,0.022931123377725356,0.1825479683529554,0.04446117293360929,-0.017476173117756844,0.27552250027656555,-0.18614692986011505,-0.007628381252288818,0.04062893986701965,-0.016367435455322266,-0.2123051343302842,1.9281681811239526,3.017105729413101,0.9157856702804565,0.21071383357048035,0.34195923805236816, 184, 117, 0, 146
1731649507388,9i,5.488805975219986,1.5s : 0.4s,-0.24231691542492229,0.023023164416001954,0.043314084307595306,0.026525164702085328,-0.10553359240293503,0.456412136554718,-0.4184403419494629,-0.007332205772399902,0.020952284336090088,-0.014519810676574707,-0.21225094864862765,1.9282622826045817,3.0176841415772833,0.9157641530036926,0.21066085994243622,0.34204939007759094, 184, 117, 0, 146
1731649507398,9i,5.488805975219986,1.5s : 0.4s,-0.24231691542492229,0.02312086502404323,0.16785571126992474,0.01083585516780688,-0.1316736489534378,0.5617862343788147,-0.5585460066795349,-0.005415678024291992,0.000763431191444397,-0.009354323148727417,-0.21203395969383285,1.928369458707798,3.0186380926782617,0.915770411491394,0.2104487419128418,0.3421635627746582, 184, 117, 0, 146
1731649507408,9i,5.488805975219986,1.5s : 0.4s,-0.24231691542492229,0.023200072221904903,0.2862435391127007,0.012041858741090166,-0.14209139347076416,0.5800176858901978,-0.5976068377494812,-0.0038883090019226074,0.010193362832069397,-0.005097329616546631,-0.21175293781907603,1.928580294547472,3.019582682520232,0.9157533049583435,0.21017400920391083,0.3423772156238556, 184, 117, 0, 146
1731649507418,9i,5.488805975219986,1.5s : 0.4s,-0.24231691542492229,0.023258388891603705,0.35466309753876485,0.026702528830259663,-0.15825693309307098,0.508770227432251,-0.5557274222373962,-0.007644236087799072,0.019485682249069214,-0.01658007502555847,-0.21144116899907864,1.9289306967949573,3.0206347687081094,0.9156948924064636,0.20986919105052948,0.3427211344242096, 184, 117, 0, 146
1731649507428,9i,5.488805975219986,1.5s : 0.4s,-0.24231691542492229,0.02331994351233773,0.36430236949024686,0.022815013546467172,-0.16445836424827576,0.35216811299324036,-0.43317943811416626,-0.011828958988189697,0.009686842560768127,-0.01693415641784668,-0.21114740312887836,1.9293105064153004,3.021801768432891,0.9156222343444824,0.20958195626735687,0.3430904746055603, 184, 117, 0, 146
1731649507438,9i,5.488805975219986,1.5s : 0.4s,-0.24231691542492229,0.02340813896419557,0.32007711099057784,0.014886767215389266,-0.13078542053699493,0.17315024137496948,-0.250764399766922,-0.00853341817855835,-0.007319152355194092,-0.009758412837982178,-0.21090553402613865,1.9296698687967677,3.0229320914322275,0.9155461192131042,0.20934545993804932,0.34343722462654114, 184, 117, 0, 146
1731649507448,9i,5.488805975219986,1.5s : 0.4s,-0.24231691542492229,0.0235296906855202,0.23364242586973882,0.018631975755366553,-0.06838408857584,-0.023667750880122185,-0.06014357879757881,-0.005766510963439941,-0.010718435049057007,-0.014107197523117065,-0.21080847511033007,1.9299621343287068,3.0237115998208677,0.9154650568962097,0.2092505395412445,0.34371206164360046, 184, 117, 0, 146
1731649507458,9i,5.488805975219986,1.5s : 0.4s,-0.24231691542492229,0.023674807690231957,0.12230428015237067,0.02040876651292401,0.01844680681824684,-0.19295841455459595,0.12077540904283524,-0.006198585033416748,-0.004477068781852722,-0.018922239542007446,-0.21091712023127018,1.9300635207832,3.024005017063185,0.9154086112976074,0.20935678482055664,0.3437967598438263, 184, 117, 0, 146
1731649507468,9i,5.488805975219986,1.5s : 0.4s,-0.24231691542492229,0.02384602682226688,0.03680017921170738,0.020132492893285277,0.1566891074180603,-0.33392539620399475,0.209939643740654,-0.0019121766090393066,-0.008995041251182556,-0.017909497022628784,-0.211636443447096,1.9299152021505377,3.023427539797434,0.9153186082839966,0.21006011962890625,0.3436080515384674, 184, 117, 0, 146
1731649507478,9i,5.488805975219986,1.5s : 0.4s,-0.24231691542492229,0.02407827770234136,0.14788124845846098,0.035918316143625,0.5383276343345642,-0.4055948853492737,0.10623953491449356,0.0065155029296875,-0.022449731826782227,-0.02727055549621582,-0.2144741179738969,1.9288697270326618,3.0211227142099295,0.9151152968406677,0.21283362805843353,0.3424406051635742, 184, 117, 0, 146
1731649507488,9i,5.488805975219986,1.5s : 0.4s,-0.24231691542492229,0.02439162555837723,0.18675327271768205,0.0397892380134232,0.1390942633152008,-0.30856817960739136,0.3920063078403473,-0.003721296787261963,-0.019176766276359558,-0.03466391563415527,-0.21674695455400433,1.928614445864198,3.0180274043661934,0.9147472381591797,0.21505384147167206,0.3420366942882538, 184, 117, 0, 146
1731649507498,9i,5.488805975219986,1.5s : 0.4s,-0.24231691542492229,0.024775828585958167,0.23036065665117159,0.0501484244907292,0.191659078001976,-0.347329705953598,0.31135374307632446,-0.034829676151275635,0.00022271275520324707,-0.036079198122024536,-0.2170849939615936,1.9282045146576214,3.0171631540605635,0.9148191213607788,0.21538394689559937,0.34163621068000793, 184, 117, 0, 146
1731649507508,9i,5.488805975219986,1.5s : 0.4s,-0.24231691542492229,0.02466999537491214,0.24073443126555102,0.07468072617042869,0.282162070274353,-0.21577194333076477,0.19462978839874268,0.06231498718261719,0.032140448689460754,0.02571079134941101,-0.21810446903911954,1.9272633353129252,3.0149642533588175,0.914933979511261,0.21637938916683197,0.3406982123851776, 184, 117, 0, 146
1731649507518,9i,5.488805975219986,1.5s : 0.4s,-0.24231691542492229,0.024606782947051462,0.20222000106303706,0.07803817188330647,0.16700419783592224,-0.04738248884677887,0.07501024752855301,0.07077789306640625,-0.031021535396575928,0.010867863893508911,-0.21929851404924422,1.9267573835814291,3.013079661082782,0.914863646030426,0.21754498779773712,0.340145081281662, 184, 117, 0, 146
1731649507528,9i,5.488805975219986,1.5s : 0.4s,-0.24231691542492229,0.024734308177724457,0.14134878411238266,0.05297700165014846,0.05772297456860542,0.05477476865053177,-0.020044364035129547,-0.025180041790008545,-0.03500853478908539,-0.030772238969802856,-0.21995966567031425,1.9267777021492858,3.0122021569982906,0.9147214889526367,0.2181902676820755,0.3401133716106415, 184, 117, 0, 146
1731649507538,9i,5.488805975219986,1.5s : 0.4s,-0.24231691542492229,0.02497663502938005,0.08264664564030566,0.05269510689040268,0.010266508907079697,0.09679998457431793,-0.11822299659252167,-0.04475736618041992,-0.027444124221801758,0.004513591527938843,-0.22038588490621822,1.9266548321476051,3.011947296331696,0.9146760702133179,0.21860618889331818,0.33996856212615967, 184, 117, 0, 146
1731649507548,9i,5.488805975219986,1.5s : 0.4s,-0.24231691542492229,0.025394265602173744,0.06188069857072922,0.05031872282168516,0.03904036805033684,0.14529241621494293,-0.16583365201950073,0.007006168365478516,-0.049686700105667114,-0.003757566213607788,-0.22075641001427107,1.926402997353579,3.011693082762689,0.9146857857704163,0.2189677357673645,0.3397100269794464, 184, 117, 0, 146
1731649507558,9i,5.488805975219986,1.5s : 0.4s,-0.24231691542492229,0.0257896276144117,0.08645207207278809,0.016373576167995854,0.10125340521335602,0.15497459471225739,-0.18064269423484802,0.009425163269042969,-0.012986317276954651,0.0032581984996795654,-0.22125371591082296,1.9260811578544816,3.011026539410305,0.9146926999092102,0.21945294737815857,0.33937764167785645, 184, 117, 0, 146
1731649507568,9i,5.488805975219986,1.5s : 0.4s,-0.24231691542492229,0.026129788053224988,0.10441707704903683,0.02022105497382786,0.10370324552059174,0.12856777012348175,-0.15205499529838562,-0.012913346290588379,0.01516839861869812,-0.0034722089767456055,-0.22179887336659176,1.9256609168744254,3.009961323151934,0.9147229790687561,0.21998478472232819,0.33895164728164673, 184, 117, 0, 146
1731649507578,9i,5.488805975219986,1.5s : 0.4s,-0.24231691542492229,0.02641992586846131,0.11375168679436659,0.02746818795788475,0.13996225595474243,0.08890087157487869,-0.11651787161827087,-0.01803964376449585,0.018813714385032654,-0.0086669921875,-0.22230100839607156,1.92517656992658,3.008727766273193,0.9147833585739136,0.22047458589076996,0.3384701907634735, 184, 117, 0, 146
1731649507588,9i,5.488805975219986,1.5s : 0.4s,-0.24231691542492229,0.02666280055287777,0.11275676060647397,0.016731030396435007,0.13897182047367096,0.04383086413145065,-0.07274136692285538,-0.011005938053131104,0.01260097324848175,-0.00011035799980163574,-0.22288236092324862,1.9247286848622003,3.0073078863873737,0.9148145914077759,0.22104160487651825,0.33801600337028503, 184, 117, 0, 146
1731649507598,9i,5.488805975219986,1.5s : 0.4s,-0.24231691542492229,0.026884316162084226,0.10986166193423819,0.014238951840423456,0.1431230902671814,0.012667618691921234,-0.03680336847901344,-0.014146804809570312,0.0008134394884109497,0.001397848129272461,-0.223469211827443,1.9243302301091767,3.005944005258528,0.914827287197113,0.22161389887332916,0.3376064598560333, 184, 117, 0, 146
1731649507608,9i,5.488805975219986,1.5s : 0.4s,-0.24231691542492229,0.027082399151896225,0.10423867196584109,0.018880576431281482,0.13735707104206085,-0.0017893505282700062,-0.01657479628920555,-0.01539081335067749,-0.0023347139358520508,0.010684013366699219,-0.22408450756706752,1.9239719218101343,3.0046324728149165,0.9148200750350952,0.22221384942531586,0.33723142743110657, 184, 117, 0, 146
1731649507618,9i,5.488805975219986,1.5s : 0.4s,-0.24231691542492229,0.0272746705855478,0.1013236214780326,0.01564926859642292,0.13227644562721252,0.007764384150505066,-0.020901702344417572,-0.012144804000854492,-0.008083552122116089,0.005662113428115845,-0.2246911093336438,1.9236744656223066,3.003400972453484,0.9147937893867493,0.22280524671077728,0.33691269159317017, 184, 117, 0, 146
1731649507628,9i,5.488805975219986,1.5s : 0.4s,-0.24231691542492229,0.027452823720862496,0.09004161133448939,0.013600557861640784,0.10012542456388474,-0.0016938322223722935,-0.027358267456293106,-0.013428151607513428,-0.0008127838373184204,0.0019998252391815186,-0.22532513182098216,1.9234112731535642,3.0023618774481555,0.9147497415542603,0.2234232872724533,0.33662307262420654, 184, 117, 0, 146
1731649507638,9i,5.488805975219986,1.5s : 0.4s,-0.24231691542492229,0.027604113618748503,0.08415181089638007,0.021091107988477728,0.09432326257228851,0.006286063697189093,-0.03333769738674164,-0.018475651741027832,0.0034203380346298218,0.009580522775650024,-0.22596039725482306,1.9232512306249963,3.001612174422845,0.9146702289581299,0.22404244542121887,0.33642759919166565, 184, 117, 0, 146
1731649507648,9i,5.488805975219986,1.5s : 0.4s,-0.24231691542492229,0.027739626537137987,0.0850291145756032,0.021271625865515485,0.1324906200170517,0.013947712257504463,-0.04521273449063301,-0.01959937810897827,0.00022405385971069336,0.008264154195785522,-0.2269698695412951,1.9232244548406847,3.000671883156027,0.914466142654419,0.22502614557743073,0.3363247513771057, 184, 117, 0, 146
1731649507658,9i,5.488805975219986,1.5s : 0.4s,-0.24231691542492229,0.02785979957933752,0.08557165158661419,0.02486320156284794,0.13505950570106506,0.0073705026879906654,-0.032657261937856674,-0.024032115936279297,0.006257802248001099,0.0012149512767791748,-0.22820052173724503,1.9230618677934268,2.9994492498130634,0.9142602682113647,0.22622506320476532,0.33608028292655945, 184, 117, 0, 146
1731649507667,9i,5.488805975219986,1.5s : 0.4s,-0.24231691542492229,0.027908003486385436,0.07866167271970585,0.03591195077882681,0.0837680920958519,0.003846607869490981,-0.03390441834926605,-0.026917338371276855,0.02374608814716339,0.001117318868637085,-0.2291231837972835,1.9230639732761199,2.998555891201548,0.9140635132789612,0.2271237075328827,0.3360101282596588, 184, 117, 0, 146
1731649507677,9i,5.488805975219986,1.5s : 0.4s,-0.24231691542492229,0.027777509754788734,0.06958295981835957,0.046056756997758096,0.05799441784620285,0.012150609865784645,-0.04373661056160927,-0.02364569902420044,0.03912244737148285,0.005616039037704468,-0.22967616901135962,1.9232312292387328,2.9980909858728184,0.9138891100883484,0.22766220569610596,0.33611956238746643, 184, 117, 0, 146
1731649507687,9i,5.488805975219986,1.5s : 0.4s,-0.24231691542492229,0.027627786857787728,0.0648352472059204,0.03607423321590234,0.04966564476490021,0.018007701262831688,-0.05029784142971039,-0.02753347158432007,0.02024422585964203,0.01155117154121399,-0.23016520075081875,1.9237915609564953,2.997866832506602,0.9135962128639221,0.22813837230205536,0.3365930914878845, 184, 117, 0, 146
1731649507697,9i,5.488805975219986,1.5s : 0.4s,-0.24231691542492229,0.027481920864462755,0.0653177834973817,0.044874340885790745,0.08251427114009857,0.035942669957876205,-0.05465124174952507,-0.04102426767349243,0.01295478641986847,0.01276281476020813,-0.23050559580082344,1.9242485994553555,2.9974706371353452,0.9133692979812622,0.22846977412700653,0.33698368072509766, 184, 117, 0, 146
1731649507707,9i,5.488805975219986,1.5s : 0.4s,-0.24231691542492229,0.02719019424455421,0.07195780708190946,0.06822728007000715,0.07628993690013885,0.06367842853069305,-0.09743359684944153,-0.05047041177749634,0.04421029984951019,0.012375324964523315,-0.23139336559280108,1.924766630259318,2.9970054480984865,0.9130038619041443,0.22933398187160492,0.3373863101005554, 184, 117, 0, 146
1731649507717,9i,5.488805975219986,1.5s : 0.4s,-0.24231691542492229,0.026783659561747365,0.09028574316756652,0.07747847716202506,0.09503772109746933,0.09774158895015717,-0.15497907996177673,-0.05515199899673462,0.05335918068885803,0.010675638914108276,-0.23288948419724032,1.9258069732636316,2.9967497524473443,0.9123296141624451,0.23078995943069458,0.3382163345813751, 184, 117, 0, 146
1731649507727,9i,5.488805975219986,1.5s : 0.4s,-0.24231691542492229,0.02638429277173429,0.12431843178886054,0.08040323942097255,0.1818293333053589,0.1456899493932724,-0.1958274394273758,-0.06476032733917236,0.0392984002828598,0.026952117681503296,-0.23496768327397308,1.9271003727977887,2.9960999192854034,0.9114398956298828,0.2328115552663803,0.3392280042171478, 184, 117, 0, 146
1731649507737,9i,5.488805975219986,1.5s : 0.4s,-0.24231691542492229,0.025816535066732326,0.17510424164767635,0.10863542542592856,0.2605542540550232,0.2162369042634964,-0.27786386013031006,-0.07079023122787476,0.07313770055770874,0.03796413540840149,-0.23801750523985354,1.9286697710727532,2.9948222364283565,0.9102373123168945,0.23577648401260376,0.3404077887535095, 184, 117, 0, 146
1731649507747,9i,5.488805975219986,1.5s : 0.4s,-0.24231691542492229,0.02477973540616781,0.24560232402100748,0.1716081647915901,0.315939724445343,0.3117900490760803,-0.4226783215999603,-0.06949359178543091,0.1496889442205429,0.04704490303993225,-0.24249702822616337,1.930975813233101,2.993221939629655,0.9084523916244507,0.2401273399591446,0.34213024377822876, 184, 117, 0, 146
1731649507757,9i,5.488805975219986,1.5s : 0.4s,-0.24231691542492229,0.023277994758348294,0.32211256615651945,0.22312973110074494,0.2779121398925781,0.414126455783844,-0.5676798224449158,-0.0736238956451416,0.20062489807605743,0.0641564428806305,-0.2482834999904802,1.9343597687130787,2.992076348217947,0.9059756398200989,0.24574045836925507,0.3447025716304779, 184, 117, 0, 146
1731649507767,9i,5.488805975219986,1.5s : 0.4s,-0.24231691542492229,0.02156099288392258,0.3989448124182086,0.26573479052615306,0.2211865335702896,0.5263768434524536,-0.6641443371772766,-0.08033651113510132,0.24335134029388428,0.07029330730438232,-0.25489859990740144,1.9390405577344294,2.992093774995122,0.9028156995773315,0.25214728713035583,0.3483465909957886, 184, 117, 0, 146
1731649507777,9i,5.488805975219986,1.5s : 0.4s,-0.24231691542492229,0.01993311169438403,0.5029441652499358,0.3507972959538035,0.4073486626148224,0.6661731004714966,-0.7914554476737976,-0.09322941303253174,0.31908485293388367,0.11203515529632568,-0.2627392678668153,1.9449368307690746,2.9918525680227757,0.8988781571388245,0.25972679257392883,0.35293036699295044, 184, 117, 0, 146
1731649507787,9i,5.488805975219986,1.5s : 0.4s,-0.24231691542492229,0.01934120195400788,0.6388150640196498,0.43812181384072013,0.6373661756515503,0.7847809791564941,-1.0069291591644287,-0.10714560747146606,0.39706453680992126,0.1510307788848877,-0.27298506927372235,1.9517098208235677,2.9902330321837205,0.8939498066902161,0.26960715651512146,0.3580021560192108, 184, 117, 0, 146
1731649507797,9i,5.488805975219986,1.5s : 0.4s,-0.24231691542492229,0.021261078326604486,0.7918201998848615,0.5035724341195247,0.7448375821113586,0.9641727209091187,-1.2032960653305054,-0.11992168426513672,0.4614364206790924,0.16211235523223877,-0.28581683600774194,1.9597745288749941,2.987826150251151,0.8877591490745544,0.2819412350654602,0.36385783553123474, 184, 117, 0, 146
1731649507807,9i,5.488805975219986,1.5s : 0.4s,-0.24231691542492229,0.02656269982477157,0.9637209998410872,0.5928283674409537,0.9017214775085449,1.1062723398208618,-1.4497114419937134,-0.13781696557998657,0.5453251004219055,0.18727651238441467,-0.3011239329543778,1.9693406396248154,2.985258950975559,0.8801568150520325,0.2965937554836273,0.37061500549316406, 184, 117, 0, 146
1731649507817,9i,5.488805975219986,1.5s : 0.4s,-0.24231691542492229,0.03506971627961305,1.1681047381565826,0.6818570909289796,1.2090013027191162,1.2802307605743408,-1.71076500415802,-0.14965349435806274,0.6223335862159729,0.235018789768219,-0.31974774564542024,1.9801234328725725,2.981768405135364,0.8708904981613159,0.31432709097862244,0.377819687128067, 184, 117, 0, 146
1731649507827,9i,5.488805975219986,1.5s : 0.4s,-0.24231691542492229,0.04632337638576667,1.4187917996260007,0.7673756977239625,1.7670332193374634,1.4026280641555786,-1.9885454177856445,-0.17404407262802124,0.6894717812538147,0.28844892978668213,-0.3425481466656977,1.9914486594615548,2.9753976988651636,0.859789252281189,0.3358882963657379,0.3846311867237091, 184, 117, 0, 146
1731649507837,9i,5.488805975219986,1.5s : 0.4s,-0.24231691542492229,0.06024563411455206,1.7087307919574826,0.88274413005415,2.371675968170166,1.5619274377822876,-2.1948275566101074,-0.23228752613067627,0.7913578748703003,0.3146941661834717,-0.3701921107746076,2.002378985632135,2.96458753269071,0.846774160861969,0.36179453134536743,0.38997164368629456, 184, 117, 0, 146
1731649507847,9i,5.488805975219986,1.5s : 0.4s,-0.24231691542492229,0.07716941593611822,2.02807132473282,1.060424874849588,2.9794957637786865,1.7422479391098022,-2.343289852142334,-0.3016628623008728,0.9488693475723267,0.36489367485046387,-0.4019884526986415,2.0128707845651648,2.9489623468418,0.8318142294883728,0.39124906063079834,0.39371201395988464, 184, 117, 0, 146
1731649507857,9i,5.488805975219986,1.5s : 0.4s,-0.24231691542492229,0.09761229777968461,2.3801094144260238,1.2811889713726274,3.566279888153076,1.9101440906524658,-2.5860660076141357,-0.3641524910926819,1.1447815895080566,0.44532376527786255,-0.4383684248768358,2.022682060971484,2.92828606577887,0.8145614862442017,0.4244627356529236,0.39537426829338074, 184, 117, 0, 146
1731649507867,9i,5.488805975219986,1.5s : 0.4s,-0.24231691542492229,0.12159231813675005,2.7415064940894602,1.4485623286934102,4.052768707275391,2.0635292530059814,-2.837772846221924,-0.4143587350845337,1.2634999752044678,0.5746368169784546,-0.47955447390849265,2.0315039122348515,2.903486059262602,0.7946992516517639,0.4613839387893677,0.3944333791732788, 184, 117, 0, 146
1731649507877,9i,5.488805975219986,1.5s : 0.4s,-0.24231691542492229,0.14861722333023178,3.0967117477852835,1.5411460557033325,4.426320552825928,2.1792287826538086,-3.1579291820526123,-0.44922322034835815,1.3005479574203491,0.6941935420036316,-0.5252961783538221,2.039226312594625,2.8755629073995075,0.7719772458076477,0.5014692544937134,0.3906145691871643, 184, 117, 0, 146
1731649507887,9i,5.488805975219986,1.5s : 0.4s,-0.24231691542492229,0.1781121292253186,3.4444186181160124,1.5943114763019317,4.653066635131836,2.3595669269561768,-3.608369827270508,-0.46184539794921875,1.326701045036316,0.753917932510376,-0.576137851705949,2.0463570407883247,2.846101277137481,0.7455214858055115,0.5447893142700195,0.38392964005470276, 184, 117, 0, 146
1731649507897,9i,5.488805975219986,1.5s : 0.4s,-0.24231691542492229,0.20967979527148872,3.758425998888256,1.639163471284469,4.694037437438965,2.6394808292388916,-3.980534315109253,-0.48842984437942505,1.3624621629714966,0.7694088816642761,-0.6315586054994883,2.0548152354148455,2.8170832522217863,0.7143972516059875,0.5904034376144409,0.37557992339134216, 184, 117, 0, 146
1731649507907,9i,5.488805975219986,1.5s : 0.4s,-0.24231691542492229,0.24343905929164172,4.056656284153119,1.7485092544764578,4.858795166015625,2.8559350967407227,-4.297492980957031,-0.5220968723297119,1.4552249908447266,0.8167127370834351,-0.6913116910833695,2.0645078345541443,2.788348107484849,0.6784079074859619,0.6375482678413391,0.36509543657302856, 184, 117, 0, 146
1731649507917,9i,5.488805975219986,1.5s : 0.4s,-0.24231691542492229,0.27941643385527876,4.342212080519488,1.8489562836767086,4.944431781768799,2.9680185317993164,-4.7561116218566895,-0.4998037815093994,1.5699844360351562,0.8390377759933472,-0.7546316179880734,2.074567828580517,2.759500336078779,0.6380178332328796,0.6850203275680542,0.3516816198825836, 184, 117, 0, 146
1731649507927,9i,5.488805975219986,1.5s : 0.4s,-0.24231691542492229,0.316899696089741,4.591429452094767,1.8469310446459997,4.818585395812988,3.0764589309692383,-5.207736015319824,-0.43097901344299316,1.5779876708984375,0.8575350046157837,-0.821939278469592,2.086443535728967,2.733749565057928,0.5922797322273254,0.7324674725532532,0.33570200204849243, 184, 117, 0, 146
1731649507937,9i,5.488805975219986,1.5s : 0.4s,-0.24231691542492229,0.3552585670843854,4.847867342769039,1.8262045066535995,4.917600154876709,3.1633501052856445,-5.662837028503418,-0.36696237325668335,1.5658060312271118,0.8652242422103882,-0.8932344430981758,2.100097354342234,2.710505304848902,0.5411109328269958,0.7791034579277039,0.3165382444858551, 184, 117, 0, 146
1731649507947,9i,5.488805975219986,1.5s : 0.4s,-0.24231691542492229,0.39424875132662274,5.073355479855881,1.8371250274427535,4.791650295257568,3.1457674503326416,-6.110770225524902,-0.29030153155326843,1.5776124000549316,0.8954845070838928,-0.9685133018308627,2.116199621760748,2.6914137588356213,0.48433220386505127,0.8240443468093872,0.2938919961452484, 184, 117, 0, 146
1731649507957,9i,5.488805975219986,1.5s : 0.4s,-0.24231691542492229,0.43353286261402807,5.272735675671462,1.8301969701730403,4.779815673828125,3.0228211879730225,-6.456217288970947,-0.19397449493408203,1.5674794912338257,0.9246636629104614,-1.0469477944891181,2.1354041687657834,2.677784090383732,0.4225817024707794,0.8659005165100098,0.2676578462123871, 184, 117, 0, 146
1731649507967,9i,5.488805975219986,1.5s : 0.4s,-0.24231691542492229,0.4734487737238409,5.4667252796705466,1.9110284061357774,4.842520713806152,2.911000967025757,-6.8116044998168945,-0.08520129323005676,1.6633472442626953,0.9370412230491638,-1.1287604491102479,2.1567870829879987,2.668401737173606,0.35641101002693176,0.903882622718811,0.2365729957818985, 184, 117, 0, 146
1731649507977,9i,5.488805975219986,1.5s : 0.4s,-0.24231691542492229,0.5142675642490818,5.654810548180889,2.0030964343764603,4.8408613204956055,2.898102283477783,-7.147340774536133,0.040513306856155396,1.7806875705718994,0.9164637327194214,-1.2135754703347221,2.18445975333236,2.6669071081849376,0.28587231040000916,0.9368722438812256,0.2013643980026245, 184, 117, 0, 146
1731649507987,9i,5.488805975219986,1.5s : 0.4s,-0.24231691542492229,0.5562230055784924,5.866604008759163,2.1095473927045796,5.0094780921936035,2.734060525894165,-7.600988864898682,0.17017926275730133,1.9034446477890015,0.8933799266815186,-1.3020091259706337,2.224471822075774,2.6793209347127207,0.21081751585006714,0.9640936851501465,0.16149049997329712, 184, 117, 0, 146
1731649507997,9i,5.488805975219986,1.5s : 0.4s,-0.24231691542492229,0.5992567731268852,6.076046591384382,2.1900976068602045,5.037454128265381,2.457066535949707,-8.062945365905762,0.3259512186050415,1.977299690246582,0.8834983110427856,-1.3943673265774983,2.300258777363463,2.730295112062975,0.13085123896598816,0.9844767451286316,0.11697445809841156, 184, 117, 0, 146
1731649508007,9i,5.488805975219986,1.5s : 0.4s,-0.24231691542492229,0.6429627180882843,6.293084379386878,2.232764041207815,5.205079078674316,2.219078779220581,-8.448203086853027,0.5108667016029358,2.0059337615966797,0.836946964263916,-1.4875601515183117,2.539953720861143,2.948249389362342,0.04705576226115227,0.9965378642082214,0.06853990256786346, 184, 117, 0, 146
1731649508017,9i,5.488805975219986,1.5s : 0.4s,-0.24231691542492229,0.6880657979506992,6.49660390391832,2.4467179954355007,5.275550365447998,2.117656707763672,-8.726462364196777,0.7346866726875305,2.187227249145508,0.8140647411346436,-1.5279522633620837,-1.9613179473823226,-1.5728742518856373,-0.03960295766592026,0.9990823268890381,0.01630314253270626, 184, 117, 0, 146
1731649508027,9i,5.488805975219986,1.5s : 0.4s,-0.24231691542492229,0.735514089540338,6.709200638701382,2.716352100805023,5.494372367858887,1.939901351928711,-9.045283317565918,0.952710747718811,2.4148755073547363,0.7995544075965881,-1.4369343818866926,-1.2742851122627983,-0.9044099453327393,-0.1276373714208603,0.9910538792610168,-0.03899548202753067, 184, 117, 0, 146
1731649508037,9i,5.488805975219986,1.5s : 0.4s,-0.24231691542492229,0.7859954686443543,6.894998955567263,2.9634265349427276,5.517286777496338,1.607879877090454,-9.3209867477417,1.156038522720337,2.590482711791992,0.8572462201118469,-1.3314718480563716,-1.15305582855968,-0.7991131294360606,-0.21666157245635986,0.9714983105659485,-0.09616852551698685, 184, 117, 0, 146
1731649508047,9i,5.488805975219986,1.5s : 0.4s,-0.24231691542492229,0.8392427417277836,7.0618461854962975,3.0923028429975963,5.813192844390869,1.3277822732925415,-9.398841857910156,1.3574365377426147,2.6255569458007812,0.9089299440383911,-1.2227936462476203,-1.1022993702495236,-0.7614098869778089,-0.3042747378349304,0.9400557279586792,-0.15398629009723663, 184, 117, 0, 146
1731649508057,9i,5.488805975219986,1.5s : 0.4s,-0.24231691542492229,0.8950649328783027,7.191599174206026,3.2252539636438984,5.965588092803955,0.927629828453064,-9.436491012573242,1.5694046020507812,2.6474356651306152,0.964529275894165,-1.1121021249602971,-1.071365682953313,-0.7399694781623093,-0.38869449496269226,0.8966314196586609,-0.21205751597881317, 184, 117, 0, 146
1731649508067,9i,5.488805975219986,1.5s : 0.4s,-0.24231691542492229,0.9528424318292262,7.267716332008889,3.301783006794368,6.028931140899658,0.5624358654022217,-9.341221809387207,1.7870222330093384,2.5949201583862305,0.9872750043869019,-1.0010930614839482,-1.0524946878344532,-0.7267776107143042,-0.46854063868522644,0.8420610427856445,-0.2672128975391388, 184, 117, 0, 146
1731649508077,9i,5.488805975219986,1.5s : 0.4s,-0.24231691542492229,1.0119597600377874,7.306734730084035,3.350796575484145,6.113789081573486,0.13118883967399597,-9.226490020751953,1.9913702011108398,2.512923240661621,0.9733957052230835,-0.8903609235954951,-1.0403761532795126,-0.7160641183971815,-0.5426855087280273,0.7772988677024841,-0.3182750344276428, 184, 117, 0, 146
1731649508087,9i,5.488805975219986,1.5s : 0.4s,-0.24231691542492229,1.0718287748131474,7.272571769121644,3.3777683263634883,5.976685523986816,-0.35503512620925903,-8.955964088439941,2.1770730018615723,2.394533157348633,0.9674104452133179,-0.781433780451854,-1.0350908911695709,-0.7073041524558183,-0.6104529500007629,0.7042980194091797,-0.3623690605163574, 184, 117, 0, 146
1731649508097,9i,5.488805975219986,1.5s : 0.4s,-0.24231691542492229,1.132034507365977,7.185099900351375,3.3908158932245813,5.848735332489014,-0.868638813495636,-8.640507698059082,2.3319387435913086,2.260265827178955,0.9751371741294861,-0.675800590381554,-1.0358734326392245,-0.6992465697206346,-0.6712177395820618,0.6255221366882324,-0.39772945642471313, 184, 117, 0, 146
1731649508107,9i,5.488805975219986,1.5s : 0.4s,-0.24231691542492229,1.192571681507383,7.05280619045738,3.4149489638663413,5.661640167236328,-1.286255121231079,-8.289095878601074,2.444958448410034,2.1448771953582764,1.0409401655197144,-0.573683566425064,-1.0420297723520902,-0.6908460751207575,-0.7252011895179749,0.5427295565605164,-0.4237070083618164, 184, 117, 0, 146
1731649508117,9i,5.488805975219986,1.5s : 0.4s,-0.24231691542492229,1.252982301446965,6.873006444790848,3.350012881989761,5.49345064163208,-1.492332935333252,-7.821999549865723,2.4779067039489746,1.991657018661499,1.05634605884552,-0.47622948664852754,-1.0515573987987596,-0.6816422089055052,-0.7715924978256226,0.4584314823150635,-0.44100499153137207, 184, 117, 0, 146
1731649508127,9i,5.488805975219986,1.5s : 0.4s,-0.24231691542492229,1.3137769520787177,6.658913486028081,3.251709165346402,5.223545551300049,-1.7840251922607422,-7.405095100402832,2.435961961746216,1.8789193630218506,1.0532634258270264,-0.3837573088596697,-1.06340515402293,-0.6711199828670967,-0.810443103313446,0.3744071125984192,-0.4505566358566284, 184, 117, 0, 146
1731649508137,9i,5.488805975219986,1.5s : 0.4s,-0.24231691542492229,1.3733507535424876,6.400870823175591,3.1097867300084054,4.6874470710754395,-2.0603373050689697,-7.036109924316406,2.3655431270599365,1.703899621963501,1.0824533700942993,-0.2966958269135617,-1.079379167954313,-0.6614854020490198,-0.843143105506897,0.2923620045185089,-0.45125851035118103, 184, 117, 0, 146
1731649508147,9i,5.488805975219986,1.5s : 0.4s,-0.24231691542492229,1.4308069316619199,6.092875518610185,2.943560777286208,3.9807374477386475,-2.3056418895721436,-6.6483964920043945,2.318337917327881,1.4413995742797852,1.1010116338729858,-0.2160701060007649,-1.0993292433256787,-0.6543906972109088,-0.8701872229576111,0.2143927812576294,-0.44363269209861755, 184, 117, 0, 146
1731649508157,9i,5.488805975219986,1.5s : 0.4s,-0.24231691542492229,1.48526969234299,5.748763566482987,2.779542201636703,3.154839038848877,-2.5199007987976074,-6.296948432922363,2.2941744327545166,1.161219835281372,1.0555505752563477,-0.14240744099091562,-1.1228798988448339,-0.6510645471828852,-0.8922272324562073,0.1419266015291214,-0.4287043511867523, 184, 117, 0, 146
1731649508167,9i,5.488805975219986,1.5s : 0.4s,-0.24231691542492229,1.5359519113203768,5.387613186889746,2.6036550346923053,2.360732316970825,-2.5813863277435303,-5.959221363067627,2.246609926223755,0.8701879978179932,0.9871860146522522,-0.07536374471201632,-1.1485310970388505,-0.6519553187727709,-0.9095736742019653,0.0752924233675003,-0.40866443514823914, 184, 117, 0, 146
1731649508177,9i,5.488805975219986,1.5s : 0.4s,-0.24231691542492229,1.5824487755349974,5.0138563158934,2.4038435693413525,1.655685305595398,-2.489534378051758,-5.567997455596924,2.1422934532165527,0.637117862701416,0.8849426507949829,-0.014570341251635302,-1.174183727962127,-0.6565020248458427,-0.9222769141197205,0.014569825492799282,-0.38625508546829224, 184, 117, 0, 146
1731649508187,9i,5.488805975219986,1.5s : 0.4s,-0.24231691542492229,1.624581617059439,4.628179789779534,2.1812852842119956,1.1292479038238525,-2.274073600769043,-5.089097023010254,1.998899221420288,0.46225279569625854,0.7407629489898682,0.03993057923290619,-1.1979165962328207,-0.6636863569400226,-0.9305397868156433,-0.03991996869444847,-0.3640083968639374, 184, 117, 0, 146
1731649508197,9i,5.488805975219986,1.5s : 0.4s,-0.24231691542492229,1.662773687640577,4.241215184857543,1.993002184833445,0.7917897701263428,-2.0345075130462646,-4.58100700378418,1.850402593612671,0.38038551807403564,0.6351179480552673,0.08840153971876105,-1.2189088625181284,-0.6718688826947112,-0.9350581765174866,-0.08828644454479218,-0.34332430362701416, 184, 117, 0, 146
1731649508207,9i,5.488805975219986,1.5s : 0.4s,-0.24231691542492229,1.6977430732829155,3.853892487120486,1.8529902172283188,0.5645800232887268,-1.7731014490127563,-4.059265613555908,1.7325234413146973,0.35850125551223755,0.5508285760879517,0.13127783443585947,-1.2370787686327027,-0.6800239054121632,-0.9367011785507202,-0.13090108335018158,-0.3247392177581787, 184, 117, 0, 146
1731649508217,9i,5.488805975219986,1.5s : 0.4s,-0.24231691542492229,1.730046393388854,3.4964857720247053,1.7761100902497733,0.1778939962387085,-1.851904273033142,-3.6155543327331543,1.6764750480651855,0.31513941287994385,0.49465706944465637,0.16889214861588173,-1.2522513672601234,-0.6878194818504217,-0.9361794590950012,-0.168090358376503,-0.3087289035320282, 184, 117, 0, 146
1731649508227,9i,5.488805975219986,1.5s : 0.4s,-0.24231691542492229,1.7600425091164016,3.1327842788962967,1.7565419722417797,-0.2666270136833191,-1.4330047369003296,-3.21117901802063,1.677844762802124,0.22313247621059418,0.4695620834827423,0.20071951399760118,-1.2660521876477948,-0.7007167579505806,-0.9347721338272095,-0.19937445223331451,-0.29402512311935425, 184, 117, 0, 146
1731649508236,9i,5.488805975219986,1.5s : 0.4s,-0.24231691542492229,1.7879420892367064,2.8243052968716245,1.7706283288038134,-0.16788439452648163,-1.4226267337799072,-2.854776620864868,1.6943812370300293,0.079464390873909,0.5078211426734924,0.22912307517686023,-1.2784872608339566,-0.7116230980584406,-0.9325554966926575,-0.22712360322475433,-0.28063321113586426, 184, 117, 0, 146
1731649508246,9i,5.488805975219986,1.5s : 0.4s,-0.24231691542492229,1.8132015656856892,2.5559770322193125,1.7859314172846814,-0.3464013934135437,-1.470547080039978,-2.5305263996124268,1.7655837535858154,-0.07870736718177795,0.25704121589660645,0.25412765591445163,-1.290420606106833,-0.7220825413945101,-0.9300885796546936,-0.2514011859893799,-0.26782938838005066, 184, 117, 0, 146
1731649508256,9i,5.488805975219986,1.5s : 0.4s,-0.24231691542492229,1.837252987719778,2.3131696053778232,1.8841024169579381,-0.28946372866630554,-1.494640588760376,-2.1767380237579346,1.8531140089035034,-0.22654572129249573,0.2539437413215637,0.27574514449158677,-1.3026497761865456,-0.7318527117356393,-0.9278362393379211,-0.2722640037536621,-0.25493574142456055, 184, 117, 0, 146
1731649508266,9i,5.488805975219986,1.5s : 0.4s,-0.24231691542492229,1.8602111997918824,2.095473141634028,1.9085947663397513,-0.3651025891304016,-1.4798352718353271,-1.8851816654205322,1.8843889236450195,-0.15483695268630981,0.2604570686817169,0.29336856352506485,-1.3148496767540903,-0.7405173349889017,-0.9260911345481873,-0.2891784906387329,-0.24234507977962494, 184, 117, 0, 146
1731649508276,9i,5.488805975219986,1.5s : 0.4s,-0.24231691542492229,1.8831356937637151,1.9097123513110696,1.869919116628129,-0.6089159250259399,-1.425645112991333,-1.6746113300323486,1.8395593166351318,-0.26225394010543823,0.20938456058502197,0.30932067522600576,-1.3265146879135281,-0.7499948167171854,-0.9242607951164246,-0.3044116199016571,-0.2303808331489563, 184, 117, 0, 146
1731649508286,9i,5.488805975219986,1.5s : 0.4s,-0.24231691542492229,1.903824283918549,1.7445742093131988,1.793860210338868,-0.8432948589324951,-1.3132128715515137,-1.4536173343658447,1.734297513961792,-0.4060518145561218,0.2127639800310135,0.32274275812174946,-1.3366899077649554,-0.7613087781751837,-0.9224992990493774,-0.3171688914299011,-0.21999680995941162, 184, 117, 0, 146
1731649508296,9i,5.488805975219986,1.5s : 0.4s,-0.24231691542492229,1.9222898778053104,1.5945608526996258,1.6851592188002769,-1.063379168510437,-1.1368162631988525,-1.2380036115646362,1.5935274362564087,-0.49494126439094543,0.2355101853609085,0.3336480318794521,-1.344732086330287,-0.7743168466042295,-0.9208130240440369,-0.3274920582771301,-0.21178297698497772, 184, 117, 0, 146
1731649508306,9i,5.488805975219986,1.5s : 0.4s,-0.24231691542492229,1.938604163434436,1.4516593142506873,1.5552322710650692,-1.2197540998458862,-0.9463611245155334,-0.9780019521713257,1.4321444034576416,-0.5494248867034912,0.2565971910953522,0.34188576015663036,-1.3503613502631708,-0.7887625666571275,-0.9193268418312073,-0.33526429533958435,-0.2059992551803589, 184, 117, 0, 146
1731649508316,9i,5.488805975219986,1.5s : 0.4s,-0.24231691542492229,1.9529636165503983,1.3087597705011313,1.3952670697660254,-1.2741185426712036,-0.7160736322402954,-0.7149306535720825,1.2586158514022827,-0.5440618991851807,0.2581723928451538,0.34737305110837213,-1.3535898969563351,-0.8036688394986133,-0.9181768298149109,-0.3404289484024048,-0.20263059437274933, 184, 117, 0, 146
1731649508326,9i,5.488805975219986,1.5s : 0.4s,-0.24231691542492229,1.9653497364754278,1.1671295330539984,1.2394378028551774,-1.260930061340332,-0.49020829796791077,-0.464516818523407,1.083116888999939,-0.5502874851226807,0.24545377492904663,0.3503768530569634,-1.3545884296707673,-0.8182912968507177,-0.9173758029937744,-0.3432517945766449,-0.20149338245391846, 184, 117, 0, 146
1731649508336,9i,5.488805975219986,1.5s : 0.4s,-0.24231691542492229,1.9754654286780091,1.0003206944359688,1.0998858145462644,-1.00128173828125,-0.2721891403198242,-0.2240646779537201,0.9104953408241272,-0.5861743688583374,0.19273465871810913,0.3512725076140762,-1.3541170612084164,-0.8307981210407896,-0.9169802069664001,-0.34409287571907043,-0.20185962319374084, 184, 117, 0, 146
1731649508346,9i,5.488805975219986,1.5s : 0.4s,-0.24231691542492229,1.9832653197164118,0.8377264526771587,0.9799782495638913,-0.8974137902259827,-0.0726826936006546,0.03260466456413269,0.7484310269355774,-0.6085111498832703,0.1729813516139984,0.35023484240582176,-1.3523964001196467,-0.8407870100489101,-0.9169796705245972,-0.3431183993816376,-0.20351441204547882, 184, 117, 0, 146
1731649508356,9i,5.488805975219986,1.5s : 0.4s,-0.24231691542492229,1.9888091856908876,0.6725780376214573,0.8643379580355983,-0.7298295497894287,0.14132928848266602,0.4018245041370392,0.607804000377655,-0.6033003330230713,0.1169748306274414,0.34637928914064325,-1.349323296002621,-0.8487396550187762,-0.917633593082428,-0.33949437737464905,-0.206620454788208, 184, 117, 0, 146
1731649508366,9i,5.488805975219986,1.5s : 0.4s,-0.24231691542492229,1.99274332337787,0.547088826903557,0.6983351065916185,-0.5695237517356873,0.40838122367858887,0.7957755327224731,0.5020545721054077,-0.4832373559474945,0.04576882719993591,0.3390798010890171,-1.344857598073286,-0.8539677956687723,-0.9190923571586609,-0.33261942863464355,-0.21126577258110046, 184, 117, 0, 146
1731649508376,9i,5.488805975219986,1.5s : 0.4s,-0.24231691542492229,1.99577023844506,0.5482275940688167,0.5808512166504449,-0.5215754508972168,0.6911370158195496,1.0822960138320923,0.4486948251724243,-0.36874473094940186,0.009402826428413391,0.3286850041459937,-1.3382900911812778,-0.8571625075004176,-0.9210000038146973,-0.3227986991405487,-0.2180822640657425, 184, 117, 0, 146
1731649508386,9i,5.488805975219986,1.5s : 0.4s,-0.24231691542492229,1.9980514912158105,0.6905104922819053,0.5277359340649737,-0.5858619809150696,0.9483685493469238,1.4033451080322266,0.4072456955909729,-0.3345968425273895,-0.02647852897644043,0.31539677273204786,-1.3292253796488633,-0.859741972634835,-0.9230689406394958,-0.3101936876773834,-0.2274279147386551, 184, 117, 0, 146
1731649508396,9i,5.488805975219986,1.5s : 0.4s,-0.24231691542492229,1.9994009866981675,0.8928922079674011,0.5266692124661205,-0.6745803952217102,1.0759468078613281,1.703912377357483,0.3656376004219055,-0.3762533664703369,-0.04607611894607544,0.2987327039099056,-1.31836323597331,-0.8620311212593237,-0.925421416759491,-0.2943092882633209,-0.238698810338974, 184, 117, 0, 146
1731649508406,9i,5.488805975219986,1.5s : 0.4s,-0.24231691542492229,1.999961766364493,1.088924134234857,0.570112837814151,-0.7519452571868896,1.1438283920288086,1.8890255689620972,0.38428616523742676,-0.4166092276573181,-0.06155925989151001,0.27952128477932564,-1.3065302956069094,-0.8645120746645142,-0.9278193712234497,-0.27589553594589233,-0.2510629892349243, 184, 117, 0, 146
1731649508416,9i,5.488805975219986,1.5s : 0.4s,-0.24231691542492229,2.0004167985391565,1.26028181390886,0.5979649581666556,-0.5865091681480408,1.2161648273468018,2.1128649711608887,0.45270729064941406,-0.3861219584941864,-0.05939725041389465,0.2585014830377247,-1.2943931599829999,-0.8657649040578238,-0.9300785064697266,-0.25563210248947144,-0.2638298571109772, 184, 117, 0, 146
1731649508426,9i,5.488805975219986,1.5s : 0.4s,-0.24231691542492229,2.0012235718462175,1.4180860050613346,0.5977242766667091,-0.31058645248413086,1.2890528440475464,2.3684232234954834,0.4982340335845947,-0.32515376806259155,-0.05755159258842468,0.23577076089406815,-1.2824564524778774,-0.863732418537964,-0.9321939945220947,-0.23359249532222748,-0.2764940559864044, 184, 117, 0, 146
1731649508436,9i,5.488805975219986,1.5s : 0.4s,-0.24231691542492229,2.002323776469353,1.5846092941868755,0.6046554431249134,-0.17827504873275757,1.4282933473587036,2.6102864742279053,0.5322403311729431,-0.2824583053588867,-0.050455331802368164,0.21134471431908095,-1.2700596997570068,-0.8586161638068392,-0.9338667988777161,-0.20977488160133362,-0.28963276743888855, 184, 117, 0, 146
1731649508446,9i,5.488805975219986,1.5s : 0.4s,-0.24231691542492229,2.003985690732346,1.7734276245062102,0.595375756640547,-0.170382559299469,1.5879337787628174,2.909663438796997,0.548678457736969,-0.2310190200805664,0.007379293441772461,0.18460897264392742,-1.2563268960548575,-0.851784032502953,-0.9348019361495972,-0.18356215953826904,-0.30405616760253906, 184, 117, 0, 146
1731649508456,9i,5.488805975219986,1.5s : 0.4s,-0.24231691542492229,2.0062401513528516,1.97821731547757,0.5913455556450675,-0.24384286999702454,1.7524653673171997,3.2104625701904297,0.5514071583747864,-0.19570520520210266,0.08566904067993164,0.15498152409290716,-1.2410009212422317,-0.8439301086629533,-0.9347688555717468,-0.15436184406280518,-0.3199678957462311, 184, 117, 0, 146
1731649508466,9i,5.488805975219986,1.5s : 0.4s,-0.24231691542492229,2.0097247868329906,2.1762518529146746,0.6416172141015508,-0.30192825198173523,1.870255708694458,3.4466676712036133,0.5973718166351318,-0.19295059144496918,0.13262590765953064,0.12269505717560951,-1.2240584072215934,-0.8354391659864177,-0.933415949344635,-0.12238744646310806,-0.3372769355773926, 184, 117, 0, 146
1731649508476,9i,5.488805975219986,1.5s : 0.4s,-0.24231691542492229,2.0147294369863555,2.3624515844343748,0.7330480595261052,-0.3455265462398529,1.9562922716140747,3.664437770843506,0.6842494606971741,-0.21121080219745636,0.15669119358062744,0.0883118041501047,-1.205959362848798,-0.8261326872912284,-0.930541455745697,-0.08819705992937088,-0.3554065525531769, 184, 117, 0, 146
1731649508486,9i,5.488805975219986,1.5s : 0.4s,-0.24231691542492229,2.021004830579066,2.5427645951669606,0.8358829933060405,-0.3284468948841095,2.020822763442993,3.914012908935547,0.7757866978645325,-0.26695501804351807,0.1599699854850769,0.05187003649295685,-1.1868138751258948,-0.8155292177314575,-0.9259330630302429,-0.05184677988290787,-0.37411201000213623, 184, 117, 0, 146
1731649508496,9i,5.488805975219986,1.5s : 0.4s,-0.24231691542492229,2.028594344193943,2.7177508360230203,0.9332098430420831,-0.31305068731307983,2.085833787918091,4.15507173538208,0.8791428804397583,-0.2763950526714325,0.14694958925247192,0.013445965393853726,-1.1667521207172344,-0.8030302331374227,-0.9193954467773438,-0.01344555988907814,-0.39310455322265625, 184, 117, 0, 146
1731649508506,9i,5.488805975219986,1.5s : 0.4s,-0.24231691542492229,2.0380279642759023,2.896208401602761,1.0294870134702354,-0.39540600776672363,2.2023656368255615,4.400509357452393,0.9927176237106323,-0.20828837156295776,0.17598631978034973,-0.02700205026820363,-1.1453029016624392,-0.7891478516356257,-0.910503089427948,0.026998769491910934,-0.41261976957321167, 184, 117, 0, 146
1731649508516,9i,5.488805975219986,1.5s : 0.4s,-0.24231691542492229,2.0495179253747047,3.095558677760598,1.1053551827165438,-0.5279837846755981,2.327709674835205,4.740216255187988,1.0703628063201904,-0.15551155805587769,0.22792476415634155,-0.07021160646496499,-1.121957617748417,-0.7742314678917541,-0.8987318277359009,0.07015393674373627,-0.4328504502773285, 184, 117, 0, 146
1731649508526,9i,5.488805975219986,1.5s : 0.4s,-0.24231691542492229,2.062823625481069,3.318772315281891,1.161859917666327,-0.49021056294441223,2.4395244121551514,5.153592109680176,1.1185880899429321,-0.1588727831840515,0.270995557308197,-0.1167797100356345,-1.0964702350155746,-0.7570328479085966,-0.8835417032241821,0.11651445925235748,-0.45362821221351624, 184, 117, 0, 146
1731649508536,9i,5.488805975219986,1.5s : 0.4s,-0.24231691542492229,2.077832039962295,3.5455144606091027,1.244759970743527,-0.30033835768699646,2.565487861633301,5.49900484085083,1.1876143217086792,-0.18161112070083618,0.32560253143310547,-0.16561305858342742,-1.0684508181457066,-0.7354982694264128,-0.8644635081291199,0.16485702991485596,-0.4748946726322174, 184, 117, 0, 146
1731649508546,9i,5.488805975219986,1.5s : 0.4s,-0.24231691542492229,2.0946732830657564,3.7680664135443838,1.358685906028025,-0.2857538163661957,2.7579751014709473,5.757678508758545,1.2810142040252686,-0.20070596039295197,0.4058905243873596,-0.2158674232296429,-1.0369763501339335,-0.7098359141426476,-0.8408896923065186,0.21419480443000793,-0.49701619148254395, 184, 117, 0, 146
1731649508556,9i,5.488805975219986,1.5s : 0.4s,-0.24231691542492229,2.113586223173753,3.9823412899414454,1.4633968062231915,-0.411664754152298,2.959590196609497,5.973830223083496,1.366456151008606,-0.17966195940971375,0.49198514223098755,-0.26752810331680554,-1.0015579387321734,-0.6814892195729287,-0.8123483657836914,0.26434826850891113,-0.5198172926902771, 184, 117, 0, 146
1731649508566,9i,5.488805975219986,1.5s : 0.4s,-0.24231691542492229,2.134910067956791,4.202580979173882,1.5626952696251868,-0.6395115256309509,3.1284677982330322,6.263200759887695,1.4482057094573975,-0.11150765419006348,0.5764397382736206,-0.32114690452379036,-0.9621578757418913,-0.6508884924573892,-0.7784820795059204,0.31565502285957336,-0.5425195693969727, 184, 117, 0, 146
1731649508576,9i,5.488805975219986,1.5s : 0.4s,-0.24231691542492229,2.1587492518092724,4.425644273833441,1.6765618872672285,-0.8859089612960815,3.2545340061187744,6.559647560119629,1.5496330261230469,-0.08096492290496826,0.6347770690917969,-0.3773802235053666,-0.918813061993526,-0.6176444668289083,-0.73894864320755,0.36848631501197815,-0.5640679597854614, 184, 117, 0, 146
1731649508586,9i,5.488805975219986,1.5s : 0.4s,-0.24231691542492229,2.185086494582062,4.672596106460266,1.8050092846651193,-1.0292224884033203,3.4730494022369385,6.937648296356201,1.6836230754852295,-0.08426627516746521,0.6452682018280029,-0.43589063175667203,-0.8704086441437103,-0.5803100692602459,-0.6930986642837524,0.4222179353237152,-0.584248423576355, 184, 117, 0, 146
1731649508596,9i,5.488805975219986,1.5s : 0.4s,-0.24231691542492229,2.2139129630290593,4.967537143668106,1.934756745842035,-1.150948405265808,3.77180552482605,7.45204496383667,1.806490182876587,-0.09852507710456848,0.6856892108917236,-0.4967394524589346,-0.8142899587753428,-0.5363356057311884,-0.6393451690673828,0.47656160593032837,-0.6034291982650757, 184, 117, 0, 146
1731649508606,9i,5.488805975219986,1.5s : 0.4s,-0.24231691542492229,2.245301543639598,5.269659077237054,2.0502966218326657,-1.2066830396652222,4.056781768798828,7.834784507751465,1.9001178741455078,-0.08493781089782715,0.7655415534973145,-0.5589138049784302,-0.7483257900928157,-0.4833849870761766,-0.5768754482269287,0.5302656292915344,-0.621315598487854, 184, 117, 0, 146
1731649508616,9i,5.488805975219986,1.5s : 0.4s,-0.24231691542492229,2.279455562599279,5.547992409675313,2.184650867156541,-1.615679144859314,4.426508903503418,7.958105564117432,2.005053997039795,-0.06352061033248901,0.8651144504547119,-0.6208657318133464,-0.6720437872230892,-0.42271206445524545,-0.506396472454071,0.5817395448684692,-0.6365073919296265, 184, 117, 0, 146
1731649508626,9i,5.488805975219986,1.5s : 0.4s,-0.24231691542492229,2.3164299676226054,5.849134174129877,2.351553686224284,-2.2639214992523193,4.897640228271484,8.183087348937988,2.1426987648010254,-0.10962527990341187,0.9626157283782959,-0.683769885540581,-0.5845124657283566,-0.3557756510834085,-0.4277479648590088,0.6317198872566223,-0.6464994549751282, 184, 117, 0, 146
1731649508636,9i,5.488805975219986,1.5s : 0.4s,-0.24231691542492229,2.3569262331026515,6.227592470170119,2.564559456880824,-2.8304178714752197,5.277254581451416,8.788433074951172,2.3365447521209717,-0.05324888229370117,1.0557880401611328,-0.7487044322835823,-0.48150034748809567,-0.2771272481097868,-0.3392607271671295,0.6806902289390564,-0.6492788195610046, 184, 117, 0, 146
1731649508646,9i,5.488805975219986,1.5s : 0.4s,-0.24231691542492229,2.4027838518292786,6.681869859801765,2.9141051779226563,-3.279672622680664,5.343508720397949,9.715031623840332,2.6631226539611816,0.18344873189926147,1.1688170433044434,-0.8142277486167704,-0.3570572515869771,-0.17666582850861923,-0.23992010951042175,0.7271957397460938,-0.6431366205215454, 184, 117, 0, 146
1731649508656,9i,5.488805975219986,1.5s : 0.4s,-0.24231691542492229,2.456212506983372,7.189094704943395,3.4151129994237537,-3.9392096996307373,5.246168613433838,10.660192489624023,3.1332523822784424,0.5001121759414673,1.2631762027740479,-0.8767851142506993,-0.20479510812723234,-0.04479262839900471,-0.13007846474647522,0.7686865329742432,-0.6262591481208801, 184, 117, 0, 146
1731649508666,9i,5.488805975219986,1.5s : 0.4s,-0.24231691542492229,2.518648568182959,7.738862207245401,3.945744592781464,-5.491788387298584,5.032444000244141,11.339645385742188,3.630357027053833,0.7425916790962219,1.3557159900665283,-0.9352131386642799,-0.02030898768837702,0.12348591773446098,-0.012055535800755024,0.8047256469726562,-0.5935243368148804, 184, 117, 0, 146
1731649508676,9i,5.488805975219986,1.5s : 0.4s,-0.24231691542492229,2.5897915984121447,8.400437677928322,4.323214430445577,-8.522480964660645,4.668704986572266,11.711830139160156,3.9885849952697754,0.7877960801124573,1.4699490070343018,-0.9936864469714398,0.20326404777907933,0.3355567031739331,0.11013960838317871,0.8380430340766907,-0.5343717336654663, 184, 117, 0, 146
1731649508686,9i,5.488805975219986,1.5s : 0.4s,-0.24231691542492229,2.6679868737325845,9.278434349041602,4.502443243698019,-12.611531257629395,3.840135335922241,11.81917667388916,4.154093265533447,0.6588498950004578,1.606680154800415,-1.0532955289264092,0.48717217883688557,0.6168028868857921,0.23158787190914154,0.8690582513809204,-0.437155157327652, 184, 117, 0, 146
1731649508696,9i,5.488805975219986,1.5s : 0.4s,-0.24231691542492229,2.752171146235606,10.39109393882183,4.724238746074179,-16.27938461303711,3.2245097160339355,11.635860443115234,4.338769435882568,0.4532790780067444,1.813297986984253,-1.0939048833050946,0.8602420816931704,1.0007004004373166,0.34793704748153687,0.8884261250495911,-0.299397349357605, 184, 117, 0, 146
1731649508706,9i,5.488805975219986,1.5s : 0.4s,-0.24231691542492229,2.843042530354734,11.543667361732648,5.185272290642417,-19.517498016357422,1.5014441013336182,10.577547073364258,4.884714603424072,0.3702375888824463,1.6998635530471802,-1.080133036820261,1.2894802324380694,1.4558731130434952,0.45268794894218445,0.8820204734802246,-0.13081766664981842, 184, 117, 0, 146
1731649508716,9i,5.488805975219986,1.5s : 0.4s,-0.24231691542492229,2.9442580648658043,12.703499149310375,6.028561720983469,-22.28009796142578,-1.1165422201156616,9.189597129821777,5.801084518432617,0.7798282504081726,1.443205714225769,-1.000382204804973,1.664440731261721,1.8879466873724766,0.537614643573761,0.8416774272918701,0.050492286682128906, 184, 117, 0, 146
1731649508726,9i,5.488805975219986,1.5s : 0.4s,-0.24231691542492229,3.0631808260388573,14.02364458250676,7.297031278364662,-24.53243637084961,-3.633514404296875,9.091694831848145,6.655461311340332,1.9875333309173584,2.2363388538360596,-0.8578986465051821,1.9198491604350774,2.233615488837241,0.6145886182785034,0.7564699053764343,0.22368291020393372, 184, 117, 0, 146
1731649508736,9i,5.488805975219986,1.5s : 0.4s,-0.24231691542492229,3.204838324408879,15.663599021849686,8.684821085042735,-28.770130157470703,-6.93635892868042,6.52678108215332,7.065993309020996,3.445172071456909,3.691699504852295,-0.6735529982539107,2.067770208690022,2.524859467507869,0.6870582699775696,0.6237669587135315,0.3726464807987213, 184, 117, 0, 146
1731649508746,9i,5.488805975219986,1.5s : 0.4s,-0.24231691542492229,3.369296224622263,16.57133125095137,9.87912176558777,-28.879566192626953,-6.622401237487793,-0.4856909215450287,7.055519104003906,4.315232753753662,5.403282642364502,-0.4925086893637296,2.150376202691559,2.802626819919451,0.7372512221336365,0.472837895154953,0.48258116841316223, 184, 117, 0, 146
1731649508756,9i,5.488805975219986,1.5s : 0.4s,-0.24231691542492229,3.5430651165097626,16.460120108306675,9.73462858572815,-25.255104064941406,-5.199221134185791,-8.650269508361816,5.378408432006836,3.188447952270508,7.461200714111328,-0.3796587727510857,2.207745794687044,3.0799744565288463,0.746667742729187,0.3706035614013672,0.5523945093154907, 184, 117, 0, 146
1731649508766,9i,5.488805975219986,1.5s : 0.4s,-0.24231691542492229,3.7013661684088675,16.608230627434622,9.4890692098758,-23.97271156311035,-9.595745086669922,-5.616368770599365,1.946829080581665,-0.19211193919181824,9.285223960876465,-0.28330406798505636,2.226781034516287,-2.9381970620630606,0.7608582377433777,0.27952951192855835,0.5856257677078247, 184, 117, 0, 146
1731649508776,9i,5.488805975219986,1.5s : 0.4s,-0.24231691542492229,3.856555031993195,14.959388403138153,12.380001673152199,-13.396203994750977,-12.535881042480469,-3.057645797729492,0.7509858012199402,0.8083508014678955,12.330735206604004,-0.21293869479434907,2.1525853708040357,-2.76684358562989,0.8166107535362244,0.21133312582969666,0.5371081233024597, 184, 117, 0, 146
1731649508786,9i,5.488805975219986,1.5s : 0.4s,-0.24231691542492229,4.046709384194685,13.59723294836385,15.074461826944157,-12.767727851867676,-8.963525772094727,-4.520305156707764,3.8809142112731934,6.124303340911865,13.21630859375,-0.17322329730461036,2.0703477922943585,-2.633886175948631,0.8646607398986816,0.17235830426216125,0.4718628525733948, 184, 117, 0, 146
1731649508796,9i,5.488805975219986,1.5s : 0.4s,-0.24231691542492229,4.240030936005164,12.822570725289246,10.428866430666925,-12.577669143676758,-7.784083843231201,-10.707192420959473,2.7130093574523926,5.469761848449707,8.454734802246094,-0.18524172329275534,2.014758806912399,-2.483801334107759,0.8876067996025085,0.18418413400650024,0.4221726953983307, 184, 117, 0, 146
1731649508805,9i,5.488805975219986,1.5s : 0.4s,-0.24231691542492229,4.386295736119213,12.354034339822135,3.735238789191443,-10.884102821350098,-8.327275276184082,-12.43756103515625,-0.5441358089447021,-0.6312496066093445,3.641077995300293,-0.24418860824702512,1.9656543486430087,-2.3254644170240826,0.8956677317619324,0.24176909029483795,0.37326520681381226, 184, 117, 0, 146
1731649508815,9i,5.488805975219986,1.5s : 0.4s,-0.24231691542492229,4.491183316568176,11.705094080990504,4.969252813038723,-7.637142181396484,-8.234328269958496,-12.44102668762207,-0.6737896203994751,-3.4036812782287598,3.557307243347168,-0.3202126070660592,1.9155037687686527,-2.1909504472989187,0.8933331966400146,0.31476837396621704,0.3207443356513977, 184, 117, 0, 146
1731649508825,9i,5.488805975219986,1.5s : 0.4s,-0.24231691542492229,4.586027544540931,11.224658031696654,5.245438180559653,-4.66230583190918,-8.33849811553955,-14.051661491394043,-0.1250024437904358,0.2533598840236664,5.237824440002441,-0.42339204340548864,1.8675187601914662,-2.0871975210145552,0.8718591332435608,0.41085535287857056,0.26656976342201233, 184, 117, 0, 146
1731649508835,9i,5.488805975219986,1.5s : 0.4s,-0.24231691542492229,4.676887042282476,11.145718257057702,5.124937548267315,-3.8170042037963867,-7.661350250244141,-15.584264755249023,0.022070765495300293,1.5137954950332642,4.896214962005615,-0.5547334131117007,1.8299818322734744,-1.9955769541561987,0.8216486573219299,0.5267167091369629,0.21785981953144073, 184, 117, 0, 146
1731649508845,9i,5.488805975219986,1.5s : 0.4s,-0.24231691542492229,4.75837855300883,11.15381638979422,4.0118846413155005,-2.606149673461914,-6.683376789093018,-16.23383140563965,-0.08320021629333496,0.4505804181098938,3.985633373260498,-0.7013835960111858,1.8100076420018372,-1.907800649648086,0.7421966195106506,0.6452752947807312,0.18100762367248535, 184, 117, 0, 146
1731649508855,9i,5.488805975219986,1.5s : 0.4s,-0.24231691542492229,4.834988310008518,11.123604670635672,3.8136085524217536,-0.3800112307071686,-6.389418601989746,-16.2972469329834,0.3179653286933899,0.7447341084480286,3.726644515991211,-0.8558269387066177,1.7963419536825815,-1.8351166391029943,0.6389894485473633,0.7551133036613464,0.1466159075498581, 184, 117, 0, 146
1731649508865,9i,5.488805975219986,1.5s : 0.4s,-0.24231691542492229,4.912865758599645,11.087593459163086,4.052817063488959,1.8613674640655518,-6.291690349578857,-16.12371253967285,1.0953541994094849,1.1737263202667236,3.721275568008423,-1.0157558303160028,1.7688536510588095,-1.7897186744311226,0.5166757106781006,0.8498790860176086,0.10369078814983368, 184, 117, 0, 146
1731649508875,9i,5.488805975219986,1.5s : 0.4s,-0.24231691542492229,4.9924224647664985,10.9768750572201,4.563991967851187,3.384038209915161,-5.721004009246826,-15.451249122619629,1.2593059539794922,0.8638244271278381,4.300927639007568,-1.1757132955444882,1.7093390097967611,-1.7883707718808137,0.38119688630104065,0.9229646325111389,0.05315254628658295, 184, 117, 0, 146
1731649508885,9i,5.488805975219986,1.5s : 0.4s,-0.24231691542492229,5.073755064131841,10.723711539130589,4.728676688261783,5.405984401702881,-5.445807456970215,-14.055777549743652,1.1707510948181152,0.05965059995651245,4.581066131591797,-1.3270458015228117,1.5481749792078825,-1.9001945645839402,0.24128186702728271,0.970439612865448,-0.005459052510559559, 184, 117, 0, 146
1731649508895,9i,5.488805975219986,1.5s : 0.4s,-0.24231691542492229,5.150173857023476,10.269810375503567,4.004691623332763,7.6868062019348145,-5.268102645874023,-11.6827974319458,1.3826119899749756,-1.141373872756958,3.5809502601623535,-1.4389334903687099,0.9468576044085381,-2.46131008794056,0.10670671612024307,0.9913187026977539,-0.0768151730298996, 184, 117, 0, 146
1731649508905,9i,5.488805975219986,1.5s : 0.4s,-0.24231691542492229,5.215550569378876,9.978397562309613,3.5829236893384384,9.09492015838623,-5.1467061042785645,-10.70117473602295,1.6169624328613281,-2.2952229976654053,2.225921392440796,-1.4065239235750842,-0.09890389790994476,2.813207668884444,-0.01614779233932495,0.9865375757217407,-0.16273479163646698, 184, 117, 0, 146
1731649508915,9i,5.488805975219986,1.5s : 0.4s,-0.24231691542492229,5.269615932897489,9.740248155397863,3.450586774741168,9.441142082214355,-4.873802185058594,-9.774144172668457,1.6569594144821167,-2.6192636489868164,1.516737461090088,-1.2860498772982283,-0.4726138017298661,2.4802169015111777,-0.12787631154060364,0.9597328901290894,-0.2501206696033478, 184, 117, 0, 146
1731649508925,9i,5.488805975219986,1.5s : 0.4s,-0.24231691542492229,5.315186879270865,9.484438172897807,3.219774712792606,10.38223648071289,-4.738571643829346,-8.158162117004395,1.332972526550293,-2.4692113399505615,1.5789644718170166,-1.1562946871228188,-0.5943080273640123,2.401595544009797,-0.22550497949123383,0.9153171181678772,-0.33367952704429626, 184, 117, 0, 146
1731649508935,9i,5.488805975219986,1.5s : 0.4s,-0.24231691542492229,5.353452182126638,9.368581442775263,2.8696596269177412,11.35264778137207,-4.974827289581299,-7.088480472564697,1.0289198160171509,-2.267887830734253,1.4258173704147339,-1.0232604037889061,-0.6402832126373579,2.4046224430340417,-0.31100910902023315,0.8538098931312561,-0.417470782995224, 184, 117, 0, 146
1731649508945,9i,5.488805975219986,1.5s : 0.4s,-0.24231691542492229,5.384751611348126,9.278733986278564,2.6898703947097182,11.496562004089355,-5.088354110717773,-6.215266704559326,0.9772019386291504,-2.2833476066589355,1.0328614711761475,-0.8923866095948771,-0.667097326565797,2.4335833466806838,-0.38827383518218994,0.7785716652870178,-0.49302083253860474, 184, 117, 0, 146
1731649508955,9i,5.488805975219986,1.5s : 0.4s,-0.24231691542492229,5.411247986674589,9.187290094398424,2.2172983301474996,11.427263259887695,-5.2973527908325195,-5.457916736602783,0.7589058876037598,-1.820807933807373,1.0124881267547607,-0.7666798606901956,-0.6897521018103283,2.473268345146538,-0.45830780267715454,0.6937478184700012,-0.555578887462616, 184, 117, 0, 146
1731649508965,9i,5.488805975219986,1.5s : 0.4s,-0.24231691542492229,5.435412160328601,9.06878203468522,1.4739512425283512,10.984918594360352,-5.406235694885254,-5.158844947814941,0.5177541375160217,-0.8992743492126465,1.0467896461486816,-0.6472492551682392,-0.7160687987327239,2.515496821847673,-0.5236592888832092,0.6029943227767944,-0.6018128395080566, 184, 117, 0, 146
1731649508975,9i,5.488805975219986,1.5s : 0.4s,-0.24231691542492229,5.458707138596553,8.86127237060733,1.0612539922776827,10.024740219116211,-5.15624475479126,-5.442765235900879,0.5484681129455566,-0.19456493854522705,0.8874611258506775,-0.5358349227680104,-0.7489969409137383,2.5568406033964215,-0.5854707360267639,0.5105591416358948,-0.6297248601913452, 184, 117, 0, 146
1731649508985,9i,5.488805975219986,1.5s : 0.4s,-0.24231691542492229,5.482135277730956,8.492517039227975,1.0485035558294777,8.866860389709473,-4.9643378257751465,-5.136197566986084,0.6089335083961487,0.3314487934112549,0.7865757346153259,-0.4367608949120366,-0.788625570335389,2.5937354096878464,-0.6427927613258362,0.42300665378570557,-0.6386569738388062, 184, 117, 0, 146
1731649508995,9i,5.488805975219986,1.5s : 0.4s,-0.24231691542492229,5.505895172612055,8.120977834659712,1.1406238238695925,8.157580375671387,-5.422999382019043,-4.679555892944336,0.6261023879051208,0.6365694403648376,0.7097871899604797,-0.3461144768167137,-0.8325292497553342,2.626697708446107,-0.6957739591598511,0.3392452597618103,-0.63309645652771, 184, 117, 0, 146
1731649509005,9i,5.488805975219986,1.5s : 0.4s,-0.24231691542492229,5.529969748873103,7.775849515441102,1.1673505845768017,7.598056316375732,-5.396315574645996,-4.668199062347412,0.7776494026184082,0.639397382736206,0.5908805131912231,-0.2602592459008072,-0.8789583074054871,2.656282255458207,-0.7441411018371582,0.25733107328414917,-0.6164694428443909, 184, 117, 0, 146
1731649509015,9i,5.488805975219986,1.5s : 0.4s,-0.24231691542492229,5.553325405070992,7.4942256627268025,1.0738271441901996,7.560298919677734,-5.0768938064575195,-4.587007522583008,0.8238968253135681,0.5777531266212463,0.3748334050178528,-0.177247542701315,-0.9244720370550631,2.687386393416768,-0.7857956290245056,0.1763209104537964,-0.592820405960083, 184, 117, 0, 146
1731649509025,9i,5.488805975219986,1.5s : 0.4s,-0.24231691542492229,5.576944027889616,7.242879605611812,1.354540305822394,7.497326850891113,-4.861222743988037,-4.315374851226807,0.9556952118873596,0.9204213619232178,0.27248966693878174,-0.09703428944727902,-0.9691878333488454,2.7228851245106953,-0.8205481171607971,0.09688208997249603,-0.5633068680763245, 184, 117, 0, 146
1731649509035,9i,5.488805975219986,1.5s : 0.4s,-0.24231691542492229,5.603425844493891,6.9531663589860555,1.8398053381144814,7.052812576293945,-4.722815990447998,-3.94584584236145,1.263288974761963,1.273677110671997,0.4083274006843567,-0.022787835802360032,-1.0146762418703705,2.7613399941195262,-0.8490892052650452,0.022785862907767296,-0.5277578830718994, 184, 117, 0, 146
1731649509045,9i,5.488805975219986,1.5s : 0.4s,-0.24231691542492229,5.634553136748201,6.658449278477782,2.1381675620883374,6.6724934577941895,-4.559989929199219,-3.7330567836761475,1.3905787467956543,1.4187719821929932,0.7906562685966492,0.0447940638375502,-1.0614900506670897,2.8008093662781004,-0.8722071647644043,-0.044779084622859955,-0.4870826005935669, 184, 117, 0, 146
1731649509055,9i,5.488805975219986,1.5s : 0.4s,-0.24231691542492229,5.670470391847277,6.35025041117799,2.2243680644773365,6.3423967361450195,-4.211103916168213,-3.5317063331604004,1.3786051273345947,1.2795013189315796,1.1874921321868896,0.10717522472362787,-1.1083999271262797,2.841424912591698,-0.8898507952690125,-0.1069701611995697,-0.4435345232486725, 184, 117, 0, 146
1731649509065,9i,5.488805975219986,1.5s : 0.4s,-0.24231691542492229,5.710241607156589,6.023562519201047,2.2292619617113862,5.908087253570557,-3.812105178833008,-3.469059705734253,1.3006136417388916,1.0723955631256104,1.4587600231170654,0.16464533504023943,-1.1540348455081595,2.8821936233166547,-0.9020387530326843,-0.16390247642993927,-0.39932695031166077, 184, 117, 0, 146
1731649509075,9i,5.488805975219986,1.5s : 0.4s,-0.24231691542492229,5.753174557314103,5.642475458649607,2.3019275978435596,5.337579250335693,-3.29607892036438,-3.2976040840148926,1.3085598945617676,1.1120424270629883,1.5329394340515137,0.21757581736938056,-1.1971965117324488,2.9219441091430802,-0.9090694189071655,-0.21586322784423828,-0.3563646078109741, 184, 117, 0, 146
1731649509085,9i,5.488805975219986,1.5s : 0.4s,-0.24231691542492229,5.797829922720565,5.211435530409983,2.2113123878726997,4.782308578491211,-2.6562862396240234,-3.0879502296447754,1.307651162147522,1.0001763105392456,1.4763462543487549,0.2647006558588744,-1.2358457385807213,2.9590689979632048,-0.9115328788757324,-0.2616203725337982,-0.31727334856987, 184, 117, 0, 146
1731649509095,9i,5.488805975219986,1.5s : 0.4s,-0.24231691542492229,5.842502035554752,4.7893494776826495,2.0034830154200947,4.385841369628906,-2.0579867362976074,-3.016939163208008,1.2549124956130981,0.6497318744659424,1.4202067852020264,0.3081660047086972,-1.270061864332325,2.99530980750013,-0.9101248383522034,-0.3033115565776825,-0.28226718306541443, 184, 117, 0, 146
1731649509105,9i,5.488805975219986,1.5s : 0.4s,-0.24231691542492229,5.886055762774243,4.40688892153407,1.8629327530926354,4.230743885040283,-1.5535953044891357,-2.7716681957244873,1.1857357025146484,0.25006237626075745,1.4149268865585327,0.3476283521166942,-1.2992676054899035,3.030017212760788,-0.9057367444038391,-0.3406689763069153,-0.25216132402420044, 184, 117, 0, 146
1731649509115,9i,5.488805975219986,1.5s : 0.4s,-0.24231691542492229,5.928164418650399,4.011297275835617,1.8177924982679383,3.8060622215270996,-1.046520471572876,-2.4969594478607178,1.1075870990753174,0.03953936696052551,1.4408528804779053,0.3834957150875318,-1.3243845141001596,3.064327853396959,-0.8993503451347351,-0.37416455149650574,-0.22620752453804016, 184, 117, 0, 146
1731649509125,9i,5.488805975219986,1.5s : 0.4s,-0.24231691542492229,5.968982690961203,3.6472659644674628,1.7891208889701622,3.5468783378601074,-0.6476361751556396,-2.2501220703125,0.9936677813529968,0.043025821447372437,1.4871875047683716,0.41490465131518584,-1.3455845250660408,3.0972443070787845,-0.892044186592102,-0.40310266613960266,-0.2043657898902893, 184, 117, 0, 146
1731649509135,9i,5.488805975219986,1.5s : 0.4s,-0.24231691542492229,6.008677775311757,3.203494307819223,1.7739993696747132,2.69138240814209,-0.3041241765022278,-1.8914357423782349,0.8903101086616516,0.050506770610809326,1.533581018447876,0.44166418606749847,-1.3620717961859092,3.125689202564113,-0.8844201564788818,-0.42744454741477966,-0.18732850253582, 184, 117, 0, 146
1731649509145,9i,5.488805975219986,1.5s : 0.4s,-0.24231691542492229,6.048021944988653,2.781073292021883,1.811285658645532,2.2512412071228027,-0.10899169743061066,-1.5538132190704346,0.7685505151748657,-0.06363886594772339,1.6389130353927612,0.46318317903421086,-1.3740554488894616,-3.1345158460137457,-0.8773762583732605,-0.4467981457710266,-0.17487795650959015, 184, 117, 0, 146
1731649509155,9i,5.488805975219986,1.5s : 0.4s,-0.24231691542492229,6.085407379870248,2.332087942629032,1.7323363704893764,1.6150373220443726,0.09932918846607208,-1.139535903930664,0.6613500118255615,-0.21636909246444702,1.5864393711090088,0.47967094635133256,-1.3824842279294718,-3.1160868187337276,-0.8714634776115417,-0.4614872932434082,-0.16607485711574554, 184, 117, 0, 146
1731649509165,9i,5.488805975219986,1.5s : 0.4s,-0.24231691542492229,6.119351701159941,1.9944161813770627,1.5477066401091029,1.7075510025024414,0.22606529295444489,-0.7724375128746033,0.5516827702522278,-0.4947788417339325,1.3587626218795776,0.4905055576473854,-1.388310507608019,-3.0998495643033563,-0.8674481511116028,-0.47107189893722534,-0.16007785499095917, 184, 117, 0, 146
1731649509175,9i,5.488805975219986,1.5s : 0.4s,-0.24231691542492229,6.149457360515446,1.5948426618250853,1.399551541257594,0.9415356516838074,0.40581101179122925,-0.43183135986328125,0.44007378816604614,-0.5898039937019348,1.1904666423797607,0.4962476309980077,-1.3913815728463832,-3.086116012383024,-0.8652598857879639,-0.4761291444301605,-0.15692782402038574, 184, 117, 0, 146
1731649509185,9i,5.488805975219986,1.5s : 0.4s,-0.24231691542492229,6.176201373796921,1.2452193440465664,1.3042911063643106,0.6406471729278564,0.4287258982658386,-0.1886911392211914,0.3779689073562622,-0.5925949811935425,1.0987019538879395,0.4998272041125566,-1.39120302501989,-3.077997324053082,-0.8635494112968445,-0.47927388548851013,-0.15677687525749207, 184, 117, 0, 146
1731649509195,9i,5.488805975219986,1.5s : 0.4s,-0.24231691542492229,6.200370520310555,1.0223645851472418,1.0759831301719827,0.8104600310325623,0.45988044142723083,0.0010196093935519457,0.3748910427093506,-0.34421277046203613,0.9480052590370178,0.5014790918826784,-1.3907568657933065,-3.0700078441786514,-0.8626992106437683,-0.4807230532169342,-0.15702013671398163, 184, 117, 0, 146
1731649509205,9i,5.488805975219986,1.5s : 0.4s,-0.24231691542492229,6.221496891176318,0.7084825380362382,1.0036460817103274,-0.06334839016199112,0.6260214447975159,0.2605590522289276,0.24658066034317017,-0.47027119994163513,0.8516739010810852,0.500776840254281,-1.3878942374165648,-3.0648447378820753,-0.8625779747962952,-0.4801071286201477,-0.15955044329166412, 184, 117, 0, 146
1731649509215,9i,5.488805975219986,1.5s : 0.4s,-0.24231691542492229,6.239609014062262,0.5080739480585696,1.0708087759556426,-0.12096647918224335,0.6552861928939819,0.3994697630405426,0.06802809238433838,-0.6034747362136841,0.881942093372345,0.4966827326791871,-1.3806117790433772,-3.0664933759856083,-0.8633161783218384,-0.47651171684265137,-0.16619804501533508, 184, 117, 0, 146
1731649509225,9i,5.488805975219986,1.5s : 0.4s,-0.24231691542492229,6.256029012449025,0.3947147565866137,0.838590402010669,-0.5542199015617371,0.785821795463562,0.4831950068473816,0.07852214574813843,-0.22242778539657593,0.8047322630882263,0.49186912065941896,-1.3727841393495097,-3.0680181675632707,-0.8642275929450989,-0.4722742438316345,-0.17339980602264404, 184, 117, 0, 146
1731649509235,9i,5.488805975219986,1.5s : 0.4s,-0.24231691542492229,6.270964515928084,0.43473306779274695,0.7807430264961156,-1.1783136129379272,0.7503191828727722,0.5989412069320679,0.08764684200286865,-0.23984789848327637,0.7378012537956238,0.4842911261743033,-1.3606741696731381,-3.077202126914953,-0.8655398488044739,-0.46558111906051636,-0.1845938265323639, 184, 117, 0, 146
1731649509245,9i,5.488805975219986,1.5s : 0.4s,-0.24231691542492229,6.284880372159563,0.5985474274089094,0.7511914253753129,-1.4192109107971191,0.6981449127197266,0.639286994934082,0.06493008136749268,-0.1594972312450409,0.7311862111091614,0.47536124894511433,-1.3477387647625378,-3.0897230557379753,-0.8670998215675354,-0.45765966176986694,-0.1966860592365265, 184, 117, 0, 146
1731649509255,9i,5.488805975219986,1.5s : 0.4s,-0.24231691542492229,6.298020828731061,0.80005216955688,0.6881207233977853,-1.7108867168426514,0.6784636378288269,0.7599392533302307,0.06381011009216309,-0.06719717383384705,0.6818525791168213,0.4647836080171268,-1.3339871879482643,-3.105048195366985,-0.868970513343811,-0.4482293725013733,-0.2097150683403015, 184, 117, 0, 146
1731649509265,9i,5.488805975219986,1.5s : 0.4s,-0.24231691542492229,6.309369185675123,1.004521544929497,0.5952586280442649,-1.9806686639785767,0.7291907668113708,0.7742486596107483,-0.03304851055145264,-0.20137229561805725,0.5591867566108704,0.4527124214548778,-1.3191617522157701,-3.1228325503111662,-0.8709431290626526,-0.4374063313007355,-0.22390536963939667, 184, 117, 0, 146
1731649509275,9i,5.488805975219986,1.5s : 0.4s,-0.24231691542492229,6.319093867779355,1.1921198552305206,0.5179233874987706,-2.1998822689056396,0.7485963106155396,0.7765416502952576,-0.10118710994720459,-0.08935883641242981,0.5000208020210266,0.43972016089208493,-1.3031093932853637,3.14012351612029,-0.8726440072059631,-0.4256862699985504,-0.23933961987495422, 184, 117, 0, 146
1731649509285,9i,5.488805975219986,1.5s : 0.4s,-0.24231691542492229,6.327499544143472,1.3470401514262516,0.488728853068159,-2.294844388961792,0.7679300904273987,0.8183932304382324,-0.13339757919311523,-0.03342851996421814,0.4689813554286957,0.4258102534401015,-1.2865892016820792,3.1186983007001947,-0.87417072057724,-0.4130588173866272,-0.2553582489490509, 184, 117, 0, 146
1731649509295,9i,5.488805975219986,1.5s : 0.4s,-0.24231691542492229,6.334893467526901,1.4773839866225273,0.4856781508563508,-2.4039900302886963,0.7496473789215088,0.8585898280143738,-0.1480002999305725,-0.02870762348175049,0.4616871774196625,0.41088777464824744,-1.270170544116669,3.0967962618013716,-0.8756507635116577,-0.39942336082458496,-0.2714710235595703, 184, 117, 0, 146
1731649509305,9i,5.488805975219986,1.5s : 0.4s,-0.24231691542492229,6.341415862534857,1.57292325866388,0.42913736811746916,-2.421513557434082,0.7085481882095337,0.9040225744247437,-0.1268882155418396,-0.032586365938186646,0.4086519181728363,0.39501032406465475,-1.2542685124797663,3.074691450157172,-0.8771399855613708,-0.3848177194595337,-0.28729870915412903, 184, 117, 0, 146
1731649509315,9i,5.488805975219986,1.5s : 0.4s,-0.24231691542492229,6.347453255048202,1.6204280672352225,0.38647338155384287,-2.311187505722046,0.6830082535743713,0.9263820052146912,-0.08052051067352295,0.005414724349975586,0.377953439950943,0.37865649435113913,-1.2394868775027543,3.053931660912043,-0.8786316514015198,-0.3696724772453308,-0.3022392690181732, 184, 117, 0, 146
1731649509325,9i,5.488805975219986,1.5s : 0.4s,-0.24231691542492229,6.353232135300637,1.6364569868310792,0.3412755384855014,-2.197005033493042,0.6758736371994019,0.9748802781105042,-0.033294081687927246,0.045672208070755005,0.336562842130661,0.36216153262202144,-1.225715982964173,3.0347507414560155,-0.8800053000450134,-0.35429638624191284,-0.31632956862449646, 184, 117, 0, 146
1731649509335,9i,5.488805975219986,1.5s : 0.4s,-0.24231691542492229,6.358628701258297,1.6503831344363418,0.28085026267473046,-2.199465751647949,0.6609057188034058,1.0131405591964722,-0.014944493770599365,0.05025434494018555,0.2759130895137787,0.3451687357588773,-1.2128870717875713,3.016858008731012,-0.8813872337341309,-0.3383554518222809,-0.3296544849872589, 184, 117, 0, 146
1731649509345,9i,5.488805975219986,1.5s : 0.4s,-0.24231691542492229,6.363681216701414,1.6958245090377764,0.2472457586630356,-2.383509635925293,0.6758303642272949,1.0374159812927246,0.005630612373352051,0.04782244563102722,0.24251139163970947,0.3273979950093645,-1.2001528460425812,2.9983891470376216,-0.8825836777687073,-0.32158032059669495,-0.3429752290248871, 184, 117, 0, 146
1731649509355,9i,5.488805975219986,1.5s : 0.4s,-0.24231691542492229,6.368590148470625,1.7745240506659117,0.24838958499775174,-2.6183459758758545,0.6829363703727722,1.0956426858901978,0.0324171781539917,0.03293457627296448,0.244052916765213,0.3082391781619811,-1.187098479349782,2.9782895847448123,-0.8835828304290771,-0.3033812642097473,-0.35670843720436096, 184, 117, 0, 146
1731649509365,9i,5.488805975219986,1.5s : 0.4s,-0.24231691542492229,6.3735703503871255,1.8724537531141872,0.31099104354847973,-2.8187310695648193,0.6846200227737427,1.1825461387634277,0.05312913656234741,-0.010569185018539429,0.3062368631362915,0.2872968001158882,-1.174048054731382,2.9568020099849983,-0.8845194578170776,-0.28336086869239807,-0.37058311700820923, 184, 117, 0, 146
1731649509374,9i,5.488805975219986,1.5s : 0.4s,-0.24231691542492229,6.379290806206829,1.9731109505816553,0.3991456110101823,-2.9527838230133057,0.7626417279243469,1.2353599071502686,0.10217088460922241,-0.030353158712387085,0.3846518099308014,0.2647673483775916,-1.1607517505126146,2.934374590495685,-0.8851450085639954,-0.26168474555015564,-0.3847585618495941, 184, 117, 0, 146
1731649509384,9i,5.488805975219986,1.5s : 0.4s,-0.24231691542492229,6.386194227665374,2.04242956496415,0.4797925061450716,-2.8780713081359863,0.8736910223960876,1.3243166208267212,0.15939193964004517,0.021481528878211975,0.45203274488449097,0.2412055705387799,-1.1470753941557876,2.9122102602502147,-0.8851761817932129,-0.2388734668493271,-0.3992525041103363, 184, 117, 0, 146
1731649509394,9i,5.488805975219986,1.5s : 0.4s,-0.24231691542492229,6.394460745306682,2.051113727750773,0.546124449665768,-2.5699949264526367,0.9981780052185059,1.421912670135498,0.20359694957733154,0.08788588643074036,0.49907541275024414,0.21724569225435897,-1.133365294807274,2.892848377073949,-0.8845507502555847,-0.21554087102413177,-0.4136565923690796, 184, 117, 0, 146
1731649509404,9i,5.488805975219986,1.5s : 0.4s,-0.24231691542492229,6.403921097822001,2.0230323557266146,0.55981448752607,-2.316802978515625,1.1192439794540405,1.4286757707595825,0.2698449492454529,0.137057363986969,0.47094717621803284,0.1939192499987043,-1.1195803402469824,2.8768996755555087,-0.8830498456954956,-0.1927061527967453,-0.42788681387901306, 184, 117, 0, 146
1731649509414,9i,5.488805975219986,1.5s : 0.4s,-0.24231691542492229,6.414310335797935,2.0177824202284413,0.5639151976621029,-2.293154716491699,1.2525420188903809,1.4536420106887817,0.3353421092033386,0.1876177042722702,0.4127294719219208,0.17086979969537155,-1.1051592881598082,2.862723019165809,-0.8805232644081116,-0.17003954946994781,-0.4424535036087036, 184, 117, 0, 146
1731649509424,9i,5.488805975219986,1.5s : 0.4s,-0.24231691542492229,6.425693171433809,2.041488032556631,0.6164205365651296,-2.429222583770752,1.3379871845245361,1.47687566280365,0.38128191232681274,0.2200363427400589,0.431488573551178,0.14703345508950524,-1.0899890602743414,2.848457971449819,-0.8770552277565002,-0.1465042382478714,-0.4575047492980957, 184, 117, 0, 146
1731649509434,9i,5.488805975219986,1.5s : 0.4s,-0.24231691542492229,6.438193848675805,2.078369510024337,0.6778906409772093,-2.5133490562438965,1.3918687105178833,1.4844467639923096,0.43597614765167236,0.22241397202014923,0.4690336287021637,0.1223773923553123,-1.0743677805389644,2.8336072168260102,-0.8727131485939026,-0.12207216024398804,-0.47272613644599915, 184, 117, 0, 146
1731649509444,9i,5.488805975219986,1.5s : 0.4s,-0.24231691542492229,6.451518539283172,2.118681962711355,0.6845841760623463,-2.532909870147705,1.4600962400436401,1.5389214754104614,0.47226375341415405,0.18815679848194122,0.45849695801734924,0.09695424971069776,-1.0585618952331337,2.818907442199608,-0.8675578832626343,-0.09680242091417313,-0.4878242611885071, 184, 117, 0, 146
1731649509454,9i,5.488805975219986,1.5s : 0.4s,-0.24231691542492229,6.4651910571132,2.1626722543573504,0.6528411940224079,-2.589496612548828,1.5386064052581787,1.5341951847076416,0.4723384976387024,0.14255771040916443,0.4275222420692444,0.07091610381891425,-1.0424137310257826,2.8045580628163975,-0.8614528179168701,-0.07085667550563812,-0.5028699636459351, 184, 117, 0, 146
1731649509464,9i,5.488805975219986,1.5s : 0.4s,-0.24231691542492229,6.479117361353167,2.2264368720781715,0.6546096110260784,-2.7448136806488037,1.6503952741622925,1.5160322189331055,0.4766615629196167,0.1473272144794464,0.4237949848175049,0.04425329633095122,-1.025670618756212,2.7896137746187586,-0.8542249798774719,-0.0442388541996479,-0.5180179476737976, 184, 117, 0, 146
1731649509474,9i,5.488805975219986,1.5s : 0.4s,-0.24231691542492229,6.493561628931078,2.3214103970980733,0.7024679553152692,-2.9807703495025635,1.80171537399292,1.5068365335464478,0.475635290145874,0.20517218112945557,0.47448569536209106,0.016360669698672278,-1.0080430057383887,2.773400046420105,-0.8456761240959167,-0.01635994017124176,-0.5334454774856567, 184, 117, 0, 146
1731649509484,9i,5.488805975219986,1.5s : 0.4s,-0.24231691542492229,6.508734529744603,2.4283046949257883,0.7577373449753944,-3.156924247741699,1.9414689540863037,1.4957391023635864,0.46709543466567993,0.2580985724925995,0.537933886051178,-0.012867329972198343,-0.9893414385046193,2.7558301722982947,-0.8355953097343445,0.0128669748082757,-0.549194872379303, 184, 117, 0, 146
1731649509494,9i,5.488805975219986,1.5s : 0.4s,-0.24231691542492229,6.524301751869557,2.557554542960761,0.74073207109453,-3.4349896907806396,2.059691905975342,1.4747610092163086,0.4444289803504944,0.24388234317302704,0.5400817394256592,-0.04343901565145213,-0.9699023922415644,2.7370006289419178,-0.8240523934364319,0.04342535510659218,-0.5648466944694519, 184, 117, 0, 146
1731649509504,9i,5.488805975219986,1.5s : 0.4s,-0.24231691542492229,6.539840578725474,2.6663466708471706,0.6844722306837048,-3.465682029724121,2.197549819946289,1.4660004377365112,0.4311618208885193,0.19638706743717194,0.49399781227111816,-0.07541286619906692,-0.9498720145279851,2.717245115262978,-0.8110293745994568,0.07534140348434448,-0.5801336169242859, 184, 117, 0, 146
1731649509514,9i,5.488805975219986,1.5s : 0.4s,-0.24231691542492229,6.555295770582346,2.7179370611567077,0.673454285786345,-3.378359794616699,2.1669974327087402,1.351656436920166,0.4516119956970215,0.25821590423583984,0.42768192291259766,-0.10702424418945722,-0.9298835924208173,2.69785161921505,-0.796964168548584,0.10682004690170288,-0.5945061445236206, 184, 117, 0, 146
1731649509524,9i,5.488805975219986,1.5s : 0.4s,-0.24231691542492229,6.5706524494129175,2.7274636582208975,0.7130239801518533,-3.294171094894409,2.151289701461792,1.174932837486267,0.5177768468856812,0.3913487195968628,0.29522281885147095,-0.13714162254113868,-0.9106254777463186,2.6790130904701406,-0.7824710607528687,0.13671213388442993,-0.6074938774108887, 184, 117, 0, 146
1731649509534,9i,5.488805975219986,1.5s : 0.4s,-0.24231691542492229,6.585977218978013,2.7408583303498713,0.7886456270431187,-3.426593065261841,2.089421510696411,1.0280115604400635,0.544063925743103,0.4986697733402252,0.27800148725509644,-0.16657389563677072,-0.8925480554838232,2.6592694120363634,-0.7678950428962708,0.1658046394586563,-0.6187454462051392, 184, 117, 0, 146
1731649509544,9i,5.488805975219986,1.5s : 0.4s,-0.24231691542492229,6.6008046010708465,2.7135712534107945,0.794603005339799,-3.070021629333496,2.2875359058380127,1.0190374851226807,0.47513192892074585,0.6042308807373047,0.20136690139770508,-0.19514673109047428,-0.8742549162360993,2.6403129747035403,-0.7525061368942261,0.19391047954559326,-0.629391074180603, 184, 117, 0, 146
1731649509554,9i,5.488805975219986,1.5s : 0.4s,-0.24231691542492229,6.615350691180056,2.6930705703739073,0.723811426579537,-2.9965786933898926,2.4368784427642822,0.8855487108230591,0.33116841316223145,0.6032419204711914,0.2243427038192749,-0.22186160862036206,-0.8540941622509303,2.6236589352048734,-0.7354958057403564,0.22004598379135132,-0.6408007144927979, 184, 117, 0, 146
1731649509564,9i,5.488805975219986,1.5s : 0.4s,-0.24231691542492229,6.628471217560243,2.7866943512664832,0.5614892048176177,-3.5662572383880615,2.6172637939453125,0.7918011546134949,0.2223535180091858,0.4566330015659332,0.23940622806549072,-0.2497516413588995,-0.8331684110229204,2.604301233317759,-0.7171044945716858,0.2471633106470108,-0.651668131351471, 184, 117, 0, 146
1731649509574,9i,5.488805975219986,1.5s : 0.4s,-0.24231691542492229,6.640636897789522,2.8997176973486343,0.5544131384556655,-3.841398239135742,2.669620990753174,0.6943312883377075,0.15487289428710938,0.4246022701263428,0.3210937976837158,-0.28052425754992516,-0.8130524353416841,2.581353369628734,-0.6979942321777344,0.27685946226119995,-0.6604187488555908, 184, 117, 0, 146
1731649509584,9i,5.488805975219986,1.5s : 0.4s,-0.24231691542492229,6.652654509336477,2.93214116044388,0.6221316897379964,-3.6891982555389404,2.4729766845703125,0.6567537784576416,0.16168320178985596,0.5037093758583069,0.3273885250091553,-0.31157982024931846,-0.794311724857022,2.557813671861244,-0.6790324449539185,0.30656278133392334,-0.6670339107513428, 184, 117, 0, 146
1731649509594,9i,5.488805975219986,1.5s : 0.4s,-0.24231691542492229,6.663301477448333,2.901069146814839,0.5534515552467516,-3.458012104034424,2.367553472518921,0.5149908065795898,0.212080180644989,0.504512369632721,0.08244931697845459,-0.3409366717367469,-0.7770806506537902,2.5355923439880423,-0.6608412265777588,0.3343699872493744,-0.6719267964363098, 184, 117, 0, 146
1731649509604,9i,5.488805975219986,1.5s : 0.4s,-0.24231691542492229,6.671708775198444,2.858634566631233,0.5421610513236262,-3.3919551372528076,2.316112756729126,0.35776492953300476,0.19277560710906982,0.4809640049934387,-0.1595299243927002,-0.36865353861248973,-0.7612873104089304,2.5134545290806036,-0.6435049772262573,0.3603597581386566,-0.675308883190155, 184, 117, 0, 146
1731649509614,9i,5.488805975219986,1.5s : 0.4s,-0.24231691542492229,6.677509601392392,2.7971881345739837,0.6083834398071746,-3.2259225845336914,2.283750534057617,0.28527140617370605,0.086672842502594,0.522834300994873,-0.2987683415412903,-0.3949294733625184,-0.746571160531442,2.491689001523792,-0.6268492937088013,0.3847430944442749,-0.6775194406509399, 184, 117, 0, 146
1731649509624,9i,5.488805975219986,1.5s : 0.4s,-0.24231691542492229,6.681113454884819,2.6996943520428176,0.651214791392032,-2.938770055770874,2.2143948078155518,0.2703254818916321,-0.01775491237640381,0.575300931930542,-0.3046215772628784,-0.4195836894628467,-0.732185830608738,2.4714668126520416,-0.6105104684829712,0.40738028287887573,-0.6792040467262268, 184, 117, 0, 146
1731649509634,9i,5.488805975219986,1.5s : 0.4s,-0.24231691542492229,6.682974646143153,2.584050631168022,0.6231918605259115,-2.744180679321289,2.0733025074005127,0.2797801196575165,-0.060776591300964355,0.5435997843742371,-0.29861944913864136,-0.44263710855277777,-0.7183658941356872,2.4532069410595185,-0.5947256684303284,0.428323894739151,-0.6803233623504639, 184, 117, 0, 146
1731649509644,9i,5.488805975219986,1.5s : 0.4s,-0.24231691542492229,6.684317165341779,2.4868867694047574,0.5503669362566322,-2.7642409801483154,1.9030101299285889,0.2947348356246948,-0.07253104448318481,0.43654805421829224,-0.32721370458602905,-0.46533361912881116,-0.7061611621136452,2.4357637791366398,-0.5799195170402527,0.4487209618091583,-0.6799578666687012, 184, 117, 0, 146
1731649509654,9i,5.488805975219986,1.5s : 0.4s,-0.24231691542492229,6.683736990470487,2.389590774691252,0.49983505087270585,-2.6711316108703613,1.7782773971557617,0.3084351122379303,-0.09762656688690186,0.3288053274154663,-0.3635810613632202,-0.4881585695899474,-0.6958242333103415,2.418684013120182,-0.5661460757255554,0.46900033950805664,-0.6778770685195923, 184, 117, 0, 146
1731649509664,9i,5.488805975219986,1.5s : 0.4s,-0.24231691542492229,6.6825716130355035,2.27090261709871,0.4969274775255117,-2.3730852603912354,1.7710891962051392,0.25864067673683167,-0.15468835830688477,0.273726224899292,-0.3848147392272949,-0.5094735742756124,-0.6858854818418538,2.4029601489321903,-0.5529228448867798,0.48771774768829346,-0.6755795478820801, 184, 117, 0, 146
1731649509674,9i,5.488805975219986,1.5s : 0.4s,-0.24231691542492229,6.679159709577831,2.157317923670635,0.5460802552178492,-2.080517292022705,1.9256833791732788,0.14694325625896454,-0.22975492477416992,0.23717457056045532,-0.4349305033683777,-0.5280359892746749,-0.6745570107964456,2.3888192009901656,-0.5394864082336426,0.5038378238677979,-0.674612283706665, 184, 117, 0, 146
1731649509684,9i,5.488805975219986,1.5s : 0.4s,-0.24231691542492229,6.673800926102805,2.039089936461833,0.6161516906753913,-1.7894374132156372,1.9763710498809814,0.013071478344500065,-0.2920684814453125,0.2697787284851074,-0.47069984674453735,-0.543782081069215,-0.6617977712529104,2.3756528549031652,-0.5258941650390625,0.5173762440681458,-0.6750978231430054, 184, 117, 0, 146
1731649509694,9i,5.488805975219986,1.5s : 0.4s,-0.24231691542492229,6.667038705277026,1.9311195812513464,0.6863001922277261,-1.6069624423980713,1.9676644802093506,-0.055394530296325684,-0.31644725799560547,0.3569093942642212,-0.49344176054000854,-0.5569011007327302,-0.6484832952902616,2.3635355542710026,-0.5127154588699341,0.528558075428009,-0.6765716671943665, 184, 117, 0, 146
1731649509704,9i,5.488805975219986,1.5s : 0.4s,-0.24231691542492229,6.659474392853811,1.8464668041727545,0.6992203946773508,-1.567484736442566,1.9181767702102661,-0.06534010171890259,-0.25955066084861755,0.3874739408493042,-0.5209669470787048,-0.56926020476693,-0.635452737693703,2.3517916792891036,-0.49994033575057983,0.5390090942382812,-0.6778855919837952, 184, 117, 0, 146
1731649509714,9i,5.488805975219986,1.5s : 0.4s,-0.24231691542492229,6.65147208554443,1.7539546707618192,0.6955029266309243,-1.3113806247711182,1.9158114194869995,-0.01763177290558815,-0.18428963422775269,0.3716557025909424,-0.558241605758667,-0.580855172632803,-0.6222406045344537,2.341150062140792,-0.487265020608902,0.5487390756607056,-0.6793071627616882, 184, 117, 0, 146
1731649509724,9i,5.488805975219986,1.5s : 0.4s,-0.24231691542492229,6.64304017158106,1.642217515622766,0.6874604990909609,-0.8658872842788696,1.9554277658462524,0.03416404873132706,-0.16547933220863342,0.32376664876937866,-0.583432674407959,-0.5898887978368095,-0.6070561594552648,2.3338451864909278,-0.47404709458351135,0.5562686324119568,-0.682528018951416, 184, 117, 0, 146
1731649509734,9i,5.488805975219986,1.5s : 0.4s,-0.24231691542492229,6.6338342554363345,1.53233515897374,0.7173825426073278,-0.462468683719635,1.982940912246704,-0.1302962303161621,-0.16830530762672424,0.249580979347229,-0.6511684656143188,-0.5950727775834015,-0.5900610961800488,2.3292441166396505,-0.46076884865760803,0.5605690479278564,-0.6880801916122437, 184, 117, 0, 146
1731649509744,9i,5.488805975219986,1.5s : 0.4s,-0.24231691542492229,6.623895064827448,1.468787068376646,0.7202062471203666,-0.5247794389724731,1.9481654167175293,-0.29884159564971924,-0.1874879002571106,0.21520859003067017,-0.6612341403961182,-0.5978324906430662,-0.5735413572607163,2.323837268900185,-0.44849851727485657,0.5628522038459778,-0.6942957043647766, 184, 117, 0, 146
1731649509754,9i,5.488805975219986,1.5s : 0.4s,-0.24231691542492229,6.613770004771446,1.4227076339428613,0.6429865340182751,-0.4479120373725891,1.932235598564148,-0.3288886547088623,-0.23533278703689575,0.21078693866729736,-0.5600169897079468,-0.600470565539457,-0.5579724788480048,2.3173216076252325,-0.4368474781513214,0.5650308132171631,-0.699931800365448, 184, 117, 0, 146
1731649509764,9i,5.488805975219986,1.5s : 0.4s,-0.24231691542492229,6.603841698294289,1.358601680926633,0.6186395200305331,-0.3210257291793823,1.7743186950683594,-0.3964376151561737,-0.20973089337348938,0.2578510642051697,-0.5217668414115906,-0.6017214247020267,-0.5428223056363172,2.311307907399708,-0.4258282482624054,0.5660623908042908,-0.7058637738227844, 184, 117, 0, 146
1731649509774,9i,5.488805975219986,1.5s : 0.4s,-0.24231691542492229,6.593984356878678,1.285659570505938,0.6352014603870166,-0.17096413671970367,1.6607861518859863,-0.3206009268760681,-0.11918103694915771,0.22245800495147705,-0.582914412021637,-0.6022678972625667,-0.5289693575709598,2.3054954163929136,-0.41585320234298706,0.5665128231048584,-0.711427628993988, 184, 117, 0, 146
1731649509784,9i,5.488805975219986,1.5s : 0.4s,-0.24231691542492229,6.584209443105458,1.2098563622668992,0.6280002238174219,0.012023795396089554,1.5521701574325562,-0.34172484278678894,-0.07398533821105957,0.17212361097335815,-0.5994029641151428,-0.6008559658263917,-0.5150871269702486,2.3019203585982364,-0.4063308835029602,0.565348744392395,-0.7178272604942322, 184, 117, 0, 146
1731649509794,9i,5.488805975219986,1.5s : 0.4s,-0.24231691542492229,6.574886809101944,1.172242369282972,0.5708814783989952,0.1896839439868927,1.5852410793304443,-0.5700217485427856,-0.05454811453819275,0.15507912635803223,-0.5466997623443604,-0.5978996976119608,-0.5016667474190863,2.297836129265206,-0.39746302366256714,0.5629077553749084,-0.7246777415275574, 184, 117, 0, 146
1731649509804,9i,5.488805975219986,1.5s : 0.4s,-0.24231691542492229,6.565709277849339,1.1363475764691404,0.5737391850987185,0.4762786626815796,1.4785130023956299,-0.6573997735977173,-0.08821934461593628,0.14372843503952026,-0.5483941435813904,-0.5921671450317402,-0.4893552174348588,2.29292414581031,-0.3900217115879059,0.5581604838371277,-0.7323523163795471, 184, 117, 0, 146
1731649509814,9i,5.488805975219986,1.5s : 0.4s,-0.24231691542492229,6.556528962848767,1.1220374590543862,0.5790579430875386,0.9544496536254883,1.4278857707977295,-0.5916756987571716,-0.13156425952911377,0.1591007113456726,-0.5410045385360718,-0.5831568152650519,-0.47662907032779933,2.29023326686653,-0.3829621970653534,0.5506617426872253,-0.7416950464248657, 184, 117, 0, 146
1731649509824,9i,5.488805975219986,1.5s : 0.4s,-0.24231691542492229,6.547932390259737,1.129775220494866,0.4730081524431609,1.247527003288269,1.2881536483764648,-0.6497296690940857,-0.08921197056770325,0.13796871900558472,-0.4435567259788513,-0.5705573847747357,-0.46401858057134776,2.2895799444555403,-0.3766542077064514,0.5401012301445007,-0.7526102662086487, 184, 117, 0, 146
1731649509834,9i,5.488805975219986,1.5s : 0.4s,-0.24231691542492229,6.5400770244086965,1.2600405476843342,0.4273765406249599,1.7524603605270386,1.6118454933166504,-0.6780959367752075,-0.03035193681716919,0.10530424118041992,-0.41308653354644775,-0.5541567012055155,-0.45289206888691774,2.2902528072073114,-0.3720834255218506,0.5262264013290405,-0.764617383480072, 184, 117, 0, 146
1731649509844,9i,5.488805975219986,1.5s : 0.4s,-0.24231691542492229,6.532521806978376,1.3132507765091037,0.47833032429386757,1.6079405546188354,1.3240374326705933,-0.7554221153259277,-0.02028191089630127,0.10023331642150879,-0.4672706127166748,-0.5359254265893707,-0.43994378479969,2.291096849778708,-0.366177499294281,0.5106369256973267,-0.7779228687286377, 184, 117, 0, 146
1731649509854,9i,5.488805975219986,1.5s : 0.4s,-0.24231691542492229,6.5249223270976735,1.3193698892107346,0.5234891097412832,1.6906254291534424,0.9714884757995605,-0.735266923904419,-0.05089685320854187,0.08924457430839539,-0.5133086442947388,-0.5181147442235258,-0.4286868162291307,2.291065365941293,-0.3611210286617279,0.4952431917190552,-0.790142834186554, 184, 117, 0, 146
1731649509864,9i,5.488805975219986,1.5s : 0.4s,-0.24231691542492229,6.517361459766681,1.3528545673895318,0.3943125771326068,1.9745324850082397,0.8177670836448669,-0.6721481680870056,-0.16804274916648865,0.058914244174957275,-0.3518140912055969,-0.4985288240366608,-0.41911930094760036,2.292481484652344,-0.35742422938346863,0.4781339466571808,-0.8022691607475281, 184, 117, 0, 146
1731649509874,9i,5.488805975219986,1.5s : 0.4s,-0.24231691542492229,6.510070438174148,1.4187672881405433,0.33265286193692833,2.1606087684631348,0.8015584945678711,-0.7090961337089539,-0.11342799663543701,-0.02996903657913208,-0.3112778067588806,-0.4768352598018763,-0.4100773147591283,2.294958410539709,-0.35420820116996765,0.45896977186203003,-0.8147903084754944, 184, 117, 0, 146
1731649509884,9i,5.488805975219986,1.5s : 0.4s,-0.24231691542492229,6.503190046109723,1.5062724093280042,0.34292913493479216,2.351407527923584,0.7805091142654419,-0.7622491121292114,-0.0435832142829895,-0.004623532295227051,-0.3401169180870056,-0.453427535566877,-0.40117379372575157,2.297374722737087,-0.3510396182537079,0.4380492866039276,-0.8275771737098694, 184, 117, 0, 146
1731649509894,9i,5.488805975219986,1.5s : 0.4s,-0.24231691542492229,6.497031270610507,1.6258641441220247,0.3287616159577784,2.6242411136627197,0.8234896063804626,-0.7997893691062927,-0.051053404808044434,0.1274198293685913,-0.2987338900566101,-0.42743914008521583,-0.392118869128922,2.3002194082880325,-0.34776562452316284,0.41454169154167175,-0.8409602642059326, 184, 117, 0, 146
1731649509904,9i,5.488805975219986,1.5s : 0.4s,-0.24231691542492229,6.491689071760995,1.7383250078292756,0.32438416721095875,2.7566521167755127,0.8014756441116333,-0.8603826761245728,-0.06516438722610474,0.19642332196235657,-0.24979305267333984,-0.39944133164416507,-0.382950958031204,2.303183376112299,-0.34424424171447754,0.3889037072658539,-0.8545465469360352, 184, 117, 0, 146
1731649509914,9i,5.488805975219986,1.5s : 0.4s,-0.24231691542492229,6.487057811871137,1.8463506020090883,0.2869286694072814,2.9036965370178223,0.7666286826133728,-0.9114168286323547,-0.0789143443107605,0.18701890110969543,-0.20279181003570557,-0.36989678407754845,-0.37425718474892594,2.3058132951883823,-0.34085503220558167,0.3615191876888275,-0.8678258657455444, 184, 117, 0, 146
1731649509924,9i,5.488805975219986,1.5s : 0.4s,-0.24231691542492229,6.483005094710941,1.9350726092926576,0.26763118661096813,2.981214761734009,0.7030044198036194,-0.9318999648094177,-0.07405611872673035,0.17752042412757874,-0.1860877275466919,-0.339232990266336,-0.3661920097097072,2.3082343012090645,-0.33765658736228943,0.3327638804912567,-0.8804863095283508, 184, 117, 0, 146
1731649509933,9i,5.488805975219986,1.5s : 0.4s,-0.24231691542492229,6.479739538144991,2.0164611399475456,0.25790573150804585,3.090893268585205,0.6159074306488037,-0.9718019962310791,-0.0137844979763031,0.1948796510696411,-0.16836649179458618,-0.30755010390383436,-0.3590464843819392,2.310505398317369,-0.33489418029785156,0.30272459983825684,-0.8923024535179138, 184, 117, 0, 146
1731649509943,9i,5.488805975219986,1.5s : 0.4s,-0.24231691542492229,6.476894982119924,2.097595047232998,0.26594698656882676,3.2025301456451416,0.5733786225318909,-1.0408174991607666,0.05150735378265381,0.23015272617340088,-0.12290042638778687,-0.27462908757687926,-0.35267724839312,2.3124655149909428,-0.3324674963951111,0.27118992805480957,-0.9032836556434631, 184, 117, 0, 146
1731649509953,9i,5.488805975219986,1.5s : 0.4s,-0.24231691542492229,6.474472110273522,2.1841583392869883,0.26515242229463565,3.3160111904144287,0.6035197377204895,-1.1453348398208618,0.0647256076335907,0.24256648123264313,-0.08531063795089722,-0.24034682016122694,-0.34673505171563973,2.3137355494358425,-0.330060750246048,0.23803949356079102,-0.9134534001350403, 184, 117, 0, 146
1731649509963,9i,5.488805975219986,1.5s : 0.4s,-0.24231691542492229,6.472744932376799,2.1845377217217816,0.23849834981457763,3.010667562484741,0.5583815574645996,-1.1321372985839844,0.034212321043014526,0.21327422559261322,-0.10111916065216064,-0.20682188275378846,-0.3408684617487169,2.3137744012342565,-0.3271811604499817,0.20535054802894592,-0.9223793148994446, 184, 117, 0, 146
1731649509973,9i,5.488805975219986,1.5s : 0.4s,-0.24231691542492229,6.471526635751452,2.2266190892683926,0.21902507251425524,3.244223117828369,0.4817683696746826,-1.131186604499817,0.016298770904541016,0.19138962030410767,-0.1052442193031311,-0.17349299075950197,-0.3359417065663237,2.313970734633422,-0.3247094750404358,0.17262394726276398,-0.9299272298812866, 184, 117, 0, 146
1731649509983,9i,5.488805975219986,1.5s : 0.4s,-0.24231691542492229,6.470931007344099,2.184188397003543,0.14856457191562886,2.834779739379883,0.512981116771698,-1.1782158613204956,0.0345187783241272,0.13852839171886444,-0.04110682010650635,-0.14066724712301187,-0.3314909492895918,2.313438301195519,-0.322238564491272,0.1402038037776947,-0.9362185597419739, 184, 117, 0, 146
1731649509993,9i,5.488805975219986,1.5s : 0.4s,-0.24231691542492229,6.4702037169367745,2.1113994861288083,0.1393718769371702,2.6144440174102783,0.3265976011753082,-1.2274092435836792,0.05190807580947876,0.022754758596420288,-0.12732750177383423,-0.11154000649705113,-0.32710171706435753,2.311014651231508,-0.31930315494537354,0.11130886524915695,-0.9410929083824158, 184, 117, 0, 146
1731649510003,9i,5.488805975219986,1.5s : 0.4s,-0.24231691542492229,6.469748715960487,2.0422446256489946,0.13900506702114165,2.530898094177246,0.1702042520046234,-1.2309269905090332,0.0636756420135498,0.08610954880714417,-0.08861696720123291,-0.08355848909458663,-0.3243835217096987,2.307798150160179,-0.31761249899864197,0.08346129208803177,-0.9445403814315796, 184, 117, 0, 146
1731649510013,9i,5.488805975219986,1.5s : 0.4s,-0.24231691542492229,6.470233659905784,2.0296076690730938,0.1977896155124421,2.6607301235198975,0.36361926794052124,-1.3018027544021606,0.02313980460166931,0.09557121992111206,0.1716141700744629,-0.05521357328075343,-0.3219079939750664,2.3043556233341222,-0.3158949911594391,0.05518552288413048,-0.9471879005432129, 184, 117, 0, 146
1731649510023,9i,5.488805975219986,1.5s : 0.4s,-0.24231691542492229,6.471998313085306,2.0509898198819054,0.2919450923596,2.7127108573913574,0.6077864170074463,-1.4651880264282227,0.03431868553161621,0.23694418370723724,0.16706770658493042,-0.025402820670418658,-0.31712835528923883,2.299922277846288,-0.3117387890815735,0.025400089100003242,-0.9498282670974731, 184, 117, 0, 146
