timestamp,club,max_speed,tempo,w.rotation,l.speed,t.spped,acc,rotation.x,rotation.y,rotation.z,userAcceleration.x,userAcceleration.y,userAcceleration.z,pitch,roll,yaw,gravity.x,gravity.y,gravity.z,impactIndex,minDownIndex,StartIndex,endIndex
1731649458908,9i,4.832386832633567,1.4s : 0.3s,-256.75380395190336,0.0007845868678376764,0.05644687900517724,0.018744817833831726,-0.019357163459062576,0.010308945551514626,0.03491968661546707,0.0026415586471557617,-0.01477503776550293,0.01122891902923584,-0.5143782608598791,2.2536613799295275,2.892688817283495,0.6753827333450317,0.49199366569519043,0.5493637323379517, 162, 111, 0, 136
1731649458918,9i,4.832386832633567,1.4s : 0.3s,-256.75380395190336,0.0019533807809117144,0.04386184036005925,0.011622285546360337,0.0070481449365615845,0.007428648881614208,0.0337817519903183,0.003794431686401367,-0.009878754615783691,0.004805207252502441,-0.5140473797994515,2.253712288027402,2.892529548214621,0.6754810810089111,0.4917055666446686,0.5495008826255798, 162, 111, 0, 136
1731649458928,9i,4.832386832633567,1.4s : 0.3s,-256.75380395190336,0.0027929593419119096,0.03942497844884223,0.009881211292629286,0.024497443810105324,-0.006935909856110811,0.0231445524841547,0.0072329044342041016,-0.0006609857082366943,-0.006699740886688232,-0.5133448620236106,2.2535703619732073,2.8921964361779158,0.6758267283439636,0.4910937249660492,0.5496227145195007, 162, 111, 0, 136
1731649458938,9i,4.832386832633567,1.4s : 0.3s,-256.75380395190336,0.003535112557685299,0.037887835199456286,0.019058212280656746,0.03381677716970444,-0.019333455711603165,0.009006829001009464,0.008276939392089844,0.010318905115127563,-0.013719618320465088,-0.5127043444062843,2.2531654596762647,2.89177364646961,0.6762933731079102,0.4905356466770172,0.5495474338531494, 162, 111, 0, 136
1731649458948,9i,4.832386832633567,1.4s : 0.3s,-256.75380395190336,0.00416713961027745,0.0370531236070932,0.022230177428390497,0.03250330314040184,-0.0237061008810997,0.020347101613879204,0.0008475184440612793,0.01849845051765442,-0.012299180030822754,-0.5123006086324935,2.252392616670854,2.891182380573353,0.6768715977668762,0.4901838004589081,0.5491492748260498, 162, 111, 0, 136
1731649458958,9i,4.832386832633567,1.4s : 0.3s,-256.75380395190336,0.0046996833415293695,0.0366636248556483,0.021784505924770464,0.02456521987915039,-0.023482484742999077,0.037952590733766556,-0.00883626937866211,0.0143546462059021,-0.013799607753753662,-0.5118554220466779,2.2515437808207786,2.8905332209930914,0.6775068640708923,0.4897957146167755,0.5487116575241089, 162, 111, 0, 136
1731649458968,9i,4.832386832633567,1.4s : 0.3s,-256.75380395190336,0.0051574969966995685,0.03698315856819602,0.021233335902589696,0.027134638279676437,-0.0165790393948555,0.05465300753712654,-0.016166329383850098,0.0034801363945007324,-0.013318896293640137,-0.5112723925018756,2.2510197272171526,2.8899513124309704,0.6780164837837219,0.4892873167991638,0.5485363006591797, 162, 111, 0, 136
1731649458978,9i,4.832386832633567,1.4s : 0.3s,-256.75380395190336,0.0055670201823209775,0.03784304950331685,0.025438423550560443,0.024412820115685463,-0.021679436787962914,0.06555142998695374,-0.021398186683654785,-0.00821143388748169,-0.011036455631256104,-0.5105589459593894,2.250683348155773,2.8893827530166902,0.6784721612930298,0.48866498470306396,0.5485274791717529, 162, 111, 0, 136
1731649458988,9i,4.832386832633567,1.4s : 0.3s,-256.75380395190336,0.005940559729465552,0.041113810944511914,0.027641358545698998,0.04135745018720627,-0.023191845044493675,0.07005935907363892,-0.022284746170043945,-0.011483162641525269,-0.011643528938293457,-0.5097969180317125,2.250401236385482,2.8887459211862234,0.6789163947105408,0.4880000054836273,0.5485699772834778, 162, 111, 0, 136
1731649458998,9i,4.832386832633567,1.4s : 0.3s,-256.75380395190336,0.0062734541548898765,0.049265152469186516,0.022870139351677095,0.06639508903026581,-0.023247770965099335,0.07435128092765808,-0.019470393657684326,-0.004839062690734863,-0.010978639125823975,-0.5093347919422822,2.249842848339526,2.8878280341890314,0.679397702217102,0.4875965714454651,0.5483320951461792, 162, 111, 0, 136
1731649459008,9i,4.832386832633567,1.4s : 0.3s,-256.75380395190336,0.006555936100034361,0.05568611855138012,0.024491802857406406,0.07621096819639206,-0.022346556186676025,0.07612281292676926,-0.021156132221221924,0.0025035440921783447,-0.012082993984222412,-0.5092788128068307,2.2488382607245234,2.8865517355792347,0.6799694895744324,0.48754769563674927,0.5476664900779724, 162, 111, 0, 136
1731649459018,9i,4.832386832633567,1.4s : 0.3s,-256.75380395190336,0.006789098671855393,0.05662080850356841,0.028018918446796697,0.059353962540626526,-0.01793627440929413,0.0750836431980133,-0.0244598388671875,0.004481077194213867,-0.012911081314086914,-0.5095304282940576,2.247701212003773,2.8852292110371582,0.680496096611023,0.48776736855506897,0.5468160510063171, 162, 111, 0, 136
1731649459028,9i,4.832386832633567,1.4s : 0.3s,-256.75380395190336,0.00699229382123431,0.12496264608754173,0.024295898300360285,0.018787890672683716,-0.23368561267852783,0.38972601294517517,-0.02362722158432007,-0.0015864968299865723,-0.005433976650238037,-0.5096991762759705,2.2466781813879773,2.884102630602456,0.6809911727905273,0.48791468143463135,0.5460683107376099, 162, 111, 0, 136
1731649459038,9i,4.832386832633567,1.4s : 0.3s,-256.75380395190336,0.00717855955061162,0.19119921477128893,0.028384612135375114,-0.0786433294415474,-0.1277727484703064,0.5187175869941711,-0.027336478233337402,-0.00741305947303772,0.0018573403358459473,-0.5100986490689138,2.2469280567856367,2.8839141806521313,0.6807026267051697,0.488263338804245,0.5461164712905884, 162, 111, 0, 136
1731649459048,9i,4.832386832633567,1.4s : 0.3s,-256.75380395190336,0.007336232273094569,0.20012605060133698,0.03740364856971448,-0.09405184537172318,0.08962427079677582,0.35717180371284485,-0.03635925054550171,-0.006668001413345337,0.005707502365112305,-0.5101889169072968,2.2472752499225916,2.88429798843318,0.6804783344268799,0.4883421063423157,0.5463249683380127, 162, 111, 0, 136
1731649459058,9i,4.832386832633567,1.4s : 0.3s,-256.75380395190336,0.007482266134979236,0.16311010528880343,0.00852580543021606,-0.08432717621326447,0.11046209186315536,0.1112557053565979,0.00036025047302246094,0.0020483732223510742,0.008268237113952637,-0.509083626668885,2.2469403770211254,2.8842515794466053,0.681082010269165,0.4873772859573364,0.5464345812797546, 162, 111, 0, 136
1731649459068,9i,4.832386832633567,1.4s : 0.3s,-256.75380395190336,0.007619556700305269,0.1342244651758778,0.014843268139942446,-0.09153582155704498,-0.002392024267464876,0.0807151049375534,-0.01119297742843628,-0.002695322036743164,0.009368836879730225,-0.5081906707550798,2.2473889959720856,2.8846938462307996,0.681175947189331,0.48659735918045044,0.547012448310852, 162, 111, 0, 136
1731649459078,9i,4.832386832633567,1.4s : 0.3s,-256.75380395190336,0.007750335200549851,0.11300077674499238,0.021405930720122226,-0.08469056338071823,-0.038579586893320084,0.06901910156011581,-0.02038097381591797,-0.003938645124435425,0.005226552486419678,-0.5072560629214221,2.2474746260055647,2.8850413684088934,0.6814832091331482,0.48578065633773804,0.5473551750183105, 162, 111, 0, 136
1731649459088,9i,4.832386832633567,1.4s : 0.3s,-256.75380395190336,0.007880488379644742,0.09397692661240377,0.006946390984876411,-0.04639989882707596,-0.03881767392158508,0.05635630339384079,0.0031617283821105957,-0.002462834119796753,0.005673646926879883,-0.5067198240306544,2.2473407491913386,2.885239857413938,0.6817594170570374,0.4853118658065796,0.5474268794059753, 162, 111, 0, 136
1731649459098,9i,4.832386832633567,1.4s : 0.3s,-256.75380395190336,0.008018841801596671,0.07728149165020586,0.012281958597088919,-0.005984233692288399,-0.04052272066473961,0.05282045528292656,-0.007219195365905762,-0.008455842733383179,0.005218088626861572,-0.5065586999001359,2.2469971539520484,2.8851267958712423,0.6820086240768433,0.48517099022865295,0.5472416877746582, 162, 111, 0, 136
1731649459108,9i,4.832386832633567,1.4s : 0.3s,-256.75380395190336,0.008158757998242231,0.06285638695842263,0.01929844435716577,0.029171623289585114,-0.03992617502808571,0.04542778432369232,-0.016014158725738525,-0.006902068853378296,0.008266687393188477,-0.5064919824277881,2.2466141331703464,2.88477911663536,0.6822435855865479,0.48511263728141785,0.5470007658004761, 162, 111, 0, 136
1731649459118,9i,4.832386832633567,1.4s : 0.3s,-256.75380395190336,0.008298472726089343,0.05554458802650658,0.023275605284162556,0.0365348644554615,-0.02395608462393284,0.04429854080080986,-0.01733475923538208,-0.0063627660274505615,0.014169514179229736,-0.5064859052941957,2.2464358913582485,2.8843540534041563,0.6823433637619019,0.48510733246803284,0.5468810200691223, 162, 111, 0, 136
1731649459128,9i,4.832386832633567,1.4s : 0.3s,-256.75380395190336,0.008442161758511564,0.05315197582907807,0.022528639115277402,0.04392993077635765,-0.012236043810844421,0.049567073583602905,-0.015622615814208984,-0.007228434085845947,0.014533519744873047,-0.506585879563306,2.246595579639003,2.8839930542315484,0.6822180151939392,0.48519474267959595,0.5469595193862915, 162, 111, 0, 136
1731649459138,9i,4.832386832633567,1.4s : 0.3s,-256.75380395190336,0.008589699350547144,0.051356598512670895,0.016048341939929045,0.04017440602183342,-0.011414281092584133,0.05248446762561798,-0.00778883695602417,-0.0063142478466033936,0.012530505657196045,-0.5064826816998855,2.2462873444701823,2.883315601702913,0.6824256181716919,0.485104501247406,0.5467804670333862, 162, 111, 0, 136
1731649459148,9i,4.832386832633567,1.4s : 0.3s,-256.75380395190336,0.008741874448861363,0.04755061892212152,0.01627447371343201,0.02007473073899746,-0.019800575450062752,0.03971727192401886,0.00017595291137695312,-0.00726848840713501,0.014560103416442871,-0.5063349033976577,2.2463332560932487,2.8829437775501927,0.6824563145637512,0.48497527837753296,0.5468565225601196, 162, 111, 0, 136
1731649459158,9i,4.832386832633567,1.4s : 0.3s,-256.75380395190336,0.008890899438602115,0.04062137760800584,0.021268558951069712,0.005557840224355459,-0.02944858744740486,0.019543025642633438,0.004013240337371826,-0.004984825849533081,0.02028292417526245,-0.5062885556799782,2.2464902792760784,2.882866357689098,0.6823880672454834,0.4849347472190857,0.5469777584075928, 162, 111, 0, 136
1731649459168,9i,4.832386832633567,1.4s : 0.3s,-256.75380395190336,0.009035015990144498,0.038739609587859616,0.019361966409557837,0.013292458839714527,-0.04345734789967537,0.013344519771635532,0.0012435317039489746,-0.0035413503646850586,0.018994688987731934,-0.5060862312564172,2.246141606183463,2.882719036995188,0.682655394077301,0.48475781083106995,0.5468012094497681, 162, 111, 0, 136
1731649459178,9i,4.832386832633567,1.4s : 0.3s,-256.75380395190336,0.009177935010890792,0.12350815685801576,0.01133502085746474,0.026378167793154716,-0.2999202013015747,0.3745032548904419,-0.00610882043838501,-0.0032547712326049805,0.008976161479949951,-0.5056364658061653,2.245396548021315,2.8823304964950403,0.6832327842712402,0.4843643605709076,0.5464285612106323, 162, 111, 0, 136
1731649459188,9i,4.832386832633567,1.4s : 0.3s,-256.75380395190336,0.00932524235364098,0.27559627513270984,0.020044334866470885,0.01321549341082573,-0.5150974988937378,0.786559522151947,-0.019684255123138428,-0.0034515559673309326,-0.0015466809272766113,-0.5060009857509468,2.2454602422072547,2.882274801482473,0.6830600500106812,0.48468324542045593,0.5463617444038391, 162, 111, 0, 136
1731649459198,9i,4.832386832633567,1.4s : 0.3s,-256.75380395190336,0.009510471626397432,0.35412672623231606,0.039135285120557806,0.03426758199930191,-0.4860786199569702,0.6362832188606262,-0.03700941801071167,-0.010039836168289185,-0.007815062999725342,-0.5073931690940124,2.24652170319481,2.882772886401644,0.681952714920044,0.48590049147605896,0.5466639995574951, 162, 111, 0, 136
1731649459208,9i,4.832386832633567,1.4s : 0.3s,-256.75380395190336,0.009705765889956182,0.2828743946038049,0.020453650005520338,0.06087176129221916,-0.13131733238697052,0.11512470990419388,-0.01925748586654663,-0.005904167890548706,-0.0035555362701416016,-0.5076369331702525,2.2455533041912643,2.882063568797911,0.6823891401290894,0.4861135184764862,0.5459292531013489, 162, 111, 0, 136
1731649459218,9i,4.832386832633567,1.4s : 0.3s,-256.75380395190336,0.009909532369036375,0.20884883860579206,0.013803913311795356,0.029809249565005302,-0.0811791643500328,0.0003033522516489029,-0.011919140815734863,-0.006785184144973755,-0.0015631318092346191,-0.5076846561117618,2.244622921410509,2.8816500538452026,0.6828785538673401,0.486155241727829,0.5452796220779419, 162, 111, 0, 136
1731649459228,9i,4.832386832633567,1.4s : 0.3s,-256.75380395190336,0.010136986611124199,0.15608845084736994,0.031462567374589086,-0.038236379623413086,-0.09968014061450958,-0.024648336693644524,-0.0294034481048584,-0.010025769472122192,-0.004981398582458496,-0.5074468613831447,2.244093237905201,2.8819100773415363,0.6832577586174011,0.4859474301338196,0.5449900031089783, 162, 111, 0, 136
1731649459238,9i,4.832386832633567,1.4s : 0.3s,-256.75380395190336,0.01037603128621465,0.11895549441349844,0.012457840624908996,-0.10382451117038727,-0.0855092853307724,-0.03920866921544075,-0.002288341522216797,-0.011783808469772339,0.0033321380615234375,-0.5068745439644669,2.2440442956812854,2.8830097709485214,0.683501660823822,0.48544713854789734,0.5451297760009766, 162, 111, 0, 136
1731649459248,9i,4.832386832633567,1.4s : 0.3s,-256.75380395190336,0.010640626065051497,0.10048340856442875,0.019925487439114403,-0.12257423251867294,-0.015492912381887436,-0.08930405974388123,-0.0054427385330200195,-0.018794715404510498,0.0037630200386047363,-0.5061149710434496,2.2441046701392424,2.8844514889198734,0.6837570071220398,0.4847829341888428,0.5454009771347046, 162, 111, 0, 136
1731649459258,9i,4.832386832633567,1.4s : 0.3s,-256.75380395190336,0.010931125533359398,0.062209484453069,0.02296389199542277,-0.118572898209095,0.0674106702208519,-0.1655314862728119,0.0012029409408569336,-0.02289852499961853,0.0012453198432922363,-0.5054686680839371,2.2439529795465467,2.8858902395402506,0.6840845942497253,0.4842175543308258,0.5454925298690796, 162, 111, 0, 136
1731649459268,9i,4.832386832633567,1.4s : 0.3s,-256.75380395190336,0.011227562287321509,0.06727780194496932,0.016862699482319905,-0.0733439028263092,0.1342323124408722,-0.24939310550689697,0.003621697425842285,-0.016420215368270874,-0.0012690424919128418,-0.5051101351465597,2.243544738150758,2.8871264798969927,0.684442937374115,0.48390382528305054,0.5453212857246399, 162, 111, 0, 136
1731649459278,9i,4.832386832633567,1.4s : 0.3s,-256.75380395190336,0.011507850628316402,0.10647520777958286,0.00729757970346575,-0.013972517102956772,0.13667654991149902,-0.3117707371711731,-0.001192629337310791,-0.005297631025314331,-0.00487518310546875,-0.505024219420975,2.2428902008358658,2.8879165201680235,0.6848322749137878,0.4838286340236664,0.5448991060256958, 162, 111, 0, 136
1731649459288,9i,4.832386832633567,1.4s : 0.3s,-256.75380395190336,0.011767261449578674,0.13595042484329936,0.014486129747170435,0.02875124290585518,0.0648668184876442,-0.31173399090766907,-0.0075376033782958984,-0.0004094839096069336,-0.012363851070404053,-0.5048261542193525,2.2413510800313983,2.8879531546150923,0.6857449412345886,0.48365527391433716,0.5439037680625916, 162, 111, 0, 136
1731649459298,9i,4.832386832633567,1.4s : 0.3s,-256.75380395190336,0.011996895816828052,0.1409272136222328,0.02178939545184122,0.025187067687511444,-0.11089906096458435,-0.24200154840946198,-0.00977391004562378,0.005607485771179199,-0.018649518489837646,-0.5046810014106157,2.239751880930293,2.8877497824214333,0.6866689920425415,0.4835282266139984,0.5428499579429626, 162, 111, 0, 136
1731649459308,9i,4.832386832633567,1.4s : 0.3s,-256.75380395190336,0.012197816109368816,0.13789696473967597,0.021764889544083812,-0.10187288373708725,-0.38469013571739197,-0.05932069569826126,-0.007722198963165283,0.006154477596282959,-0.019395887851715088,-0.5040561960832881,2.2383452101355488,2.8881630995108942,0.687669038772583,0.48298123478889465,0.5420704483985901, 162, 111, 0, 136
1731649459318,9i,4.832386832633567,1.4s : 0.3s,-256.75380395190336,0.012385191643512386,0.20155269550995922,0.014317220968114245,-0.1418652981519699,-0.6827424764633179,0.19498693943023682,-0.005583465099334717,-9.191036224365234e-05,-0.013183295726776123,-0.5027561719435993,2.2370909179248946,2.889127598659159,0.6888415813446045,0.4818424880504608,0.5415952205657959, 162, 111, 0, 136
1731649459328,9i,4.832386832633567,1.4s : 0.3s,-256.75380395190336,0.01273667626968613,0.3370348206504273,0.04618457819328874,-0.21157486736774445,-0.9338900446891785,0.4393165409564972,-0.005914866924285889,-0.03785574436187744,-0.025787055492401123,-0.5013789722471444,2.2360323778320645,2.8904424910204845,0.6899358034133911,0.48063525557518005,0.5412747263908386, 162, 111, 0, 136
1731649459338,9i,4.832386832633567,1.4s : 0.3s,-256.75380395190336,0.013450156447280428,0.4874029272366322,0.07432786906813497,-0.2758094370365143,-1.0634421110153198,0.6776668429374695,-0.019062817096710205,-0.06613630056381226,-0.028057634830474854,-0.49994217610827424,2.2355221691573584,2.8924098502532494,0.6907545924186707,0.47937479615211487,0.5413480401039124, 162, 111, 0, 136
1731649459348,9i,4.832386832633567,1.4s : 0.3s,-256.75380395190336,0.014187832544189549,0.5925327531823615,0.04325924040908581,-0.2955471873283386,-0.956411600112915,0.8000374436378479,-0.02992856502532959,-0.031234830617904663,0.00016802549362182617,-0.4981643293459961,2.2353192670728306,2.8943806077589116,0.6915343403816223,0.4778137803077698,0.541732668876648, 162, 111, 0, 136
1731649459358,9i,4.832386832633567,1.4s : 0.3s,-256.75380395190336,0.014834341148915341,0.6288411710049867,0.028526163896902573,-0.21860988438129425,-0.7235296964645386,0.7946717143058777,-0.018187522888183594,0.01667514443397522,0.01431417465209961,-0.4963619142992108,2.234948274107564,2.895696716433343,0.6924125552177429,0.47622963786125183,0.5420061945915222, 162, 111, 0, 136
1731649459368,9i,4.832386832633567,1.4s : 0.3s,-256.75380395190336,0.015328270737803665,0.5864912459391209,0.0433831527093098,-0.1267808973789215,-0.3972208499908447,0.6464138031005859,0.0025450587272644043,0.043202102184295654,-0.003032982349395752,-0.4950525815084447,2.2343253458206918,2.8960870694993615,0.6932404041290283,0.47507792711257935,0.5419580936431885, 162, 111, 0, 136
1731649459378,9i,4.832386832633567,1.4s : 0.3s,-256.75380395190336,0.01551164993835819,0.47479863194717864,0.05335809404159205,-0.05124498903751373,-0.02970123291015625,0.41256099939346313,0.021770894527435303,0.047067791223526,-0.012559354305267334,-0.49430114129110886,2.2337737276759,2.895925411552605,0.6938204169273376,0.4744165539741516,0.5417951941490173, 162, 111, 0, 136
1731649459388,9i,4.832386832633567,1.4s : 0.3s,-256.75380395190336,0.015321959225804717,0.32113938625827765,0.05406235475167093,0.0219368115067482,0.3021049201488495,0.14789633452892303,0.036373138427734375,0.03836244344711304,-0.011316180229187012,-0.49399797486708763,2.233306129960637,2.8952583307085105,0.6941869854927063,0.4741496741771698,0.541559100151062, 162, 111, 0, 136
1731649459398,9i,4.832386832633567,1.4s : 0.3s,-256.75380395190336,0.014907585681331605,0.17586944849401603,0.05973487491029233,0.0534970685839653,0.5501171350479126,-0.10007181763648987,0.052347779273986816,0.026826322078704834,-0.01040738821029663,-0.49391194053911636,2.2328840109878945,2.894315014716054,0.6944478154182434,0.4740739166736603,0.5412911772727966, 162, 111, 0, 136
1731649459408,9i,4.832386832633567,1.4s : 0.3s,-256.75380395190336,0.014348693703699865,0.15236419294705505,0.07012300990314892,0.08679617196321487,0.6779419183731079,-0.2938831150531769,0.06466120481491089,0.023576468229293823,-0.013428151607513428,-0.4938251260395442,2.2324075847709737,2.893183873941458,0.6947382688522339,0.47399747371673584,0.5409857034683228, 162, 111, 0, 136
1731649459418,9i,4.832386832633567,1.4s : 0.3s,-256.75380395190336,0.013723767722215788,0.2419552866055802,0.08202297680187579,0.07760892808437347,0.6976595520973206,-0.4261619746685028,0.07263928651809692,0.02467063069343567,-0.029028654098510742,-0.4936048445905485,2.2319067632367178,2.892076267636132,0.6950914263725281,0.47380349040031433,0.540701687335968, 162, 111, 0, 136
1731649459428,9i,4.832386832633567,1.4s : 0.3s,-256.75380395190336,0.01319516320344231,0.31739773320828596,0.0849775935054154,0.05557287111878395,0.6191884279251099,-0.471875935792923,0.06839907169342041,0.017248719930648804,-0.04738396406173706,-0.49321339621567406,2.2315880334675056,2.8912845846178,0.6954101324081421,0.47345873713493347,0.5405939817428589, 162, 111, 0, 136
1731649459438,9i,4.832386832633567,1.4s : 0.3s,-256.75380395190336,0.012844524195665844,0.3434112537763868,0.08227122570429961,0.0409700907766819,0.45996958017349243,-0.4203602075576782,0.05358624458312988,0.007630795240402222,-0.061958372592926025,-0.49266457458215285,2.2314937846952714,2.8907425832584606,0.6956660151481628,0.4729752540588379,0.5406876802444458, 162, 111, 0, 136
1731649459448,9i,4.832386832633567,1.4s : 0.3s,-256.75380395190336,0.01270103158773658,0.3133693047868711,0.0748616888050647,0.07012052088975906,0.2342648208141327,-0.29718393087387085,0.03588825464248657,-0.0014393329620361328,-0.06568282842636108,-0.49210041893188244,2.231435861900386,2.890109842373478,0.6959078907966614,0.47247812151908875,0.5408110618591309, 162, 111, 0, 136
1731649459458,9i,4.832386832633567,1.4s : 0.3s,-256.75380395190336,0.012764704243382267,0.23752692248580606,0.07366477993789924,0.11816234886646271,-0.005138897802680731,-0.12733007967472076,0.026456892490386963,0.00022095441818237305,-0.06874942779541016,-0.4917920617992528,2.2311096160035744,2.8890019367152755,0.6961992383003235,0.47220632433891296,0.5406731963157654, 162, 111, 0, 136
1731649459468,9i,4.832386832633567,1.4s : 0.3s,-256.75380395190336,0.013007967233816507,0.14027161764090754,0.07318765144015416,0.17449486255645752,-0.2230169028043747,0.0557398796081543,0.022815287113189697,0.009346872568130493,-0.06890958547592163,-0.49187732549207663,2.2304109681606707,2.8872957059078157,0.6965450048446655,0.47228148579597473,0.5401620268821716, 162, 111, 0, 136
1731649459477,9i,4.832386832633567,1.4s : 0.3s,-256.75380395190336,0.013400609610717597,0.0935111334170963,0.06527280558362054,0.20943593978881836,-0.37405505776405334,0.21711698174476624,0.013517618179321289,0.012825340032577515,-0.06255656480789185,-0.4923455615240783,2.2293710960718895,2.885010573179684,0.6969316601753235,0.47269415855407715,0.5393022298812866, 162, 111, 0, 136
1731649459487,9i,4.832386832633567,1.4s : 0.3s,-256.75380395190336,0.013924575422527279,0.15296562474311415,0.05233977090066604,0.19416509568691254,-0.43783190846443176,0.34095078706741333,0.0035372376441955566,0.0016938447952270508,-0.052192628383636475,-0.4929778846332062,2.2282500564558894,2.882517106486157,0.6972990036010742,0.4732512831687927,0.5383378267288208, 162, 111, 0, 136
1731649459497,9i,4.832386832633567,1.4s : 0.3s,-256.75380395190336,0.014542572456849995,0.22153715739042634,0.03716821261063311,0.14326755702495575,-0.4243069589138031,0.41616564989089966,-0.0074509382247924805,-0.012082099914550781,-0.03435087203979492,-0.49344243442519226,2.227298895595192,2.880228523672088,0.6976364850997925,0.4736604690551758,0.537540078163147, 162, 111, 0, 136
1731649459507,9i,4.832386832633567,1.4s : 0.3s,-256.75380395190336,0.015181662858354462,0.2614302539708712,0.028462871514599662,0.0924893468618393,-0.3346220552921295,0.4286052882671356,-0.014961481094360352,-0.01921716332435608,-0.014730572700500488,-0.49359136798329645,2.2266207937130997,2.878288453279966,0.697944700717926,0.47379162907600403,0.537023663520813, 162, 111, 0, 136
1731649459517,9i,4.832386832633567,1.4s : 0.3s,-256.75380395190336,0.015801684023112477,0.269358716268938,0.02367837831711324,0.06804751604795456,-0.2136901468038559,0.3865722715854645,-0.015444576740264893,-0.017358124256134033,-0.004563570022583008,-0.49350774838888684,2.2261204000832673,2.876622415479642,0.6982448697090149,0.47371798753738403,0.536698579788208, 162, 111, 0, 136
1731649459527,9i,4.832386832633567,1.4s : 0.3s,-256.75380395190336,0.016347747539316875,0.24810924473072385,0.013871504708050063,0.06786109507083893,-0.0812695324420929,0.29933109879493713,-0.012439131736755371,-0.005079120397567749,-0.0034480690956115723,-0.49333933043259653,2.225611605553478,2.8751016729241203,0.6985810399055481,0.4735696613788605,0.5363917946815491, 162, 111, 0, 136
1731649459537,9i,4.832386832633567,1.4s : 0.3s,-256.75380395190336,0.016848864057780626,0.20771551574244929,0.01446792546290825,0.08557604253292084,0.04035881161689758,0.19618521630764008,-0.009528517723083496,0.006405383348464966,-0.008803367614746094,-0.49322412432922486,2.2249737322154064,2.8735635741141676,0.6989662647247314,0.47346818447113037,0.5359792113304138, 162, 111, 0, 136
1731649459547,9i,4.832386832633567,1.4s : 0.3s,-256.75380395190336,0.01731213385389706,0.1589426753068659,0.018776940386893176,0.08641546964645386,0.13904517889022827,0.08941242098808289,-0.011780321598052979,0.006703019142150879,-0.012994885444641113,-0.49314618422107764,2.224214702908128,2.872015463341445,0.699402391910553,0.4733995497226715,0.5354711413383484, 162, 111, 0, 136
1731649459557,9i,4.832386832633567,1.4s : 0.3s,-256.75380395190336,0.017743134801431786,0.14254750316341672,0.02236567125857986,0.069508396089077,0.20733928680419922,-0.005058157257735729,-0.017844021320343018,0.0011830627918243408,-0.013431847095489502,-0.49303808462991094,2.2235952862543003,2.8707200014811933,0.6997745633125305,0.47330430150032043,0.5350688695907593, 162, 111, 0, 136
1731649459567,9i,4.832386832633567,1.4s : 0.3s,-256.75380395190336,0.01814029930678169,0.1080913514521984,0.021803939552334978,0.04631945118308067,0.22892659902572632,-0.06948535144329071,-0.019681215286254883,-0.002938389778137207,-0.008912205696105957,-0.4928837965500887,2.2231788077508825,2.869755118574127,0.7000552415847778,0.47316840291023254,0.534821629524231, 162, 111, 0, 136
1731649459577,9i,4.832386832633567,1.4s : 0.3s,-256.75380395190336,0.018503940901777875,0.08191583497577985,0.015497115732370923,0.0051800706423819065,0.20225512981414795,-0.08897432684898376,-0.01422351598739624,-0.002039998769760132,-0.0058043599128723145,-0.4925569383772204,2.222942866010352,2.869184259453382,0.700304388999939,0.47288042306900024,0.5347502827644348, 162, 111, 0, 136
1731649459587,9i,4.832386832633567,1.4s : 0.3s,-256.75380395190336,0.018821133756172878,0.07396646980195722,0.008052133189659446,-0.011888927780091763,0.1454312652349472,-0.08874689042568207,-0.005463004112243652,0.005559056997299194,0.0020222067832946777,-0.49208918541397145,2.2228183812739313,2.868953690273739,0.7005465626716614,0.47246822714805603,0.534797191619873, 162, 111, 0, 136
1731649459597,9i,4.832386832633567,1.4s : 0.3s,-256.75380395190336,0.0190774067040974,0.07097237507445368,0.01790530246447885,-0.020622365176677704,0.08724429458379745,-0.06025553494691849,0.0003075599670410156,0.015861570835113525,0.00830155611038208,-0.4916013418971879,2.2227381258916723,2.8688670037601542,0.7007727026939392,0.472038209438324,0.5348808169364929, 162, 111, 0, 136
1731649459607,9i,4.832386832633567,1.4s : 0.3s,-256.75380395190336,0.019280012158243147,0.057098245651377964,0.018063670352295755,-0.015300837345421314,0.043920256197452545,-0.0267388503998518,-0.0034391283988952637,0.016965925693511963,0.005160033702850342,-0.4911621423340963,2.2227739213719206,2.8688614095315317,0.7009183168411255,0.47165095806121826,0.5350316762924194, 162, 111, 0, 136
1731649459617,9i,4.832386832633567,1.4s : 0.3s,-256.75380395190336,0.019437912803363294,0.040972247634189184,0.016862152459560048,-0.004167424980551004,0.005608999170362949,0.008356451988220215,-0.010126113891601562,0.013220459222793579,0.002648293972015381,-0.4908067654980915,2.222816345829879,2.8687715536532554,0.7010287642478943,0.47133755683898926,0.5351630449295044, 162, 111, 0, 136
1731649459627,9i,4.832386832633567,1.4s : 0.3s,-256.75380395190336,0.01955244704839039,0.03706775954639105,0.020764412890443035,0.026306327432394028,-0.00016286969184875488,0.030324067920446396,-0.014796912670135498,0.014460533857345581,0.0017621517181396484,-0.49057728153102725,2.222745929903815,2.868434913023912,0.701152503490448,0.4711351692676544,0.5351793766021729, 162, 111, 0, 136
1731649459637,9i,4.832386832633567,1.4s : 0.3s,-256.75380395190336,0.01963634354195159,0.03576075731548146,0.02577971354154344,0.06455178558826447,0.015518355183303356,0.0215603057295084,-0.017692983150482178,0.017821043729782104,-0.005827724933624268,-0.490590608040774,2.2225428547586024,2.8677528743600065,0.7012562155723572,0.47114691138267517,0.5350332260131836, 162, 111, 0, 136
1731649459647,9i,4.832386832633567,1.4s : 0.3s,-256.75380395190336,0.01967553738391847,0.04432920974375946,0.035346369691224844,0.10984975844621658,0.03310054540634155,0.04025676101446152,-0.025944173336029053,0.022968173027038574,-0.006980597972869873,-0.49120780045700296,2.222545373291644,2.866852082223406,0.7010234594345093,0.47169122099876404,0.5348584055900574, 162, 111, 0, 136
1731649459657,9i,4.832386832633567,1.4s : 0.3s,-256.75380395190336,0.01956813834308211,0.06121340133719883,0.0476231802672512,0.1391105055809021,0.0535808727145195,0.045717205852270126,-0.030440330505371094,0.03659820556640625,0.0013874173164367676,-0.49187846016222725,2.222483959273946,2.8654861380312813,0.7008047699928284,0.4722824692726135,0.5346234440803528, 162, 111, 0, 136
1731649459667,9i,4.832386832633567,1.4s : 0.3s,-256.75380395190336,0.019226398794657318,0.0810781123660809,0.06420140137387378,0.17169667780399323,0.08302638679742813,0.02269710786640644,-0.033100426197052,0.05443990230560303,0.007904350757598877,-0.49277400975399976,2.2225870175155586,2.8639314712114805,0.7004129886627197,0.4730716645717621,0.5344387888908386, 162, 111, 0, 136
1731649459677,9i,4.832386832633567,1.4s : 0.3s,-256.75380395190336,0.01863095287623289,0.09713994686581376,0.08076628002393867,0.17614082992076874,0.10205084830522537,-0.003404999617487192,-0.03378719091415405,0.0708208978176117,0.019131600856781006,-0.49411607746240804,2.2230119305639904,2.8623996799022824,0.699680745601654,0.47425365447998047,0.5343506336212158, 162, 111, 0, 136
1731649459687,9i,4.832386832633567,1.4s : 0.3s,-256.75380395190336,0.017700519815926154,0.10531731178041016,0.0976426526591421,0.13799689710140228,0.13029979169368744,-0.0028798242565244436,-0.042502641677856445,0.07443270087242126,0.04676949977874756,-0.49540426667037735,2.22366784209328,2.8610850617646046,0.698844313621521,0.4753873646259308,0.5344379544258118, 162, 111, 0, 136
1731649459697,9i,4.832386832633567,1.4s : 0.3s,-256.75380395190336,0.016276018296871538,0.11202533130169212,0.1352653057672266,0.10021577775478363,0.1748213768005371,0.02718902751803398,-0.06521683931350708,0.08126640319824219,0.08625102043151855,-0.4962046846500747,2.224797568131574,2.860020861790784,0.6979377865791321,0.4760913848876953,0.5349953770637512, 162, 111, 0, 136
1731649459707,9i,4.832386832633567,1.4s : 0.3s,-256.75380395190336,0.014298095675213665,0.13021653388242144,0.18157816041873237,0.11942488700151443,0.23604612052440643,0.03128710389137268,-0.10428231954574585,0.0925302505493164,0.11633563041687012,-0.49670469446980925,2.2263483618097824,2.8588551495253087,0.6969184279441833,0.4765310287475586,0.5359318256378174, 162, 111, 0, 136
1731649459717,9i,4.832386832633567,1.4s : 0.3s,-256.75380395190336,0.011892001338680515,0.15874630216417052,0.23875277733318417,0.11351460218429565,0.3281979560852051,0.010728329420089722,-0.1525876522064209,0.12158739566802979,0.137609601020813,-0.49735923943504223,2.2285681418114955,2.8576241714175405,0.6954799890518188,0.47710639238357544,0.537286639213562, 162, 111, 0, 136
1731649459727,9i,4.832386832633567,1.4s : 0.3s,-256.75380395190336,0.009585391443498565,0.20959700930430353,0.3369221996754713,0.19211752712726593,0.4521673023700714,0.011103568598628044,-0.20922225713729858,0.19239094853401184,0.18090975284576416,-0.4982592039857128,2.2318318722806634,2.8562856966512524,0.6933836340904236,0.47789710760116577,0.5392898917198181, 162, 111, 0, 136
1731649459737,9i,4.832386832633567,1.4s : 0.3s,-256.75380395190336,0.00969721688390059,0.28458625896980266,0.4431896695100419,0.3601643443107605,0.5847658514976501,-0.011203334666788578,-0.2540994882583618,0.2868432104587555,0.2226465940475464,-0.5000315043256914,2.235844250344795,2.8538009121425096,0.6905466318130493,0.4794531762599945,0.5415440797805786, 162, 111, 0, 136
1731649459747,9i,4.832386832633567,1.4s : 0.3s,-256.75380395190336,0.014493384312030871,0.3814869389991477,0.524447786697295,0.4909348487854004,0.7613709568977356,-0.06546524167060852,-0.2844884991645813,0.3679690957069397,0.2423025369644165,-0.5029606762171273,2.240762217557056,2.8502466473650347,0.6867710947990417,0.48202165961265564,0.5440590977668762, 162, 111, 0, 136
1731649459757,9i,4.832386832633567,1.4s : 0.3s,-256.75380395190336,0.02291539264247587,0.5068429288700721,0.6260363430923732,0.7168580293655396,0.9501514434814453,-0.12382825464010239,-0.3167368769645691,0.4647807776927948,0.2749146819114685,-0.5073957858711209,2.247015890417605,2.8455876607184365,0.6816812753677368,0.4859027862548828,0.546999990940094, 162, 111, 0, 136
1731649459767,9i,4.832386832633567,1.4s : 0.3s,-256.75380395190336,0.033906169248503336,0.6651531124487263,0.7158629766962864,1.0885820388793945,1.0939334630966187,-0.22560681402683258,-0.3484606146812439,0.5554191470146179,0.28730571269989014,-0.5143739746372887,2.253863510849713,2.838788799509419,0.6752732992172241,0.49198994040489197,0.5495015978813171, 162, 111, 0, 136
1731649459777,9i,4.832386832633567,1.4s : 0.3s,-256.75380395190336,0.04690543710936988,0.8462916370321752,0.7763423079358354,1.4215608835220337,1.2274311780929565,-0.35204553604125977,-0.38363856077194214,0.6071621775627136,0.2947590947151184,-0.5245683979485477,2.2608811016135513,2.829676647694656,0.6674977540969849,0.5008394718170166,0.5510051250457764, 162, 111, 0, 136
1731649459787,9i,4.832386832633567,1.4s : 0.3s,-256.75380395190336,0.06173726603828178,1.0545431816301714,0.8514424815625502,1.787354826927185,1.3942513465881348,-0.45133402943611145,-0.42852604389190674,0.653593122959137,0.33783984184265137,-0.5378788929672902,2.2682293596433305,2.818393625705828,0.6582622528076172,0.512315571308136,0.5515643358230591, 162, 111, 0, 136
1731649459797,9i,4.832386832633567,1.4s : 0.3s,-256.75380395190336,0.0782735542537523,1.2856000567359371,0.9178552021816591,2.161681652069092,1.5745737552642822,-0.5504505634307861,-0.4745212197303772,0.6846513748168945,0.38540923595428467,-0.5544602476800301,2.275769447194322,2.804482702289105,0.6475253701210022,0.526484489440918,0.5509310960769653, 162, 111, 0, 136
1731649459807,9i,4.832386832633567,1.4s : 0.3s,-256.75380395190336,0.09624390073358872,1.5173994819918262,0.9586809421338109,2.3672499656677246,1.823791265487671,-0.706911563873291,-0.5235261917114258,0.6717893481254578,0.44010061025619507,-0.573979437619017,2.2843185393995276,2.788914766100142,0.6349000334739685,0.542978048324585,0.5496149659156799, 162, 111, 0, 136
1731649459817,9i,4.832386832633567,1.4s : 0.3s,-256.75380395190336,0.11575849843417327,1.7569294008070142,1.0505217848051573,2.5382750034332275,2.1654839515686035,-0.8987672328948975,-0.5836731791496277,0.6786273717880249,0.5498968362808228,-0.5961239350105475,2.2954676310407334,2.773178988448812,0.6195771098136902,0.5614391565322876,0.548552930355072, 162, 111, 0, 136
1731649459827,9i,4.832386832633567,1.4s : 0.3s,-256.75380395190336,0.13712328967413717,2.017602663892538,1.1720508974684525,2.808805227279663,2.5050320625305176,-1.0894767045974731,-0.6192989349365234,0.7424843907356262,0.6624870300292969,-0.6212910591598441,2.309654087763215,2.7571422296864454,0.6010953187942505,0.5820854306221008,0.5475960969924927, 162, 111, 0, 136
1731649459837,9i,4.832386832633567,1.4s : 0.3s,-256.75380395190336,0.16045915509477912,2.295144034636128,1.2737718435823866,3.176420211791992,2.7232871055603027,-1.3284409046173096,-0.6005979776382446,0.8366837501525879,0.7494912147521973,-0.6503563598736839,2.3256397521583843,2.740114799527027,0.5796933174133301,0.6054700613021851,0.5453084707260132, 162, 111, 0, 136
1731649459847,9i,4.832386832633567,1.4s : 0.3s,-256.75380395190336,0.18572880543943357,2.5849111720821973,1.3636257928327487,3.514437675476074,2.92275071144104,-1.6788451671600342,-0.5515305399894714,0.9274611473083496,0.8337296843528748,-0.6842919125108907,2.3429045415752654,2.722577466312212,0.5551468729972839,0.6321244835853577,0.5405838489532471, 162, 111, 0, 136
1731649459857,9i,4.832386832633567,1.4s : 0.3s,-256.75380395190336,0.21278058767901506,2.8830468296577663,1.4382562209890628,3.736396074295044,3.2199223041534424,-2.06715726852417,-0.5034275054931641,0.9929184913635254,0.9106341600418091,-0.7231026492586013,2.3628440167569233,2.706080341073495,0.5266208052635193,0.6617140769958496,0.5336713790893555, 162, 111, 0, 136
1731649459867,9i,4.832386832633567,1.4s : 0.3s,-256.75380395190336,0.2414831147688009,3.187788514443575,1.5051403958032732,3.8745665550231934,3.5840420722961426,-2.480137348175049,-0.46564728021621704,1.0412201881408691,0.982079803943634,-0.7662169463772871,2.3875673291505466,2.69243227195609,0.4932657480239868,0.6934143900871277,0.525229275226593, 162, 111, 0, 136
1731649459877,9i,4.832386832633567,1.4s : 0.3s,-256.75380395190336,0.2715140387198397,3.4745581457122245,1.5451938383422972,3.873288154602051,3.863079071044922,-2.9370334148406982,-0.38296717405319214,1.0861859321594238,1.0301263332366943,-0.813077545892487,2.4186950327130794,2.6837456225758998,0.454668253660202,0.726405680179596,0.515375554561615, 162, 111, 0, 136
1731649459887,9i,4.832386832633567,1.4s : 0.3s,-256.75380395190336,0.3025021220268758,3.7388534105452034,1.5884672940569153,3.9006435871124268,4.012517929077148,-3.361870765686035,-0.23319074511528015,1.1187129020690918,1.1033276319503784,-0.8629768821878315,2.456861587625792,2.6821507433413867,0.41121500730514526,0.7597814202308655,0.5036212801933289, 162, 111, 0, 136
1731649459897,9i,4.832386832633567,1.4s : 0.3s,-256.75380395190336,0.33396639245314197,3.9918752047319193,1.6088995915737325,4.007115364074707,4.098896026611328,-3.774732828140259,-0.06829795241355896,1.1087090969085693,1.1638975143432617,-0.9159325269776024,2.5021529738065538,2.688383747247067,0.3634485900402069,0.7931308746337891,0.4887208044528961, 162, 111, 0, 136
1731649459907,9i,4.832386832633567,1.4s : 0.3s,-256.75380395190336,0.36530462236747147,4.245086634993039,1.5614631182351142,4.133397579193115,4.154903411865234,-4.257521629333496,0.05309656262397766,1.0551092624664307,1.14982271194458,-0.9722347407074654,2.556351435140806,2.704383602049171,0.31125280261039734,0.8261469602584839,0.4696841835975647, 162, 111, 0, 136
1731649459917,9i,4.832386832633567,1.4s : 0.3s,-256.75380395190336,0.39642333603603946,4.524695171533774,1.527401379585196,4.2694621086120605,4.373421669006348,-4.764566898345947,0.11968284845352173,1.0194005966186523,1.131129264831543,-1.0315916141158445,2.6246178352109446,2.73490712229133,0.25377601385116577,0.8581172823905945,0.44635507464408875, 162, 111, 0, 136
1731649459927,9i,4.832386832633567,1.4s : 0.3s,-256.75380395190336,0.42757668771558177,4.825293788520792,1.567148275555924,4.508273601531982,4.533500671386719,-5.233973026275635,0.16313496232032776,1.0506887435913086,1.1512575149536133,-1.0932456097483005,2.713149819969788,2.7852760305928337,0.19094517827033997,0.8881232738494873,0.41806310415267944, 162, 111, 0, 136
1731649459937,9i,4.832386832633567,1.4s : 0.3s,-256.75380395190336,0.4593745775510349,5.127138996014146,1.6741656203985524,4.700009822845459,4.569659233093262,-5.747885704040527,0.24654549360275269,1.1470296382904053,1.1943068504333496,-1.1559555917869946,2.8308534118235515,2.8652183566034637,0.12323597818613052,0.915180504322052,0.38374200463294983, 162, 111, 0, 136
1731649459947,9i,4.832386832633567,1.4s : 0.3s,-256.75380395190336,0.4923436566492766,5.423294413672794,1.8267591228398836,4.909078598022461,4.574024677276611,-6.2038655281066895,0.3895972967147827,1.2628593444824219,1.2611300945281982,-1.2162642081115065,2.9933933061775746,2.991364104410022,0.0512595996260643,0.9378089904785156,0.34334683418273926, 162, 111, 0, 136
1731649459957,9i,4.832386832633567,1.4s : 0.3s,-256.75380395190336,0.5268136728555183,5.709005593602696,1.9655825086698897,5.147276401519775,4.5603766441345215,-6.588708400726318,0.5293997526168823,1.3543447256088257,1.3224979639053345,-1.2688781279408654,-3.0614678440988286,-3.0989893110782214,-0.02379983477294445,0.9547678828239441,0.2963986098766327, 162, 111, 0, 136
1731649459967,9i,4.832386832633567,1.4s : 0.3s,-256.75380395190336,0.5625460133889486,5.969689139441297,2.0091931942692893,5.237689971923828,4.532166957855225,-6.967433929443359,0.6246417760848999,1.3532397747039795,1.3473759889602661,-1.30369427794412,-2.7483871917622062,-2.82022420970387,-0.1011280044913292,0.9645398259162903,0.24379535019397736, 162, 111, 0, 136
1731649459977,9i,4.832386832633567,1.4s : 0.3s,-256.75380395190336,0.5990400975541178,6.206709906034173,2.0025454050477247,5.469047546386719,4.403768062591553,-7.251914024353027,0.7128462791442871,1.2885496616363525,1.3570843935012817,-1.3094507404442386,-2.3745284734318,-2.479527634330329,-0.17932279407978058,0.9660431742668152,0.18602177500724792, 162, 111, 0, 136
1731649459987,9i,4.832386832633567,1.4s : 0.3s,-256.75380395190336,0.6355241610959846,6.429773536147501,1.9636543744692194,5.726346015930176,4.184492588043213,-7.584692001342773,0.8386089205741882,1.1984010934829712,1.3101558685302734,-1.2817111248678488,-2.0160634748143598,-2.1519213115875475,-0.2572796046733856,0.9585050344467163,0.12278183549642563, 162, 111, 0, 136
1731649459997,9i,4.832386832633567,1.4s : 0.3s,-256.75380395190336,0.6716131219707415,6.6328602001209465,1.9478531655586833,5.958554267883301,3.935641050338745,-7.863026142120361,0.9624497890472412,1.1378998756408691,1.2541954517364502,-1.2251325742429138,-1.735057691710577,-1.8989945436970592,-0.33426082134246826,0.9408507943153381,0.05540534853935242, 162, 111, 0, 136
1731649460007,9i,4.832386832633567,1.4s : 0.3s,-256.75380395190336,0.7075539399747247,6.794584308270507,1.9794292697500724,5.927696704864502,3.6013214588165283,-8.182859420776367,1.0484471321105957,1.1351404190063477,1.2370752096176147,-1.1488634210011222,-1.5367358676452552,-1.725803405508698,-0.4092869162559509,0.9122990965843201,-0.013945894315838814, 162, 111, 0, 136
1731649460017,9i,4.832386832633567,1.4s : 0.3s,-256.75380395190336,0.7434485330504279,6.875839860031777,2.0002370888653522,5.5929436683654785,3.2718374729156494,-8.354584693908691,1.123532772064209,1.0870392322540283,1.2477853298187256,-1.0607216308755572,-1.4050296509500357,-1.616818925370293,-0.48154979944229126,0.8727080225944519,-0.08056419342756271, 162, 111, 0, 136
1731649460027,9i,4.832386832633567,1.4s : 0.3s,-256.75380395190336,0.779239037931203,6.8768047173985645,2.0099883315596125,5.254166126251221,3.0074117183685303,-8.321186065673828,1.206880807876587,1.0394214391708374,1.2260076999664307,-0.9678646256149621,-1.3162275749496242,-1.5490584564265577,-0.5487845540046692,0.8236767053604126,-0.14280156791210175, 162, 111, 0, 136
1731649460037,9i,4.832386832633567,1.4s : 0.3s,-256.75380395190336,0.8148593907082824,6.856675795526003,2.0407062692318982,5.31297492980957,2.7313997745513916,-8.23900032043457,1.3207581043243408,0.9886597394943237,1.2010961771011353,-0.8737265039647845,-1.2528121186354768,-1.5042645212224668,-0.6097900867462158,0.766726553440094,-0.20071469247341156, 162, 111, 0, 136
1731649460046,9i,4.832386832633567,1.4s : 0.3s,-256.75380395190336,0.8501986432233148,6.822036997102346,2.0683340283623455,5.452300071716309,2.363744020462036,-8.138022422790527,1.447454571723938,0.9732407927513123,1.1116129159927368,-0.7785965320889644,-1.2022564505407218,-1.4697166247332891,-0.664098858833313,0.7022809982299805,-0.25646457076072693, 162, 111, 0, 136
1731649460056,9i,4.832386832633567,1.4s : 0.3s,-256.75380395190336,0.8852863758746264,6.740298935590875,2.096515039874605,5.31683874130249,1.9382115602493286,-7.997611999511719,1.5522847175598145,1.0150377750396729,0.9774895310401917,-0.6836142070042049,-1.163166005788409,-1.4436129790376688,-0.7117695808410645,0.6315992474555969,-0.30735403299331665, 162, 111, 0, 136
1731649460066,9i,4.832386832633567,1.4s : 0.3s,-256.75380395190336,0.9209255399760353,6.583004299353834,2.1921252915069434,4.881332874298096,1.4009661674499512,-7.809715747833252,1.6328270435333252,1.0044562816619873,1.0631823539733887,-0.5906846201323365,-1.1358227284036317,-1.4255355158181389,-0.7532188892364502,0.5569297671318054,-0.34998658299446106, 162, 111, 0, 136
1731649460076,9i,4.832386832633567,1.4s : 0.3s,-256.75380395190336,0.9563369469580988,6.3422779373282205,2.158915821354474,4.062437534332275,0.9947009086608887,-7.614993572235107,1.7051811218261719,0.8185592889785767,1.0407860279083252,-0.5018833328067811,-1.1193373183229463,-1.4165612888462775,-0.7888450622558594,0.4810774624347687,-0.3824760913848877, 162, 111, 0, 136
1731649460086,9i,4.832386832633567,1.4s : 0.3s,-256.75380395190336,0.9909081717019685,6.033787216544856,2.0506762153837648,3.0534145832061768,0.7251932621002197,-7.397293567657471,1.69452965259552,0.5734010338783264,1.0025235414505005,-0.41895739476162996,-1.111391163143773,-1.417636254837464,-0.81879723072052,0.4068082273006439,-0.405065655708313, 162, 111, 0, 136
1731649460096,9i,4.832386832633567,1.4s : 0.3s,-256.75380395190336,1.0237947034192716,5.684590447233258,1.9308367197102096,2.1771585941314697,0.5764197707176208,-7.052944660186768,1.6349186897277832,0.4247448742389679,0.9352877140045166,-0.34272867904554655,-1.1084166277926009,-1.4269647769516727,-0.8429417610168457,0.3360583186149597,-0.4201357364654541, 162, 111, 0, 136
1731649460106,9i,4.832386832633567,1.4s : 0.3s,-256.75380395190336,1.0548364489056645,5.314833292908157,1.825017960353891,1.461765170097351,0.4630817472934723,-6.6180033683776855,1.5921931266784668,0.34637942910194397,0.8219689130783081,-0.27356663796808117,-1.1077715197228961,-1.4419186431646183,-0.8614344596862793,0.27016714215278625,-0.43004682660102844, 162, 111, 0, 136
1731649460116,9i,4.832386832633567,1.4s : 0.3s,-256.75380395190336,1.084335146743333,4.943935334241889,1.7836112729614293,1.0371617078781128,0.3532249331474304,-6.1106977462768555,1.5987244844436646,0.3436833620071411,0.7122014760971069,-0.21122856973863038,-1.1080095163291586,-1.459753365253316,-0.8749238848686218,0.2096613198518753,-0.43652090430259705, 162, 111, 0, 136
1731649460126,9i,4.832386832633567,1.4s : 0.3s,-256.75380395190336,1.1126762444923688,4.591819373614029,1.7718789289617218,0.836478054523468,0.24076150357723236,-5.638972282409668,1.6236770153045654,0.38056841492652893,0.598661482334137,-0.154669686328474,-1.108388735208103,-1.4778545551479976,-0.8842973113059998,0.1540537327528,-0.44077882170677185, 162, 111, 0, 136
1731649460136,9i,4.832386832633567,1.4s : 0.3s,-256.75380395190336,1.139847050993362,4.258647913354204,1.7288471304214412,0.7461258769035339,0.11904145777225494,-5.1856889724731445,1.6193606853485107,0.37534064054489136,0.4750818610191345,-0.10282197607450376,-1.1086887758442432,-1.494966526409778,-0.8903872966766357,0.10264089703559875,-0.443480908870697, 162, 111, 0, 136
1731649460146,9i,4.832386832633567,1.4s : 0.3s,-256.75380395190336,1.1656097742634413,3.933056924663692,1.661699601991749,0.8123437762260437,-0.06209823489189148,-4.685166358947754,1.588871955871582,0.31717249751091003,0.3689621686935425,-0.0552463027279323,-1.1096002465696122,-1.5099388073799394,-0.8941545486450195,0.055218204855918884,-0.4443405866622925, 162, 111, 0, 136
1731649460156,9i,4.832386832633567,1.4s : 0.3s,-256.75380395190336,1.1895683892844535,3.6087148520687133,1.5859811106207449,0.9656760096549988,-0.24882976710796356,-4.152713775634766,1.5497467517852783,0.21960942447185516,0.2557201385498047,-0.011820864312493103,-1.1115740583746443,-1.5215951665096576,-0.8963348865509033,0.011820589192211628,-0.4432201385498047, 162, 111, 0, 136
1731649460166,9i,4.832386832633567,1.4s : 0.3s,-256.75380395190336,1.2112094144160843,3.3045190584120654,1.5067549077617282,1.044399619102478,-0.45133280754089355,-3.7302002906799316,1.4987292289733887,0.12158306688070297,0.09663647413253784,0.02785197276637551,-1.115002017828645,-1.5297256751905068,-0.8975633978843689,-0.027848372235894203,-0.4400049149990082, 162, 111, 0, 136
1731649460176,9i,4.832386832633567,1.4s : 0.3s,-256.75380395190336,1.2304752784665667,3.0180061687403557,1.4380843253552014,0.9574788212776184,-0.6562451124191284,-3.351410388946533,1.437670350074768,0.034451939165592194,0.001885533332824707,0.06405204457058476,-1.1202507937734236,-1.5359366316242273,-0.8983637094497681,-0.06400825828313828,-0.4345637261867523, 162, 111, 0, 136
1731649460186,9i,4.832386832633567,1.4s : 0.3s,-256.75380395190336,1.2474468980241837,2.7284090682773754,1.3616358567823919,0.6837418079376221,-0.7818123698234558,-2.9314727783203125,1.3595126867294312,-0.056758686900138855,-0.050556033849716187,0.09589987601473626,-1.1270205957443218,-1.5419545953957146,-0.8989871740341187,-0.09575294703245163,-0.42737969756126404, 162, 111, 0, 136
1731649460196,9i,4.832386832633567,1.4s : 0.3s,-256.75380395190336,1.2622072697767983,2.4281352965275427,1.2867357207144352,0.3460676968097687,-0.8421034812927246,-2.477668523788452,1.275207757949829,-0.14914587140083313,-0.08537855744361877,0.12246130701187709,-1.1343565069323827,-1.5487609115430474,-0.8994752764701843,-0.12215545028448105,-0.41954994201660156, 162, 111, 0, 136
1731649460206,9i,4.832386832633567,1.4s : 0.3s,-256.75380395190336,1.2749518338867352,2.1309432031066566,1.2184110210247452,0.11649654060602188,-0.868218719959259,-2.041984796524048,1.1922645568847656,-0.2328999936580658,-0.09374558925628662,0.14380059251178856,-1.141911665618108,-1.5561672668466038,-0.9000434875488281,-0.14330551028251648,-0.41156449913978577, 162, 111, 0, 136
1731649460216,9i,4.832386832633567,1.4s : 0.3s,-256.75380395190336,1.2859655001244004,1.839735528813037,1.1601266321016996,0.04311433434486389,-0.8295142650604248,-1.5995864868164062,1.1168076992034912,-0.30392712354660034,-0.07913702726364136,0.16059903063263936,-1.149432071004015,-1.5630462288707359,-0.9007890820503235,-0.15990956127643585,-0.40374255180358887, 162, 111, 0, 136
1731649460226,9i,4.832386832633567,1.4s : 0.3s,-256.75380395190336,1.295561851730531,1.5525452982177848,1.1072446466307768,0.06314530223608017,-0.7564051747322083,-1.152963399887085,1.0486218929290771,-0.3498002290725708,-0.06342422962188721,0.1732515115317981,-1.1564979513919176,-1.5680703061979464,-0.9016950130462646,-0.17238609492778778,-0.3965214192867279, 162, 111, 0, 136
1731649460236,9i,4.832386832633567,1.4s : 0.3s,-256.75380395190336,1.3041110800269688,1.2834751094865258,1.0802820108460796,0.04389571025967598,-0.6854274868965149,-0.7935193777084351,1.0115712881088257,-0.3758084774017334,-0.050007402896881104,0.18220490438015335,-1.1631317785522088,-1.5713127778867022,-0.9028524160385132,-0.18119841814041138,-0.3899034857749939, 162, 111, 0, 136
1731649460246,9i,4.832386832633567,1.4s : 0.3s,-256.75380395190336,1.3120605370075684,1.0325705037384363,1.0675166323818255,-0.06046638265252113,-0.5828406810760498,-0.48270314931869507,0.9893114566802979,-0.401053786277771,-0.0032345950603485107,0.18781704719555703,-1.169060430999532,-1.5737566161445278,-0.9041978716850281,-0.1867147833108902,-0.3841402530670166, 162, 111, 0, 136
1731649460256,9i,4.832386832633567,1.4s : 0.3s,-256.75380395190336,1.3196297896344782,0.7883697246540007,1.052281428894449,-0.2739821970462799,-0.4329621493816376,-0.15535861253738403,0.9554798603057861,-0.43869277834892273,0.0436244010925293,0.18892448979623996,-1.173827966618186,-1.5763828789439716,-0.9058278203010559,-0.18780262768268585,-0.3797449469566345, 162, 111, 0, 136
1731649460266,9i,4.832386832633567,1.4s : 0.3s,-256.75380395190336,1.3269632201762498,0.5571916043751116,1.040710478873945,-0.5014640688896179,-0.2896667718887329,0.20991045236587524,0.9204598069190979,-0.4769137501716614,0.0915713906288147,0.1869542113713448,-1.1767573052782028,-1.5799260330726177,-0.9072762131690979,-0.185867041349411,-0.3772311806678772, 162, 111, 0, 136
1731649460276,9i,4.832386832633567,1.4s : 0.3s,-256.75380395190336,1.3341994224155695,0.4176387727579689,1.0365847618977149,-0.5754636526107788,-0.13420739769935608,0.6253706812858582,0.8937654495239258,-0.5075387954711914,0.13452011346817017,0.1809160455429895,-1.1782033709705728,-1.5833802280692362,-0.908841073513031,-0.17993074655532837,-0.376341313123703, 162, 111, 0, 136
1731649460286,9i,4.832386832633567,1.4s : 0.3s,-256.75380395190336,1.3415524701463166,0.2942706126705237,1.034470448140893,-0.5467489361763,0.01513042114675045,1.0333482027053833,0.8839530348777771,-0.5165242552757263,0.148185133934021,0.17103017788981517,-1.1784520229300612,-1.585404584290321,-0.9105338454246521,-0.17019759118556976,-0.3767770528793335, 162, 111, 0, 136
1731649460296,9i,4.832386832633567,1.4s : 0.3s,-256.75380395190336,1.3492187296380311,0.40834686247569946,1.0142850602814906,-0.4975958466529846,0.1657928079366684,1.424871563911438,0.8864457607269287,-0.46734145283699036,0.15678030252456665,0.15765474156511472,-1.1775579856656109,-1.5853831818180533,-0.9122178554534912,-0.15700246393680573,-0.37842947244644165, 162, 111, 0, 136
1731649460306,9i,4.832386832633567,1.4s : 0.3s,-256.75380395190336,1.357530349831233,0.6366780202104331,0.9878433349706621,-0.5347275137901306,0.3060742914676666,1.7735850811004639,0.8878516554832458,-0.3963208794593811,0.1745956838130951,0.14090335895928469,-1.175404899574079,-1.5838484998428106,-0.9136999845504761,-0.14043757319450378,-0.3813522160053253, 162, 111, 0, 136
1731649460316,9i,4.832386832633567,1.4s : 0.3s,-256.75380395190336,1.3665167782145622,0.890137771316854,0.9866300057989708,-0.6424187421798706,0.4308963119983673,2.110692262649536,0.8919644951820374,-0.3761460781097412,0.19066262245178223,0.12075979234533293,-1.1720109218808108,-1.5816435209909325,-0.9148221015930176,-0.12046650052070618,-0.38547149300575256, 162, 111, 0, 136
1731649460326,9i,4.832386832633567,1.4s : 0.3s,-256.75380395190336,1.3758833646004065,1.1588623049428535,0.9968881421483403,-0.8073504567146301,0.5488260984420776,2.489750862121582,0.8917407989501953,-0.39826589822769165,0.19992145895957947,0.09680409975459013,-1.1673881542046238,-1.5792707932142265,-0.9154223799705505,-0.09665297716856003,-0.3907173275947571, 162, 111, 0, 136
1731649460336,9i,4.832386832633567,1.4s : 0.3s,-256.75380395190336,1.3856471379729507,1.438456362219294,1.0114590025150418,-0.9445119500160217,0.6475028395652771,2.902738094329834,0.9043200016021729,-0.4001394510269165,0.2124689817428589,0.06860337542369277,-1.161620799351859,-1.5766355431395676,-0.9152911305427551,-0.06854957342147827,-0.3969172239303589, 162, 111, 0, 136
1731649460346,9i,4.832386832633567,1.4s : 0.3s,-256.75380395190336,1.3959623216501393,1.7261765207780486,1.0336567399453223,-1.0461455583572388,0.7660989761352539,3.3321380615234375,0.937097430229187,-0.3622671365737915,0.24301683902740479,0.036086678478758634,-1.1547599968842253,-1.5731991476153995,-0.9141025543212891,-0.03607884794473648,-0.4038749933242798, 162, 111, 0, 136
1731649460356,9i,4.832386832633567,1.4s : 0.3s,-256.75380395190336,1.4075526987705904,2.0142140768043277,1.0680129840927395,-1.1132876873016357,0.8588542938232422,3.7500665187835693,0.9860137701034546,-0.31608590483665466,0.2617599666118622,-0.0006561734639723524,-1.1466696041835287,-1.5686326590233286,-0.9113982319831848,0.0006561733898706734,-0.4115249216556549, 162, 111, 0, 136
1731649460366,9i,4.832386832633567,1.4s : 0.3s,-256.75380395190336,1.4205631878924903,2.294873132664168,1.1254374641999514,-1.0323355197906494,0.938286542892456,4.174485683441162,1.052471399307251,-0.2850370705127716,0.27868854999542236,-0.04110633012797812,-1.1375148607138024,-1.561991170294765,-0.9068262577056885,0.04109475389122963,-0.41949662566185, 162, 111, 0, 136
1731649460376,9i,4.832386832633567,1.4s : 0.3s,-256.75380395190336,1.4350011710007033,2.5652017444580952,1.196584786969493,-1.0034761428833008,0.9436911344528198,4.565563678741455,1.126785397529602,-0.2832373380661011,0.2862628698348999,-0.0849293182807223,-1.1274971386475896,-1.5525404726842802,-0.9000855088233948,0.08482725918292999,-0.4273760914802551, 162, 111, 0, 136
1731649460386,9i,4.832386832633567,1.4s : 0.3s,-256.75380395190336,1.4510578312726303,2.830706374712265,1.2716737041041077,-1.0626827478408813,0.9176928400993347,4.9503889083862305,1.2018940448760986,-0.2634967863559723,0.32120734453201294,-0.1321981256071585,-1.1169726510334475,-1.5411826545826095,-0.8909351825714111,0.1318134069442749,-0.43458011746406555, 162, 111, 0, 136
1731649460396,9i,4.832386832633567,1.4s : 0.3s,-256.75380395190336,1.4688595979841637,3.105178218999321,1.3362538287420027,-1.1821269989013672,0.93621826171875,5.37624979019165,1.2619688510894775,-0.2396070808172226,0.3682354688644409,-0.18335117018351652,-1.105684583275872,-1.528161027872968,-0.8787903189659119,0.1823255866765976,-0.4410046637058258, 162, 111, 0, 136
1731649460406,9i,4.832386832633567,1.4s : 0.3s,-256.75380395190336,1.4882863372600217,3.392720716472382,1.4042635058651243,-1.3835711479187012,0.9760085344314575,5.814951419830322,1.330864667892456,-0.2463204562664032,0.3742745816707611,-0.23891270235593887,-1.0931339084020335,-1.5139009236164562,-0.8628470301628113,0.2366463541984558,-0.4466469883918762, 162, 111, 0, 136
1731649460416,9i,4.832386832633567,1.4s : 0.3s,-256.75380395190336,1.5091946766602682,3.6949005181161283,1.483561808405052,-1.6982448101043701,1.0265476703643799,6.252195358276367,1.4070487022399902,-0.2834039628505707,0.375302255153656,-0.2993603117946295,-1.0791197121771519,-1.4988537160754656,-0.8423362970352173,0.2949090301990509,-0.4511078894138336, 162, 111, 0, 136
1731649460426,9i,4.832386832633567,1.4s : 0.3s,-256.75380395190336,1.5315293905519702,4.003383149524354,1.583148744777741,-2.270847797393799,1.0073246955871582,6.604777812957764,1.4970128536224365,-0.34313327074050903,0.38415104150772095,-0.3651559746780712,-1.0642574895596382,-1.4846477705906949,-0.8167761564254761,0.35709500312805176,-0.45316651463508606, 162, 111, 0, 136
1731649460436,9i,4.832386832633567,1.4s : 0.3s,-256.75380395190336,1.5556375881438993,4.314205212314044,1.7115618421026275,-2.927454948425293,0.8591641783714294,6.908987522125244,1.5964765548706055,-0.40036699175834656,0.4694814383983612,-0.4367319995408049,-1.0505081612770628,-1.4734610946269846,-0.7862348556518555,0.4229804575443268,-0.4504689574241638, 162, 111, 0, 136
1731649460446,9i,4.832386832633567,1.4s : 0.3s,-256.75380395190336,1.5819026458519259,4.6343066672224715,1.84241423344856,-3.22788667678833,0.7574679255485535,7.33400297164917,1.6900615692138672,-0.4427538514137268,0.5849368572235107,-0.513677655425857,-1.0378389712165257,-1.4636076993499192,-0.7501506805419922,0.4913835823535919,-0.44251126050949097, 162, 111, 0, 136
1731649460456,9i,4.832386832633567,1.4s : 0.3s,-256.75380395190336,1.610603533117126,4.972779371158436,1.962915904501782,-3.33683705329895,0.6192936301231384,7.903619766235352,1.7987658977508545,-0.441897451877594,0.6497743725776672,-0.5957315426390429,-1.0241320032464927,-1.450937903926899,-0.7071064710617065,0.5611144304275513,-0.4302919805049896, 162, 111, 0, 136
1731649460466,9i,4.832386832633567,1.4s : 0.3s,-256.75380395190336,1.6422270959344254,5.330569316426029,2.094959980975005,-3.401313304901123,0.37062522768974304,8.541521072387695,1.947843074798584,-0.3559449315071106,0.6841548681259155,-0.6831757045492466,-1.0082701033083936,-1.4328489652560406,-0.6560643911361694,0.6312592029571533,-0.41363176703453064, 162, 111, 0, 136
1731649460476,9i,4.832386832633567,1.4s : 0.3s,-256.75380395190336,1.6772360935382686,5.731077738668271,2.285588906714048,-3.9000725746154785,0.03266511857509613,9.161163330078125,2.147144317626953,-0.3186596632003784,0.7156423330307007,-0.7769685809226595,-0.9903047059560908,-1.4094626359306104,-0.5962409377098083,0.7011210918426514,-0.3910573124885559, 162, 111, 0, 136
1731649460486,9i,4.832386832633567,1.4s : 0.3s,-256.75380395190336,1.7160390775736907,6.24227909143083,2.5580624824518123,-5.417714595794678,-0.4511723816394806,9.75480842590332,2.4055466651916504,-0.4098789691925049,0.7674816846847534,-0.8809268793974784,-0.9768341368819384,-1.388745335102315,-0.5274337530136108,0.7713291049003601,-0.35618099570274353, 162, 111, 0, 136
1731649460496,9i,4.832386832633567,1.4s : 0.3s,-256.75380395190336,1.7596893253963968,7.006971874333514,2.940616317582102,-8.25678539276123,-1.244669795036316,10.470418930053711,2.7345080375671387,-0.5455074310302734,0.9338692426681519,-1.0021423309883477,-0.9850358818239654,-1.3887487145009216,-0.4487263262271881,0.8426265716552734,-0.29769977927207947, 162, 111, 0, 136
1731649460506,9i,4.832386832633567,1.4s : 0.3s,-256.75380395190336,1.8097873389875307,8.155645154734097,3.4726942577902653,-11.824101448059082,-2.046910524368286,11.45266342163086,3.2105910778045654,-0.706102728843689,1.1194325685501099,-1.1478850436424575,-1.053985082705884,-1.4482464700154585,-0.3568161427974701,0.9118979573249817,-0.2027912586927414, 162, 111, 0, 136
1731649460516,9i,4.832386832633567,1.4s : 0.3s,-256.75380395190336,1.867905730377532,9.57510593172189,4.087429458303081,-15.006872177124023,-3.408457040786743,12.211490631103516,3.8174898624420166,-0.8392211198806763,1.1956415176391602,-1.3097809905069262,-1.3026663675075836,-1.6833657305901744,-0.24884061515331268,0.9661284685134888,-0.06836793571710587, 162, 111, 0, 136
1731649460526,9i,4.832386832633567,1.4s : 0.3s,-256.75380395190336,1.9349038646225256,11.013102967807438,4.624932571288361,-16.99807357788086,-5.745363235473633,12.438758850097656,4.395593643188477,-0.8713008165359497,1.1443743705749512,-1.4096173474612013,-2.2275378660512155,-2.579193795664179,-0.12709999084472656,0.987038791179657,0.09798099100589752, 162, 111, 0, 136
1731649460536,9i,4.832386832633567,1.4s : 0.3s,-256.75380395190336,2.0122461805148517,11.973178791213845,5.216085378248052,-16.409812927246094,-7.997145175933838,11.551691055297852,5.050490379333496,-0.7081259489059448,1.0948293209075928,-1.300342618603431,3.126682562142294,2.827369369860324,0.003983372822403908,0.9636497497558594,0.2671397030353546, 162, 111, 0, 136
1731649460546,9i,4.832386832633567,1.4s : 0.3s,-256.75380395190336,2.1036928483048665,12.162400312225099,6.196951769848951,-13.476282119750977,-9.615985870361328,9.926884651184082,6.082522392272949,-0.36642760038375854,1.1273257732391357,-1.1334687374834556,2.819399927366852,2.5950499059279175,0.13410641252994537,0.905886709690094,0.40172702074050903, 162, 111, 0, 136
1731649460556,9i,4.832386832633567,1.4s : 0.3s,-256.75380395190336,2.2157049121203234,11.742244891448415,7.530279966183903,-9.679303169250488,-10.363642692565918,8.85366153717041,7.314277172088623,0.4596020579338074,1.7306737899780273,-0.9896032744800408,2.6465743092324487,2.513036103710444,0.26081153750419617,0.8358082175254822,0.48311710357666016, 162, 111, 0, 136
1731649460566,9i,4.832386832633567,1.4s : 0.3s,-256.75380395190336,2.3526000439598707,10.985304210220564,8.765345918360698,-6.445741653442383,-10.877615928649902,7.50547981262207,8.015009880065918,2.0199944972991943,2.917280912399292,-0.8785283483588711,2.5042357634284023,2.4676737687440227,0.3798261880874634,0.7698003649711609,0.5129711627960205, 162, 111, 0, 136
1731649460576,9i,4.832386832633567,1.4s : 0.3s,-256.75380395190336,2.5107311352119193,10.160896698694383,9.306703967425804,-4.890059947967529,-10.550387382507324,6.059468746185303,7.721839427947998,3.0695717334747314,4.191141128540039,-0.7924492278056521,2.3799679232339512,2.4447524623934003,0.4845205545425415,0.7120749950408936,0.5081235766410828, 162, 111, 0, 136
1731649460586,9i,4.832386832633567,1.4s : 0.3s,-256.75380395190336,2.683182100406254,9.715485113974509,9.302113929823614,-5.229723930358887,-11.202078819274902,5.420454025268555,7.2592620849609375,3.1529622077941895,4.887869358062744,-0.7176893045612199,2.268350059821026,2.4396931513865145,0.5773621201515198,0.6576457023620605,0.4838959872722626, 162, 111, 0, 136
1731649460596,9i,4.832386832633567,1.4s : 0.3s,-256.75380395190336,2.864142984449392,9.914749941428198,9.116614974580079,-8.397856712341309,-12.484036445617676,4.811695098876953,7.056567192077637,3.310650110244751,4.728332042694092,-0.6361708368286355,2.167640688394435,2.469045640916265,0.6653106212615967,0.5941197276115417,0.45208799839019775, 162, 111, 0, 136
1731649460606,9i,4.832386832633567,1.4s : 0.3s,-256.75380395190336,3.052067522324712,10.144620306199226,9.228327323152037,-9.975584030151367,-13.712182998657227,0.6716641783714294,7.144633769989014,2.850327730178833,5.098221778869629,-0.5617858890537962,2.0776164822591747,2.544023460155657,0.7399183511734009,0.5326984524726868,0.41079625487327576, 162, 111, 0, 136
1731649460615,9i,4.832386832633567,1.4s : 0.3s,-256.75380395190336,3.2492676219480114,10.41399057131617,9.923842270525125,-11.431463241577148,-13.16427993774414,-1.5409272909164429,8.137222290039062,0.899573028087616,5.608834743499756,-0.5170143270892225,2.002440608458536,2.663976643325328,0.789566159248352,0.4942868947982788,0.36368414759635925, 162, 111, 0, 136
1731649460625,9i,4.832386832633567,1.4s : 0.3s,-256.75380395190336,3.4474388611579188,9.678025865761738,9.172294347689348,-6.0784525871276855,-11.03553581237793,-4.669227600097656,7.4629034996032715,0.39122387766838074,5.31817626953125,-0.5132823506735804,1.934211764580875,2.770614382260704,0.8142418265342712,0.4910392761230469,0.3096620440483093, 162, 111, 0, 136
1731649460635,9i,4.832386832633567,1.4s : 0.3s,-256.75380395190336,3.6369537314900695,9.232238355971491,7.814947103471024,-2.7365827560424805,-12.621996879577637,-4.713517189025879,5.655438423156738,0.931243360042572,5.312457084655762,-0.5443219138397238,1.8511864776059026,2.836020769875448,0.8220702409744263,0.5178381204605103,0.23673714697360992, 162, 111, 0, 136
1731649460645,9i,4.832386832633567,1.4s : 0.3s,-256.75380395190336,3.834374851196813,9.384181917580863,10.22095030140559,-1.3466421365737915,-14.749656677246094,-5.634651184082031,6.393868923187256,2.344348907470703,7.62169885635376,-0.5896525338110592,1.7313804536300152,2.8698156610846657,0.8204406499862671,0.5560722947120667,0.13289403915405273, 162, 111, 0, 136
1731649460655,9i,4.832386832633567,1.4s : 0.3s,-256.75380395190336,4.043840959895966,9.850843368550969,12.21464642032597,-3.0037295818328857,-15.309288024902344,-5.9076128005981445,5.5730366706848145,3.2831871509552,10.361444473266602,-0.6424226570671049,1.594476020272135,2.9043393415613523,0.800421953201294,0.5991368889808655,0.018957290798425674, 162, 111, 0, 136
1731649460665,9i,4.832386832633567,1.4s : 0.3s,-256.75380395190336,4.250151347798257,10.05636695771165,11.620544830787457,-2.701317310333252,-13.959013938903809,-7.642322063446045,3.109896659851074,2.5279815196990967,10.907562255859375,-0.7022714890214277,1.4618031630351873,2.9362285949952045,0.7588471174240112,0.645953357219696,-0.08303822576999664, 162, 111, 0, 136
1731649460675,9i,4.832386832633567,1.4s : 0.3s,-256.75380395190336,4.444690200335139,10.177831127435834,10.172433045173113,-2.0748558044433594,-13.419106483459473,-8.396209716796875,1.8824636936187744,2.077733278274536,9.778432846069336,-0.7829352720400219,1.3329249514945312,2.9524646058596224,0.6888865232467651,0.7053630948066711,-0.16702865064144135, 162, 111, 0, 136
1731649460685,9i,4.832386832633567,1.4s : 0.3s,-256.75380395190336,4.62538100337087,10.257212891247715,8.568821959431467,-0.771694540977478,-13.256101608276367,-8.756446838378906,1.6507577896118164,2.5958235263824463,7.99758768081665,-0.8676619612120208,1.1858963252104278,2.933044713678644,0.5993032455444336,0.762819230556488,-0.2427811175584793, 162, 111, 0, 136
1731649460695,9i,4.832386832633567,1.4s : 0.3s,-256.75380395190336,4.797327891944334,10.324649730012364,7.972857180383837,0.6762601733207703,-12.78867244720459,-9.700592041015625,2.283937931060791,2.9688103199005127,7.038198947906494,-0.9503685495315274,1.0032389721514747,2.867383614830039,0.490231990814209,0.8136298060417175,-0.31253647804260254, 162, 111, 0, 136
1731649460705,9i,4.832386832633567,1.4s : 0.3s,-256.75380395190336,4.962850904031574,10.275106448304905,7.452500422921087,3.750216007232666,-11.537023544311523,-10.496923446655273,2.7280466556549072,2.3652074337005615,6.51945686340332,-1.0143987670208792,0.7596051284961142,2.721116794814231,0.36368921399116516,0.8491631746292114,-0.38295161724090576, 162, 111, 0, 136
1731649460715,9i,4.832386832633567,1.4s : 0.3s,-256.75380395190336,5.1187678263063825,10.238014620748334,6.454066538855346,6.332513809204102,-10.606284141540527,-10.512961387634277,2.6143317222595215,1.5841193199157715,5.68425989151001,-1.0326796953462543,0.45942212914637326,2.4994338129102447,0.22726671397686005,0.858675479888916,-0.45937591791152954, 162, 111, 0, 136
1731649460725,9i,4.832386832633567,1.4s : 0.3s,-256.75380395190336,5.265719977226017,10.271917612225552,6.079541827567697,8.767626762390137,-9.78365707397461,-10.146870613098145,2.4860730171203613,1.3774316310882568,5.37428617477417,-0.9924195748346512,0.16268501010250536,2.270054000000027,0.08854249119758606,0.8373511433601379,-0.5394472479820251, 162, 111, 0, 136
1731649460735,9i,4.832386832633567,1.4s : 0.3s,-256.75380395190336,5.406297788033347,10.409915403647028,6.0673184506883535,10.58481502532959,-9.765461921691895,-8.98779582977295,2.5113017559051514,1.1639341115951538,5.399164199829102,-0.8990016909207307,-0.07427107967586952,2.096894881274227,-0.04618321731686592,0.7827059626579285,-0.6206758618354797, 162, 111, 0, 136
1731649460745,9i,4.832386832633567,1.4s : 0.3s,-256.75380395190336,5.540963330843795,10.586364802604358,5.845922176179538,11.985846519470215,-9.650100708007812,-7.72147798538208,2.4392852783203125,0.8242232799530029,5.248366355895996,-0.7735296751317035,-0.2454858971644192,1.9925425045298113,-0.1738739311695099,0.6986649036407471,-0.6939994096755981, 162, 111, 0, 136
1731649460755,9i,4.832386832633567,1.4s : 0.3s,-256.75380395190336,5.67118122716571,10.822217583240173,5.887487036221125,12.996432304382324,-9.397246360778809,-7.146301746368408,2.3182294368743896,0.6117681860923767,5.377179145812988,-0.6295085005502621,-0.3706341135964877,1.9425506097181,-0.2927776873111725,0.5887475609779358,-0.7534304857254028, 162, 111, 0, 136
1731649460765,9i,4.832386832633567,1.4s : 0.3s,-256.75380395190336,5.7974290788573075,11.143125837932455,5.738998007157543,14.430627822875977,-9.022503852844238,-6.616542339324951,2.3178861141204834,0.3696403503417969,5.237066745758057,-0.47630652037135535,-0.46779065074083764,1.9326009798214536,-0.4007260203361511,0.458499938249588,-0.7932190895080566, 162, 111, 0, 136
1731649460775,9i,4.832386832633567,1.4s : 0.3s,-256.75380395190336,5.920652342524637,11.51941102683909,5.744808445374983,15.455552101135254,-9.079835891723633,-5.930005073547363,2.1919143199920654,0.3407372236251831,5.299267292022705,-0.3151334167351147,-0.5507030926865556,1.9528358188701875,-0.49751728773117065,0.3099433183670044,-0.8101924061775208, 162, 111, 0, 136
1731649460785,9i,4.832386832633567,1.4s : 0.3s,-256.75380395190336,6.041671102888115,11.660001648686025,5.900024332661239,14.779438972473145,-8.767257690429688,-5.527450084686279,1.8433129787445068,0.4304441809654236,5.588130474090576,-0.15689923400310676,-0.6308307630540193,1.9909683235732043,-0.5825708508491516,0.1562562882900238,-0.7976184487342834, 162, 111, 0, 136
1731649460795,9i,4.832386832633567,1.4s : 0.3s,-256.75380395190336,6.159111981550828,11.534779430862953,5.602180288771215,13.70063304901123,-8.2965669631958,-5.166193962097168,1.5019726753234863,0.7132371068000793,5.349747180938721,-0.01291378183518207,-0.7129873202895799,2.0377434315278697,-0.6540417671203613,0.012913422659039497,-0.756348192691803, 162, 111, 0, 136
1731649460805,9i,4.832386832633567,1.4s : 0.3s,-256.75380395190336,6.269728666181037,11.096945377515322,4.828035562920159,12.315509796142578,-6.967174530029297,-5.132561683654785,1.2458300590515137,0.8576997518539429,4.584995746612549,0.11719940676613279,-0.7921712259603577,2.0895460376251225,-0.7069963812828064,-0.11693128943443298,-0.6974835991859436, 162, 111, 0, 136
1731649460815,9i,4.832386832633567,1.4s : 0.3s,-256.75380395190336,6.371489852321325,10.397183029712226,4.072492888972567,10.629453659057617,-5.68557596206665,-5.120677947998047,1.1082841157913208,0.7618405818939209,3.844021797180176,0.23224546377747576,-0.8638289205697236,2.1400882120530533,-0.7399216890335083,-0.23016327619552612,-0.6320924162864685, 162, 111, 0, 136
1731649460825,9i,4.832386832633567,1.4s : 0.3s,-256.75380395190336,6.46671492935328,9.693982155153268,3.900031148154415,9.384647369384766,-5.573760032653809,-5.024151802062988,1.2395265102386475,1.0121897459030151,3.556583881378174,0.3308288328111116,-0.9360000836327961,2.190643077586999,-0.7615296840667725,-0.32482701539993286,-0.5608564019203186, 162, 111, 0, 136
1731649460835,9i,4.832386832633567,1.4s : 0.3s,-256.75380395190336,6.56111404212969,9.168428943454861,4.398010275202358,9.219483375549316,-5.839756488800049,-4.58101224899292,1.6463243961334229,1.380112886428833,3.8376293182373047,0.4165448783065442,-1.0169734967670134,2.247321779256365,-0.7777941226959229,-0.40460318326950073,-0.4809703230857849, 162, 111, 0, 136
1731649460845,9i,4.832386832633567,1.4s : 0.3s,-256.75380395190336,6.654499680872097,8.676453939227406,4.291449838568237,8.990739822387695,-5.435581684112549,-3.947127342224121,1.6925817728042603,1.2578363418579102,3.7375869750976562,0.49458193588106775,-1.103791912127173,2.314308299205003,-0.785919725894928,-0.47466373443603516,-0.39626315236091614, 162, 111, 0, 136
1731649460855,9i,4.832386832633567,1.4s : 0.3s,-256.75380395190336,6.742442279579003,8.095278274383272,3.596370195346294,8.092476844787598,-4.462298393249512,-3.9530959129333496,1.2932980060577393,0.7770734429359436,3.2645697593688965,0.565059071926512,-1.1888536958410683,2.3856618181677507,-0.783700168132782,-0.5354657173156738,-0.31478652358055115, 162, 111, 0, 136
1731649460865,9i,4.832386832633567,1.4s : 0.3s,-256.75380395190336,6.822521871048798,7.454144120777938,3.102106898322814,7.127709865570068,-3.5518438816070557,-4.008790493011475,0.819502592086792,0.4275493621826172,2.9611964225769043,0.6277486400527824,-1.2682085728095525,2.4558805769029015,-0.7725818157196045,-0.5873240828514099,-0.24117988348007202, 162, 111, 0, 136
1731649460875,9i,4.832386832633567,1.4s : 0.3s,-256.75380395190336,6.893755497100146,6.760885207099893,2.6440304172255678,6.1550211906433105,-2.560105800628662,-3.9553892612457275,0.5471051335334778,0.21415740251541138,2.577927350997925,0.6836050083414676,-1.33967470904656,2.523298557105459,-0.7546857595443726,-0.6315920948982239,-0.1775977611541748, 162, 111, 0, 136
1731649460885,9i,4.832386832633567,1.4s : 0.3s,-256.75380395190336,6.956797947469095,6.0589222801076685,2.287469329105574,5.225627899169922,-1.8914215564727783,-3.726344585418701,0.4827330708503723,0.15516060590744019,2.230562686920166,0.7324729939792368,-1.402538511959196,2.5862433459295344,-0.7330229878425598,-0.6687104105949402,-0.12451409548521042, 162, 111, 0, 136
1731649460895,9i,4.832386832633567,1.4s : 0.3s,-256.75380395190336,7.013263668812269,5.416008434790399,2.09133371409918,4.611391067504883,-1.4956752061843872,-3.3931851387023926,0.4939872622489929,0.23312890529632568,2.018738269805908,0.7744393632118795,-1.46023013887606,2.645973665031632,-0.7104484438896179,-0.6993154287338257,-0.07887324690818787, 162, 111, 0, 136
1731649460905,9i,4.832386832633567,1.4s : 0.3s,-256.75380395190336,7.064498954105784,4.8591346619430045,1.9524778231038935,4.237993240356445,-1.1174429655075073,-3.1163551807403564,0.49466150999069214,0.29424095153808594,1.8657175302505493,0.8103208687574879,-1.5148768509457586,2.7044339264753114,-0.6881887912750244,-0.7245084047317505,-0.038523320108652115, 162, 111, 0, 136
1731649460915,9i,4.832386832633567,1.4s : 0.3s,-256.75380395190336,7.110733953193843,4.439765491010807,1.754632719604634,4.230818748474121,-0.7372990250587463,-3.004587411880493,0.3901519775390625,0.2872559428215027,1.686416745185852,0.8419607054319537,-1.5688944748420464,2.7652629009680134,-0.6660003066062927,-0.7459504008293152,-0.00126663560513407, 162, 111, 0, 136
1731649460925,9i,4.832386832633567,1.4s : 0.3s,-256.75380395190336,7.151577544046314,4.13865400784951,1.4806803310920016,4.347087383270264,-0.2977014482021332,-2.8900420665740967,0.2522815465927124,0.1996152400970459,1.445310354232788,0.8703530507716657,-1.624160827213087,2.8315114077340073,-0.6436389088630676,-0.7645565271377563,0.03438010811805725, 162, 111, 0, 136
1731649460935,9i,4.832386832633567,1.4s : 0.3s,-256.75380395190336,7.1874674553204025,3.9444526886398013,1.3203686676180952,4.6187567710876465,0.20211264491081238,-2.693706750869751,0.17010915279388428,0.09751850366592407,1.3057283163070679,0.8944192978287654,-1.681563356886285,2.9052777312467453,-0.6221354603767395,-0.7798457145690918,0.06919532269239426, 162, 111, 0, 136
1731649460945,9i,4.832386832633567,1.4s : 0.3s,-256.75380395190336,7.21932090240595,3.8483381549637836,1.223324838665758,4.957200527191162,0.5781440734863281,-2.4516913890838623,0.1626327633857727,0.04540896415710449,1.2116155624389648,0.9131140355796834,-1.7423142408069068,2.9875277581935085,-0.6023147702217102,-0.7914111614227295,0.10433288663625717, 162, 111, 0, 136
1731649460955,9i,4.832386832633567,1.4s : 0.3s,-256.75380395190336,7.248220741007745,3.8320596678112855,1.1487928830563336,5.2088189125061035,0.8818561434745789,-2.299651861190796,0.21773600578308105,0.07462328672409058,1.1254987716674805,0.9259156892062612,-1.8067288523513534,3.0777532322555348,-0.5844504237174988,-0.799171507358551,0.14050766825675964, 162, 111, 0, 136
1731649460965,9i,4.832386832633567,1.4s : 0.3s,-256.75380395190336,7.2752823654093435,3.7891474254616733,1.1397389342205735,5.0551533699035645,1.149827480316162,-2.219174385070801,0.28180158138275146,0.14808440208435059,1.0943782329559326,0.9340410035164634,-1.8710992322288118,-3.112510197624606,-0.567980170249939,-0.8040292263031006,0.1758853793144226, 162, 111, 0, 136
1731649460975,9i,4.832386832633567,1.4s : 0.3s,-256.75380395190336,7.3013346402394195,3.714508656427444,1.155863181172791,4.732607364654541,1.473511815071106,-2.1379449367523193,0.3277163505554199,0.23272979259490967,1.0837243795394897,0.9386831034867307,-1.9306933283434413,-3.022335635155903,-0.5529971122741699,-0.8067806959152222,0.20808465778827667, 162, 111, 0, 136
1731649460985,9i,4.832386832633567,1.4s : 0.3s,-256.75380395190336,7.326896899399175,3.549511316143987,1.1708340961434627,4.05722188949585,1.7663778066635132,-1.973912000656128,0.3821514844894409,0.22118568420410156,1.0843844413757324,0.9412556730734742,-1.9809404533330792,-2.939914313483817,-0.5399426221847534,-0.8082980513572693,0.23476842045783997, 162, 111, 0, 136
1731649460995,9i,4.832386832633567,1.4s : 0.3s,-256.75380395190336,7.3522570230277475,3.2566923289345264,1.1874110613306916,3.137648344039917,1.8662927150726318,-1.5880117416381836,0.4528387784957886,0.07137256860733032,1.0953483581542969,0.942549067538006,-2.018016984339308,-2.871571436836477,-0.5299262404441833,-0.8090589046478271,0.2541694641113281, 162, 111, 0, 136
1731649461005,9i,4.832386832633567,1.4s : 0.3s,-256.75380395190336,7.377418362334955,2.8726679751106077,1.2020812901776619,2.22798490524292,1.9587831497192383,-1.0865070819854736,0.5457459092140198,-0.12879788875579834,1.0632835626602173,0.9427208153286961,-2.0399754349944406,-2.820879984978515,-0.5240936279296875,-0.8091598153114319,0.2656807005405426, 162, 111, 0, 136
1731649461015,9i,4.832386832633567,1.4s : 0.3s,-256.75380395190336,7.402376408742485,2.4759480336460564,1.2087435282696186,1.4762375354766846,2.0187785625457764,-0.7504594922065735,0.5813304781913757,-0.3556317687034607,0.9983195066452026,0.9422853560435605,-2.0483743934046132,-2.785942275834293,-0.5221569538116455,-0.8089038729667664,0.27023521065711975, 162, 111, 0, 136
1731649461025,9i,4.832386832633567,1.4s : 0.3s,-256.75380395190336,7.426473388678146,2.083347657828206,1.1856995470100031,0.7184635400772095,1.976380705833435,-0.5058259963989258,0.5436162948608398,-0.5888161659240723,0.8738765716552734,0.9428051759187946,-2.045720053165778,-2.7644246530603844,-0.5224981307983398,-0.809209406375885,0.26865583658218384, 162, 111, 0, 136
1731649461035,9i,4.832386832633567,1.4s : 0.3s,-256.75380395190336,7.44979376005146,1.7123856461819797,1.1793054778165786,0.07787930965423584,1.7677525281906128,-0.2955131232738495,0.4875878691673279,-0.7395334839820862,0.778530478477478,0.9445886476350488,-2.034128301803081,-2.7555838840097686,-0.5242851972579956,-0.8102559447288513,0.2619357705116272, 162, 111, 0, 136
1731649461045,9i,4.832386832633567,1.4s : 0.3s,-256.75380395190336,7.472257746389369,1.4127710429108016,1.157022969044117,-0.2243013232946396,1.528562068939209,-0.16733171045780182,0.4520661234855652,-0.7831594347953796,0.7218030691146851,0.9470905867695849,-2.017784525349207,-2.7553802856416243,-0.5266663432121277,-0.8117197155952454,0.25245532393455505, 162, 111, 0, 136
1731649461055,9i,4.832386832633567,1.4s : 0.3s,-256.75380395190336,7.491702830500513,1.2040541582720297,1.0732282771792825,-0.32557088136672974,1.3975375890731812,-0.09174517542123795,0.38975584506988525,-0.7719923257827759,0.6355605125427246,0.9495206648816585,-2.000295615686492,-2.7589701387589143,-0.5292059779167175,-0.8131365776062012,0.24238434433937073, 162, 111, 0, 136
1731649461065,9i,4.832386832633567,1.4s : 0.3s,-256.75380395190336,7.508453014143558,1.0474420113883816,0.9171011998429552,-0.19246156513690948,1.1920711994171143,0.07374338060617447,0.32114189863204956,-0.6656352877616882,0.5430213212966919,0.9507067102078812,-1.9840658833114164,-2.7630672583760387,-0.5321862101554871,-0.8138263821601868,0.2333763986825943, 162, 111, 0, 136
1731649461075,9i,4.832386832633567,1.4s : 0.3s,-256.75380395190336,7.523037545327812,0.9278583555941373,0.7352838671131663,-0.02428920567035675,1.0435502529144287,0.16040058434009552,0.2878572344779968,-0.49209100008010864,0.46435657143592834,0.9499563324378149,-1.9709366734406564,-2.765514884539098,-0.5357668995857239,-0.8133900761604309,0.22660724818706512, 162, 111, 0, 136
1731649461085,9i,4.832386832633567,1.4s : 0.3s,-256.75380395190336,7.535791304067342,0.8140491560518986,0.5736735221539659,-0.09720415621995926,0.8638806343078613,0.1369362771511078,0.2631968855857849,-0.3416687250137329,0.37827396392822266,0.9487524750835331,-1.9599167074148716,-2.767274671497356,-0.5391368269920349,-0.8126891851425171,0.22106069326400757, 162, 111, 0, 136
1731649461095,9i,4.832386832633567,1.4s : 0.3s,-256.75380395190336,7.54676444376073,0.6960103400473562,0.4602640143590179,-0.2238512486219406,0.6566079258918762,0.22083385288715363,0.20720058679580688,-0.2731545567512512,0.30707892775535583,0.9477354923557157,-1.9494340114014503,-2.7708851014394726,-0.5421919822692871,-0.8120961785316467,0.2157023698091507, 162, 111, 0, 136
1731649461105,9i,4.832386832633567,1.4s : 0.3s,-256.75380395190336,7.556039426096196,0.5863146786484915,0.3839327048404676,-0.4497096538543701,0.44748884439468384,0.38817039132118225,0.14279907941818237,-0.24114328622817993,0.2624169588088989,0.9461134105463622,-1.9380333486196817,-2.7780524526753414,-0.5458447337150574,-0.8111485838890076,0.20997987687587738, 162, 111, 0, 136
1731649461115,9i,4.832386832633567,1.4s : 0.3s,-256.75380395190336,7.563850971972075,0.5012875367654229,0.2783852449455983,-0.5860297679901123,0.22302280366420746,0.46668076515197754,0.10929429531097412,-0.1468125581741333,0.20975980162620544,0.9439004350329347,-1.925847751717292,-2.7890166464383217,-0.5500443577766418,-0.8098523616790771,0.20393644273281097, 162, 111, 0, 136
1731649461125,9i,4.832386832633567,1.4s : 0.3s,-256.75380395190336,7.570359624750707,0.45773505602808084,0.1792118683859903,-0.6638590693473816,0.03290693461894989,0.5241075158119202,0.06465518474578857,-0.038011252880096436,0.162762850522995,0.9413404127912101,-1.9143942836065868,-2.801610274914557,-0.5542944669723511,-0.8083479404449463,0.198321133852005, 162, 111, 0, 136
1731649461135,9i,4.832386832633567,1.4s : 0.3s,-256.75380395190336,7.575510311005678,0.4829275923697591,0.1012603241207247,-0.8669681549072266,-0.13004079461097717,0.5993650555610657,0.01897495985031128,0.012624144554138184,0.09866222739219666,0.938532025474821,-1.9026769911908328,-2.8168662369922277,-0.558724045753479,-0.8066914081573486,0.19255168735980988, 162, 111, 0, 136
1731649461145,9i,4.832386832633567,1.4s : 0.3s,-256.75380395190336,7.579425978790451,0.5597267705743431,0.06124038632227959,-1.0260523557662964,-0.18294502794742584,0.6338548064231873,0.005760669708251953,0.03999894857406616,0.04601395130157471,0.9357498580634147,-1.8893074783167636,-2.835464177053848,-0.563377857208252,-0.8050441145896912,0.1857670247554779, 162, 111, 0, 136
1731649461155,9i,4.832386832633567,1.4s : 0.3s,-256.75380395190336,7.5823645735012475,0.6307177792052792,0.030710337161596636,-1.0058236122131348,-0.2906373143196106,0.6880479454994202,0.018837153911590576,-0.0027775168418884277,0.02409505844116211,0.9326338741760456,-1.8756919871131967,-2.8552360425353047,-0.5682451128959656,-0.8031917810440063,0.17883159220218658, 162, 111, 0, 136
1731649461165,9i,4.832386832633567,1.4s : 0.3s,-256.75380395190336,7.5849408633340785,0.6810646815487651,0.11850396553369466,-0.9188344478607178,-0.4912998378276825,0.7110787034034729,0.09215754270553589,-0.061390697956085205,0.04220615327358246,0.9287435926220607,-1.8645370950154398,-2.8740814441907983,-0.5731908082962036,-0.8008682131767273,0.17338520288467407, 162, 111, 0, 136
1731649461175,9i,4.832386832633567,1.4s : 0.3s,-256.75380395190336,7.587983986148145,0.6882610979678836,0.21071054464730868,-0.6969975233078003,-0.577857255935669,0.6592897772789001,0.18987101316452026,-0.013855516910552979,0.09031033515930176,0.9244818690237507,-1.8569168057746097,-2.890378613575041,-0.5777646899223328,-0.7983088493347168,0.16997411847114563, 162, 111, 0, 136
1731649461184,9i,4.832386832633567,1.4s : 0.3s,-256.75380395190336,7.591687954546426,0.6619642769468799,0.2470230502592442,-0.4204815626144409,-0.6177061796188354,0.6388124227523804,0.2028864026069641,0.06587743759155273,0.12456989288330078,0.9198437977405373,-1.8535428275555985,-2.902162997671788,-0.5818842053413391,-0.7955069541931152,0.16905498504638672, 162, 111, 0, 136
1731649461194,9i,4.832386832633567,1.4s : 0.3s,-256.75380395190336,7.595723956648002,0.6302408255917765,0.22205295989614354,-0.24792762100696564,-0.622734785079956,0.6248713135719299,0.15499413013458252,0.0864877700805664,0.13343238830566406,0.914691806539303,-1.8533709718448563,-2.9102117238334846,-0.5858412981033325,-0.7923746109008789,0.17009547352790833, 162, 111, 0, 136
1731649461204,9i,4.832386832633567,1.4s : 0.3s,-256.75380395190336,7.600030570683308,0.607963536903898,0.22444227956603535,-0.2273235321044922,-0.6256762742996216,0.5737029314041138,0.12433946132659912,0.07490712404251099,0.1711810678243637,0.9095575005125102,-1.854662534376934,-2.9164480408535134,-0.5895188450813293,-0.789232075214386,0.17198911309242249, 162, 111, 0, 136
1731649461214,9i,4.832386832633567,1.4s : 0.3s,-256.75380395190336,7.604592738129338,0.6059241486617704,0.2362045660147597,-0.3392500877380371,-0.6108254194259644,0.5498229265213013,0.11265051364898682,0.03245061635971069,0.20505954325199127,0.9049638321375629,-1.8555197100598955,-2.923225583236551,-0.5928446650505066,-0.7864028215408325,0.17351098358631134, 162, 111, 0, 136
1731649461224,9i,4.832386832633567,1.4s : 0.3s,-256.75380395190336,7.6093707725350335,0.6201818123362385,0.25066042928982313,-0.563048243522644,-0.5644637942314148,0.5678789019584656,0.1165432333946228,-0.013638138771057129,0.22150017321109772,0.900862302673754,-1.8540673261347547,-2.9325945160399147,-0.5961880683898926,-0.7838626503944397,0.1735498458147049, 162, 111, 0, 136
1731649461234,9i,4.832386832633567,1.4s : 0.3s,-256.75380395190336,7.614388424434046,0.6653225193280933,0.2653481435734809,-0.8523736596107483,-0.5168799161911011,0.624396026134491,0.13111793994903564,-0.02303832769393921,0.22953639924526215,0.8971096898944209,-1.8489139059196862,-2.9460924828468062,-0.5998983979225159,-0.7815269827842712,0.17128139734268188, 162, 111, 0, 136
1731649461244,9i,4.832386832633567,1.4s : 0.3s,-256.75380395190336,7.619730221580141,0.7426564269944242,0.2830501454889405,-1.15986967086792,-0.48250094056129456,0.6656339764595032,0.14777445793151855,-0.004341840744018555,0.24137365818023682,0.8936027829208802,-1.8397074260094708,-2.9642760592646575,-0.604088544845581,-0.779334306716919,0.1664784550666809, 162, 111, 0, 136
1731649461254,9i,4.832386832633567,1.4s : 0.3s,-256.75380395190336,7.625451549443252,0.8503310898212245,0.30539988080299846,-1.4374959468841553,-0.45629870891571045,0.7440564036369324,0.15729057788848877,0.003899812698364258,0.2617509365081787,0.8902280181864272,-1.8266462841364142,-2.9871354788312967,-0.6087523698806763,-0.7772152423858643,0.15923908352851868, 162, 111, 0, 136
1731649461264,9i,4.832386832633567,1.4s : 0.3s,-256.75380395190336,7.631459055118229,0.9685877767449798,0.3143397187007293,-1.6219784021377563,-0.41676461696624756,0.8531479835510254,0.14596796035766602,-0.0072727203369140625,0.2782982587814331,0.8862557187717826,-1.8103531397913895,-3.0137717858124353,-0.6142601370811462,-0.7747095823287964,0.1500312089920044, 162, 111, 0, 136
1731649461274,9i,4.832386832633567,1.4s : 0.3s,-256.75380395190336,7.637567045166991,1.0724398079615107,0.31030417336653826,-1.6898117065429688,-0.36793920397758484,0.9501942992210388,0.138019859790802,-0.022812187671661377,0.2769815921783447,0.8812902963510066,-1.7921113363866092,-3.0424747774201606,-0.6206400990486145,-0.7715603709220886,0.13964438438415527, 162, 111, 0, 136
1731649461284,9i,4.832386832633567,1.4s : 0.3s,-256.75380395190336,7.643685268470802,1.133187349187225,0.2981739581620121,-1.575047492980957,-0.29246842861175537,1.04214608669281,0.13937026262283325,-0.03067880868911743,0.2618061304092407,0.8750167513681352,-1.773582249338478,-3.0708604255306806,-0.6278498768806458,-0.7675542235374451,0.12909352779388428, 162, 111, 0, 136
1731649461294,9i,4.832386832633567,1.4s : 0.3s,-256.75380395190336,7.649818305464776,1.1561028532530553,0.29578927642993075,-1.3947901725769043,-0.23672375082969666,1.1452990770339966,0.1570281982421875,-0.0251467227935791,0.24940145015716553,0.8671633612272033,-1.756531903067179,-3.096648214865063,-0.6358642578125,-0.7624967098236084,0.1194797158241272, 162, 111, 0, 136
1731649461304,9i,4.832386832633567,1.4s : 0.3s,-256.75380395190336,7.656045703732018,1.168707127013279,0.3120186330483377,-1.3039982318878174,-0.1490279883146286,1.2486801147460938,0.18298447132110596,-0.007320404052734375,0.25262367725372314,0.8577878046007645,-1.7406438718774555,-3.1201534544342153,-0.6447002291679382,-0.7563973665237427,0.11056600511074066, 162, 111, 0, 136
1731649461314,9i,4.832386832633567,1.4s : 0.3s,-256.75380395190336,7.662753917292712,1.1929242825468618,0.35892679413916007,-1.3263441324234009,-0.048702172935009,1.3419427871704102,0.20431733131408691,0.0028076171875,0.29508471488952637,0.8471396592870534,-1.7245896619914642,3.1403901479678447,-0.6543141603469849,-0.7493895292282104,0.10143011063337326, 162, 111, 0, 136
1731649461324,9i,4.832386832633567,1.4s : 0.3s,-256.75380395190336,7.670062037352282,1.256112921338071,0.4054321215769368,-1.529336929321289,0.03711313009262085,1.450312614440918,0.22671061754226685,-0.02152484655380249,0.3354313373565674,0.8354033925164653,-1.7067988788594106,3.116408386232112,-0.6646836400032043,-0.7415671944618225,0.09096018970012665, 162, 111, 0, 136
1731649461334,9i,4.832386832633567,1.4s : 0.3s,-256.75380395190336,7.678274296023513,1.368655211579574,0.49048130352423935,-1.8624904155731201,0.12678398191928864,1.576728343963623,0.25095081329345703,-0.04872637987136841,0.41859447956085205,0.8225374844642658,-1.6856976215228374,3.0888359549547886,-0.675877571105957,-0.7328745722770691,0.07800278067588806, 162, 111, 0, 136
1731649461344,9i,4.832386832633567,1.4s : 0.3s,-256.75380395190336,7.68773899005142,1.518701215633011,0.5936089427061189,-2.1865315437316895,0.25827011466026306,1.7289469242095947,0.2661486864089966,-0.04521512985229492,0.528670072555542,0.8082066360867374,-1.660665269114437,3.057025311924915,-0.6880082488059998,-0.7230494618415833,0.06199757382273674, 162, 111, 0, 136
1731649461354,9i,4.832386832633567,1.4s : 0.3s,-256.75380395190336,7.698531619734115,1.6870591936336339,0.6624695439984332,-2.4476232528686523,0.42016535997390747,1.8803058862686157,0.28015846014022827,-0.02137911319732666,0.599933385848999,0.7920221901296085,-1.6321118541994977,3.021917949380967,-0.7010873556137085,-0.7117751240730286,0.043041493743658066, 162, 111, 0, 136
1731649461364,9i,4.832386832633567,1.4s : 0.3s,-256.75380395190336,7.710591699217167,1.85745851605747,0.7044136779297607,-2.6375081539154053,0.551484227180481,2.028316020965576,0.30826693773269653,0.01856100559234619,0.6331079006195068,0.7736941396202632,-1.6011259639930482,2.984878813664372,-0.7150051593780518,-0.6987825632095337,0.02169249951839447, 162, 111, 0, 136
1731649461374,9i,4.832386832633567,1.4s : 0.3s,-256.75380395190336,7.723796666841025,2.0098248866910655,0.7258024941301136,-2.730266571044922,0.6440326571464539,2.14778470993042,0.3596838116645813,0.07239788770675659,0.6262390613555908,0.753232846552774,-1.5692232843262934,2.947310170544258,-0.729480504989624,-0.6840006113052368,-0.0011475047795102, 162, 111, 0, 136
1731649461384,9i,4.832386832633567,1.4s : 0.3s,-256.75380395190336,7.73795989349426,2.1417053491281015,0.7406542903843545,-2.7832412719726562,0.7848520874977112,2.242391586303711,0.40232062339782715,0.1070442795753479,0.6125752329826355,0.7308457500965361,-1.5373521436752597,2.910640182869388,-0.7441937923431396,-0.6674996018409729,-0.024898238480091095, 162, 111, 0, 136
1731649461394,9i,4.832386832633567,1.4s : 0.3s,-256.75380395190336,7.752825744579677,2.285402102240941,0.7447233635888196,-2.9827804565429688,0.9469982981681824,2.3517873287200928,0.40957891941070557,0.10751402378082275,0.6126163005828857,0.7065736900126637,-1.50467625789805,2.8740658197532927,-0.7589289546012878,-0.6492315530776978,-0.05025368928909302, 162, 111, 0, 136
1731649461404,9i,4.832386832633567,1.4s : 0.3s,-256.75380395190336,7.768360969508159,2.4467625240619686,0.776952010400482,-3.1689186096191406,1.1635665893554688,2.529895305633545,0.3921296000480652,0.10968202352523804,0.6617088913917542,0.6797555632483474,-1.4704347362639278,2.8369266008863723,-0.7738129496574402,-0.628602921962738,-0.07792290300130844, 162, 111, 0, 136
1731649461414,9i,4.832386832633567,1.4s : 0.3s,-256.75380395190336,7.78452283342679,2.6137153230071615,0.8052147650116346,-3.350674629211426,1.3601804971694946,2.6558492183685303,0.38260167837142944,0.12820792198181152,0.6968138217926025,0.6501866654467006,-1.434954311814129,2.7998283558808974,-0.7886381149291992,-0.605334997177124,-0.10779404640197754, 162, 111, 0, 136
1731649461424,9i,4.832386832633567,1.4s : 0.3s,-256.75380395190336,7.801349265256831,2.781824381848454,0.8378892318763955,-3.5698375701904297,1.540218472480774,2.7124381065368652,0.39916765689849854,0.15540140867233276,0.7201207876205444,0.6184010839201142,-1.3984275482740813,2.7626036062981147,-0.8027321100234985,-0.5797330737113953,-0.13975276052951813, 162, 111, 0, 136
1731649461434,9i,4.832386832633567,1.4s : 0.3s,-256.75380395190336,7.81895187267474,2.9411286824185217,0.888113990723197,-3.7202346324920654,1.7233307361602783,2.7688300609588623,0.40822720527648926,0.19662725925445557,0.7638289928436279,0.5846747698852339,-1.3611708744306399,2.725457958099485,-0.8156368732452393,-0.5519282221794128,-0.17352749407291412, 162, 111, 0, 136
1731649461444,9i,4.832386832633567,1.4s : 0.3s,-256.75380395190336,7.837218783410024,3.081473003456317,0.909770701999259,-3.7232420444488525,1.9500834941864014,2.8765764236450195,0.4037168025970459,0.22734475135803223,0.7829494476318359,0.5488269736135409,-1.3238459919728374,2.6900368484950303,-0.827255129814148,-0.521686851978302,-0.2085476517677307, 162, 111, 0, 136
1731649461454,9i,4.832386832633567,1.4s : 0.3s,-256.75380395190336,7.8558267659548076,3.19922452049168,0.8885416645521695,-3.6659395694732666,2.186591148376465,2.961393356323242,0.4086373448371887,0.24437972903251648,0.7502002120018005,0.5110228283287582,-1.286849811927189,2.6576712715791673,-0.8373177647590637,-0.4890696704387665,-0.2443561553955078, 162, 111, 0, 136
1731649461464,9i,4.832386832633567,1.4s : 0.3s,-256.75380395190336,7.874717114238495,3.3055804231640495,0.8902825010117099,-3.6613986492156982,2.415276050567627,3.003713846206665,0.4359986186027527,0.26474305987358093,0.7296706438064575,0.4717095523867724,-1.2499910787971298,2.6282223922401595,-0.8453461527824402,-0.45440980792045593,-0.2808944284915924, 162, 111, 0, 136
1731649461474,9i,4.832386832633567,1.4s : 0.3s,-256.75380395190336,7.8940053949890645,3.4117257662843583,0.9199715185563822,-3.7228901386260986,2.6467721462249756,3.0151214599609375,0.45780229568481445,0.275166779756546,0.7490313053131104,0.4310962222038605,-1.212767648017271,2.600729479379213,-0.8508992195129395,-0.417866975069046,-0.31836727261543274, 162, 111, 0, 136
1731649461484,9i,4.832386832633567,1.4s : 0.3s,-256.75380395190336,7.9135980130788095,3.5416158105017836,0.9222717860017526,-3.9662134647369385,2.8842034339904785,2.9954144954681396,0.4621468186378479,0.2679848074913025,0.7517910003662109,0.38911959125114415,-1.1744584450918516,2.573946607618902,-0.8535194993019104,-0.3793739676475525,-0.3571835160255432, 162, 111, 0, 136
1731649461494,9i,4.832386832633567,1.4s : 0.3s,-256.75380395190336,7.933458445209463,3.6952330855648228,0.934481842831629,-4.294905662536621,3.086915969848633,2.951460361480713,0.44475293159484863,0.2589092254638672,0.780010998249054,0.3453213180781114,-1.1347660328909492,2.5464161423350737,-0.8529255390167236,-0.3384990394115448,-0.39741212129592896, 162, 111, 0, 136
1731649461504,9i,4.832386832633567,1.4s : 0.3s,-256.75380395190336,7.953425952528937,3.84875997534528,0.9364849111797744,-4.498111248016357,3.28318190574646,2.913506507873535,0.41567355394363403,0.2915233373641968,0.7869139909744263,0.29971347244747687,-1.0941221002399022,2.5183660424596486,-0.8489163517951965,-0.2952464520931244,-0.43837273120880127, 162, 111, 0, 136
1731649461514,9i,4.832386832633567,1.4s : 0.3s,-256.75380395190336,7.973068870691111,3.967660051928991,0.8738651511960693,-4.488245964050293,3.423487424850464,2.8826842308044434,0.39401447772979736,0.3555678129196167,0.6942365765571594,0.25281408322498866,-1.0532630839363153,2.4915503103758603,-0.8414174318313599,-0.2501295804977417,-0.4790113866329193, 162, 111, 0, 136
1731649461524,9i,4.832386832633567,1.4s : 0.3s,-256.75380395190336,7.991845674799207,4.026917403725366,0.8061412145647817,-4.3342461585998535,3.4680607318878174,2.799520969390869,0.4062281847000122,0.436137855052948,0.5427947044372559,0.20588457708459257,-1.0133702618175982,2.4676241410802198,-0.8306971788406372,-0.2044331282377243,-0.5178313851356506, 162, 111, 0, 136
1731649461534,9i,4.832386832633567,1.4s : 0.3s,-256.75380395190336,8.00947120495714,4.026622860468311,0.7765002968949005,-4.1115922927856445,3.442652702331543,2.707000255584717,0.4241320490837097,0.5143619179725647,0.39811623096466064,0.1598631233362505,-0.9751461973128845,2.4468768039163202,-0.8172289729118347,-0.159183070063591,-0.5538932085037231, 162, 111, 0, 136
1731649461544,9i,4.832386832633567,1.4s : 0.3s,-256.75380395190336,8.025575213527812,3.980122452738504,0.7430570775088914,-3.825352430343628,3.4669625759124756,2.610597610473633,0.40152525901794434,0.5684142112731934,0.2604161500930786,0.11536182064122642,-0.9382832182996534,2.4296389870248856,-0.8011834025382996,-0.11510611325502396,-0.5872441530227661, 162, 111, 0, 136
1731649461554,9i,4.832386832633567,1.4s : 0.3s,-256.75380395190336,8.03982104051848,3.9083868127174983,0.6773615839572105,-3.619023323059082,3.4910621643066406,2.4470162391662598,0.3262457847595215,0.5705429911613464,0.16389966011047363,0.0728045020776772,-0.9022360258071204,2.415439253324252,-0.7826361060142517,-0.07274020463228226,-0.6182148456573486, 162, 111, 0, 136
1731649461564,9i,4.832386832633567,1.4s : 0.3s,-256.75380395190336,8.052121456447562,3.8416993582998296,0.595291482549865,-3.6431024074554443,3.480100393295288,2.223858594894409,0.19658750295639038,0.5410712361335754,0.15154939889907837,0.031890817078357225,-0.8667382258111951,2.4022804964495377,-0.7618340253829956,-0.03188541159033775,-0.6469870209693909, 162, 111, 0, 136
1731649461574,9i,4.832386832633567,1.4s : 0.3s,-256.75380395190336,8.062235029309155,3.787678235449336,0.5697818046415867,-3.7305996417999268,3.528670310974121,1.9135879278182983,0.05537813901901245,0.5582982897758484,0.09943634271621704,-0.008016513069151961,-0.8316236102133667,2.3882890773747745,-0.7390024065971375,0.008016427047550678,-0.673655092716217, 162, 111, 0, 136
1731649461584,9i,4.832386832633567,1.4s : 0.3s,-256.75380395190336,8.069760214449769,3.7164469697863542,0.5867007078997382,-3.656350612640381,3.542036533355713,1.566028118133545,-0.063010573387146,0.5829868912696838,-0.019330620765686035,-0.04604245176984035,-0.7967760757882572,2.3732974822186086,-0.7143483757972717,0.046026185154914856,-0.6982749700546265, 162, 111, 0, 136
1731649461594,9i,4.832386832633567,1.4s : 0.3s,-256.75380395190336,8.076292318777027,3.61294409198926,0.5884764888519864,-3.449885368347168,3.5072925090789795,1.2211836576461792,-0.1419358253479004,0.5415630340576172,-0.18129611015319824,-0.08102319663589735,-0.7625174488624206,2.3581990422625663,-0.6884779334068298,0.08093457669019699,-0.7207272052764893, 162, 111, 0, 136
1731649461604,9i,4.832386832633567,1.4s : 0.3s,-256.75380395190336,8.079355805636697,3.4599759995210335,0.6219350207606084,-3.1673338413238525,3.3321526050567627,0.8544080257415771,-0.15859323740005493,0.5142025947570801,-0.3118445873260498,-0.1123458462401119,-0.7298141332697199,2.3432286946830643,-0.6625279188156128,0.11210966110229492,-0.7405998706817627, 162, 111, 0, 136
1731649461614,9i,4.832386832633567,1.4s : 0.3s,-256.75380395190336,8.079847980882148,3.262157328591482,0.6996625235617335,-2.7568564414978027,3.172375202178955,0.5230567455291748,-0.14700162410736084,0.5762411952018738,-0.36859768629074097,-0.13925055391891492,-0.6991606351948843,2.32857991816435,-0.6373459100723267,0.1388009637594223,-0.7579740285873413, 162, 111, 0, 136
1731649461624,9i,4.832386832633567,1.4s : 0.3s,-256.75380395190336,8.078586158439675,3.01541728723307,0.8049853953981626,-2.08840012550354,3.093811511993408,0.2090250700712204,-0.15052223205566406,0.688058614730835,-0.3897690176963806,-0.16037582426481378,-0.6697571183326698,2.315583127122,-0.6128291487693787,0.15968921780586243,-0.7739120125770569, 162, 111, 0, 136
1731649461634,9i,4.832386832633567,1.4s : 0.3s,-256.75380395190336,8.07579080231116,2.726490770181909,0.9184996573742283,-1.376494288444519,2.9219970703125,-0.10339850932359695,-0.20991390943527222,0.783656120300293,-0.4306516647338867,-0.17433317421164785,-0.641440087372261,2.305066777501223,-0.589280366897583,0.17345145344734192,-0.7890901565551758, 162, 111, 0, 136
1731649461644,9i,4.832386832633567,1.4s : 0.3s,-256.75380395190336,8.071623752051247,2.4454398323255417,1.0092026820570785,-0.7082884311676025,2.8355050086975098,-0.37501591444015503,-0.3214218020439148,0.8588073253631592,-0.421459436416626,-0.18130797417458425,-0.6142314515691455,2.296570287634145,-0.5668838024139404,0.1803162693977356,-0.8038213849067688, 162, 111, 0, 136
1731649461654,9i,4.832386832633567,1.4s : 0.3s,-256.75380395190336,8.066256849028221,2.209080874999521,1.0800917164688864,-0.04209316894412041,2.8169405460357666,-0.643700361251831,-0.38786131143569946,0.9105408191680908,-0.4325241446495056,-0.18148780384377713,-0.5872632011891814,2.29001915933513,-0.5449846982955933,0.18049314618110657,-0.8187881112098694, 162, 111, 0, 136
1731649461664,9i,4.832386832633567,1.4s : 0.3s,-256.75380395190336,8.05973049960973,2.0587217615007574,1.044585127166693,0.452016681432724,2.8320722579956055,-0.9023481607437134,-0.3835453987121582,0.8425184488296509,-0.4839562773704529,-0.17539299975467923,-0.5600407433531739,2.284493283850884,-0.523070752620697,0.17449511587619781,-0.8342352509498596, 162, 111, 0, 136
1731649461674,9i,4.832386832633567,1.4s : 0.3s,-256.75380395190336,8.05295280037132,1.9783858948807056,0.9057623839333138,0.6344848871231079,2.722001552581787,-1.1187766790390015,-0.35279446840286255,0.6858831644058228,-0.4748745560646057,-0.16545667382575396,-0.5332678046208276,2.278510270055803,-0.5014076828956604,0.16470278799533844,-0.8493899703025818, 162, 111, 0, 136
1731649461684,9i,4.832386832633567,1.4s : 0.3s,-256.75380395190336,8.045795947280821,1.9450286789615403,0.772543602421029,0.7385223507881165,2.6103222370147705,-1.3306553363800049,-0.3092576265335083,0.5819752216339111,-0.4030982255935669,-0.15328934846825304,-0.5077802930823523,2.2710903719658293,-0.4805372655391693,0.15268972516059875,-0.8635796308517456, 162, 111, 0, 136
1731649461694,9i,4.832386832633567,1.4s : 0.3s,-256.75380395190336,8.0386576824342,1.9304672165803047,0.736158593303642,0.7890751957893372,2.3813772201538086,-1.4334019422531128,-0.2532901167869568,0.5699267387390137,-0.3910973072052002,-0.1400490463091786,-0.48421790658769975,2.2622840296255657,-0.4609585106372833,0.13959167897701263,-0.8763740062713623, 162, 111, 0, 136
1731649461704,9i,4.832386832633567,1.4s : 0.3s,-256.75380395190336,8.031901804058995,1.8887104468727363,0.7988837396862813,1.261092185974121,2.2348058223724365,-1.3804683685302734,-0.23276817798614502,0.6789076924324036,-0.35088253021240234,-0.12483733617821331,-0.4623893301115322,2.254081719103836,-0.4426163136959076,0.12451333552598953,-0.8880243301391602, 162, 111, 0, 136
1731649461714,9i,4.832386832633567,1.4s : 0.3s,-256.75380395190336,8.025891465085698,1.9316525140965606,0.878488225880391,1.9493414163589478,2.2799935340881348,-1.4590511322021484,-0.21367111802101135,0.7876946926116943,-0.3249973654747009,-0.1040794511203086,-0.44046695288422577,2.248382616037875,-0.42405468225479126,0.10389164835214615,-0.8996577858924866, 162, 111, 0, 136
1731649461724,9i,4.832386832633567,1.4s : 0.3s,-256.75380395190336,8.019999453836432,2.052389290283555,0.8682217286828006,2.24985933303833,2.344202995300293,-1.7154695987701416,-0.20391878485679626,0.7454022169113159,-0.3957292437553406,-0.07811776758261857,-0.4178635500509153,2.2427591470532664,-0.40457117557525635,0.07803834229707718,-0.9111707806587219, 162, 111, 0, 136
1731649461734,9i,4.832386832633567,1.4s : 0.3s,-256.75380395190336,8.01373472774365,2.158968769948244,0.7711842740996634,2.081256628036499,2.2895350456237793,-1.9780484437942505,-0.21305859088897705,0.5946869850158691,-0.442355751991272,-0.05072050915756178,-0.39527534231623784,2.2343633736544772,-0.38456711173057556,0.050698764622211456,-0.9217037558555603, 162, 111, 0, 136
1731649461744,9i,4.832386832633567,1.4s : 0.3s,-256.75380395190336,8.007046938799823,2.1901060123962983,0.5831108712177969,1.548447847366333,2.1579766273498535,-2.15431809425354,-0.22634369134902954,0.36658379435539246,-0.3929416537284851,-0.026058331489938632,-0.37344951099230567,2.2219513302487384,-0.36470547318458557,0.026055382564663887,-0.9307582974433899, 162, 111, 0, 136
1731649461753,9i,4.832386832633567,1.4s : 0.3s,-256.75380395190336,8.000067190489352,2.1491234065435343,0.4324984750120737,0.9788418412208557,1.960350513458252,-2.2469120025634766,-0.21263182163238525,0.16454556584358215,-0.33877336978912354,-0.0065360476223840355,-0.3531578191126464,2.205905046805738,-0.34585508704185486,0.006536000873893499,-0.9382652044296265, 162, 111, 0, 136
1731649461763,9i,4.832386832633567,1.4s : 0.3s,-256.75380395190336,7.9935131539561555,2.083693135687308,0.28636250652911277,0.5594046115875244,1.7445319890975952,-2.374967098236084,-0.14591753482818604,0.06828923523426056,-0.23674488067626953,0.008368041800312451,-0.3347687010726797,2.1867687120800867,-0.3285392224788666,-0.00836794450879097,-0.944453239440918, 162, 111, 0, 136
1731649461773,9i,4.832386832633567,1.4s : 0.3s,-256.75380395190336,7.987928117987172,2.053660486831057,0.19808279151894603,0.4053051173686981,1.6242722272872925,-2.56919264793396,-0.07104963064193726,0.0787045806646347,-0.1673150658607483,0.020646330768915668,-0.3177603140776599,2.1648738331635515,-0.31237319111824036,-0.020644864067435265,-0.9497351050376892, 162, 111, 0, 136
1731649461783,9i,4.832386832633567,1.4s : 0.3s,-256.75380395190336,7.983256726974895,2.0683703060783953,0.2511412670764589,0.44400137662887573,1.5924631357192993,-2.7490170001983643,-0.047113627195358276,0.17696993052959442,-0.17185425758361816,0.03284128752020736,-0.30117624359400186,2.140807895481441,-0.29648375511169434,-0.03283538296818733,-0.9544732570648193, 162, 111, 0, 136
1731649461793,9i,4.832386832633567,1.4s : 0.3s,-256.75380395190336,7.978839390794086,2.1060759076441364,0.36231785230853875,0.5462861657142639,1.5977952480316162,-2.8392722606658936,-0.07499372959136963,0.31119540333747864,-0.16972798109054565,0.04561670080354116,-0.2843067774144979,2.11534546252829,-0.280200332403183,-0.04560088366270065,-0.9588578343391418, 162, 111, 0, 136
1731649461803,9i,4.832386832633567,1.4s : 0.3s,-256.75380395190336,7.975158830108593,2.1378423475264476,0.46098195136128534,0.7079861164093018,1.6275815963745117,-2.787639617919922,-0.11158153414726257,0.4170893132686615,-0.16152530908584595,0.05929014865455997,-0.2668546150096097,2.089917934454832,-0.26323533058166504,-0.05925541743636131,-0.9629101753234863, 162, 111, 0, 136
1731649461813,9i,4.832386832633567,1.4s : 0.3s,-256.75380395190336,7.971980829658282,2.155258605395457,0.4729635459190513,0.8332247734069824,1.6013230085372925,-2.735327959060669,-0.11251769959926605,0.42763954401016235,-0.16780555248260498,0.07380941028758069,-0.2491365757111485,2.065292354907942,-0.24589596688747406,-0.07374241203069687,-0.9664870500564575, 162, 111, 0, 136
1731649461823,9i,4.832386832633567,1.4s : 0.3s,-256.75380395190336,7.968948097376677,2.1609857788507925,0.41162551583475354,0.9327579736709595,1.5194627046585083,-2.7170424461364746,-0.07647402584552765,0.3687477707862854,-0.16616970300674438,0.0888505494845547,-0.23157989683836744,2.0409478581146345,-0.22861018776893616,-0.08873368799686432,-0.9694656729698181, 162, 111, 0, 136
1731649461833,9i,4.832386832633567,1.4s : 0.3s,-256.75380395190336,7.96651098044402,2.162255800897705,0.3439098463054304,1.0398900508880615,1.394531011581421,-2.742173433303833,-0.026881620287895203,0.31076520681381226,-0.14483213424682617,0.10445783588812572,-0.21477323493421727,2.0165878761746185,-0.2119641751050949,-0.10426797717809677,-0.9716992378234863, 162, 111, 0, 136
1731649461843,9i,4.832386832633567,1.4s : 0.3s,-256.75380395190336,7.964942839746802,2.1698992006066717,0.3191541473133939,1.1675894260406494,1.2707730531692505,-2.7947051525115967,0.0384192168712616,0.29888996481895447,-0.1051100492477417,0.12088520382940478,-0.19871196960199125,1.9916722969136573,-0.1959661841392517,-0.12059099972248077,-0.9731675386428833, 162, 111, 0, 136
1731649461853,9i,4.832386832633567,1.4s : 0.3s,-256.75380395190336,7.963743576622667,2.181347170618542,0.3776679194742508,1.3799846172332764,1.145321011543274,-2.7997984886169434,0.09447285532951355,0.3578284978866577,-0.07527750730514526,0.13862172553505656,-0.1834154550692864,1.9664880447830904,-0.18063920736312866,-0.13817819952964783,-0.9737947583198547, 162, 111, 0, 136
1731649461863,9i,4.832386832633567,1.4s : 0.3s,-256.75380395190336,7.963898613768539,2.1895971108512597,0.47443623285921344,1.6557517051696777,1.022749900817871,-2.716888427734375,0.13379903137683868,0.4505748748779297,-0.06457430124282837,0.15835871331391818,-0.16899434606652786,1.9417706855955872,-0.1660865992307663,-0.1576976627111435,-0.9734200835227966, 162, 111, 0, 136
1731649461873,9i,4.832386832633567,1.4s : 0.3s,-256.75380395190336,7.965210645154883,2.1916585865143814,0.5298421388772202,1.8848168849945068,0.9360852837562561,-2.5823535919189453,0.1626758575439453,0.5001276731491089,-0.06435501575469971,0.18016262256859547,-0.15528924178425196,1.918308049466779,-0.15216253697872162,-0.1791895627975464,-0.9719761610031128, 162, 111, 0, 136
1731649461883,9i,4.832386832633567,1.4s : 0.3s,-256.75380395190336,7.9669677737445745,2.1830831313329218,0.4787367720470226,1.8994941711425781,0.8046873211860657,-2.4972426891326904,0.1600281000137329,0.4362661838531494,-0.11511611938476562,0.20274321635464793,-0.14231000880754052,1.8957980281213282,-0.13892516493797302,-0.20135711133480072,-0.9696159362792969, 162, 111, 0, 136
1731649461893,9i,4.832386832633567,1.4s : 0.3s,-256.75380395190336,7.968336403094782,2.142249429392082,0.37315829374523957,1.712302327156067,0.6478549838066101,-2.475172519683838,0.13581585884094238,0.2924771308898926,-0.18777191638946533,0.224080932958391,-0.13026084801347546,1.873250824092722,-0.1266452968120575,-0.2222103625535965,-0.9667385816574097, 162, 111, 0, 136
1731649461903,9i,4.832386832633567,1.4s : 0.3s,-256.75380395190336,7.968956425692505,2.0676341636884517,0.31245840866857805,1.4000176191329956,0.47891494631767273,-2.4270870685577393,0.13305920362472534,0.15633359551429749,-0.23555320501327515,0.24256762594811837,-0.11935701112298926,1.8504171100815574,-0.11558786779642105,-0.2401958703994751,-0.9638181328773499, 162, 111, 0, 136
1731649461913,9i,4.832386832633567,1.4s : 0.3s,-256.75380395190336,7.968890836537043,1.9740382840298492,0.31818057926318444,1.0654457807540894,0.3251195251941681,-2.4058480262756348,0.16316629946231842,0.06975087523460388,-0.26410311460494995,0.2576664212499309,-0.10967204841409504,1.8272633207078297,-0.10583900660276413,-0.254824697971344,-0.9611776471138, 162, 111, 0, 136
1731649461923,9i,4.832386832633567,1.4s : 0.3s,-256.75380395190336,7.968650973325435,1.8556905366252323,0.3415821174732239,0.6599119305610657,0.09280772507190704,-2.3407788276672363,0.1898956149816513,0.024670511484146118,-0.28285926580429077,0.26861162678505296,-0.10152600552610223,1.80391389233606,-0.09771724045276642,-0.26539310812950134,-0.9591755867004395, 162, 111, 0, 136
1731649461933,9i,4.832386832633567,1.4s : 0.3s,-256.75380395190336,7.968311379700283,1.7393662031403712,0.34493319500309355,0.4371808171272278,-0.0727921575307846,-2.2344977855682373,0.21037557721138,0.038771986961364746,-0.2705878019332886,0.2761711866908586,-0.09525778328477581,1.7810204872660007,-0.09150959551334381,-0.27267393469810486,-0.9577447175979614, 162, 111, 0, 136
1731649461943,9i,4.832386832633567,1.4s : 0.3s,-256.75380395190336,7.967941005965674,1.6365031127415546,0.3424594032959142,0.3842145502567291,-0.20144519209861755,-2.106046438217163,0.22174867987632751,0.06495463848114014,-0.2527585029602051,0.2822015899559073,-0.09065773139819885,1.7591044374618447,-0.08695251494646072,-0.27847081422805786,-0.9565005302429199, 162, 111, 0, 136
1731649461953,9i,4.832386832633567,1.4s : 0.3s,-256.75380395190336,7.9675506776172895,1.5444846396619265,0.3342074979682526,0.39815545082092285,-0.26474738121032715,-1.9661160707473755,0.2059272974729538,0.09381014108657837,-0.2459436058998108,0.28789513477413736,-0.08723275734979902,1.738544151599013,-0.0835365355014801,-0.283934623003006,-0.9551977515220642, 162, 111, 0, 136
1731649461963,9i,4.832386832633567,1.4s : 0.3s,-256.75380395190336,7.967170628030939,1.4592082609521084,0.32741661207418105,0.4521867334842682,-0.3147474229335785,-1.8217172622680664,0.18741337954998016,0.13956433534622192,-0.2293461561203003,0.2937333326288733,-0.08462833385423155,1.7193947590898002,-0.08090701699256897,-0.28952765464782715,-0.953744113445282, 162, 111, 0, 136
1731649461973,9i,4.832386832633567,1.4s : 0.3s,-256.75380395190336,7.966827111088414,1.3742362518453812,0.307866342688638,0.4811067283153534,-0.3302168548107147,-1.6694717407226562,0.16925683617591858,0.157015860080719,-0.20366597175598145,0.2999197615863825,-0.08269081970665526,1.701712434732418,-0.07890951633453369,-0.2954435646533966,-0.9520958065986633, 162, 111, 0, 136
1731649461983,9i,4.832386832633567,1.4s : 0.3s,-256.75380395190336,7.9666941493432475,1.2930204604685582,0.2808644181839508,0.4016004502773285,-0.4132203757762909,-1.5618512630462646,0.17138847708702087,0.1408514678478241,-0.17225468158721924,0.3056051735061295,-0.08166135596898852,1.6855374426728704,-0.07779105752706528,-0.3008703589439392,-0.9504870176315308, 162, 111, 0, 136
1731649461993,9i,4.832386832633567,1.4s : 0.3s,-256.75380395190336,7.9670669607522555,1.1984757631405127,0.2534196809469585,0.25874894857406616,-0.3990066647529602,-1.3962421417236328,0.2049405872821808,0.09501954913139343,-0.11485719680786133,0.3099979947181131,-0.08056798186937042,1.6704598117799982,-0.0766446590423584,-0.30505672097206116,-0.9492449760437012, 162, 111, 0, 136
1731649462003,9i,4.832386832633567,1.4s : 0.3s,-256.75380395190336,7.9678610622426955,1.1099960590955165,0.20674358471709467,0.09786553680896759,-0.47020867466926575,-1.2940326929092407,0.19806739687919617,-0.010418623685836792,-0.05834096670150757,0.3127070689041309,-0.08095309909176582,1.6567266684094426,-0.07694311439990997,-0.3076355457305908,-0.9483881592750549, 162, 111, 0, 136
1731649462013,9i,4.832386832633567,1.4s : 0.3s,-256.75380395190336,7.9689401955477654,1.0639367115570466,0.22734722689373518,0.16476620733737946,-0.4360399544239044,-1.3569567203521729,0.21544206142425537,-0.0694672167301178,0.02111363410949707,0.3150844292945515,-0.08133238741286168,1.6431041218408455,-0.07724318653345108,-0.3098967373371124,-0.9476273059844971, 162, 111, 0, 136
1731649462023,9i,4.832386832633567,1.4s : 0.3s,-256.75380395190336,7.970122327779153,1.0126555150878096,0.18686652414935137,0.2112588733434677,-0.35270777344703674,-1.2664248943328857,0.17123931646347046,-0.06444582343101501,-0.037985920906066895,0.3180241370017567,-0.08101005446465943,1.6294989652322323,-0.07686367630958557,-0.3126903772354126,-0.9467400312423706, 162, 111, 0, 136
1731649462033,9i,4.832386832633567,1.4s : 0.3s,-256.75380395190336,7.971221502351559,0.9591771891851106,0.15706193997014012,0.2261928766965866,-0.31959325075149536,-1.1802879571914673,0.13620123267173767,0.029350250959396362,-0.07249993085861206,0.3212711631490302,-0.08046402006523024,1.6170096425418905,-0.07626470178365707,-0.3157729506492615,-0.9457648396492004, 162, 111, 0, 136
1731649462043,9i,4.832386832633567,1.4s : 0.3s,-256.75380395190336,7.972359774551256,0.9175144320336979,0.186737745451626,0.1201133131980896,-0.31749334931373596,-1.1772562265396118,0.15678420662879944,0.07265874743461609,-0.07078421115875244,0.3239622932765761,-0.07982489032184963,1.604900158483049,-0.07559218257665634,-0.3183252215385437,-0.9449629187583923, 162, 111, 0, 136
1731649462053,9i,4.832386832633567,1.4s : 0.3s,-256.75380395190336,7.973593359774153,0.8850776705451162,0.19634239186042488,0.09626444429159164,-0.3315180540084839,-1.1585688591003418,0.17713132500648499,0.06839153170585632,-0.049974262714385986,0.32589998830354594,-0.07917374158070985,1.5927518680361143,-0.0749279335141182,-0.32016152143478394,-0.9443952441215515, 162, 111, 0, 136
