timestamp,club,max_speed,tempo,speed,l.speed,t.spped,acc,rotation.x,rotation.y,rotation.z,userAcceleration.x,userAcceleration.y,userAcceleration.z,pitch,roll,yaw,gravity.x,gravity.y,gravity.z
1727683734500,9i,14.776758754731278,2.6s : 4.2s,0.02113508099134527,0.00032868044205536825,0.021132525113618926,0.04897768708672982,-0.029347416013479233,-0.0155327832326293,0.09957721829414368,0.008574992418289185,0.04669879376888275,-0.012021064758300781,-0.18700956245696743,-0.1665621250787404,-0.015655795060666753,-0.162902370095253,0.18592143058776855,-0.9689664840698242
1727683734510,9i,14.776758754731278,2.6s : 4.2s,0.035990451036439684,0.0007402986013423887,0.03598283651669519,0.03976067549352326,-0.04965701699256897,-0.027055570855736732,0.09022697061300278,0.013245120644569397,0.03665383160114288,-0.007872402667999268,-0.1874491755823227,-0.16654561257405287,-0.014756840232944813,-0.1628728061914444,0.18635335564613342,-0.9688884615898132
1727683734520,9i,14.776758754731278,2.6s : 4.2s,0.05090849581071185,0.001164753103604299,0.05089516967175677,0.02450690506764426,-0.09109500050544739,-0.029822329059243202,0.09069301933050156,0.006612688302993774,0.021403253078460693,-0.009937882423400879,-0.18829507725351885,-0.16627868417706002,-0.013872059048515323,-0.16258803009986877,0.1871843785047531,-0.9687761068344116
1727683734530,9i,14.776758754731278,2.6s : 4.2s,0.06694283855010971,0.0015832629766463135,0.06692411307961306,0.018717437256028733,-0.13112197816371918,-0.029739592224359512,0.08867277950048447,-0.003098517656326294,0.015153124928474426,-0.010541558265686035,-0.1896561053421786,-0.16600045287106055,-0.013090456256116994,-0.1622762382030487,0.18852117657661438,-0.9685691595077515
1727683734540,9i,14.776758754731278,2.6s : 4.2s,0.07956510194525708,0.0019864684129230394,0.07954030041936987,0.015526032684572687,-0.13737188279628754,-0.03441343829035759,0.08459920436143875,-0.007183820009231567,0.012364163994789124,-0.006047964096069336,-0.19119107612820427,-0.16588087920332553,-0.012389065181533617,-0.16211244463920593,0.19002839922904968,-0.9683020114898682
1727683734550,9i,14.776758754731278,2.6s : 4.2s,0.08709468763907768,0.0023611031769015145,0.08706267746133549,0.009198161081029825,-0.12941129505634308,-0.03766196593642235,0.08192373067140579,-0.0060341209173202515,0.005303815007209778,-0.004479408264160156,-0.19249220625639887,-0.16580255935851293,-0.011716236731997929,-0.16199566423892975,0.19130566716194153,-0.9680700302124023
1727683734560,9i,14.776758754731278,2.6s : 4.2s,0.10900764210774698,0.002704830347419379,0.10897407916877451,0.008302312894220615,-0.08718368411064148,-0.14096198976039886,0.20377932488918304,-0.0008414387702941895,0.0005837082862854004,-0.008238911628723145,-0.19392785471120594,-0.1661382132900927,-0.010763725060436893,-0.16227500140666962,0.1927146017551422,-0.9677436947822571
1727683734570,9i,14.776758754731278,2.6s : 4.2s,0.33528846493897,0.003038540949744249,0.3352746963163603,0.015858653004917372,-0.004701592959463596,-0.831398069858551,1.0618661642074585,0.012539640069007874,0.0070176273584365845,-0.006708741188049316,-0.19570631568499117,-0.1663696811187756,-0.009840539296900383,-0.16244198381900787,0.19445940852165222,-0.9673665761947632
1727683734580,9i,14.776758754731278,2.6s : 4.2s,0.5301480525587023,0.0037510005890638233,0.5301347825094722,0.39645155970020834,-0.016163839027285576,-1.0032312870025635,1.0838236808776855,-0.3874472379684448,-0.042948052287101746,-0.07220762968063354,-0.19625935793550386,-0.16595368790000106,-0.010224911354202507,-0.16202175617218018,0.19500187039375305,-0.967327892780304
1727683734590,9i,14.776758754731278,2.6s : 4.2s,0.44895503601955616,0.005151573185007106,0.4489254789617542,0.039899729188577725,-0.09558668732643127,-0.2504602372646332,0.28577741980552673,-0.006137967109680176,0.03066718578338623,0.02477574348449707,-0.19731040155561663,-0.16640665019308712,-0.009208250820625657,-0.16242587566375732,0.19603262841701508,-0.9670517444610596
1727683734600,9i,14.776758754731278,2.6s : 4.2s,0.3235650661279339,0.006281058056174674,0.32350409630802074,0.02373462442179299,-0.10710646212100983,0.007856251671910286,0.04824982210993767,0.005825653672218323,0.01927688717842102,0.012561678886413574,-0.19850053299979473,-0.16709461591304794,-0.008173072410093758,-0.16305221617221832,0.1971995234489441,-0.9667090177536011
1727683734610,9i,14.776758754731278,2.6s : 4.2s,0.24677278508627454,0.007277963868817933,0.2466654388056033,0.022036671018670077,-0.09698232263326645,-0.06746912747621536,0.052003346383571625,-0.01888403296470642,0.00481124222278595,-0.010288834571838379,-0.19954378567043166,-0.1674873361820648,-0.007815790415799552,-0.16339746117591858,0.19822219014167786,-0.9664415121078491
1727683734620,9i,14.776758754731278,2.6s : 4.2s,0.1952071134378233,0.008158773491797429,0.1950365390172743,0.016921905259268153,-0.11365850269794464,-0.0565032958984375,0.06095556169748306,-0.014746353030204773,0.007798910140991211,-0.0028412938117980957,-0.20071461959553324,-0.16803550523583027,-0.00740535213341782,-0.16388827562332153,0.1993696540594101,-0.9661223292350769
1727683734630,9i,14.776758754731278,2.6s : 4.2s,0.16289845622752536,0.008894257764155852,0.16265546169783462,0.011646824486875571,-0.12751486897468567,-0.059675831347703934,0.06525313854217529,-0.0014465004205703735,0.010691717267036438,0.004386723041534424,-0.20201370787419207,-0.16854845138006055,-0.006956507185608362,-0.16434024274349213,0.20064249634742737,-0.9657819867134094
1727683734640,9i,14.776758754731278,2.6s : 4.2s,0.1419811453281111,0.00956711960373395,0.14165844786376156,0.014464818708528344,-0.1374410092830658,-0.058046773076057434,0.057681240141391754,-0.0010416805744171143,0.011293604969978333,0.008977770805358887,-0.20343993116607223,-0.1690650592807316,-0.0065477039435797735,-0.16479083895683289,0.20203951001167297,-0.9654139280319214
1727683734650,9i,14.776758754731278,2.6s : 4.2s,0.1291219853840291,0.010187591377342405,0.1287194627530807,0.017406071648174697,-0.1429082751274109,-0.05563199892640114,0.05385370925068855,-0.003239929676055908,0.012906208634376526,0.011220693588256836,-0.20494077081792944,-0.16955978837062066,-0.006219410050124074,-0.1652170717716217,0.2035091668367386,-0.9650322794914246
1727683734660,9i,14.776758754731278,2.6s : 4.2s,0.12112299461591274,0.010759492200665997,0.12064415921340839,0.019134457828511555,-0.12844358384609222,-0.06815098971128464,0.05137350782752037,-0.001452118158340454,0.015334144234657288,0.01135265827178955,-0.20638857372697747,-0.17013612756563576,-0.005924984206077922,-0.16572317481040955,0.20492646098136902,-0.964645504951477
1727683734670,9i,14.776758754731278,2.6s : 4.2s,0.11234309267628637,0.011284188022501944,0.11177494161369751,0.025424778442216633,-0.1042691320180893,-0.07445753365755081,0.049633998423814774,0.0013589411973953247,0.01947067677974701,0.016293108463287354,-0.20761888527043604,-0.17076954307131598,-0.0056112781823964486,-0.16629119217395782,0.2061305046081543,-0.9642911553382874
1727683734680,9i,14.776758754731278,2.6s : 4.2s,0.11065749791777435,0.011779195265334018,0.11002877989109652,0.02669190032071265,-0.11850345879793167,-0.08264382183551788,0.027908731251955032,-0.0013737380504608154,0.024095386266708374,0.011400997638702393,-0.2087716295719796,-0.1715224214488765,-0.00542039012588814,-0.1669764667749405,0.20725835859775543,-0.9639309048652649
1727683734700,9i,14.776758754731278,2.6s : 4.2s,0.10919393771119192,0.012244051143102532,0.10850529592826678,0.01823248308722337,-0.1280369758605957,-0.06836874783039093,0.027986660599708557,0.0006638616323471069,0.01643209159374237,-0.007872045040130615,-0.21164589391984487,-0.1729203592230495,-0.005474750496434988,-0.1682206243276596,0.21006935834884644,-0.9631057381629944
1727683734690,9i,14.776758754731278,2.6s : 4.2s,0.1087766529543596,0.012686459031988635,0.10803431855286943,0.022402473630084237,-0.15409041941165924,-0.06320513784885406,0.016299111768603325,-0.0010050684213638306,0.022097378969192505,0.003544926643371582,-0.21015909113703715,-0.17227284684690328,-0.005439241474896998,-0.16765032708644867,0.2086154967546463,-0.9635211229324341
1727683734709,9i,14.776758754731278,2.6s : 4.2s,0.12184127556737125,0.013088996223684304,0.12113618208339107,0.019762968307541297,-0.028206052258610725,-0.19569331407546997,0.18623417615890503,0.008289352059364319,0.016681939363479614,-0.006601095199584961,-0.21260778181934092,-0.17379241004133017,-0.004897394363680547,-0.16902542114257812,0.211009681224823,-0.9627591967582703
1727683734719,9i,14.776758754731278,2.6s : 4.2s,0.3501763947942929,0.013735865652576847,0.3499068925670126,0.05767116446898777,0.08264563232660294,-0.9106612801551819,1.031191349029541,-0.049662038683891296,0.02285557985305786,-0.01836484670639038,-0.21280143927895576,-0.17472066574231845,-0.00438556795586575,-0.1699119210243225,0.21119897067546844,-0.9625616669654846
1727683734729,9i,14.776758754731278,2.6s : 4.2s,0.5382330939157449,0.014013890364597216,0.538050624256644,0.09376880382098048,0.018286680802702904,-1.0384762287139893,1.02509605884552,0.06679438054561615,0.05547177791595459,-0.03541159629821777,-0.2126994246351589,-0.17432188896375445,-0.005497681318977169,-0.16953180730342865,0.21109925210475922,-0.9626505374908447
1727683734739,9i,14.776758754731278,2.6s : 4.2s,0.4647704443638359,0.014013543129305996,0.4645591313956928,0.09876905717370935,-0.08246815949678421,-0.3514616787433624,0.26124802231788635,0.07661794126033783,0.06185999512672424,0.007639288902282715,-0.21354779795401038,-0.1752230367727465,-0.005170912875793219,-0.17036794126033783,0.21192844212055206,-0.9623206853866577
1727683734749,9i,14.776758754731278,2.6s : 4.2s,0.3349315464662828,0.014124267893996931,0.3346335994408726,0.024542591354752803,-0.09827908128499985,-0.062071699649095535,-0.010148873552680016,-0.006329715251922607,0.022825077176094055,0.006425678730010986,-0.214581410371227,-0.1765942838383944,-0.004605428398549096,-0.1716487854719162,0.21293845772743225,-0.961870014667511
1727683734759,9i,14.776758754731278,2.6s : 4.2s,0.2527720843322971,0.014282806736583166,0.2523682389870392,0.012121766346173214,-0.10122346878051758,-0.10853960365056992,-0.011421332135796547,-0.011338979005813599,-0.004132822155952454,0.0011333823204040527,-0.21551404357883155,-0.17765754104540918,-0.004860414367399213,-0.1726362258195877,0.21384960412979126,-0.961491048336029
1727683734769,9i,14.776758754731278,2.6s : 4.2s,0.19742668153890783,0.014467094478901564,0.19689590590158004,0.017292196335013697,-0.12265625596046448,-0.08980435132980347,0.0014042186085134745,-0.012388721108436584,-0.001359894871711731,0.011987090110778809,-0.2166118502479382,-0.17867244499035717,-0.0050921552984855125,-0.17357014119625092,0.21492189168930054,-0.9610837697982788
1727683734779,9i,14.776758754731278,2.6s : 4.2s,0.16929462394086725,0.014663911050129918,0.168658351136235,0.018854262209785283,-0.13583730161190033,-0.10599637031555176,0.04408350586891174,-0.002597898244857788,0.00828862190246582,0.016734182834625244,-0.2179350032191366,-0.17959321598627587,-0.005215736408282189,-0.1744040548801422,0.21621394157409668,-0.9606428742408752
1727683734789,9i,14.776758754731278,2.6s : 4.2s,0.14820284869227765,0.01485999119271972,0.1474559765565928,0.026437383834052284,-0.12886396050453186,-0.09645728021860123,0.030868833884596825,0.009903118014335632,0.015190660953521729,0.019238173961639404,-0.21922715674874046,-0.18036460224140893,-0.0053888298434609395,-0.17509476840496063,0.21747533977031708,-0.9602324366569519
1727683734799,9i,14.776758754731278,2.6s : 4.2s,0.11496671189764304,0.015046573440136964,0.11397782886274954,0.025000523698410337,-0.12579786777496338,-0.005421381443738937,-0.06918346136808395,0.011155098676681519,0.010859966278076172,0.019561469554901123,-0.22038125931427838,-0.18111181744762492,-0.005571154498537097,-0.17576688528060913,0.21860167384147644,-0.9598538279533386
1727683734809,9i,14.776758754731278,2.6s : 4.2s,0.089110672515305,0.015219637321105184,0.08780133595762626,0.020931356209715927,-0.13414540886878967,0.1456974744796753,-0.22703921794891357,0.008330807089805603,0.005285188555717468,0.018460392951965332,-0.22146581370845317,-0.18179105534471607,-0.005719714992262716,-0.1763758510351181,0.21965986490249634,-0.9595004320144653
1727683734819,9i,14.776758754731278,2.6s : 4.2s,0.14262236587654048,0.01538593891674753,0.14179002832312254,0.011929023643277971,-0.1751338541507721,0.31819599866867065,-0.40336042642593384,0.0004788339138031006,0.0013778060674667358,0.011839509010314941,-0.22271840501890464,-0.18240641512149994,-0.0057741035899290805,-0.1769161969423294,0.22088170051574707,-0.9591203927993774
1727683734829,9i,14.776758754731278,2.6s : 4.2s,0.24447564647586054,0.015553385660648776,0.243980396577842,0.017401721850977048,-0.2023644596338272,0.46980541944503784,-0.5541501045227051,-0.0135306715965271,-0.003932163119316101,0.010211706161499023,-0.22429876798019227,-0.1829322328273273,-0.0057071713875444805,-0.1773567795753479,0.2224227488040924,-0.9586827754974365
1727683734839,9i,14.776758754731278,2.6s : 4.2s,0.3366667981029774,0.015737900726771812,0.3362987532323384,0.03826381029290305,-0.20050610601902008,0.5196797251701355,-0.61795574426651,-0.03652159869670868,-0.010241225361824036,0.005040764808654785,-0.22605938816259963,-0.1834091887090546,-0.005535645426852737,-0.17774231731891632,0.22413891553878784,-0.9582116007804871
1727683734849,9i,14.776758754731278,2.6s : 4.2s,0.38359215214178777,0.016032664067963366,0.3832569541021432,0.0581578748011004,-0.15673187375068665,0.46695300936698914,-0.5505450963973999,-0.05666498839855194,-0.008434578776359558,0.010013759136199951,-0.2277287306681449,-0.18382929008359986,-0.005216184046160948,-0.17807619273662567,0.22576548159122467,-0.9577676057815552
1727683734859,9i,14.776758754731278,2.6s : 4.2s,0.3580318191289609,0.016509650895533756,0.35765096803461977,0.07200510888243644,-0.10147900134325027,0.2757524251937866,-0.3337131440639496,-0.07125645875930786,-0.0018617957830429077,0.01018756628036499,-0.22911117513664128,-0.18412386102216688,-0.004727996630387645,-0.17830100655555725,0.22711201012134552,-0.9574073553085327
1727683734869,9i,14.776758754731278,2.6s : 4.2s,0.24889470602191083,0.01714564866674057,0.2483034462457783,0.07005990207889784,-0.06025899201631546,-0.02985268644988537,0.014137957245111465,-0.06908728182315826,0.004090651869773865,0.010890543460845947,-0.23025356268246433,-0.18422399469545397,-0.004121862414339016,-0.17834922671318054,0.22822439670562744,-0.9571338295936584
1727683734879,9i,14.776758754731278,2.6s : 4.2s,0.08907686468277687,0.017832273520883762,0.08727369502198316,0.05335760314293118,-0.04505793750286102,-0.36403384804725647,0.3932783603668213,-0.05085724592208862,0.009384185075759888,0.013134360313415527,-0.23128936065110547,-0.18402575358727147,-0.0035824121813248923,-0.17811612784862518,0.22923274338245392,-0.956936240196228
1727683734889,9i,14.776758754731278,2.6s : 4.2s,0.1640763577749312,0.01850736472206973,0.16302922631151606,0.02243768569624859,-0.059642206877470016,-0.6399814486503601,0.702413022518158,-0.014565423130989075,0.011551991105079651,0.012563824653625488,-0.23240144058943654,-0.1837623635171275,-0.003254890457454782,-0.17781738936901093,0.23031505942344666,-0.956731915473938
1727683734899,9i,14.776758754731278,2.6s : 4.2s,0.3558691375382663,0.019112301703739697,0.3553555444562737,0.02044310304953855,-0.0898701548576355,-0.8041581511497498,0.9068415760993958,0.01517130434513092,0.006759777665138245,0.011918783187866211,-0.23376683078127938,-0.18350076209566457,-0.003054305460306388,-0.17750954627990723,0.23164352774620056,-0.9564683437347412
1727683734909,9i,14.776758754731278,2.6s : 4.2s,0.5066965958718286,0.019602846857232733,0.506317260878188,0.049838474921569384,-0.09413733333349228,-0.8299326300621033,0.9733303189277649,0.04676361382007599,0.00731147825717926,0.015607059001922607,-0.23523905840489925,-0.18334954252895524,-0.0027907459442679133,-0.1773025393486023,0.23307546973228455,-0.9561588168144226
1727683734919,9i,14.776758754731278,2.6s : 4.2s,0.5849706004529475,0.019665493658934777,0.5846399505280427,0.06960084474689565,-0.0840761810541153,-0.7211723327636719,0.885166347026825,0.06661325693130493,0.008692175149917603,0.018204331398010254,-0.23656539673633306,-0.18324691652461145,-0.0024010294702159155,-0.17714792490005493,0.2343650758266449,-0.9558721780776978
1727683734929,9i,14.776758754731278,2.6s : 4.2s,0.5807847170392855,0.019478431304958427,0.5804579900908428,0.07259165059245115,-0.11841437220573425,-0.5020667314529419,0.6648032069206238,0.0673186331987381,0.01804928481578827,0.020297110080718994,-0.2378490716262971,-0.18319628111052275,-0.001991502717294168,-0.1770445704460144,0.23561279475688934,-0.9555845260620117
1727683734939,9i,14.776758754731278,2.6s : 4.2s,0.4962579438732953,0.019243839381761618,0.49588468569134064,0.06603964620229763,-0.17216016352176666,-0.21646349132061005,0.3723450005054474,0.05436341464519501,0.02538420259952545,0.027595221996307373,-0.23940845054088064,-0.18310631027611637,-0.0016984521594747377,-0.1768914759159088,0.23712798953056335,-0.9552380442619324
1727683734949,9i,14.776758754731278,2.6s : 4.2s,0.3568526417900965,0.019044729693616903,0.3563440840304045,0.0509257406131663,-0.21894198656082153,0.07494980096817017,0.05299926921725273,0.03831939399242401,0.019728288054466248,0.027126550674438477,-0.24127274045756641,-0.1829438570625469,-0.0014781383205922712,-0.17665556073188782,0.23893868923187256,-0.9548304080963135
1727683734959,9i,14.776758754731278,2.6s : 4.2s,0.20458280218766284,0.018887676947197972,0.2037090538255349,0.03575009069415848,-0.2572214603424072,0.34404170513153076,-0.23488683998584747,0.018396273255348206,0.0050453245639801025,0.030235588550567627,-0.2434145303602236,-0.1826951811344456,-0.0012729022821851945,-0.1763247400522232,0.2410178929567337,-0.9543688893318176
1727683734969,9i,14.776758754731278,2.6s : 4.2s,0.15458931446746654,0.01877906819455978,0.15344446143561302,0.028379022837027444,-0.2825107276439667,0.5229830145835876,-0.4505109190940857,-0.006116420030593872,-0.007766932249069214,0.02660137414932251,-0.24578400939896014,-0.18236511846873138,-0.0010806031619492171,-0.17590565979480743,0.24331684410572052,-0.953862726688385
1727683734979,9i,14.776758754731278,2.6s : 4.2s,0.2470650494135531,0.018737640143557235,0.24635348482124617,0.04315593273558895,-0.2689485549926758,0.6068190932273865,-0.5637144446372986,-0.0325411856174469,-0.010787025094032288,0.026213467121124268,-0.24822196848259548,-0.18201796614768948,-0.0008609284483337938,-0.1754666119813919,0.2456808090209961,-0.9533374905586243
1727683734989,9i,14.776758754731278,2.6s : 4.2s,0.3353631879323711,0.018832220041310622,0.3348340115765997,0.05694296614407721,-0.23257537186145782,0.5824941992759705,-0.5678757429122925,-0.0526711642742157,-0.0003193765878677368,0.0216367244720459,-0.2504419787848681,-0.18163779753903478,-0.0005658967560059529,-0.1750052124261856,0.24783217906951904,-0.9528653621673584
1727683734999,9i,14.776758754731278,2.6s : 4.2s,0.3785944987091391,0.01925591638751024,0.37810448838502503,0.06873786003884758,-0.21834689378738403,0.49116379022598267,-0.4822077453136444,-0.06505447626113892,0.017505347728729248,0.013651788234710693,-0.2525032438490557,-0.18130965871029928,-0.00023887748382810857,-0.1746000498533249,0.24982860684394836,-0.9524182081222534
1727683735009,9i,14.776758754731278,2.6s : 4.2s,0.3637575023158123,0.019943962623889352,0.3632103506866167,0.06758078322601974,-0.16868427395820618,0.3336500823497772,-0.3173479735851288,-0.0611899197101593,0.02858966588973999,0.0023636817932128906,-0.25438809747934926,-0.1809867375875004,6.340408753691355e-05,-0.1742074191570282,0.251653254032135,-0.9520096778869629
1727683735019,9i,14.776758754731278,2.6s : 4.2s,0.29740754567810024,0.02067727917907381,0.296687880359178,0.05387475185515868,-0.10286770761013031,0.14309370517730713,-0.1178969070315361,-0.0457158237695694,0.028411775827407837,-0.0023072361946105957,-0.2558334484579041,-0.1806886987719283,0.00040182679912825916,-0.17385812103748322,0.2530518174171448,-0.9517027735710144
1727683735029,9i,14.776758754731278,2.6s : 4.2s,0.19702079494097874,0.021424831610607528,0.1958524195143688,0.04048674356095249,-0.059987884014844894,-0.052814286202192307,0.08474035561084747,-0.026194840669631958,0.02950260043144226,-0.009088635444641113,-0.2568352972928631,-0.18051741373241456,0.0007514944243796575,-0.17364950478076935,0.25402092933654785,-0.9514826536178589
1727683735039,9i,14.776758754731278,2.6s : 4.2s,0.10307733636277258,0.022177300083844012,0.10066332317500397,0.041287090065465194,-0.08361358195543289,-0.21008379757404327,0.2521003186702728,-0.012599214911460876,0.03702890872955322,-0.013219058513641357,-0.25782546255361005,-0.18046877273538822,0.0010240432910832919,-0.17355799674987793,0.2549785077571869,-0.9512431621551514
1727683735049,9i,14.776758754731278,2.6s : 4.2s,0.10573108690673365,0.02291447204746308,0.10321816559726925,0.03883740057285456,-0.11815451830625534,-0.30804523825645447,0.3680378496646881,0.0020337700843811035,0.037302106618881226,-0.010618865489959717,-0.2591843648051352,-0.1804860063166417,0.0011644554234661487,-0.1735120266675949,0.2562922537326813,-0.9508984684944153
1727683735059,9i,14.776758754731278,2.6s : 4.2s,0.17631818525071896,0.023591880778894937,0.1747327262175614,0.026884839665513968,-0.1350077986717224,-0.3502616584300995,0.4200262129306793,0.014490172266960144,0.020823538303375244,-0.008899986743927002,-0.2608097087995974,-0.18052225752171497,0.0012655451018810037,-0.17347148060798645,0.25786295533180237,-0.950481116771698
1727683735069,9i,14.776758754731278,2.6s : 4.2s,0.23026312823326295,0.024174879413437933,0.2289905749787834,0.021312835067406305,-0.1540672481060028,-0.3241911828517914,0.3992447555065155,0.020770758390426636,0.0016183555126190186,-0.00449371337890625,-0.2625573197553444,-0.1806174246662915,0.0013405364257229636,-0.17348071932792664,0.259551078081131,-0.9500198364257812
1727683735079,9i,14.776758754731278,2.6s : 4.2s,0.2537857585703375,0.024666430822566473,0.25258420070067167,0.021318254505525394,-0.16498887538909912,-0.2621269226074219,0.3382427990436554,0.020761296153068542,-0.003787100315093994,0.0030156970024108887,-0.2644261915345762,-0.18074775884450292,0.0014549054062305941,-0.17351703345775604,0.261355459690094,-0.9495183825492859
1727683735089,9i,14.776758754731278,2.6s : 4.2s,0.24341015219255357,0.025090180530814847,0.2421135787834569,0.02472100958673046,-0.14855197072029114,-0.15706372261047363,0.24379371106624603,0.017817795276641846,-0.001052945852279663,0.017103970050811768,-0.2661783942034456,-0.18075591177494038,0.0017316442325793944,-0.17344218492507935,0.26304635405540466,-0.9490650296211243
1727683735099,9i,14.776758754731278,2.6s : 4.2s,0.2080506464499656,0.025468791568618143,0.20648586427231008,0.018127701799290658,-0.13891293108463287,-0.06433005630970001,0.12239272147417068,0.010342538356781006,0.0027636289596557617,0.014629006385803223,-0.26766342994727144,-0.18075134004804322,0.002071437129265653,-0.1733674257993698,0.26447880268096924,-0.9486805200576782
1727683735109,9i,14.776758754731278,2.6s : 4.2s,0.16617124125166874,0.025820043173597814,0.16415299811344852,0.019130617485717358,-0.1729375422000885,0.0215331818908453,0.017984792590141296,0.006191611289978027,0.006452232599258423,0.01691192388534546,-0.2692343335984083,-0.18079758435502796,0.00226503215237683,-0.17333637177944183,0.2659934461116791,-0.948262631893158
1727683735119,9i,14.776758754731278,2.6s : 4.2s,0.1387658069688042,0.026135099205142766,0.13628244851498955,0.017868959746354673,-0.19019775092601776,0.0747428759932518,-0.04101141542196274,0.007236301898956299,0.000540316104888916,0.01632922887802124,-0.2710146371819125,-0.18084689939469625,0.002435763829380332,-0.1732976883649826,0.2677091658115387,-0.9477867484092712
1727683735129,9i,14.776758754731278,2.6s : 4.2s,0.13251688536373932,0.026391491292946222,0.12986228895965438,0.02062310025817633,-0.19133399426937103,0.08347271382808685,-0.05975893512368202,0.006382763385772705,-0.014429926872253418,0.01327967643737793,-0.27288529586174637,-0.18097553197682767,0.0026914998074421665,-0.1733291745185852,0.26951107382774353,-0.9472701549530029
1727683735139,9i,14.776758754731278,2.6s : 4.2s,0.12726261800430996,0.02659410523872718,0.1244529128138929,0.02919726454766632,-0.17283008992671967,0.08603494614362717,-0.049422942101955414,-0.0009926706552505493,-0.022155404090881348,0.01899033784866333,-0.27469678309924883,-0.18107900856583703,0.0030388193181340173,-0.17333897948265076,0.27125510573387146,-0.946770429611206
1727683735149,9i,14.776758754731278,2.6s : 4.2s,0.12312655776176469,0.026764071688504663,0.12018250160865249,0.03359595026965841,-0.15337009727954865,0.05807938426733017,-0.020115122199058533,-0.014587193727493286,-0.02167949080467224,0.02111637592315674,-0.276342904788084,-0.18114923915555173,0.003430824095670978,-0.1733247935771942,0.27283912897109985,-0.9463177919387817
1727683735159,9i,14.776758754731278,2.6s : 4.2s,0.12119573464268132,0.026921350716536147,0.1181678762235172,0.03897724653920637,-0.15657414495944977,0.03400228172540665,0.020915135741233826,-0.021757617592811584,-0.018925964832305908,0.02622288465499878,-0.2779221010540761,-0.1811037598427529,0.0038168772310979804,-0.17320393025875092,0.2743580639362335,-0.9459006786346436
1727683735169,9i,14.776758754731278,2.6s : 4.2s,0.12210189784405293,0.027077399321145834,0.11906169788442775,0.0336070345737276,-0.1798831969499588,0.02655554935336113,0.0668012723326683,-0.018240943551063538,-0.014600127935409546,0.024156510829925537,-0.2796918147848264,-0.18092974068077872,0.004231974176615256,-0.17295168340206146,0.27605944871902466,-0.9454516768455505
1727683735179,9i,14.776758754731278,2.6s : 4.2s,0.13326308232220047,0.027216439894801037,0.1304542621360692,0.024499863048916385,-0.21355512738227844,0.022395692765712738,0.09835226833820343,-0.008486330509185791,-0.015151023864746094,0.01728212833404541,-0.28175792655952636,-0.1805426353092285,0.004743411599633245,-0.17248289287090302,0.2780446708202362,-0.9449554681777954
1727683735189,9i,14.776758754731278,2.6s : 4.2s,0.15034908744728215,0.027329655724356708,0.1478443032863243,0.02507083565284965,-0.2583150267601013,0.03521570563316345,0.10814730823040009,-0.0069108158349990845,-0.01964634656906128,0.013957381248474121,-0.2842624178848719,-0.18008184742912037,0.005341907730810866,-0.17192219197750092,0.2804495394229889,-0.9443467855453491
1727683735199,9i,14.776758754731278,2.6s : 4.2s,0.17354763606891677,0.027398582312963077,0.17137123350302688,0.027096773335218847,-0.3132658898830414,0.03906583786010742,0.12005829811096191,-0.0022062957286834717,-0.026279449462890625,0.0062255859375,-0.2872795038504358,-0.1795368383430993,0.005976843773880201,-0.17125560343265533,0.2833442687988281,-0.943603515625
1727683735209,9i,14.776758754731278,2.6s : 4.2s,0.2025466698055695,0.027408996334565842,0.2006835827098424,0.03408574352046533,-0.37579599022865295,0.04429228976368904,0.13369707763195038,0.0013094693422317505,-0.03391733765602112,0.0031204819679260254,-0.2908861141884042,-0.17892887688369924,0.006640407654614624,-0.17049892246723175,0.28680121898651123,-0.942695677280426
1727683735219,9i,14.776758754731278,2.6s : 4.2s,0.2332094300989815,0.027328366431039888,0.2316026741540403,0.04177244720359417,-0.42881685495376587,0.053764622658491135,0.13645479083061218,0.001656457781791687,-0.04122823476791382,0.006513535976409912,-0.29509579008707515,-0.1782307507606927,0.00730284595677877,-0.1696252077817917,0.2908315062522888,-0.9416179060935974
1727683735229,9i,14.776758754731278,2.6s : 4.2s,0.26518547697528727,0.027121136746701018,0.2637949604146701,0.05251192975674827,-0.48343440890312195,0.07059810310602188,0.13226623833179474,-0.0018967539072036743,-0.049223095178604126,0.018193185329437256,-0.2998030895822255,-0.17747077651338194,0.00785242800396412,-0.16866599023342133,0.29533207416534424,-0.9403886198997498
1727683735239,9i,14.776758754731278,2.6s : 4.2s,0.3077970079337865,0.026833204912131967,0.30662514118567474,0.061547259375397394,-0.588879406452179,0.09508826583623886,0.1198766678571701,-0.00931885838508606,-0.0551643967628479,0.025653719902038574,-0.3052757816592227,-0.17655168959403736,0.008178613331841375,-0.16751523315906525,0.3005562126636505,-0.9389380216598511
1727683735249,9i,14.776758754731278,2.6s : 4.2s,0.36612525402722124,0.026526316434686094,0.3651630542277027,0.06785183001374022,-0.7365303635597229,0.12322652339935303,0.0920114815235138,-0.013914927840232849,-0.05766403675079346,0.03294092416763306,-0.3119673155392793,-0.17547997111311964,0.00805377816059193,-0.16615402698516846,0.30693158507347107,-0.9371157288551331
1727683735259,9i,14.776758754731278,2.6s : 4.2s,0.4363878861172331,0.02619869917589541,0.43560075219328775,0.07907098664814596,-0.8777708411216736,0.16945260763168335,0.08346433192491531,-0.014324560761451721,-0.06725603342056274,0.03903400897979736,-0.3200684366211826,-0.1742060618570553,0.007475202275808865,-0.16452370584011078,0.31463152170181274,-0.9348469972610474
1727683735269,9i,14.776758754731278,2.6s : 4.2s,0.5121410316861064,0.025868039242887154,0.5114873223084203,0.08811196462766063,-1.004634976387024,0.19727873802185059,0.09068126231431961,-0.015493378043174744,-0.07627373933792114,0.04130363464355469,-0.32950312586974917,-0.17261142531193524,0.006641301288235126,-0.16251565515995026,0.32357293367385864,-0.9321422576904297
1727683735278,9i,14.776758754731278,2.6s : 4.2s,0.5796409746064045,0.02559090786180082,0.5790757850898891,0.09133130707487545,-1.0682592391967773,0.22540517151355743,0.12007777392864227,-0.017045706510543823,-0.07798796892166138,0.04437035322189331,-0.3399450865176176,-0.17076962565237283,0.005872750398078336,-0.1602156162261963,0.3334353268146515,-0.9290596842765808
1727683735288,9i,14.776758754731278,2.6s : 4.2s,0.6342095200261273,0.02541717536404273,0.6336999940731295,0.08232726360023462,-1.1038519144058228,0.21274122595787048,0.15102815628051758,-0.01897415518760681,-0.0652914047241211,0.046419739723205566,-0.3508738362019102,-0.16872257457158588,0.005281016596095979,-0.157692089676857,0.3437185287475586,-0.9257379770278931
1727683735298,9i,14.776758754731278,2.6s : 4.2s,0.6650659574124631,0.025379167531335456,0.6645815416970084,0.066696710451832,-1.0634320974349976,0.18306241929531097,0.21051572263240814,-0.0214996337890625,-0.043567270040512085,0.04569584131240845,-0.36191770015097724,-0.16681780161808996,0.005269587191558987,-0.1552886962890625,0.3540683686733246,-0.922236979007721
1727683735308,9i,14.776758754731278,2.6s : 4.2s,0.6673416907218571,0.025477995326688697,0.6668551596333645,0.05801282228548111,-0.9781094789505005,0.1702679842710495,0.21108964085578918,-0.02015329897403717,-0.03200042247772217,0.04399210214614868,-0.3722980478824363,-0.1648210299878538,0.005698585935998978,-0.15283559262752533,0.36375701427459717,-0.9188700318336487
1727683735318,9i,14.776758754731278,2.6s : 4.2s,0.6661804539782524,0.025686255676874905,0.6656850708345297,0.06031324535936421,-0.9433879852294922,0.14946070313453674,0.21043424308300018,-0.018140286207199097,-0.04131370782852173,0.040022432804107666,-0.3820528998192125,-0.1629968399278377,0.006289882046513169,-0.1505761444568634,0.37282612919807434,-0.9156022667884827
1727683735328,9i,14.776758754731278,2.6s : 4.2s,0.671200851315294,0.02596139805758023,0.6706985825370971,0.06770005461317373,-0.9862295389175415,0.1421743780374527,0.2441903054714203,-0.008888915181159973,-0.057755231857299805,0.034185051918029785,-0.3918982749130902,-0.16128723161703765,0.007000642290457116,-0.14841392636299133,0.3819434642791748,-0.9121910333633423
1727683735338,9i,14.776758754731278,2.6s : 4.2s,0.6955286315878577,0.026267382238409312,0.6950324467165682,0.09160064537706984,-1.071886658668518,0.15271329879760742,0.30009323358535767,-0.006289675831794739,-0.08421066403388977,0.035492002964019775,-0.4024516239822222,-0.15934366682729423,0.008119274439675774,-0.14599303901195526,0.39167526364326477,-0.9084473252296448
1727683735348,9i,14.776758754731278,2.6s : 4.2s,0.7444619372296335,0.02656136536176945,0.7439879500729951,0.13006950564100692,-1.2215110063552856,0.14555898308753967,0.3603980243206024,-0.0016405731439590454,-0.12138205766677856,0.046709537506103516,-0.41424043293103524,-0.15722293892521808,0.009707787280888962,-0.14333316683769226,0.40249472856521606,-0.9041314125061035
1727683735358,9i,14.776758754731278,2.6s : 4.2s,0.8137415459151784,0.02699520312952867,0.813293650876742,0.17337292688160133,-1.3886057138442993,0.1564531773328781,0.4028562605381012,-0.003795430064201355,-0.16182348132133484,0.06210416555404663,-0.42770506693547927,-0.15495226268056206,0.011668498250802406,-0.14043062925338745,0.41478368639945984,-0.8990182280540466
1727683735368,9i,14.776758754731278,2.6s : 4.2s,0.9106488718475947,0.02781935914360489,0.9102238466740673,0.2133372267664392,-1.6264387369155884,0.12231198698282242,0.46277594566345215,-0.009460479021072388,-0.19637736678123474,0.08282029628753662,-0.44321388752395846,-0.15260893848751433,0.013778233017897023,-0.13732905685901642,0.42884501814842224,-0.8928788900375366
1727683735378,9i,14.776758754731278,2.6s : 4.2s,1.0282211944168562,0.02936809469420375,1.0278017025000779,0.25464399103095026,-1.8594330549240112,0.1313992291688919,0.5433053970336914,-0.016511991620063782,-0.22499176859855652,0.11810851097106934,-0.4612345996007477,-0.1502702912550992,0.016304754879620645,-0.13406172394752502,0.4450540244579315,-0.8854119777679443
1727683735388,9i,14.776758754731278,2.6s : 4.2s,1.1566886874875566,0.0319341349043536,1.1562477808798581,0.30418958902070115,-2.092064619064331,0.09817274659872055,0.5721496939659119,-0.025783061981201172,-0.262165904045105,0.15210384130477905,-0.48153411438445276,-0.1476911100924748,0.019112075448872997,-0.13042113184928894,0.4631393849849701,-0.8766369223594666
1727683735398,9i,14.776758754731278,2.6s : 4.2s,1.3036270838143917,0.03579711380488099,1.3031355034291927,0.3669204539501171,-2.3684098720550537,0.023447107523679733,0.6489728689193726,-0.03193867206573486,-0.3066701591014862,0.19890689849853516,-0.5044444610852122,-0.14564994393076466,0.022126566921058678,-0.12705789506435394,0.4833211600780487,-0.8661737442016602
1727683735408,9i,14.776758754731278,2.6s : 4.2s,1.4595295371719328,0.04091866658402735,1.45895583641257,0.40203708881052463,-2.622502326965332,0.08368080109357834,0.7022126913070679,-0.03126291185617447,-0.3400264382362366,0.21222269535064697,-0.5300590654885353,-0.14332230920193273,0.025644233866683706,-0.12323231250047684,0.5055842995643616,-0.8539310693740845
1727683735418,9i,14.776758754731278,2.6s : 4.2s,1.6178183017773804,0.04718690756588973,1.6171300050769621,0.4350331884143836,-2.8457062244415283,0.06579075008630753,0.8127964735031128,-0.0237039253115654,-0.3736836910247803,0.22147798538208008,-0.5582165015399072,-0.14039345172490264,0.02978045228097562,-0.11869107931852341,0.5296742916107178,-0.8398557305335999
1727683735428,9i,14.776758754731278,2.6s : 4.2s,1.7656850154387609,0.05451256580036331,1.764843322766879,0.4658642121126168,-2.9918744564056396,0.12193293869495392,0.9620485901832581,-0.008854754269123077,-0.39427095651626587,0.24799489974975586,-0.5883347740648442,-0.13642941174755013,0.035332338148847696,-0.11313924938440323,0.5549765229225159,-0.8241362571716309
1727683735438,9i,14.776758754731278,2.6s : 4.2s,1.9067300923964074,0.06280806128499045,1.9056953567366517,0.49181414133033985,-3.1308393478393555,0.26119494438171387,1.1188675165176392,-0.006826519966125488,-0.4112377166748047,0.26966291666030884,-0.6199841686495707,-0.13032273532180508,0.04283942852761057,-0.10576807707548141,0.5810222625732422,-0.8069859147071838
1727683735448,9i,14.776758754731278,2.6s : 4.2s,2.0603289999481578,0.07186638047430521,2.0590752320847576,0.4983358347052535,-3.3685479164123535,0.362914115190506,1.2374736070632935,-0.01326066255569458,-0.4199560284614563,0.26795464754104614,-0.6536034377001008,-0.12128663640023146,0.05219704861912645,-0.09605330228805542,0.6080511212348938,-0.7880657315254211
1727683735458,9i,14.776758754731278,2.6s : 4.2s,2.2267339961830976,0.0816440123950845,2.225236739090378,0.5199028948696146,-3.605813503265381,0.4015246331691742,1.4277863502502441,-0.020715579390525818,-0.42918241024017334,0.29269838333129883,-0.6897190397278276,-0.11040639855174876,0.06384297773036275,-0.08499731123447418,0.6363204717636108,-0.7667279243469238
1727683735468,9i,14.776758754731278,2.6s : 4.2s,2.412797321665836,0.09210246581559842,2.4110387909008266,0.549147971523394,-3.8822360038757324,0.5442447662353516,1.6317466497421265,-0.009875789284706116,-0.4533330798149109,0.30976617336273193,-0.7284994384441446,-0.0958452029535508,0.07879465228917397,-0.07140777260065079,0.6657506823539734,-0.7427495718002319
1727683735478,9i,14.776758754731278,2.6s : 4.2s,2.600455280232483,0.10318273824244248,2.5984073943509696,0.5751929763316224,-4.118719577789307,0.5504264831542969,1.7988674640655518,0.012090746313333511,-0.4759036898612976,0.32282572984695435,-0.769806642572147,-0.07773546658992019,0.09744450886243089,-0.05576138570904732,0.6959964036941528,-0.7158768773078918
1727683735488,9i,14.776758754731278,2.6s : 4.2s,2.7808503386416703,0.11483658806573806,2.7784782100935956,0.596638409104273,-4.30471134185791,0.612122118473053,1.9636781215667725,0.025143686681985855,-0.4944501519203186,0.3329628109931946,-0.813045577168267,-0.055817025184335005,0.12019898725629495,-0.03834253177046776,0.7263837456703186,-0.6862189769744873
1727683735498,9i,14.776758754731278,2.6s : 4.2s,2.969388241719174,0.12686756863461504,2.9666767855782386,0.5918009385736309,-4.553130626678467,0.6699901819229126,2.1485135555267334,0.03570663183927536,-0.4871848225593567,0.3340723514556885,-0.8580184286245994,-0.02875269669463176,0.1481262000028633,-0.01879988983273506,0.7565482258796692,-0.653667688369751
1727683735508,9i,14.776758754731278,2.6s : 4.2s,3.171788585622343,0.1390835501071006,3.168737697881254,0.586071975381485,-4.848799228668213,0.7455152869224548,2.320905923843384,0.049042072147130966,-0.4638773798942566,0.3548140525817871,-0.9052349512081723,0.004669793213603168,0.1824331863744962,0.002883590990677476,0.7865702509880066,-0.6174941658973694
1727683735518,9i,14.776758754731278,2.6s : 4.2s,3.37314402344146,0.1515112773755283,3.3697395946433124,0.5959668371911845,-5.075173377990723,0.8371450901031494,2.509772300720215,0.05593423545360565,-0.4567904472351074,0.3786691427230835,-0.9541889745128713,0.04657113622248981,0.22498377300494368,0.026920991018414497,0.8158450126647949,-0.5776437520980835
1727683735528,9i,14.776758754731278,2.6s : 4.2s,3.5560635564598497,0.16425697900917932,3.552267960392157,0.6161466094573952,-5.2099456787109375,0.9186924695968628,2.6835641860961914,0.06148291379213333,-0.4753056764602661,0.38722217082977295,-1.0035396874919091,0.09940463071540478,0.27824094691513074,0.05332421511411667,0.8433781862258911,-0.5346678495407104
1727683735538,9i,14.776758754731278,2.6s : 4.2s,3.7202249270208965,0.17734934705802752,3.715995252516575,0.6337327290400436,-5.304995536804199,1.0717524290084839,2.841574192047119,0.06591752171516418,-0.49744898080825806,0.3870614469051361,-1.0519157788895823,0.16611846296101498,0.34486125761105735,0.08200117200613022,0.8683748841285706,-0.4890817105770111
1727683735548,9i,14.776758754731278,2.6s : 4.2s,3.89240179164493,0.19072990310497645,3.8877260463749534,0.6391789798844486,-5.501607894897461,1.1823179721832275,3.0409653186798096,0.06815176457166672,-0.49945974349975586,0.3929949998855591,-1.0985699236550064,0.25126052966937146,0.42904042818320737,0.11309214681386948,0.8905577659606934,-0.4405871629714966
1727683735558,9i,14.776758754731278,2.6s : 4.2s,4.103228055511974,0.20420836423929728,4.098143411291909,0.6345531520042386,-5.874701976776123,1.3120102882385254,3.2529335021972656,0.07532893121242523,-0.47615838050842285,0.4126214385032654,-1.1432016150789357,0.36104579723611746,0.5374109804442821,0.14648810029029846,0.9099658131599426,-0.3879479467868805
1727683735568,9i,14.776758754731278,2.6s : 4.2s,4.3617326296128285,0.21765779804791852,4.356298499320055,0.5961216187964332,-6.384878158569336,1.4726080894470215,3.4190807342529297,0.09476345777511597,-0.43507105112075806,0.3963509202003479,-1.1848286586587675,0.5048780461193971,0.6792084646957535,0.18209202587604523,0.9264345765113831,-0.3294868767261505
1727683735578,9i,14.776758754731278,2.6s : 4.2s,4.643552952144929,0.23105492033096559,4.63780094906678,0.5890781727203618,-6.844817161560059,1.6164765357971191,3.5787322521209717,0.08979316055774689,-0.4521663188934326,0.36673682928085327,-1.2199270631662567,0.6918370892252385,0.8633097325674866,0.2192736268043518,0.9390742778778076,-0.2646859884262085
1727683735588,9i,14.776758754731278,2.6s : 4.2s,4.880486695519244,0.24449780466423157,4.874358543301336,0.6267700575545325,-6.985959529876709,1.7395298480987549,3.685392141342163,0.0976908802986145,-0.5155019760131836,0.3428628146648407,-1.241839373512282,0.9217478089327339,1.089616553754952,0.2573659420013428,0.9463798403739929,-0.19526460766792297
1727683735598,9i,14.776758754731278,2.6s : 4.2s,5.012314921321247,0.2584724989298971,5.00564609593972,0.7005005151820395,-6.791611671447754,1.6807515621185303,3.7042348384857178,0.109453946352005,-0.5992341637611389,0.34588903188705444,-1.2444216231155372,1.1695616445022508,1.333375090834297,0.2951481342315674,0.9472108483314514,-0.12521640956401825
1727683735608,9i,14.776758754731278,2.6s : 4.2s,5.072455266621894,0.2731537361155661,5.065095208219319,0.7494281251555986,-6.707112789154053,1.3989415168762207,3.6346726417541504,0.13658025860786438,-0.6193338632583618,0.39926671981811523,-1.2280746103797335,1.4005494783231793,1.5618340202661631,0.3311931788921356,0.9418435096740723,-0.056935738772153854
1727683735618,9i,14.776758754731278,2.6s : 4.2s,5.126574794223873,0.2881145751824025,5.11847234166006,0.7316151949000198,-6.8417205810546875,1.042452096939087,3.648895025253296,0.204402357339859,-0.5290446877479553,0.4621603488922119,-1.1964936968740718,1.600008085050067,1.7619226495400278,0.3654676377773285,0.9307628273963928,0.010678989812731743
1727683735628,9i,14.776758754731278,2.6s : 4.2s,5.2169941377721125,0.3029596173834573,5.208190021858213,0.7086154022620098,-7.158484935760498,0.5681374669075012,3.758507013320923,0.2923104465007782,-0.38497716188430786,0.5181534290313721,-1.1518704192819478,1.7639129566873968,1.931252781859259,0.3992179036140442,0.9135263562202454,0.07806853204965591
1727683735638,9i,14.776758754731278,2.6s : 4.2s,5.336722731969593,0.31728902898696015,5.327282345624785,0.7314197609696738,-7.39971923828125,0.2121644765138626,3.954566717147827,0.35122227668762207,-0.29424601793289185,0.5701202154159546,-1.0958974002046538,1.894462262745574,2.072089412075691,0.4335068464279175,0.8893389701843262,0.1454254537820816
1727683735648,9i,14.776758754731278,2.6s : 4.2s,5.394271129276919,0.3312461044022832,5.384091105699159,0.7230925950314778,-7.1473588943481445,-0.03571910038590431,4.138399124145508,0.3508734405040741,-0.27908653020858765,0.5673283338546753,-1.0315511283232366,1.9912398444139434,2.18227581947907,0.4687676429748535,0.8580964803695679,0.2095881700515747
1727683735658,9i,14.776758754731278,2.6s : 4.2s,5.330657354416456,0.3447603270271427,5.319496982525922,0.634025113942537,-6.505240440368652,-0.09012801200151443,4.184232234954834,0.30015790462493896,-0.32181692123413086,0.4564284682273865,-0.964217739445669,2.0574074368140236,2.2623322352890285,0.5038886666297913,0.8216032385826111,0.266578733921051
1727683735668,9i,14.776758754731278,2.6s : 4.2s,5.16721792288344,0.3577657864847332,5.1548176208852245,0.5574419097824812,-5.765670299530029,-0.07524529099464417,4.226785182952881,0.21288073062896729,-0.3378482460975647,0.3889496624469757,-0.8976988483196636,2.101187660241319,2.318214140964771,0.5377602577209473,0.7818944454193115,0.31536561250686646
1727683735678,9i,14.776758754731278,2.6s : 4.2s,4.923969123134082,0.37004598592496674,4.91004459184218,0.5017020424484171,-4.816673278808594,-0.12847469747066498,4.454703330993652,0.19527286291122437,-0.293254017829895,0.35717716813087463,-0.8333210402519495,2.127286460047816,2.354108273672117,0.5709624886512756,0.740168571472168,0.3551790714263916
1727683735688,9i,14.776758754731278,2.6s : 4.2s,4.644130997562153,0.38122881040662426,4.628457336589978,0.46563738076031047,-3.8021109104156494,-0.10313018411397934,4.79060697555542,0.27211999893188477,-0.20060014724731445,0.320200651884079,-0.7713954241770522,2.13813317900685,2.371360346518132,0.6046194434165955,0.6971363425254822,0.385274201631546
1727683735698,9i,14.776758754731278,2.6s : 4.2s,4.426549980494522,0.3912225813230205,4.40922778065264,0.5119557000648408,-3.412201166152954,0.036507606506347656,4.911686897277832,0.3600303530693054,-0.06945091485977173,0.35728609561920166,-0.7112675132402735,2.1412370436090606,2.3768177827618575,0.6375893354415894,0.6527944803237915,0.40907126665115356
1727683735708,9i,14.776758754731278,2.6s : 4.2s,4.27726805624327,0.4007227462144758,4.258455507061851,0.647264516474398,-3.4233310222625732,0.01624547503888607,4.807338714599609,0.39523667097091675,0.018028616905212402,0.5122638940811157,-0.6519177736422652,2.143525837549525,2.3804024847101513,0.6680721044540405,0.6067119836807251,0.43079039454460144
1727683735718,9i,14.776758754731278,2.6s : 4.2s,4.125134830294109,0.4106999726797139,4.104639192492622,0.761892075085909,-3.2588109970092773,0.06861387938261032,4.580674171447754,0.4495289921760559,-0.02479243278503418,0.6146450638771057,-0.594342387677295,2.1456790171174176,2.384015686860286,0.6953380107879639,0.5599640607833862,0.4504948556423187
1727683735728,9i,14.776758754731278,2.6s : 4.2s,3.963849440381059,0.42160940779322764,3.941363709843267,0.8424827020508411,-3.054598093032837,0.1346929371356964,4.365054607391357,0.5524546504020691,-0.08743387460708618,0.6300208568572998,-0.5396201290919647,2.1483121979631394,2.3870297014690456,0.7187702059745789,0.5138101577758789,0.4683677554130554
1727683735738,9i,14.776758754731278,2.6s : 4.2s,3.7526186124918324,0.43314445076644487,3.7275370334297633,0.9589453828694258,-2.594726324081421,-0.06599222868680954,4.085294723510742,0.6956968903541565,0.010486692190170288,0.6599031090736389,-0.48876929061652497,2.149217904455429,2.3882208788308246,0.7392855286598206,0.4695396423339844,0.4826904535293579
1727683735748,9i,14.776758754731278,2.6s : 4.2s,3.5112563893829263,0.4443366089845794,3.4830283389456524,1.0703912737547447,-1.9899849891662598,-0.32987740635871887,3.920417547225952,0.8084263801574707,0.25267502665519714,0.6544765830039978,-0.4429081763843726,2.1458460343888297,2.3856414952820755,0.7581934332847595,0.42856884002685547,0.49139735102653503
1727683735758,9i,14.776758754731278,2.6s : 4.2s,3.285111137963155,0.45420985352772225,3.2535593736288106,1.1635393798470808,-1.597182035446167,-0.3969043791294098,3.7868261337280273,0.8574692010879517,0.5184807777404785,0.5913950800895691,-0.4009598254061022,2.1396538939809115,2.3795953061394486,0.7756943702697754,0.39030221104621887,0.49594637751579285
1727683735768,9i,14.776758754731278,2.6s : 4.2s,3.0896816408770156,0.4626330255538856,3.0548491494080925,1.183912952198159,-1.2797070741653442,-0.33467909693717957,3.7094335556030273,0.8656957745552063,0.6380611658096313,0.49507439136505127,-0.361751413255221,2.132704958674348,2.3712862389444247,0.7914700508117676,0.3539128303527832,0.49831870198249817
1727683735778,9i,14.776758754731278,2.6s : 4.2s,2.920175873602252,0.47013914806368917,2.882081940928575,1.1758650017923196,-1.3421227931976318,-0.22044865787029266,3.4592504501342773,0.907996416091919,0.6309616565704346,0.40011048316955566,-0.32442168772753227,2.1270477702539625,2.3629892023230283,0.8049399852752686,0.3187606930732727,0.5004631876945496
1727683735788,9i,14.776758754731278,2.6s : 4.2s,2.7770309838534137,0.4777225146267766,2.735631971647599,1.1559607969338523,-1.6851861476898193,-0.31033992767333984,3.1318092346191406,0.9321891665458679,0.5607286691665649,0.39096301794052124,-0.28853415611922345,2.12305771711681,2.3585720370461294,0.8161478042602539,0.28454726934432983,0.5029274225234985
1727683735798,9i,14.776758754731278,2.6s : 4.2s,2.6338643230612258,0.4862075729058245,2.588598746106433,1.1519292955956046,-1.9971085786819458,-0.5169740319252014,2.690654754638672,0.972485363483429,0.47197258472442627,0.3980643153190613,-0.2539854104042393,2.119087995124433,2.3593299540740467,0.826037585735321,0.25126349925994873,0.504508376121521
1727683735808,9i,14.776758754731278,2.6s : 4.2s,2.474333312459503,0.49546694990531115,2.424219017064742,1.1415418872447234,-2.200272560119629,-0.6878140568733215,2.148939371109009,0.9990108013153076,0.4444923996925354,0.32790517807006836,-0.22250009365674933,2.114294694443483,2.3651883727565575,0.8348057866096497,0.22066877782344818,0.5043855309486389
1727683735818,9i,14.776758754731278,2.6s : 4.2s,2.310697639612016,0.504532211111142,2.2549436422358418,1.1589176359295172,-2.2394185066223145,-0.714972972869873,1.7046552896499634,1.0037636756896973,0.5482412576675415,0.1870296597480774,-0.19449885312734486,2.1091784142678436,2.374916149178721,0.8423513174057007,0.1932748556137085,0.5030795931816101
1727683735828,9i,14.776758754731278,2.6s : 4.2s,2.122626119557623,0.5124007378758313,2.059851239107464,1.1752403796480846,-2.1323041915893555,-0.5395106077194214,1.2363536357879639,0.9474260210990906,0.6946525573730469,0.0321202278137207,-0.1706923564490314,2.10490738724282,2.386620185194405,0.8482130765914917,0.169864684343338,0.5016779899597168
1727683735837,9i,14.776758754731278,2.6s : 4.2s,1.9045516475355473,0.5199488343957681,1.832203642541093,1.1420687916913577,-2.01353120803833,-0.26051974296569824,0.6599541902542114,0.8213398456573486,0.7900438904762268,-0.07451599836349487,-0.15196182385002707,2.103009909750813,2.4000113584968417,0.8517558574676514,0.1513776332139969,0.5015942454338074
1727683735847,9i,14.776758754731278,2.6s : 4.2s,1.6552190468435568,0.5275935183229813,1.5688834158270877,1.0956550830164624,-1.6785894632339478,-0.11925047636032104,0.1103900894522667,0.7059463858604431,0.8332404494285583,-0.08837485313415527,-0.13919347029581303,2.1033793188358225,2.4146970569197825,0.8531661629676819,0.13874442875385284,0.5028493404388428
1727683735857,9i,14.776758754731278,2.6s : 4.2s,1.365479048424202,0.5337416634633595,1.2568424198636954,1.1494099892918224,-0.9859359264373779,-0.2815901041030884,-0.22426564991474152,0.6958907842636108,0.9142841696739197,-0.031045079231262207,-0.1329362315537166,2.1031040295865857,2.426919924575899,0.8540358543395996,0.13254503905773163,0.5030452013015747
1727683735867,9i,14.776758754731278,2.6s : 4.2s,1.037715215080412,0.5390940477628654,0.8866963828030626,1.351383471088437,-0.091646209359169,-0.4680197536945343,-0.4037085473537445,0.7457482218742371,1.1269842386245728,-0.0018442869186401367,-0.1328513842386399,2.1001572073368098,2.433353405028954,0.8555241823196411,0.13246093690395355,0.5005319714546204
1727683735877,9i,14.776758754731278,2.6s : 4.2s,0.7592805050467899,0.5435931256336477,0.5301069694957325,1.4943274580737484,0.5692941546440125,-0.5168977975845337,-0.6233837008476257,0.6954142451286316,1.3215340375900269,-0.05441844463348389,-0.1385647395859087,2.0951501798566268,2.433838964577449,0.8573506474494934,0.13812175393104553,0.4958551824092865
1727683735887,9i,14.776758754731278,2.6s : 4.2s,0.6439287241613215,0.5473447821042187,0.33920184448689644,1.4437572190599943,0.9474928975105286,-0.5088853240013123,-0.840089738368988,0.572265625,1.3208476305007935,-0.11094367504119873,-0.1486629982798005,2.08964900136924,2.431057149405963,0.8588104844093323,0.14811600744724274,0.4904145896434784
1727683735897,9i,14.776758754731278,2.6s : 4.2s,0.7206210944071659,0.5509654872579871,0.4644693677253112,1.240173915694686,1.2005269527435303,-0.600810706615448,-1.0403674840927124,0.5217476487159729,1.1142363548278809,-0.15584632754325867,-0.16212292478934817,2.0834004970024607,2.4263917438941762,0.86004239320755,0.16141365468502045,0.48401695489883423
1727683735907,9i,14.776758754731278,2.6s : 4.2s,0.8994067511447887,0.5550480395692603,0.7077105183442909,1.0383147107577595,1.282008409500122,-0.8085243105888367,-1.2796647548675537,0.5474878549575806,0.8609945774078369,-0.19246512651443481,-0.17820085471256386,2.0754543281886497,2.4214169212770607,0.8614781498908997,0.17725920677185059,0.4758513271808624
1727683735917,9i,14.776758754731278,2.6s : 4.2s,1.1044331256907098,0.5596375713756032,0.9521440635889971,0.9228479588219427,1.3966675996780396,-0.9802795648574829,-1.5169920921325684,0.5687945485115051,0.6853250861167908,-0.24176567792892456,-0.19672449700229946,2.065462923008267,2.4165473470296686,0.863151490688324,0.1954580545425415,0.46558165550231934
1727683735927,9i,14.776758754731278,2.6s : 4.2s,1.3044936632748025,0.5643446310991935,1.1761032500905815,0.8535674760646897,1.5052173137664795,-1.059199333190918,-1.7458876371383667,0.5406989455223083,0.5885648131370544,-0.29968908429145813,-0.21757587932041375,2.0538953504217905,2.4115270991873192,0.8646813035011292,0.21586328744888306,0.45357394218444824
1727683735937,9i,14.776758754731278,2.6s : 4.2s,1.4770363819466168,0.5687424776885476,1.3631465319864347,0.7776512686034374,1.5292885303497314,-1.0597103834152222,-1.9392659664154053,0.4648504853248596,0.528308629989624,-0.33097660541534424,-0.2409062976205243,2.0420414829250166,2.4065914903859538,0.8652734756469727,0.23858284950256348,0.44088566303253174
1727683735947,9i,14.776758754731278,2.6s : 4.2s,1.6076154926616202,0.5728325499843139,1.5020953504768368,0.6803098205724484,1.451696515083313,-1.0444695949554443,-2.061288833618164,0.4121124744415283,0.4402759373188019,-0.3148680031299591,-0.2654046189663484,2.030360743052866,2.402402679295949,0.8648650050163269,0.2622997462749481,0.4280272126197815
1727683735957,9i,14.776758754731278,2.6s : 4.2s,1.7368595401485365,0.5769411551321152,1.638236846649411,0.5695373991842438,1.549505591392517,-1.1347163915634155,-2.195953607559204,0.40495508909225464,0.3006690442562103,-0.26454177498817444,-0.29095863479283807,2.0184667146255277,2.3985762005375313,0.8635693192481995,0.28687068819999695,0.4146731197834015
1727683735967,9i,14.776758754731278,2.6s : 4.2s,1.8782192703358096,0.5814281534869347,1.7859588264552895,0.4861693154771551,1.7354114055633545,-1.3391661643981934,-2.297154426574707,0.4063493609428406,0.1963614821434021,-0.18078431487083435,-0.31830965468596994,2.004444597580574,2.393350177728008,0.8618542551994324,0.3129615783691406,0.3990764915943146
1727683735977,9i,14.776758754731278,2.6s : 4.2s,1.989499154393691,0.5865969235512247,1.901055216087489,0.47831667355310464,1.7632920742034912,-1.4678571224212646,-2.2811880111694336,0.3999443054199219,0.25109779834747314,-0.0760347843170166,-0.3463947417524177,1.9880672548398204,2.386765062064053,0.8598976731300354,0.33950889110565186,0.38119539618492126
1727683735987,9i,14.776758754731278,2.6s : 4.2s,2.0610138735840935,0.592383891906831,1.9740464816501726,0.4831424089876379,1.706312894821167,-1.4876989126205444,-2.2580113410949707,0.3654448986053467,0.3159961402416229,-0.004801332950592041,-0.374046419119298,1.9706602315333368,2.3798096550345216,0.8574248552322388,0.3653850555419922,0.3623758554458618
1727683735997,9i,14.776758754731278,2.6s : 4.2s,2.102912307215056,0.5986274274621247,2.0159080770031723,0.4047573782063908,1.50254225730896,-1.6418043375015259,-2.2453861236572266,0.3035396337509155,0.25386956334114075,0.08510270714759827,-0.40095258198267025,1.9525279324938636,2.3733732581130957,0.8544195294380188,0.3902955651283264,0.34298276901245117
1727683736007,9i,14.776758754731278,2.6s : 4.2s,2.1469375195653724,0.605342886753379,2.0598302605735745,0.35985373560675377,1.4861562252044678,-1.8166652917861938,-2.229968547821045,0.2520979642868042,0.15327033400535583,0.20603284239768982,-0.4270178109955288,1.93278271972364,2.367728596260241,0.8512192964553833,0.41415825486183167,0.3223332166671753
1727683736017,9i,14.776758754731278,2.6s : 4.2s,2.199814286629051,0.6122564983297488,2.1128949041327814,0.3381757451800775,1.5594584941864014,-1.994097352027893,-2.192652940750122,0.19725996255874634,0.07367327809333801,0.26461970806121826,-0.4531517590297022,1.910603643762424,2.3604538136459268,0.8476619124412537,0.4378013610839844,0.29966551065444946
1727683736027,9i,14.776758754731278,2.6s : 4.2s,2.24325291256148,0.6192281084968075,2.1560937315810342,0.38369939956826143,1.6391125917434692,-2.1336865425109863,-2.051771402359009,0.128928542137146,0.09921416640281677,0.34750425815582275,-0.4782588849864883,1.885705921497524,2.352071202067488,0.8441397547721863,0.4602341055870056,0.27497804164886475
1727683736037,9i,14.776758754731278,2.6s : 4.2s,2.2812990425362,0.6261500996548657,2.193686708301526,0.3711881591353734,1.813655138015747,-2.189140558242798,-1.9058769941329956,0.07469016313552856,0.10196378827095032,0.349006325006485,-0.5023152745542818,1.8584593712691444,2.3400231690829556,0.8404558897018433,0.48145610094070435,0.24866525828838348
1727683736047,9i,14.776758754731278,2.6s : 4.2s,2.2975548524071945,0.6328309301209448,2.208683615573336,0.3561350197976553,1.862830638885498,-2.1594650745391846,-1.7809655666351318,-0.02773761749267578,0.037505924701690674,0.35306668281555176,-0.524903319624596,1.829566772273174,2.326022876099955,0.8365603089332581,0.5011293292045593,0.22144202888011932
1727683736057,9i,14.776758754731278,2.6s : 4.2s,2.3189778803331285,0.638265167822054,2.2294115782016144,0.3955143890974953,1.9851722717285156,-2.175220489501953,-1.7216905355453491,-0.12238854169845581,-0.09337723255157471,0.3643259108066559,-0.5464911419475575,1.7992718598275022,2.309711318787013,0.8321512937545776,0.5196926593780518,0.19350503385066986
1727683736067,9i,14.776758754731278,2.6s : 4.2s,2.3178859296874252,0.6423122295733472,2.227112521356623,0.4916468258017664,1.9971559047698975,-2.0795040130615234,-1.6153875589370728,-0.21051150560379028,-0.2390400767326355,0.3745148181915283,-0.5670559405849991,1.7680211620113055,2.291460779887921,0.8271346092224121,0.5371510982513428,0.1652800589799881
1727683736077,9i,14.776758754731278,2.6s : 4.2s,2.2900205516643495,0.6451408733027109,2.197268163115123,0.5766205540192236,1.946319818496704,-2.025620698928833,-1.501866102218628,-0.2693580389022827,-0.32470178604125977,0.39307284355163574,-0.5858369798646859,1.7367452452042862,2.2720554018096686,0.8218024969100952,0.5528969764709473,0.13764308393001556
1727683736087,9i,14.776758754731278,2.6s : 4.2s,2.2423411524823305,0.6469090592139816,2.1469984893387015,0.6503073762008948,1.8810875415802002,-1.9217935800552368,-1.4047298431396484,-0.3231847882270813,-0.39495837688446045,0.40306222438812256,-0.6030830353249232,1.7057294610107339,2.2520261947363465,0.8161045908927917,0.567184329032898,0.11079277098178864
1727683736097,9i,14.776758754731278,2.6s : 4.2s,2.1594325825481806,0.6478783580907971,2.0599521139308745,0.7252083438639683,1.696163296699524,-1.7946902513504028,-1.2600144147872925,-0.36905717849731445,-0.4538191556930542,0.4286864995956421,-0.6184592587538231,1.6758569774846146,2.2326201027075374,0.8102803230285645,0.5797805190086365,0.0854431763291359
1727683736107,9i,14.776758754731278,2.6s : 4.2s,2.0607294948609463,0.6484328991905034,1.9560523577443545,0.7816822893541895,1.5134661197662354,-1.7286478281021118,-1.1261200904846191,-0.38714879751205444,-0.5016279220581055,0.45772528648376465,-0.6317289349255257,1.6475908133971702,2.2147355508883324,0.8046293258666992,0.590540885925293,0.06191284954547882
1727683736117,9i,14.776758754731278,2.6s : 4.2s,1.952870905022586,0.6488136710609107,1.8419407134672383,0.8365114619999413,1.3577007055282593,-1.6583712100982666,-0.9773078560829163,-0.4105539321899414,-0.5491995215415955,0.4791417121887207,-0.6431147782953789,1.6205646459194278,2.198098542657851,0.7992411255836487,0.5996909141540527,0.039809759706258774
1727683736127,9i,14.776758754731278,2.6s : 4.2s,1.8431498451993482,0.6492372324589581,1.7250195268017736,0.8648866126881988,1.2223381996154785,-1.6133604049682617,-0.8033244609832764,-0.42702150344848633,-0.5665827989578247,0.4946366548538208,-0.6524380607389696,1.5948118312588302,2.182866317236442,0.7943769693374634,0.6071255207061768,0.019081031903624535
1727683736137,9i,14.776758754731278,2.6s : 4.2s,1.736484718448505,0.6498076923644464,1.6103195770868515,0.8747969939880007,1.1178536415100098,-1.5659079551696777,-0.6214795708656311,-0.44698137044906616,-0.5622846484184265,0.4993129372596741,-0.6596651054950323,1.5700051452596777,2.1685631365851137,0.7901973128318787,0.6128522753715515,-0.0006251896265894175
1727683736147,9i,14.776758754731278,2.6s : 4.2s,1.6242097952129855,0.6505288208524904,1.4882438348960416,0.8903306264849549,1.0001791715621948,-1.461472511291504,-0.4256158769130707,-0.4772951006889343,-0.5618892908096313,0.49915772676467896,-0.6645422232250258,1.5467815692206124,2.1556935845361354,0.7869722247123718,0.6166988611221313,-0.018902581185102463
1727683736157,9i,14.776758754731278,2.6s : 4.2s,1.5067347442684096,0.6512653376682257,1.3587137481962424,0.909914527099275,0.9005202651023865,-1.298872947692871,-0.26696711778640747,-0.5087582468986511,-0.5902494192123413,0.4698032736778259,-0.6676009494151728,1.5253910722218627,2.143820613641508,0.7844997644424438,0.6191037893295288,-0.03564491122961044
1727683736167,9i,14.776758754731278,2.6s : 4.2s,1.3773116090418118,0.651935989016508,1.21324636188468,0.9551115315721452,0.7394158244132996,-1.1040847301483154,-0.1157783642411232,-0.5561404228210449,-0.6291468739509583,0.4551044702529907,-0.669043200582163,1.5067984162570887,2.133556777265608,0.7828097939491272,0.6202357411384583,-0.05016670003533363
1727683736177,9i,14.776758754731278,2.6s : 4.2s,1.2322096921298364,0.6526094655743446,1.0451993163131494,0.9927617378623782,0.5394686460494995,-0.8620792627334595,0.04928089678287506,-0.5912054181098938,-0.6590862274169922,0.4490627646446228,-0.6689091376401972,1.4919645156689973,2.1258416361619825,0.7820623517036438,0.6201305985450745,-0.06177942082285881
1727683736187,9i,14.776758754731278,2.6s : 4.2s,1.0858410188744256,0.6533198045247606,0.8673084522163839,1.01672292806985,0.39898812770843506,-0.5948260426521301,0.18307621777057648,-0.6128762364387512,-0.691638708114624,0.42396241426467896,-0.6673416525893404,1.4810662805466237,2.120035334782963,0.7823099493980408,0.6189001202583313,-0.07038570940494537
1727683736197,9i,14.776758754731278,2.6s : 4.2s,0.9402568185401086,0.6542113727566038,0.6753446265182589,1.0606837051947469,0.16796132922172546,-0.32854244112968445,0.32374703884124756,-0.6429991126060486,-0.7286272048950195,0.42509347200393677,-0.6645875882641483,1.4744053858780133,2.116987144205423,0.7835173010826111,0.6167345643043518,-0.07575874775648117
1727683736207,9i,14.776758754731278,2.6s : 4.2s,0.8173959772538095,0.6556086765970665,0.4881735826541144,1.0804742890130032,-0.10561948269605637,-0.10596867650747299,0.5242795348167419,-0.6487103700637817,-0.739064633846283,0.44764161109924316,-0.660311322097525,1.4723647035686291,2.1175502666139323,0.7859784364700317,0.6133627891540527,-0.07761596143245697
1727683736217,9i,14.776758754731278,2.6s : 4.2s,0.7488176583248332,0.65766085994185,0.35806434997027126,1.0829504693778071,-0.3769444525241852,0.09633809328079224,0.6576996445655823,-0.6410372257232666,-0.7514144778251648,0.44410502910614014,-0.6546506196501004,1.474646288215158,2.1218420497159673,0.7895968556404114,0.6088821291923523,-0.07615458965301514
1727683736227,9i,14.776758754731278,2.6s : 4.2s,0.7306777834728213,0.6603216478169762,0.3128343726079798,1.0934980863987624,-0.5841290354728699,0.3080655336380005,0.7350113987922668,-0.6483666300773621,-0.7725160121917725,0.4225846529006958,-0.6481251138742459,1.480879493397615,2.12917506046407,0.7939965724945068,0.6036927700042725,-0.07158668339252472
1727683736237,9i,14.776758754731278,2.6s : 4.2s,0.775932398532621,0.6635501919099476,0.40220918675343276,1.1063764934995783,-0.7991161942481995,0.5151132345199585,0.7967679500579834,-0.6632818579673767,-0.7873400449752808,0.4052428603172302,-0.6411098299534522,1.490592714896264,2.138839895684354,0.7988561391830444,0.5980852842330933,-0.06420888751745224
1727683736247,9i,14.776758754731278,2.6s : 4.2s,0.8814437686737115,0.6675345659732074,0.5756220292558974,1.1124914469675142,-1.113407850265503,0.7043922543525696,0.8891428112983704,-0.6783452033996582,-0.7673865556716919,0.4342843294143677,-0.6334081578816485,1.5042371650872204,2.1518342455792565,0.8042301535606384,0.5918952226638794,-0.05360807478427887
1727683736257,9i,14.776758754731278,2.6s : 4.2s,1.0149756525439202,0.672370522622935,0.7603245725114491,1.0981066284007859,-1.2816232442855835,0.8563975095748901,0.9711798429489136,-0.6767575144767761,-0.7355982661247253,0.45467859506607056,-0.6248163506308066,1.5212068626102055,2.1677920359026674,0.8100736737251282,0.5849483013153076,-0.04020408168435097
1727683736267,9i,14.776758754731278,2.6s : 4.2s,1.1627096081148043,0.6780333126560653,0.9445445779480841,1.0704176142001431,-1.4157071113586426,0.9747236371040344,1.1373569965362549,-0.6725094318389893,-0.6944220662117004,0.45967698097229004,-0.6149082964720431,1.5402602016037552,2.185120812513582,0.8164456486701965,0.5768836140632629,-0.024938838556408882
1727683736277,9i,14.776758754731278,2.6s : 4.2s,1.3254837003372377,0.6844413787780272,1.1350978102684055,0.9889611880418211,-1.610111951828003,1.0213860273361206,1.3816242218017578,-0.6413325667381287,-0.5886009335517883,0.4693460464477539,-0.6026488053551586,1.5609415020837534,2.2041883077055955,0.8237971663475037,0.5668266415596008,-0.008118639700114727
1727683736287,9i,14.776758754731278,2.6s : 4.2s,1.4905597206120569,0.6913501169295982,1.3205314447344763,0.8954360272672952,-1.769389033317566,1.0709043741226196,1.5964677333831787,-0.6142999529838562,-0.4470466375350952,0.473909854888916,-0.5876875150522104,1.5828214001428351,2.2248859184600676,0.8321649432182312,0.5544379949569702,0.010007326491177082
1727683736297,9i,14.776758754731278,2.6s : 4.2s,1.6487308529929987,0.6982413259316436,1.4935770741318446,0.8106596393818127,-1.8965493440628052,1.1785509586334229,1.7345012426376343,-0.6023916602134705,-0.3337446451187134,0.4276772737503052,-0.570615719459901,1.6057560436932017,2.2466095784463738,0.841054379940033,0.5401503443717957,0.029415007680654526
1727683736307,9i,14.776758754731278,2.6s : 4.2s,1.7988207932928562,0.7046952250158223,1.6550410527303059,0.7537500357282291,-1.9844024181365967,1.3135427236557007,1.8729982376098633,-0.6035979390144348,-0.2597537636756897,0.36923789978027344,-0.5517620212560437,1.6298269347989789,2.2688242459934718,0.8501189947128296,0.5241885781288147,0.05024141073226929
1727683736317,9i,14.776758754731278,2.6s : 4.2s,1.964579458783,0.7104955446977474,1.8316027218905189,0.7123558180110818,-2.1643307209014893,1.5225050449371338,2.0458121299743652,-0.602886974811554,-0.20937299728393555,0.31645071506500244,-0.5307754978936732,1.655454248659768,2.2914832303302934,0.8593263030052185,0.5062022805213928,0.07292307913303375
1727683736327,9i,14.776758754731278,2.6s : 4.2s,2.177142613056089,0.7155630856172973,2.056190513567881,0.6853111742500342,-2.5805580615997314,1.8300660848617554,2.192528009414673,-0.6033594608306885,-0.18466979265213013,0.26740574836730957,-0.5073678051266975,1.6842778580523892,2.3163512249532223,0.8684046864509583,0.4858783185482025,0.0989731177687645
1727683736337,9i,14.776758754731278,2.6s : 4.2s,2.4502375772421017,0.720078979550546,2.3420398049859634,0.6933919468826901,-3.2270660400390625,2.20865535736084,2.2339978218078613,-0.6168625950813293,-0.1970815658569336,0.24785436689853668,-0.4816139993006017,1.718273335893285,2.3459562898740516,0.8766283988952637,0.46321019530296326,0.13022802770137787
1727683736347,9i,14.776758754731278,2.6s : 4.2s,2.7801413267784723,0.7245299060035003,2.68407194616093,0.7212548078616068,-3.927574872970581,2.6700398921966553,2.189974069595337,-0.6424431800842285,-0.23562416434288025,0.22793971002101898,-0.4538666642075168,1.7585278138984013,2.3817574071087493,0.882967472076416,0.43844398856163025,0.16773594915866852
1727683736357,9i,14.776758754731278,2.6s : 4.2s,3.1514584027132533,0.7291014736339642,3.0659584317431237,0.7389098078927792,-4.43860387802124,3.2560603618621826,2.223538637161255,-0.6578832864761353,-0.2661241292953491,0.20580387115478516,-0.42364138153526393,1.8051048112835928,2.422344639869496,0.8866888880729675,0.4110826551914215,0.21164612472057343
1727683736377,9i,14.776758754731278,2.6s : 4.2s,3.4766159297213846,0.7338939076818437,3.398272804684751,0.6531589390785408,-3.3858225345611572,4.7650675773620605,2.636791944503784,-0.5559681057929993,-0.11202165484428406,0.3239864408969879,-0.3542803558944364,1.9129563228882636,2.4948480550425467,0.8835287094116211,0.34691551327705383,0.31468555331230164
1727683736387,9i,14.776758754731278,2.6s : 4.2s,3.68041194560556,0.7392206219120674,3.6054105122019102,0.6978989205125368,-2.2129693031311035,5.247140884399414,2.914735794067383,-0.4137645959854126,0.17644822597503662,0.5335988998413086,-0.31824602382357225,1.9687331136189563,2.512310763388115,0.8755717873573303,0.3129011392593384,0.3680582344532013
1727683736397,9i,14.776758754731278,2.6s : 4.2s,3.7489695655773017,0.7460620158165843,3.673984794767196,1.0248901401519541,-0.9908331632614136,5.156332492828369,3.093503475189209,-0.167466938495636,0.6486674547195435,0.7756192088127136,-0.2844276250806306,2.021951539053656,2.514809222839438,0.8637866973876953,0.2806081175804138,0.41848793625831604
1727683736407,9i,14.776758754731278,2.6s : 4.2s,3.6795589938146653,0.7552236531251748,3.6012208517005253,1.7284073868559093,-0.31421369314193726,4.396935939788818,3.1452431678771973,0.17419195175170898,1.2848854064941406,1.1428555250167847,-0.2538268794174551,2.067474730045137,2.5058133905167055,0.8510003089904785,0.2511100471019745,0.46123993396759033
1727683736416,9i,14.776758754731278,2.6s : 4.2s,3.5172861426134423,0.7675459482222473,3.4325173016881005,2.4985301084809772,0.4459233283996582,3.6911258697509766,3.151841163635254,0.5418144464492798,1.9374984502792358,1.4816172122955322,-0.2264498174199664,2.103628673018586,2.489966771132172,0.83938068151474,0.22451940178871155,0.4950063228607178
1727683736426,9i,14.776758754731278,2.6s : 4.2s,3.3562030685423743,0.7831498380789254,3.263552568660447,2.8139211690187746,2.0501368045806885,3.4426980018615723,2.99937105178833,0.6950985193252563,2.2383153438568115,1.557220220565796,-0.2065243787323631,2.133337014934317,2.4631657108781275,0.8279272317886353,0.20505937933921814,0.5220035910606384
1727683736436,9i,14.776758754731278,2.6s : 4.2s,3.2858120650991163,0.8020948506629741,3.1864093863925995,2.6714887137262786,3.626591920852661,3.1513075828552246,2.7077348232269287,0.5749830603599548,2.1271252632141113,1.5104914903640747,-0.19812781255526923,2.157635522605293,2.422998204129189,0.8164048194885254,0.19683411717414856,0.5428990125656128
1727683736446,9i,14.776758754731278,2.6s : 4.2s,3.4139658948092544,0.8245262920848067,3.3129019793198884,2.4576782266873924,4.497557640075684,3.366461753845215,2.437551498413086,0.44042688608169556,1.8997470140457153,1.4957164525985718,-0.20006515433369268,2.18043810709492,2.373962957922781,0.8035001158714294,0.19873318076133728,0.5611530542373657
1727683736456,9i,14.776758754731278,2.6s : 4.2s,3.6185033453226434,0.8503176286687626,3.5171759112228513,2.328751879516754,4.7669901847839355,3.5778918266296387,2.1551334857940674,0.47483164072036743,1.7287579774856567,1.4862759113311768,-0.20846335619994733,2.2047036309097177,2.3219717138345968,0.7882755994796753,0.20695677399635315,0.5794742703437805
1727683736466,9i,14.776758754731278,2.6s : 4.2s,3.7653888639821127,0.8786517366223914,3.661437480379934,2.1521905680428155,4.542829513549805,3.6408278942108154,1.887428879737854,0.6356730461120605,1.514961838722229,1.390228271484375,-0.22060303679001603,2.230074803527183,2.2716720153334267,0.7712787985801697,0.2188180834054947,0.5977020263671875
1727683736476,9i,14.776758754731278,2.6s : 4.2s,3.7970847599630546,0.9089755212312783,3.686680915965743,1.9228754586694004,4.104663848876953,3.577558755874634,1.5355137586593628,0.7690790295600891,1.158345341682434,1.328233242034912,-0.23399727453568903,2.2559588652449416,2.2260985216279834,0.7532140612602234,0.2318677008152008,0.6155534386634827
1727683736486,9i,14.776758754731278,2.6s : 4.2s,3.7453586984613185,0.9403594862873826,3.6253876781234298,1.6563457618803739,3.8640336990356445,3.5271239280700684,0.8332446217536926,0.7941651940345764,0.7247746586799622,1.2599542140960693,-0.2503040759299428,2.2820908877572212,2.186975985823768,0.7339112162590027,0.247698575258255,0.6324715614318848
1727683736496,9i,14.776758754731278,2.6s : 4.2s,3.663117985751227,0.9719428151376466,3.531821136699371,1.4689914870818244,3.912868022918701,3.359557867050171,-0.08533370494842529,0.7243244647979736,0.39438340067863464,1.2156281471252441,-0.27317067040284804,2.308138884170113,2.1546544826792573,0.7128093242645264,0.26978588104248047,0.6473935842514038
1727683736506,9i,14.776758754731278,2.6s : 4.2s,3.5852092164776237,1.0036813534926479,3.4418525341111383,1.462707824168982,3.937079906463623,3.1120195388793945,-0.6996452212333679,0.6741816401481628,0.33308690786361694,1.2546100616455078,-0.3029179443666232,2.3327025491780264,2.127781420425719,0.6905797719955444,0.29830655455589294,0.6588727235794067
1727683736516,9i,14.776758754731278,2.6s : 4.2s,3.595979851652052,1.0353932735757907,3.443694507722995,1.5111920587322372,3.97261381149292,3.392226457595825,-1.1555341482162476,0.7024379372596741,0.5270383358001709,1.2298426628112793,-0.337340501756158,2.357886806761959,2.104975412799699,0.6661228537559509,0.330978661775589,0.6683812737464905
1727683736526,9i,14.776758754731278,2.6s : 4.2s,3.6902588533367777,1.067252345869539,3.5325603795075375,1.5828558858480044,4.059036731719971,3.7388908863067627,-1.6159517765045166,0.719143271446228,0.7344721555709839,1.2036678791046143,-0.3767322478828767,2.388378304479896,2.086564988548372,0.636020302772522,0.3678838610649109,0.678335964679718
1727683736536,9i,14.776758754731278,2.6s : 4.2s,3.8782981333431765,1.0998198636852632,3.719084924888984,1.7107218490223124,4.481008052825928,3.945918083190918,-2.0974223613739014,0.7764944434165955,0.7962665557861328,1.2998404502868652,-0.4206332317134964,2.420811624726234,2.07058077492688,0.6024422645568848,0.4083385765552521,0.6858009099960327
1727683736546,9i,14.776758754731278,2.6s : 4.2s,4.170755979578819,1.133680692968596,4.01372315034093,1.8343474083012197,5.277221202850342,3.96893572807312,-2.687981605529785,0.9322252869606018,0.7861365079879761,1.3703196048736572,-0.4730900639444884,2.454179519431337,2.055827332515648,0.5648451447486877,0.455639123916626,0.6879996061325073
1727683736556,9i,14.776758754731278,2.6s : 4.2s,4.51701053119841,1.1694131618881154,4.363010084306496,2.033656253163991,5.923895359039307,3.958247184753418,-3.233703851699829,1.1238903999328613,0.8888134956359863,1.4431350231170654,-0.5355636859955692,2.487226348015259,2.042520764068609,0.5234331488609314,0.5103259086608887,0.6823380589485168
1727683736566,9i,14.776758754731278,2.6s : 4.2s,4.900119936787557,1.2072918998881081,4.749065346293674,2.2865271736679276,6.503006935119629,4.048507213592529,-3.6719396114349365,1.33099365234375,1.1468396186828613,1.4633595943450928,-0.6059895811544441,2.52135053364006,2.0314461492430773,0.47773733735084534,0.5695757269859314,0.6688426733016968
1727683736576,9i,14.776758754731278,2.6s : 4.2s,5.299865007509114,1.2471901703329553,5.151027642795603,2.43737951277273,7.01409387588501,4.137338161468506,-4.125749111175537,1.4463353157043457,1.317211389541626,1.4539213180541992,-0.6836092732452352,2.557660589779519,2.0235712751270727,0.4274287819862366,0.6315953731536865,0.6468324661254883
1727683736586,9i,14.776758754731278,2.6s : 4.2s,5.7084454178251764,1.2891851774368601,5.560966702522713,2.52264379646463,7.5412421226501465,4.102668762207031,-4.653356075286865,1.5758262872695923,1.2953718900680542,1.4840872287750244,-0.7685257315220887,2.5972686096865214,2.0208666956766392,0.3722938597202301,0.6950761079788208,0.615033745765686
1727683736596,9i,14.776758754731278,2.6s : 4.2s,6.090952951005934,1.3332169125786386,5.943251678616865,2.591353978792165,7.88264274597168,4.047666072845459,-5.1158223152160645,1.761423945426941,1.1744736433029175,1.494360327720642,-0.8594561350299811,2.6422310370622193,2.0264679190766266,0.3126271069049835,0.7574875950813293,0.573129415512085
1727683736606,9i,14.776758754731278,2.6s : 4.2s,6.412327904621437,1.3795568880782916,6.262169907383741,2.6950182720857487,8.087542533874512,3.791668176651001,-5.499425411224365,1.9527475833892822,1.0020873546600342,1.563880205154419,-0.9548487045602168,2.695345321900053,2.0436897388236335,0.24933983385562897,0.8162263631820679,0.5211570858955383
1727683736616,9i,14.776758754731278,2.6s : 4.2s,6.593279940378238,1.4288891422529497,6.436584202148349,2.8497817151949967,7.705563545227051,3.252840757369995,-5.9744553565979,2.119889736175537,0.7900334000587463,1.7329658269882202,-1.0503657734762295,2.763001954073311,2.0819450537958666,0.1837906688451767,0.8676051497459412,0.46204155683517456
1727683736626,9i,14.776758754731278,2.6s : 4.2s,6.645736294230558,1.4806576095665978,6.478693073119442,2.8978750761095715,6.992095470428467,2.9653255939483643,-6.350667953491211,2.237985372543335,0.46948879957199097,1.7800791263580322,-1.1397949825712805,2.8613704067766883,2.156975399067195,0.11554548889398575,0.9085478782653809,0.4014854431152344
1727683736636,9i,14.776758754731278,2.6s : 4.2s,6.6116444872254245,1.532861263912079,6.431498983211939,2.7636433548091976,6.308079719543457,2.6814396381378174,-6.63212251663208,2.2232649326324463,0.046923160552978516,1.6409192085266113,-1.21800832036422,3.01026883568094,2.2871990414962733,0.04524409398436546,0.9384130835533142,0.34254032373428345
1727683736646,9i,14.776758754731278,2.6s : 4.2s,6.507173718001355,1.5834543996274115,6.311575236068107,2.53801238333233,5.470119953155518,2.4806127548217773,-6.884329319000244,2.063098430633545,-0.3145221471786499,1.444370985031128,-1.2785139807678283,-3.0479234531455144,2.4969162147518458,-0.026950320228934288,0.9575887322425842,0.2868760824203491
1727683736656,9i,14.776758754731278,2.6s : 4.2s,6.341394693899174,1.631048693403358,6.128047553957116,2.3161186662778745,4.436983585357666,2.68481707572937,-6.950559139251709,1.8611948490142822,-0.5752105116844177,1.252793788909912,-1.3098881237684818,-2.7421755040671174,2.7875484887194655,-0.10031536221504211,0.9661561250686646,0.23765423893928528
1727683736666,9i,14.776758754731278,2.6s : 4.2s,6.187100052945431,1.6753366583926694,5.955959548737972,2.213585719571038,3.972862958908081,2.5009939670562744,-6.997603893280029,1.665118932723999,-0.864154577255249,1.17497980594635,-1.3078980781681573,-2.4127421040887835,3.1010215363184357,-0.17308402061462402,0.9656408429145813,0.19385571777820587
1727683736676,9i,14.776758754731278,2.6s : 4.2s,6.107683315111262,1.7167820869737298,5.861437941626152,2.227947578518294,3.9355220794677734,2.5150468349456787,-7.091926574707031,1.5179383754730225,-1.1263082027435303,1.1794250011444092,-1.27884254457026,-2.1221554216207976,-2.90646462015972,-0.2451721727848053,0.9576833844184875,0.15077519416809082
1727683736686,9i,14.776758754731278,2.6s : 4.2s,6.04186529274732,1.7560482345000783,5.781040634160412,2.163441217321285,4.121109962463379,2.501925230026245,-6.825360298156738,1.4352718591690063,-1.1324450969696045,1.1567370891571045,-1.2323352398967435,-1.8948176969043296,-2.694228100069789,-0.31475797295570374,0.943266749382019,0.1057141050696373
1727683736696,9i,14.776758754731278,2.6s : 4.2s,5.899817766364701,1.794638231513966,5.620242280747423,2.1102273429801635,4.484678745269775,2.2228405475616455,-6.009132385253906,1.4680254459381104,-0.9060838222503662,1.2153077125549316,-1.1796452288088797,-1.7223250017427534,-2.535299183101588,-0.37688466906547546,0.924470841884613,0.05754997953772545
1727683736706,9i,14.776758754731278,2.6s : 4.2s,5.68129255287118,1.8336903260490796,5.377235800991393,2.1240832847721256,4.947037220001221,1.6009224653244019,-5.050195217132568,1.6571426391601562,-0.5689032673835754,1.200815200805664,-1.1286105501108257,-1.5864289125902011,-2.408007578235473,-0.42786407470703125,0.9038184881210327,0.006689166650176048
1727683736716,9i,14.776758754731278,2.6s : 4.2s,5.478985699578292,1.8731392022055133,5.148847815321823,2.1590334231170987,5.250253200531006,1.3143725395202637,-4.44830322265625,1.8691328763961792,-0.3110992908477783,1.034883975982666,-1.0793598792516024,-1.4747698793566353,-2.299212611005975,-0.4697188138961792,0.8816559314727783,-0.04524458199739456
1727683736726,9i,14.776758754731278,2.6s : 4.2s,5.272742163701168,1.9126405111260851,4.913615389921298,2.166959066442198,5.021841049194336,1.2043864727020264,-4.084609508514404,1.9778457880020142,-0.3462880849838257,0.8148142099380493,-1.0298337820499417,-1.3825173160587456,-2.207959257130299,-0.5058609247207642,0.8572133779525757,-0.09638460725545883
1727683736736,9i,14.776758754731278,2.6s : 4.2s,5.010069402452985,1.9509375348078057,4.614611376126235,2.226904058362834,4.4033427238464355,0.9816671013832092,-3.754486322402954,1.9662768840789795,-0.7279291152954102,0.7503173351287842,-0.981291461633845,-1.3128084585170474,-2.1387824909176594,-0.5375508069992065,0.831216037273407,-0.1418425440788269
1727683736746,9i,14.776758754731278,2.6s : 4.2s,4.748668958985319,1.9881024619004468,4.312459331172422,2.466858354542113,3.9459469318389893,0.8333989977836609,-3.5734336376190186,1.9098871946334839,-1.3612143993377686,0.7647328972816467,-0.9346235102354339,-1.2617222118374316,-2.087529207055344,-0.5659693479537964,0.8043754696846008,-0.18071793019771576
1727683736756,9i,14.776758754731278,2.6s : 4.2s,4.48730554195854,2.024149395916384,4.004838355027974,2.735480271925173,3.332846164703369,0.5298428535461426,-3.5807137489318848,1.7414473295211792,-1.947983980178833,0.8096739649772644,-0.8892708925668971,-1.2247946254222417,-2.049844792745184,-0.592643678188324,0.7766126394271851,-0.2136504203081131
1727683736766,9i,14.776758754731278,2.6s : 4.2s,4.20375963182533,2.0592048955879143,3.6648697439542097,2.789199148442219,2.2193243503570557,0.4437543749809265,-3.7695977687835693,1.481453776359558,-2.192783832550049,0.8812636733055115,-0.8450519220752539,-1.2043262644897605,-2.0295199143926035,-0.6196221113204956,0.7480055689811707,-0.2378157526254654
1727683736776,9i,14.776758754731278,2.6s : 4.2s,3.8769695412609595,2.0932583009367027,3.2633054575728586,2.672182201172909,1.0077956914901733,0.4312628209590912,-3.5965752601623535,1.273749828338623,-2.176239252090454,0.8843652009963989,-0.8047943234491927,-1.1982852109561073,-2.0274755138755323,-0.6457132697105408,0.7206880450248718,-0.25231561064720154
1727683736786,9i,14.776758754731278,2.6s : 4.2s,3.550714839363081,2.1263791406593566,2.843604687828807,2.5339645371794886,0.13888826966285706,0.4794956147670746,-3.141082525253296,1.1822292804718018,-2.0801072120666504,0.83454430103302,-0.7715310083459361,-1.2011312273020407,-2.038053218459456,-0.668420135974884,0.6972335577011108,-0.2589980363845825
1727683736796,9i,14.776758754731278,2.6s : 4.2s,3.253622955792369,2.1584848471162887,2.434544208517982,2.3393593453063866,-0.35093310475349426,0.5503609776496887,-2.524327516555786,1.1236135959625244,-1.9088331460952759,0.7526291608810425,-0.7455964582108103,-1.2068892076358047,-2.053930907430239,-0.6865713596343994,0.6784101128578186,-0.261494517326355
1727683736806,9i,14.776758754731278,2.6s : 4.2s,2.9927053149694998,2.189604358642463,2.040077904115581,2.0700654999171073,-0.6921590566635132,0.687018871307373,-1.8552409410476685,1.0925908088684082,-1.618068814277649,0.687946081161499,-0.7270918329901648,-1.2121935278129836,-2.0710100399447544,-0.699585497379303,0.6646997332572937,-0.2622106075286865
1727683736816,9i,14.776758754731278,2.6s : 4.2s,2.779830472859926,2.220094425378214,1.6729130880727836,1.8483279079001906,-0.9087696671485901,0.8315390348434448,-1.204798698425293,1.0939826965332031,-1.3226248025894165,0.6856978535652161,-0.7156064032069076,-1.21611623311782,-2.08830291692857,-0.7077216506004333,0.6560751795768738,-0.2620985805988312
1727683736826,9i,14.776758754731278,2.6s : 4.2s,2.614158578516316,2.2502233491783628,1.3305337096229313,1.7399468644486165,-0.9909402132034302,0.9415816068649292,-0.5073252320289612,1.1296318769454956,-1.1380071640014648,0.6754899024963379,-0.710903039780428,-1.217404932156966,-2.103941185655877,-0.7109459042549133,0.6525183320045471,-0.2622512876987457
1727683736836,9i,14.776758754731278,2.6s : 4.2s,2.5080861243712587,2.280283993659377,1.0444141494275552,1.7335080047728888,-1.2187741994857788,0.9267650842666626,0.1201227456331253,1.1887400150299072,-1.071564793586731,0.6661051511764526,-0.7129513730310946,-1.2174626608221544,-2.1184392147960054,-0.709705650806427,0.6540691256523132,-0.26174724102020264
1727683736846,9i,14.776758754731278,2.6s : 4.2s,2.466319895349825,2.310543488876615,0.8626254182484117,1.7941964656218963,-1.4131736755371094,0.7529009580612183,0.654549241065979,1.2290868759155273,-1.1224696636199951,0.6697374582290649,-0.7211929562336477,-1.2185913133092368,-2.133024346202265,-0.7049168944358826,0.6602810621261597,-0.25907763838768005
1727683736856,9i,14.776758754731278,2.6s : 4.2s,2.490705513216426,2.3410714558284997,0.8502931213832841,1.8782185629804398,-1.711777925491333,0.5112380385398865,1.1283985376358032,1.246703863143921,-1.2611076831817627,0.6189037561416626,-0.734842910445256,-1.2226222703952063,-2.1483620484678676,-0.6974180340766907,0.6704705953598022,-0.2531352937221527
1727683736866,9i,14.776758754731278,2.6s : 4.2s,2.5972018926551557,2.371429295784319,1.0591415232665615,1.9359612055853326,-2.195775032043457,0.4795835614204407,1.6213624477386475,1.245451807975769,-1.3750746250152588,0.5531413555145264,-0.7543050701308682,-1.2303390004974781,-2.166931103078101,-0.6869191527366638,0.6847823858261108,-0.24334214627742767
1727683736876,9i,14.776758754731278,2.6s : 4.2s,2.7817519105518524,2.4015255473701123,1.40385851751078,1.9591995166523553,-2.7319655418395996,0.37911608815193176,2.1597867012023926,1.2408747673034668,-1.4306857585906982,0.5018274784088135,-0.7801782580871189,-1.2424042251698177,-2.1906632496867195,-0.6728052496910095,0.7034061551094055,-0.22924448549747467
1727683736886,9i,14.776758754731278,2.6s : 4.2s,3.0257982893345003,2.4311543749075795,1.801372724648434,1.98936131832464,-3.154155731201172,0.24765650928020477,2.729604959487915,1.2793062925338745,-1.4730796813964844,0.38854873180389404,-0.8126564496178181,-1.260125919335831,-2.219647330282255,-0.654657244682312,0.7261162400245667,-0.21018874645233154
1727683736896,9i,14.776758754731278,2.6s : 4.2s,3.314280771618319,2.4599706364654583,2.221036132269498,2.0321781526781786,-3.5925140380859375,0.16722291707992554,3.213379144668579,1.3498280048370361,-1.504411220550537,0.2108536958694458,-0.8509527479794513,-1.2837000105306804,-2.2544087219026503,-0.6322833895683289,0.7519088387489319,-0.1866837441921234
1727683736906,9i,14.776758754731278,2.6s : 4.2s,3.62678519786568,2.488136644472851,2.6387017470508076,2.079249401368233,-3.9851431846618652,0.03086303360760212,3.669132947921753,1.399559497833252,-1.5330326557159424,0.11967523396015167,-0.8942451731687965,-1.315198050756657,-2.29681279449785,-0.6057666540145874,0.7797366976737976,-0.1582951843738556
1727683736916,9i,14.776758754731278,2.6s : 4.2s,3.9548913316856162,2.51591358284046,3.051449539009437,2.153967536523143,-4.318113803863525,0.018809035420417786,4.167815208435059,1.454773187637329,-1.5878705978393555,0.043336883187294006,-0.9418795100119876,-1.3561419378874175,-2.348396501564064,-0.5747683048248291,0.8086651563644409,-0.12530703842639923
1727683736926,9i,14.776758754731278,2.6s : 4.2s,4.290409574943429,2.5435477629898435,3.45513807222745,2.199353624004235,-4.3662309646606445,0.07587702572345734,4.930654525756836,1.5275832414627075,-1.582064151763916,-0.026810884475708008,-0.9945589361501022,-1.4050959961195673,-2.4086843929986688,-0.5374099016189575,0.8385187387466431,-0.08987303823232651
1727683736936,9i,14.776758754731278,2.6s : 4.2s,4.644426650284763,2.571694869218795,3.8674389988090407,2.184274522214705,-4.251773834228516,-0.10224903374910355,5.899669170379639,1.6358917951583862,-1.4473768472671509,-0.003672182559967041,-1.0539339808598176,-1.4632447773502395,-2.4766119865851066,-0.49129948019981384,0.8693739175796509,-0.05304470658302307
1727683736946,9i,14.776758754731278,2.6s : 4.2s,5.082373812471332,2.6013368271191615,4.366184865711482,2.274607938063867,-4.461482048034668,-0.3483406603336334,7.015976905822754,1.8166882991790771,-1.3676254749298096,0.05554687976837158,-1.1212180041590076,-1.5388286030978353,-2.5594052372206137,-0.43436411023139954,0.9006304144859314,-0.013890363276004791
1727683736956,9i,14.776758754731278,2.6s : 4.2s,5.656132328821773,2.633631382167797,5.005578754150588,2.639342848459665,-5.261186599731445,-0.28046149015426636,8.158666610717773,2.096719980239868,-1.6025214195251465,0.04267430305480957,-1.1958005924055508,-1.65748694708487,-2.685047147822728,-0.36489322781562805,0.9305092096328735,0.03171230107545853
1727683736966,9i,14.776758754731278,2.6s : 4.2s,6.334419001045339,2.6705455650631595,5.743957735370771,3.3647452860344336,-6.476870536804199,-0.22530163824558258,9.044939994812012,2.466134786605835,-2.288761854171753,0.03548561781644821,-1.2696298310526097,-1.8703352010373173,-2.9080902937649378,-0.28342604637145996,0.9549911022186279,0.08753076195716858
1727683736976,9i,14.776758754731278,2.6s : 4.2s,6.9322824094953965,2.71614713037323,6.378015692295259,4.551099386974949,-7.944218158721924,-0.620809018611908,8.651253700256348,3.0541086196899414,-3.367668390274048,0.20913101732730865,-1.3158416704799554,-2.2466401569850203,2.988861246863651,-0.19676309823989868,0.967674732208252,0.1577666848897934
1727683736985,9i,14.776758754731278,2.6s : 4.2s,7.33376284505621,2.7765613325182987,6.7878409405562214,6.035253233499718,-9.803671836853027,-0.8515610694885254,6.685310363769531,4.207485198974609,-4.297473907470703,0.5030585527420044,-1.2946623781409197,-2.6827528981786757,2.545043639930463,-0.12075400352478027,0.9621166586875916,0.2444390505552292
1727683736995,9i,14.776758754731278,2.6s : 4.2s,7.67190002987472,2.8588628268569725,7.119336584655,7.282181014952192,-10.646217346191406,-3.140712022781372,5.425330638885498,5.9123334884643555,-4.083171367645264,1.1841387748718262,-1.2142684719110082,-2.970932144824863,2.2597348571876434,-0.059275735169649124,0.9371142983436584,0.3439527153968811
1727683737005,9i,14.776758754731278,2.6s : 4.2s,8.64505333413053,2.96960129977035,8.11901565895544,8.574860270695446,-12.570582389831543,-6.581924915313721,7.6213459968566895,7.782010555267334,-2.4491021633148193,2.6401588916778564,-1.1015901694255583,3.099359817381737,2.083336241352168,0.019091099500656128,0.8919275403022766,0.4517751634120941
1727683737015,9i,14.776758754731278,2.6s : 4.2s,9.914401967213252,3.1087334418858714,9.414411439637764,10.187863344629845,-10.970504760742188,-10.931920051574707,11.738295555114746,9.537434577941895,-0.18576127290725708,3.5770649909973145,-0.970576681569673,2.882780658315321,1.9337770409360122,0.14455679059028625,0.8252115845680237,0.5460126996040344
1727683737025,9i,14.776758754731278,2.6s : 4.2s,10.81428337230624,3.2693349979671047,10.30825754080711,10.824945966384291,-5.896981239318848,-13.690271377563477,13.597196578979492,10.106943130493164,1.0693278312683105,3.726351261138916,-0.8390543015316648,2.646924625213559,1.7905644655318746,0.3172053098678589,0.7440115809440613,0.5880714654922485
1727683737035,9i,14.776758754731278,2.6s : 4.2s,11.763440526316424,3.4442498832295474,11.247918730060992,10.437590973759965,-2.5403246879577637,-14.777547836303711,15.630865097045898,9.829092979431152,0.6278368234634399,3.4551494121551514,-0.7274661861524926,2.4079474181527125,1.6536060345829993,0.5000849962234497,0.6649793386459351,0.5547232031822205
1727683737055,9i,14.776758754731278,2.6s : 4.2s,13.228840793089178,3.64872798627404,12.7156994621248,12.603974862438667,-10.861263275146484,-15.009035110473633,15.40649127960205,11.3810396194458,-1.5095447301864624,5.201287746429443,-0.3820527008710319,2.025380849188747,1.5421959722385783,0.8336668610572815,0.37282595038414,0.4074312746524811
1727683737065,9i,14.776758754731278,2.6s : 4.2s,13.956653476600588,3.8760144528310203,13.407635445049674,13.10736962074578,-13.86402702331543,-13.147032737731934,12.389466285705566,11.901222229003906,-3.6506710052490234,4.103248596191406,-0.2071572869117611,1.9043757594823243,1.6065834548744846,0.9246745109558105,0.2056788057088852,0.32042670249938965
1727683737075,9i,14.776758754731278,2.6s : 4.2s,14.477888850550073,4.124990853121565,13.87781380587539,13.939470495547,-14.750850677490234,-13.186634063720703,11.07409954071045,12.905940055847168,-2.7205007076263428,4.51047945022583,-0.04972955113420692,1.7833975503616026,1.713991506835559,0.9762769937515259,0.049709055572748184,0.21074242889881134
1727683737085,9i,14.776758754731278,2.6s : 4.2s,14.776758754731278,4.392252009026818,14.108888035019888,14.427475508252108,-13.74721908569336,-13.373710632324219,10.689470291137695,13.413012504577637,-0.9300919771194458,5.232406139373779,0.07871732147389689,1.648323904915578,1.84025820599483,0.9939091205596924,-0.0786360502243042,0.07721012085676193
1727683737095,9i,14.776758754731278,2.6s : 4.2s,14.755851685485249,4.668728148362572,13.997790412801757,13.836380706666285,-11.174967765808105,-13.611635208129883,10.53258228302002,12.856410026550293,-0.5677648782730103,5.082892417907715,0.18502861107014862,1.4972649906615318,1.9658195529852505,0.98027503490448,-0.18397465348243713,-0.0722111240029335
1727683737105,9i,14.776758754731278,2.6s : 4.2s,14.561091845895698,4.949674567558361,13.694017577755483,13.376543903292728,-8.36068344116211,-14.280824661254883,10.44054126739502,12.405914306640625,-1.1097204685211182,4.877882480621338,0.2736092323293121,1.3317541719259423,2.081244660457639,0.9354248642921448,-0.2702081501483917,-0.22796466946601868
1727683737115,9i,14.776758754731278,2.6s : 4.2s,14.31761599880108,5.233346207461657,13.326898189825393,13.245719290967266,-6.089890956878662,-14.71572208404541,10.309735298156738,12.285037994384766,-1.64518141746521,4.671220302581787,0.3487534375444704,1.1541930432904945,2.187372718628076,0.859417200088501,-0.34172654151916504,-0.3802960515022278
1727683737125,9i,14.776758754731278,2.6s : 4.2s,14.002186726901433,5.516807521592844,12.869579165796809,13.008673016954164,-4.147982597351074,-14.23391342163086,10.259187698364258,12.210600852966309,-2.0777430534362793,3.976151943206787,0.4138093755856239,0.9707151057600851,2.289464548456472,0.7556318044662476,-0.4021000862121582,-0.5170456171035767
1727683737135,9i,14.776758754731278,2.6s : 4.2s,13.675258567562405,5.7983523947843585,12.385144585170877,12.957553481419067,-2.7217531204223633,-13.262537956237793,10.591322898864746,12.417197227478027,-2.0090160369873047,3.1105079650878906,0.47227370496359056,0.7897275876458876,2.391387615082143,0.6324245929718018,-0.4549122750759125,-0.6269720792770386
1727683737145,9i,14.776758754731278,2.6s : 4.2s,13.461449007743235,6.077948983784961,12.01120916221921,12.906032464105522,-2.3088672161102295,-12.485952377319336,11.137072563171387,12.463701248168945,-1.7534639835357666,2.854328155517578,0.5233166744821554,0.6075090708127857,2.5040889402249515,0.4944285750389099,-0.4997556805610657,-0.7111853361129761
1727683737155,9i,14.776758754731278,2.6s : 4.2s,13.239978688286962,6.356822365270226,11.61412265660619,12.84380820743945,-2.549311637878418,-11.652474403381348,10.729079246520996,12.30434799194336,-1.9668538570404053,3.114147663116455,0.5564281796785344,0.4214669978699317,2.629425433972254,0.3473856449127197,-0.528156578540802,-0.7748379707336426
1727683737165,9i,14.776758754731278,2.6s : 4.2s,13.048039550556842,6.6342198707202815,11.235589117613538,12.575923066769068,-2.8973019123077393,-11.324956893920898,10.108119010925293,11.901610374450684,-2.4466161727905273,3.2433903217315674,0.5642874333710417,0.23946243704985648,2.756418134112537,0.20041033625602722,-0.5348138809204102,-0.8208592534065247
1727683737175,9i,14.776758754731278,2.6s : 4.2s,12.949430862565602,6.911165639542818,10.95096110700651,12.567990933324323,-3.2849292755126953,-11.536453247070312,9.54922866821289,11.83110523223877,-2.2891056537628174,3.569221258163452,0.5487358562105598,0.06239830932139103,2.875538929589622,0.053202737122774124,-0.5216091275215149,-0.8515241742134094
1727683737185,9i,14.776758754731278,2.6s : 4.2s,12.866766164998808,7.187684548915058,10.671966190447092,12.511141644956231,-3.5395073890686035,-11.41653060913086,8.963203430175781,11.787351608276367,-1.7076444625854492,3.830268621444702,0.5125655059931057,-0.10614305160228775,2.9818512847413383,-0.09232892841100693,-0.49041467905044556,-0.8665845990180969
1727683737195,9i,14.776758754731278,2.6s : 4.2s,12.809456655256215,7.461670435097643,10.411803595961532,12.15240214553597,-2.6944048404693604,-11.764304161071777,8.308196067810059,11.411293029785156,-1.2097315788269043,3.9999773502349854,0.46491799950048374,-0.26353034644195744,3.0711556494967467,-0.23284173011779785,-0.4483495056629181,-0.8629991412162781
1727683737205,9i,14.776758754731278,2.6s : 4.2s,12.801012503275897,7.731100670486434,10.202744901830588,11.789873497247173,-1.8390592336654663,-11.919326782226562,8.132713317871094,11.000158309936523,-0.3215944468975067,4.230154991149902,0.4174779495124145,-0.4155715344996968,-3.134864110140166,-0.36903977394104004,-0.4054563045501709,-0.8363102674484253
1727683737215,9i,14.776758754731278,2.6s : 4.2s,12.658500302053264,7.9879237421826925,9.819913654720017,10.550633311420444,-2.3645565509796143,-10.413137435913086,7.933496952056885,9.846479415893555,0.6448338031768799,3.7345542907714844,0.36178071606482426,-0.5534754291997133,-3.0679620569120485,-0.491620808839798,-0.3539402484893799,-0.7956351637840271
1727683737225,9i,14.776758754731278,2.6s : 4.2s,12.356014941245967,8.225711434421953,9.220020424376159,9.037175775935797,-3.6840693950653076,-8.590209007263184,7.094210624694824,8.581193923950195,0.622441291809082,2.7651805877685547,0.2941769408875558,-0.6631132328886866,-3.021034083748077,-0.5891289710998535,-0.28995224833488464,-0.7542246580123901
1727683737235,9i,14.776758754731278,2.6s : 4.2s,12.021337067330338,8.446198844597067,8.554196044275436,8.45767929293343,-4.341955184936523,-7.584430694580078,5.9832916259765625,8.109964370727539,0.610444188117981,2.321244239807129,0.22092527399125453,-0.7497116881425796,-2.99712232693876,-0.6648657917976379,-0.21913249790668488,-0.7140970230102539
1727683737245,9i,14.776758754731278,2.6s : 4.2s,11.691197322246323,8.650402322748079,7.864771737456482,7.889729868243317,-3.87097430229187,-6.943027973175049,5.033605575561523,7.5154852867126465,0.9683309197425842,2.1971921920776367,0.15283941148251912,-0.8234925694694166,-2.9875550029562765,-0.724973201751709,-0.15224505960941315,-0.6717404723167419
1727683737255,9i,14.776758754731278,2.6s : 4.2s,11.403961426124058,8.83815833727813,7.20675331988868,7.17080568237896,-2.957007884979248,-6.765700340270996,4.185119152069092,6.708309650421143,1.2870759963989258,2.1823086738586426,0.09544835126127467,-0.8922783324295082,-2.9834726687446342,-0.7749602198600769,-0.0953034907579422,-0.6247830986976624
1727683737265,9i,14.776758754731278,2.6s : 4.2s,11.106486186457188,9.008594774177189,6.4960954122173895,6.380854652115299,-0.8889353275299072,-6.426490306854248,3.4942920207977295,5.856271743774414,1.566766381263733,1.991137981414795,0.05298197340260098,-0.9588663453248879,-2.9765730166374733,-0.8173922896385193,-0.052957188338041306,-0.5736422538757324
1727683737275,9i,14.776758754731278,2.6s : 4.2s,10.888410468139,9.16206812535633,5.883365549497032,5.787402081119681,1.499304175376892,-6.293356418609619,3.3854265213012695,5.245467185974121,1.819284439086914,1.6337995529174805,0.026486560864628556,-1.0226239033049707,-2.954832169569578,-0.8531789779663086,-0.02648346498608589,-0.5209454894065857
1727683737285,9i,14.776758754731278,2.6s : 4.2s,10.844115881552073,9.303648177869809,5.571084260262959,5.988117198476303,2.580528497695923,-6.680422782897949,3.3999500274658203,5.185822486877441,2.3281877040863037,1.8826403617858887,0.007417546597252881,-1.0879145544154512,-2.9195590906545767,-0.8856361508369446,-0.00741747859865427,-0.4643206000328064
1727683737295,9i,14.776758754731278,2.6s : 4.2s,10.895492005413582,9.436725124543639,5.446096305046222,5.84695775982796,2.824321985244751,-7.053101062774658,2.9487791061401367,4.860409736633301,2.209341526031494,2.3837244510650635,-0.009668055109366813,-1.156537519780173,-2.8808849604626876,-0.9153721332550049,0.009667904116213322,-0.4024927318096161
1727683737305,9i,14.776758754731278,2.6s : 4.2s,10.955038993281407,9.562128277456512,5.345893952350967,5.223892315485022,1.9155124425888062,-7.3313069343566895,2.0041635036468506,4.275971412658691,1.3715081214904785,2.669098138809204,-0.02340676924487742,-1.2277252749736898,-2.8488879169298076,-0.9414681792259216,0.02340463176369667,-0.3362886309623718
1727683737315,9i,14.776758754731278,2.6s : 4.2s,10.973789644987505,9.68049665343963,5.168369541274999,4.915091982223242,-0.2846013605594635,-7.305853366851807,1.054542899131775,3.90926194190979,1.1230348348617554,2.7594552040100098,-0.035114508746952475,-1.3007183132454716,-2.836008905010412,-0.9631561636924744,0.035107292234897614,-0.26664218306541443
1727683737325,9i,14.776758754731278,2.6s : 4.2s,10.923842686165555,9.790215983352429,4.845823978582318,4.4706078817779495,-1.9850082397460938,-6.499787330627441,-0.16932421922683716,3.4432225227355957,1.3644388914108276,2.5037691593170166,-0.04257172120304637,-1.3696148378405308,-2.8459786056302314,-0.9789435267448425,0.04255886375904083,-0.19964610040187836
1727683737335,9i,14.776758754731278,2.6s : 4.2s,10.877853477422581,9.887894088985876,4.53401000895154,3.688429891891424,-2.049320936203003,-5.712520122528076,-0.1387828141450882,2.7098610401153564,1.520887017250061,1.9869753122329712,-0.04730686197950927,-1.4328085794569556,-2.8649578952702797,-0.9893867373466492,0.04728921875357628,-0.13739639520645142
1727683737345,9i,14.776758754731278,2.6s : 4.2s,10.832049394000277,9.973945323623063,4.225364925712267,3.4812261017316053,-1.6962915658950806,-5.019786834716797,0.5613182187080383,2.371997833251953,1.9164953231811523,1.6791685819625854,-0.05116312643337736,-1.4867559862385842,-2.881830844843408,-0.9951668381690979,0.05114080756902695,-0.08383161574602127
1727683737355,9i,14.776758754731278,2.6s : 4.2s,10.741908081806354,10.049075137162816,3.79534953932214,3.350206786367044,-1.8571867942810059,-3.8404083251953125,0.5243375301361084,2.01993465423584,2.211822032928467,1.5005308389663696,-0.056197799843864846,-1.529753481454712,-2.8987176102376204,-0.9975806474685669,0.05616822466254234,-0.04096655547618866
1727683737365,9i,14.776758754731278,2.6s : 4.2s,10.654214945615896,10.113996708689335,3.3495323082493864,2.918583602710904,-2.030630588531494,-2.976111650466919,0.47026029229164124,1.5892579555511475,1.9975016117095947,1.4150536060333252,-0.061558308068263345,-1.5645750198481234,-2.91815787205387,-0.99808669090271,0.06151943653821945,-0.006209483835846186
1727683737375,9i,14.776758754731278,2.6s : 4.2s,10.601114819069847,10.171137646834696,2.9885773164240366,2.560573128268671,-1.949116826057434,-2.66347599029541,0.45601609349250793,1.439619779586792,1.6048662662506104,1.3814607858657837,-0.06604964405333823,-1.5937150069620487,-2.9383598951933845,-0.9975576400756836,0.06600163131952286,0.022866707295179367
1727683737385,9i,14.776758754731278,2.6s : 4.2s,10.56865521900757,10.222599553392792,2.6823369492346543,2.3502845595861306,-1.415979266166687,-2.56669545173645,0.3420098125934601,1.328813910484314,1.2982953786849976,1.4396250247955322,-0.06940567572464762,-1.6209064288235473,-2.955576689257211,-0.9963403344154358,0.06934996694326401,0.049968548119068146
1727683737395,9i,14.776758754731278,2.6s : 4.2s,10.565800740070406,10.269487210803403,2.484708776902775,2.1982944737692627,-1.04770827293396,-2.7996063232421875,0.41600361466407776,1.2306361198425293,1.167726993560791,1.3980153799057007,-0.07218861769948304,-1.648325920822053,-2.967721999588548,-0.9943996071815491,0.07212593406438828,0.07725024223327637
1727683737405,9i,14.776758754731278,2.6s : 4.2s,10.592342588259035,10.31262780039308,2.4181458511855443,2.1828316636722778,-1.2863376140594482,-3.0564043521881104,0.6245638728141785,1.1005321741104126,1.1797738075256348,1.4702777862548828,-0.07626635695834212,-1.678554198485186,-2.9795127509028227,-0.9913097620010376,0.0761924460530281,0.1072368249297142
1727683737415,9i,14.776758754731278,2.6s : 4.2s,10.62299138767831,10.35301317826694,2.379719343392965,2.1755998771062797,-1.8297375440597534,-2.9491066932678223,0.017480092123150826,1.0388457775115967,1.144078016281128,1.5313783884048462,-0.07875120277742456,-1.7133910942940123,-2.996018651391402,-0.9867828488349915,0.07866983115673065,0.1416715830564499
1727683737425,9i,14.776758754731278,2.6s : 4.2s,10.672849145948108,10.389641653137774,2.442346251363596,1.8824103198132054,-2.190455675125122,-3.258549451828003,-0.3965787887573242,0.769371747970581,0.9756808876991272,1.414065957069397,-0.07964008954754837,-1.75462649784383,-3.0174380986781495,-0.980034589767456,0.0795559287071228,0.18221715092658997
1727683737435,9i,14.776758754731278,2.6s : 4.2s,10.744980975852574,10.422148082601204,2.6140859809435866,1.5697968608027828,-2.1573286056518555,-3.945953369140625,-0.0759403333067894,0.5725801587104797,0.7459338903427124,1.25697922706604,-0.07711007112366669,-1.7967315780066229,-3.0390827103506397,-0.9716890454292297,0.07703367620706558,0.22335226833820343
1727683737445,9i,14.776758754731278,2.6s : 4.2s,10.807411401755433,10.45134752522207,2.7512680919582957,1.426203571423184,-1.9886481761932373,-4.126565933227539,-0.013269765302538872,0.5334963798522949,0.6209880113601685,1.1678236722946167,-0.07191452610486176,-1.8387362752993195,-3.0588933389804525,-0.9618258476257324,0.07185255736112595,0.2640611529350281
1727683737455,9i,14.776758754731278,2.6s : 4.2s,10.842146524397625,10.477895253785693,2.786727885388657,1.3791292241387443,-1.5911498069763184,-3.9853367805480957,-0.1870274394750595,0.4724574685096741,0.5689943432807922,1.1640561819076538,-0.06562005260213505,-1.8802363437053469,-3.0760590493400417,-0.9504543542861938,0.06557296961545944,0.30386993288993835
1727683737465,9i,14.776758754731278,2.6s : 4.2s,10.858535639966282,10.502336071754733,2.7583932425122604,1.4491142683315292,-0.9691188931465149,-3.957005262374878,0.015545038506388664,0.40955519676208496,0.6691515445709229,1.2183730602264404,-0.060453800446779817,-1.9206922545146514,-3.0878419728383197,-0.9376925230026245,0.06041698530316353,0.34217390418052673
1727683737475,9i,14.776758754731278,2.6s : 4.2s,10.848654452805205,10.52629753430208,2.6249502196643992,1.646874837853484,-0.10755433887243271,-3.6042027473449707,0.4742247462272644,0.35667669773101807,0.8325146436691284,1.3754627704620361,-0.06075700912296913,-1.9587744049311213,-3.0939329939742226,-0.9239680171012878,0.06071963533759117,0.37761956453323364
1727683737485,9i,14.776758754731278,2.6s : 4.2s,10.853077112925865,10.54881595251538,2.5518159845632042,1.5912125274117292,0.7037038803100586,-3.770282030105591,0.39688411355018616,0.3052070736885071,0.9012552499771118,1.2753607034683228,-0.06647556803865391,-1.9950879496516984,-3.092874821350099,-0.9093177318572998,0.06642661988735199,0.410766065120697
1727683737495,9i,14.776758754731278,2.6s : 4.2s,10.889513056319505,10.568382073392868,2.625032372093959,1.4106780353702963,0.9361400604248047,-4.26140022277832,0.0990295484662056,0.11723572015762329,0.8451739549636841,1.1233651638031006,-0.07217082278134873,-2.0339795690031726,-3.0858104041087504,-0.8923059701919556,0.0721081867814064,0.4456351399421692
1727683737505,9i,14.776758754731278,2.6s : 4.2s,10.930014183231476,10.584724181482793,2.72558691800035,1.335729706573892,0.320905476808548,-4.417856216430664,0.018297581002116203,-0.07261794805526733,0.7654756307601929,1.0922213792800903,-0.0714075623191472,-2.070406213695481,-3.077616782114821,-0.8755325078964233,0.07134689390659332,0.4778621792793274
1727683737515,9i,14.776758754731278,2.6s : 4.2s,10.86551290252926,10.597904691698071,2.3966198657095794,1.2237334219349174,-0.19491687417030334,-2.415944814682007,-0.912987470626831,-0.20401757955551147,0.6375567317008972,1.0244128704071045,-0.06255733710960984,-2.096906839609341,-3.071928253586007,-0.8630754947662354,0.06251654028892517,0.5011914968490601
1727683737525,9i,14.776758754731278,2.6s : 4.2s,10.75256356540981,10.60675306919709,1.7647698312405031,0.9982830788454459,-0.3473851680755615,-0.2541728913784027,-1.3324071168899536,-0.46160459518432617,0.3948974311351776,0.792178213596344,-0.049871203381239994,-2.108611949053901,-3.0677759118107386,-0.8577620387077332,0.04985053464770317,0.5116243958473206
1727683737535,9i,14.776758754731278,2.6s : 4.2s,10.668179447255135,10.611800343323184,1.0953292620408064,0.829338262685531,-0.39387622475624084,1.0211542844772339,-0.8363107442855835,-0.5199193954467773,0.17413146793842316,0.6222250461578369,-0.038646740603728816,-2.104143980081518,-3.065284280474236,-0.8604669570922852,0.03863712027668953,0.5080392956733704
1727683737545,9i,14.776758754731278,2.6s : 4.2s,10.631985749207345,10.615824097320123,0.5860031621975105,0.589502248985517,-0.6237041354179382,1.6510289907455444,-0.5116721391677856,-0.2079675793647766,0.08655180037021637,0.5447670817375183,-0.030518394414148057,-2.0905285109705702,-3.066379442972835,-0.8675482869148254,0.03051365725696087,0.4964165687561035
1727683737554,9i,14.776758754731278,2.6s : 4.2s,10.632233124881234,10.620756078495964,0.4938841391589533,0.5190702876637494,-0.6350886225700378,1.6853374242782593,-0.5871594548225403,0.09856104850769043,0.1257847398519516,0.4938601851463318,-0.022654733763876257,-2.07343862225157,-3.069511765561105,-0.8760880827903748,0.022652795538306236,0.4816191792488098
1727683737564,9i,14.776758754731278,2.6s : 4.2s,10.644706073146073,10.627450741368982,0.6058532193929115,0.6253327667974248,-0.42516759037971497,1.1652913093566895,-0.853773295879364,0.30414968729019165,0.24949170649051666,0.48609456419944763,-0.013829674191167068,-2.058986706823883,-3.0707125796169117,-0.8830986618995667,0.01382923312485218,0.46898359060287476
1727683737574,9i,14.776758754731278,2.6s : 4.2s,10.657930859295398,10.63607742481558,0.6821636276213514,0.786398170978999,-0.4117705523967743,0.5954267978668213,-1.0735570192337036,0.4114985466003418,0.4103160798549652,0.5298412442207336,-0.003349711065295097,-2.0500624691132803,-3.0697329835473,-0.887328565120697,0.0033497049007564783,0.46112552285194397
1727683737584,9i,14.776758754731278,2.6s : 4.2s,10.672247652059342,10.64626025478744,0.7443201825957706,0.8818970282524099,-0.6744205951690674,0.0033882667776197195,-1.2639455795288086,0.46104973554611206,0.5428987741470337,0.5200350284576416,0.009497397885442465,-2.047052944075838,-3.0691310786815142,-0.8886772394180298,-0.009497255086898804,0.45843490958213806
1727683737594,9i,14.776758754731278,2.6s : 4.2s,10.692378404603266,10.657190228387305,0.8667481659584936,0.8545514744516479,-1.0516825914382935,-0.3134858310222626,-1.4883209466934204,0.4365113377571106,0.5722204446792603,0.4607383608818054,0.025699174941755207,-2.04879927834947,-3.0703875582710944,-0.8876223564147949,-0.025696346536278725,0.4598550796508789
1727683737604,9i,14.776758754731278,2.6s : 4.2s,10.71453268762142,10.668132467554326,0.996072471671166,0.7328631010756796,-1.2550547122955322,-0.19424490630626678,-1.5103727579116821,0.379402756690979,0.48877954483032227,0.3927294611930847,0.04461097445524959,-2.0513824801981726,-3.0738996025986713,-0.8858421444892883,-0.04459618031978607,0.4618391990661621
1727683737614,9i,14.776758754731278,2.6s : 4.2s,10.728221699656899,10.67855769111154,1.0310899449571467,0.5745704196727388,-0.872002124786377,-0.011099062860012054,-1.412818431854248,0.3412691354751587,0.36617785692214966,0.2820998430252075,0.06258406371098627,-2.052148101312829,-3.076839465650205,-0.8846349120140076,-0.06254322081804276,0.4620715379714966
1727683737624,9i,14.776758754731278,2.6s : 4.2s,10.736952116076326,10.688074752361898,1.0233273331833064,0.44726336438263337,-0.3149486780166626,0.15626223385334015,-1.4808619022369385,0.2994670271873474,0.28100597858428955,0.17719948291778564,0.07803644415002749,-2.051469339747762,-3.075387377992503,-0.883985698223114,-0.07795726507902145,0.4609690010547638
1727683737634,9i,14.776758754731278,2.6s : 4.2s,10.745436203536615,10.69671750251395,1.0220733220699367,0.4263476026722718,-0.15109728276729584,0.19222964346408844,-1.6208821535110474,0.27449285984039307,0.2897837162017822,0.14983773231506348,0.09272723047146993,-2.050072433025631,-3.069956610999904,-0.8835172057151794,-0.09259440749883652,0.4591560363769531
1727683737644,9i,14.776758754731278,2.6s : 4.2s,10.758372976097343,10.704867135410424,1.0716383279966173,0.4925286603836873,-0.43170106410980225,0.12170709669589996,-1.7277567386627197,0.2924155592918396,0.3612813949584961,0.16295206546783447,0.10885645671613199,-2.0489411724738655,-3.064648200523592,-0.8825950026512146,-0.1086415946483612,0.45740941166877747
1727683737654,9i,14.776758754731278,2.6s : 4.2s,10.774769605353136,10.712940996687871,1.152629710672975,0.5171523001737417,-0.7788323760032654,0.011468208394944668,-1.8447792530059814,0.3294873833656311,0.37719520926475525,0.12887334823608398,0.1275099333682889,-2.0485895335769686,-3.0618605976697197,-0.8808026909828186,-0.12716469168663025,0.4560876786708832
1727683737664,9i,14.776758754731278,2.6s : 4.2s,10.794416303326306,10.72081010569688,1.2584331555964272,0.4828695199889132,-1.0752809047698975,-0.04936087504029274,-1.9844684600830078,0.35395902395248413,0.31839585304260254,0.08062297105789185,0.14871637441815733,-2.0488348637632905,-3.0612522544349985,-0.8780986070632935,-0.14816880226135254,0.4549607038497925
1727683737674,9i,14.776758754731278,2.6s : 4.2s,10.81591667579783,10.728611838740482,1.3714742255832442,0.4627151028982148,-1.3715804815292358,-0.021213127300143242,-2.043952465057373,0.3679954409599304,0.2709978520870209,0.07242089509963989,0.17234723152259787,-2.048946646891242,-3.0628269696088357,-0.8746942281723022,-0.17149527370929718,0.45332086086273193
1727683737684,9i,14.776758754731278,2.6s : 4.2s,10.83562433298645,10.736452675483955,1.462647815675885,0.4855615172370534,-1.6085050106048584,-0.03521176800131798,-1.9567168951034546,0.38861310482025146,0.2790088653564453,0.083089679479599,0.19698250220425645,-2.048459795085694,-3.0669082528128464,-0.870897650718689,-0.19571107625961304,0.45081549882888794
1727683737694,9i,14.776758754731278,2.6s : 4.2s,10.853770927020392,10.74456557567586,1.5357909773905962,0.5293318405335621,-1.7295496463775635,0.009861434809863567,-1.9042329788208008,0.40122729539871216,0.32350319623947144,0.12064218521118164,0.22173913691102368,-2.0472969698283254,-3.0731339452764352,-0.8668493032455444,-0.21992650628089905,0.44744256138801575
1727683737704,9i,14.776758754731278,2.6s : 4.2s,10.872877343852739,10.752790397430557,1.611508735127237,0.5420372602080813,-1.7277390956878662,-0.024511096999049187,-2.037961006164551,0.38909900188446045,0.3573514223098755,0.12126961350440979,0.24707994661834573,-2.0457534952635377,-3.0796999232049975,-0.8623044490814209,-0.24457363784313202,0.4434124231338501
1727683737714,9i,14.776758754731278,2.6s : 4.2s,10.893645970861993,10.76097797209547,1.6949559352838108,0.5336903961222775,-1.7180169820785522,-0.12202752381563187,-2.229917049407959,0.36377471685409546,0.3749389350414276,0.10915213823318481,0.2739046199981229,-2.0449905518862765,-3.0854165914468674,-0.8564963936805725,-0.2704925537109375,0.4395999014377594
1727683737724,9i,14.776758754731278,2.6s : 4.2s,10.915445541675885,10.769122012517075,1.7812811268331787,0.5484912424880801,-1.7723455429077148,-0.25924602150917053,-2.3560268878936768,0.3579656481742859,0.39291927218437195,0.13534283638000488,0.3022551601009156,-2.0453785789754284,-3.090672657686106,-0.8491613268852234,-0.29767388105392456,0.43625155091285706
1727683737734,9i,14.776758754731278,2.6s : 4.2s,10.93991757803152,10.777353000092146,1.8789515495424172,0.5615989337657636,-1.8454829454421997,-0.3923143446445465,-2.5190529823303223,0.3594666123390198,0.39503487944602966,0.17356428503990173,0.3320897558155049,-2.047044508981818,-3.095844858267943,-0.8401642441749573,-0.3260193169116974,0.43339991569519043
1727683737744,9i,14.776758754731278,2.6s : 4.2s,10.968482944142401,10.785567120706997,1.9947831913937342,0.5302690617986507,-1.9461489915847778,-0.4248054027557373,-2.7300143241882324,0.3361375331878662,0.37176698446273804,0.17316508293151855,0.3641032077896467,-2.049457389547464,-3.100926094950893,-0.8294236660003662,-0.35611143708229065,0.4303963780403137
1727683737754,9i,14.776758754731278,2.6s : 4.2s,10.994887603731856,10.793456060778121,2.094960544437168,0.4816112898904166,-2.047600746154785,-0.3536374866962433,-2.7794413566589355,0.30769532918930054,0.3435351848602295,0.13876813650131226,0.3978308774649146,-2.051449158438579,-3.106219223964266,-0.8174458742141724,-0.38741952180862427,0.4262496829032898
1727683737764,9i,14.776758754731278,2.6s : 4.2s,11.01823303752636,10.801025736525453,2.1769938695715556,0.4703189148680477,-2.2713515758514404,0.001979365712031722,-2.720531702041626,0.2966628670692444,0.34114694595336914,0.12965255975723267,0.43203832825086474,-2.0506389030958014,-3.1131908104248365,-0.8055589199066162,-0.4187227189540863,0.41922152042388916
1727683737774,9i,14.776758754731278,2.6s : 4.2s,11.043460869210973,10.808185774053536,2.267410029822741,0.4592704322386153,-2.4911129474639893,0.30382177233695984,-2.7554690837860107,0.2833999991416931,0.34836170077323914,0.09621796011924744,0.46732979310219624,-2.044584090237225,-3.1228104762757023,-0.7944321036338806,-0.45050400495529175,0.4073373079299927
1727683737784,9i,14.776758754731278,2.6s : 4.2s,11.055936825448518,10.81497820853611,2.2956448848194517,0.45827298173811337,-2.4174556732177734,0.11269522458314896,-2.5675878524780273,0.2734050154685974,0.3652958571910858,0.04269379377365112,0.5023905963794575,-2.037131507822945,-3.134098960333913,-0.7828503251075745,-0.4815221130847931,0.3940586745738983
1727683737794,9i,14.776758754731278,2.6s : 4.2s,11.047335235395051,10.821772045812658,2.221005536163461,0.5273742770770857,-1.9985332489013672,0.09259342402219772,-2.3037631511688232,0.3015514612197876,0.414517343044281,0.1239585280418396,0.5338804678610282,-2.031202124836914,3.138796643826141,-0.7712016701698303,-0.5088776350021362,0.38248077034950256
1727683737804,9i,14.776758754731278,2.6s : 4.2s,11.04683616539277,10.828699778454203,2.1844565395391946,0.5661623640809152,-1.906955361366272,0.26110929250717163,-2.4774186611175537,0.283069372177124,0.4469361901283264,0.201642245054245,0.5634902377994131,-2.0252994037033254,3.130827469239861,-0.7595707774162292,-0.5341400504112244,0.37114226818084717
1727683737814,9i,14.776758754731278,2.6s : 4.2s,11.066798693567213,10.835456708828897,2.250980061003607,0.5077819635930773,-2.147982597351074,0.4699099063873291,-2.851325750350952,0.1972460150718689,0.43842440843582153,0.1634642779827118,0.5962548459635226,-2.0174437042169355,3.1229777678158865,-0.7462725043296814,-0.5615475177764893,0.35740989446640015
