timestamp,club,max_speed,tempo,speed,acc,rotation.x,rotation.y,rotation.z,userAcceleration.x,userAcceleration.y,userAcceleration.z,pitch,roll,yaw,gravity.x,gravity.y,gravity.z,lsp
1727343802739,9i,17.45318649397476,2.1s : 3.8s,0.33994524284176303,0.056124340923806686,-0.5020870566368103,-0.06718812882900238,-0.0005592162488028407,0.027934394776821136,-0.04866623878479004,-0.0010992884635925293,-0.46652945384188615,-0.1316525706329091,-0.03132198389616594,-0.11724410951137543,0.4497893452644348,-0.8854057788848877,0.0
1727343802749,9i,17.45318649397476,2.1s : 3.8s,0.3612802873773345,0.04958383892523781,-0.5341142416000366,-0.06688851863145828,0.008596997708082199,0.02771851420402527,-0.03987887501716614,-0.009995818138122559,-0.47169763931222103,-0.1327231364436833,-0.032077400003614046,-0.11788272112607956,0.4543991982936859,-0.8829637765884399,0.0
1727343802759,9i,17.45318649397476,2.1s : 3.8s,0.3572145298121793,0.05282635548927704,-0.5286523103713989,-0.05358816310763359,0.03153563663363457,0.02669476717710495,-0.0361863374710083,-0.027722954750061035,-0.47696353461657276,-0.13356820871057487,-0.03266120329791806,-0.11830855160951614,0.4590837359428406,-0.8804801106452942,0.0
1727343802769,9i,17.45318649397476,2.1s : 3.8s,0.35033849831328057,0.0639481024257787,-0.5145686864852905,-0.06312786787748337,0.06140325590968132,0.027749814093112946,-0.03709733486175537,-0.04408055543899536,-0.48222140272493064,-0.13426885801867683,-0.032928967276308625,-0.11860065907239914,0.46374839544296265,-0.8779928088188171,0.0
1727343802779,9i,17.45318649397476,2.1s : 3.8s,0.2920752946377476,0.053439527893498415,-0.41876301169395447,-0.07500627636909485,0.09185373783111572,0.025713734328746796,-0.03266549110412598,-0.03357905149459839,-0.4869731328655323,-0.13491323880990583,-0.032776644095637214,-0.11886865645647049,0.46795302629470825,-0.8757227063179016,0.0
1727343802789,9i,17.45318649397476,2.1s : 3.8s,0.24042890228782404,0.038814352781575794,-0.3399654030799866,-0.044662218540906906,0.10385847091674805,0.026423916220664978,-0.02835783362388611,0.002040565013885498,-0.4908047383319117,-0.13526951737556075,-0.03224838133268579,-0.11893797665834427,0.471335768699646,-0.8738971948623657,0.0
1727343802799,9i,17.45318649397476,2.1s : 3.8s,0.2461056629412974,0.042567175372127786,-0.35734331607818604,-0.04336659610271454,0.07011222839355469,0.030523069202899933,-0.029428064823150635,-0.003780961036682129,-0.4943572433610176,-0.13545301389586287,-0.03177292693832281,-0.11887147277593613,0.474465936422348,-0.8722108006477356,0.0
1727343802809,9i,17.45318649397476,2.1s : 3.8s,0.26471758929117556,0.04422780588502587,-0.3870234489440918,-0.0675765872001648,0.03532681241631508,0.029764622449874878,-0.02548918128013611,-0.020505309104919434,-0.49810284843487584,-0.13599781429791885,-0.031751027272957845,-0.11910485476255417,0.47775977849960327,-0.8703790307044983,0.0
1727343802818,9i,17.45318649397476,2.1s : 3.8s,0.2813488208787067,0.04738061444994918,-0.4087778925895691,-0.08940954506397247,0.02596626617014408,0.02548118680715561,-0.026607275009155273,-0.029794037342071533,-0.5020721045177734,-0.1369148395595117,-0.03204613495498583,-0.1196431890130043,0.48124295473098755,-0.8683840036392212,0.0
1727343802828,9i,17.45318649397476,2.1s : 3.8s,0.29525944987602926,0.05942895196344717,-0.4245414137840271,-0.10942666232585907,0.036994416266679764,0.03361088037490845,-0.03423038125038147,-0.035076916217803955,-0.5062299502259119,-0.13803774084318404,-0.03232948641472464,-0.12034185230731964,0.48488348722457886,-0.8662596940994263,0.0
1727343802838,9i,17.45318649397476,2.1s : 3.8s,0.29676930864106704,0.064850997064675,-0.4255616068840027,-0.11198373883962631,0.04381786659359932,0.045285068452358246,-0.0333578884601593,-0.03228259086608887,-0.5105064495069376,-0.1392711831455749,-0.03256050704713074,-0.12112127244472504,0.4886191785335541,-0.8640491962432861,0.0
1727343802848,9i,17.45318649397476,2.1s : 3.8s,0.2856143824937702,0.059390984281200654,-0.40891551971435547,-0.11226017773151398,0.03637992590665817,0.04998805373907089,-0.02049306035041809,-0.02466815710067749,-0.5146892447988074,-0.14050821978702416,-0.03275529570533276,-0.12190274894237518,0.49226438999176025,-0.8618674874305725,0.0
1727343802858,9i,17.45318649397476,2.1s : 3.8s,0.2858356162119059,0.05131751630528434,-0.41454949975013733,-0.09575727581977844,0.019943129271268845,0.042967289686203,-0.009728938341140747,-0.02631819248199463,-0.5187883499962077,-0.14172344142728224,-0.03308758137146459,-0.1226639673113823,0.4958282709121704,-0.8597138524055481,0.0
1727343802868,9i,17.45318649397476,2.1s : 3.8s,0.3065082204489607,0.03217331731880683,-0.447190523147583,-0.09178783744573593,-0.014305388554930687,0.026216089725494385,-0.00433194637298584,-0.01814037561416626,-0.523033312249797,-0.1429645213344855,-0.03377236796275712,-0.12342984974384308,0.4995102286338806,-0.857469916343689,0.0
1727343802878,9i,17.45318649397476,2.1s : 3.8s,0.32556479375271585,0.015842767024541644,-0.46527472138404846,-0.13060127198696136,-0.042636629194021225,0.01252136379480362,0.0031188130378723145,-0.009191393852233887,-0.527525468455774,-0.14461571278560684,-0.03486655801252953,-0.12452089786529541,0.50339674949646,-0.8550358414649963,0.0
1727343802888,9i,17.45318649397476,2.1s : 3.8s,0.30429643350326463,0.02788802188386415,-0.4276258945465088,-0.14506490528583527,-0.041248854249715805,0.015081197023391724,0.018539071083068848,-0.01437366008758545,-0.531918065694378,-0.14665072782982977,-0.03612537415206366,-0.12593631446361542,0.5071873068809509,-0.852584958076477,0.0
1727343802898,9i,17.45318649397476,2.1s : 3.8s,0.2623718535384501,0.032168287288708595,-0.3687784671783447,-0.1275472491979599,-0.024298734962940216,0.015061512589454651,0.026135265827178955,-0.011175751686096191,-0.5357852819538462,-0.1485623917525028,-0.03718686250253042,-0.12727466225624084,0.5105164647102356,-0.850396454334259,0.0
1727343802908,9i,17.45318649397476,2.1s : 3.8s,0.22992058164214266,0.021823059971892923,-0.3307914137840271,-0.08626799285411835,-0.02275276929140091,0.012390434741973877,0.016868412494659424,-0.0061789751052856445,-0.5391836014270902,-0.15008768535728323,-0.03802772000717069,-0.12831147015094757,0.5134356021881104,-0.8484810590744019,0.0
1727343802918,9i,17.45318649397476,2.1s : 3.8s,0.2121437996073433,0.008592383448598901,-0.3095291256904602,-0.057541269809007645,-0.028528165072202682,0.002214968204498291,-0.006364345550537109,-0.005330860614776611,-0.5422730566176227,-0.15119988386987873,-0.03886851791820111,-0.12901553511619568,0.5160842537879944,-0.8467656373977661,0.0
1727343802928,9i,17.45318649397476,2.1s : 3.8s,0.19617813254266844,0.033419122201940994,-0.2824415862560272,-0.06705620884895325,-0.03446275368332863,-0.0045809149742126465,-0.03288733959197998,0.0037783384323120117,-0.545165225404838,-0.15227213955088295,-0.039776233151532364,-0.12969645857810974,0.5185593962669373,-0.845147967338562,0.0
1727343802938,9i,17.45318649397476,2.1s : 3.8s,0.13371365714091382,0.045367990712341065,-0.1805184781551361,-0.08188096433877945,-0.020235782489180565,0.0010344982147216797,-0.034501075744628906,0.02944248914718628,-0.5474646489550085,-0.15340923173341336,-0.04052627232649234,-0.13047483563423157,0.5205240845680237,-0.8438193202018738,0.0
1727343802948,9i,17.45318649397476,2.1s : 3.8s,0.056348096849164225,0.024904752711751594,-0.020574891939759254,-0.0811922699213028,-0.005897855386137962,0.009838879108428955,-0.011954545974731445,0.019507229328155518,-0.5484547706487423,-0.15442561612986258,-0.040868450766105395,-0.13125306367874146,0.5213692784309387,-0.8431766033172607,0.0
1727343802958,9i,17.45318649397476,2.1s : 3.8s,0.09586419061546149,0.015883084172337098,0.12709039449691772,-0.0650843158364296,-0.004270830191671848,0.011841431260108948,0.01039797067642212,0.0019837021827697754,-0.5478666779148385,-0.1551520046421113,-0.04081870775943592,-0.13191287219524384,0.5208673477172852,-0.8433838486671448,0.0
1727343802968,9i,17.45318649397476,2.1s : 3.8s,0.13362814636297798,0.023873085931626705,0.19168083369731903,-0.053891848772764206,-0.0020652003586292267,0.007401660084724426,0.01699608564376831,-0.015042364597320557,-0.5462334857172539,-0.1555935984080593,-0.04055853131581232,-0.13241693377494812,0.5194724798202515,-0.8441647887229919,0.0
1727343802978,9i,17.45318649397476,2.1s : 3.8s,0.13951112984881858,0.02515286371573294,0.19955746829509735,-0.05808357894420624,0.0046152388677001,0.0036143213510513306,0.0063588619232177734,-0.024065911769866943,-0.544272516805008,-0.15596307313283964,-0.0402038884553755,-0.13288681209087372,0.5177958607673645,-0.8451204895973206,0.0
1727343802988,9i,17.45318649397476,2.1s : 3.8s,0.11617312758893263,0.030183260963814216,0.15834452211856842,-0.06956233084201813,0.007500774227082729,0.0035771727561950684,-0.019082963466644287,-0.023110032081604004,-0.5424962253093186,-0.1563998411460554,-0.039812045513581154,-0.13339896500110626,0.5162754058837891,-0.845969557762146,0.0
1727343802998,9i,17.45318649397476,2.1s : 3.8s,0.08838897361692417,0.052164126692592384,0.09389668703079224,-0.09198588132858276,0.008356647565960884,0.010337501764297485,-0.04709106683731079,-0.019916415214538574,-0.5412413433610486,-0.15703860873854658,-0.039495695763412386,-0.13404053449630737,0.5152003169059753,-0.8465233445167542,0.0
1727343803008,9i,17.45318649397476,2.1s : 3.8s,0.4666847547245726,0.06856378258296418,0.030825845897197723,0.40139320492744446,-0.5670486092567444,0.015730902552604675,-0.06501114368438721,-0.015069246292114258,-0.5406255997334871,-0.15781726221282497,-0.03999564555547338,-0.13474947214126587,0.5146724581718445,-0.8467319011688232,0.0
1727343803018,9i,17.45318649397476,2.1s : 3.8s,0.8687936136042662,0.0805759668654209,0.007454811595380306,0.8123065829277039,-1.0080344676971436,-0.010319456458091736,-0.07638615369796753,-0.023476600646972656,-0.5407941934938201,-0.15887452599441973,-0.03928291425559645,-0.13563089072704315,0.5148169994354248,-0.8465032577514648,0.0
1727343803028,9i,17.45318649397476,2.1s : 3.8s,0.33203642499381597,0.15287948180475772,-0.05801314488053322,0.19130165874958038,-0.4525960087776184,0.14434704184532166,-0.046334922313690186,-0.019726693630218506,-0.5415341149099266,-0.16028447132809345,-0.03831210259360928,-0.13676343858242035,0.515451192855835,-0.8459349274635315,0.0
1727343803038,9i,17.45318649397476,2.1s : 3.8s,0.19125027652269985,0.08028992279516461,-0.10399162024259567,-0.2632133960723877,0.033504877239465714,0.07152050733566284,-0.03642648458480835,-0.002097606658935547,-0.5424716980671876,-0.16099378678011805,-0.03844618299619355,-0.13728591799736023,0.5162544250488281,-0.845360279083252,0.0
1727343803048,9i,17.45318649397476,2.1s : 3.8s,0.11049126177948008,0.05164986318010567,-0.11604136228561401,-0.10657663643360138,0.04779406636953354,-0.023491844534873962,-0.04452604055404663,-0.011544406414031982,-0.5436446237372236,-0.16198077249302684,-0.03830831464742732,-0.13802245259284973,0.5172585844993591,-0.8446261882781982,0.0
1727343803058,9i,17.45318649397476,2.1s : 3.8s,0.11567606478197241,0.04824451640082058,-0.15159055590629578,-0.07198474556207657,0.03937981277704239,0.010798320174217224,-0.046969056129455566,-0.002199411392211914,-0.54501999485276,-0.1628083586577226,-0.03805904197919292,-0.1386059671640396,0.5184351801872253,-0.8438088893890381,0.0
1727343803068,9i,17.45318649397476,2.1s : 3.8s,0.13864318186668956,0.05719481048121871,-0.18317458033561707,-0.09061728417873383,0.03029336966574192,-0.009713202714920044,-0.05579453706741333,-0.00799185037612915,-0.5467229658201744,-0.1636256975902269,-0.0379692892683661,-0.13915157318115234,0.5198906660079956,-0.8428229689598083,0.0
1727343803078,9i,17.45318649397476,2.1s : 3.8s,0.16551671796057865,0.0727365774748294,-0.23197528719902039,-0.0786597803235054,0.028847340494394302,0.004930406808853149,-0.07104867696762085,-0.014777898788452148,-0.5488087539870555,-0.16444655282269874,-0.03802046405057342,-0.13966554403305054,0.5216712951660156,-0.8416368961334229,0.0
1727343803088,9i,17.45318649397476,2.1s : 3.8s,0.2013769630538568,0.08008749315341666,-0.2847953736782074,-0.09182645380496979,0.022501561790704727,0.01259613037109375,-0.07668143510818481,-0.01937270164489746,-0.5514068592675668,-0.16546268189377722,-0.03823133448362432,-0.14029696583747864,0.5238860845565796,-0.8401548266410828,0.0
1727343803098,9i,17.45318649397476,2.1s : 3.8s,0.20593824243499143,0.06040552875378846,-0.28457194566726685,-0.11376743763685226,0.015748051926493645,0.02258305251598358,-0.05349606275558472,-0.0166434645652771,-0.5542491621998676,-0.1666201571372621,-0.03856616043240603,-0.14102180302143097,0.5263050198554993,-0.8385200500488281,0.0
1727343803108,9i,17.45318649397476,2.1s : 3.8s,0.18572907761983845,0.041116993106822944,-0.2438897341489792,-0.1293027102947235,0.01987595111131668,0.025862231850624084,-0.0183679461479187,-0.026160478591918945,-0.5569043910054271,-0.16804435534255893,-0.03888383308745352,-0.14198164641857147,0.5285608768463135,-0.836937665939331,0.0
1727343803118,9i,17.45318649397476,2.1s : 3.8s,0.1664191508467137,0.03174671991601892,-0.2105259895324707,-0.12365388870239258,0.043425049632787704,0.024076387286186218,0.005408763885498047,-0.019973158836364746,-0.5591666647201502,-0.1693424804093896,-0.03896274490133491,-0.1428660750389099,0.5304799675941467,-0.835571825504303,0.0
1727343803128,9i,17.45318649397476,2.1s : 3.8s,0.16797168498957502,0.03260466181377829,-0.21808697283267975,-0.10926935076713562,0.05610942095518112,0.01648212969303131,0.01882004737854004,-0.020909547805786133,-0.5613296314103545,-0.17042143477769273,-0.03879036443320028,-0.1435726135969162,0.532312273979187,-0.8342844843864441,0.0
1727343803138,9i,17.45318649397476,2.1s : 3.8s,0.1927623636515685,0.013981635655806192,-0.27593794465065,-0.07008804380893707,0.03812339901924133,0.002467796206474304,0.009376943111419678,-0.010073184967041016,-0.563816450926361,-0.17128793288779634,-0.03873397231948846,-0.1440693736076355,0.5344158411026001,-0.832852840423584,0.0
1727343803148,9i,17.45318649397476,2.1s : 3.8s,0.23813371460480445,0.02669891821354789,-0.34988754987716675,-0.05783217400312424,0.012367168441414833,-0.009983047842979431,-0.02444314956665039,-0.00396275520324707,-0.5669325093376619,-0.17210800730815243,-0.03905669763398759,-0.14446642994880676,0.5370469689369202,-0.8310896754264832,0.0
1727343803158,9i,17.45318649397476,2.1s : 3.8s,0.6226637471811983,0.05424817356794283,-0.41288992762565613,0.525158703327179,-0.6439229249954224,-0.006807848811149597,-0.05324739217758179,0.007825136184692383,-0.5706399226419289,-0.1727982274628868,-0.04048228486710858,-0.1446966975927353,0.5401706695556641,-0.8290226459503174,0.0
1727343803168,9i,17.45318649397476,2.1s : 3.8s,1.2417309878500211,0.06345780750440144,-0.45330339670181274,1.1972543001174927,-1.3359874486923218,-0.024885863065719604,-0.05825543403625488,0.003727138042449951,-0.5752741419190115,-0.1737868683771375,-0.041178070019603726,-0.14508181810379028,0.5440648198127747,-0.8264046907424927,0.0
1727343803178,9i,17.45318649397476,2.1s : 3.8s,0.682364774195704,0.11058365366225067,-0.5237703919410706,0.5785138010978699,-0.6518394351005554,0.10941356420516968,-0.01604294776916504,-0.00020062923431396484,-0.5805856339825118,-0.1754792637008994,-0.04164828414801435,-0.14597365260124207,0.5485137104988098,-0.8233009576797485,0.0
1727343803188,9i,17.45318649397476,2.1s : 3.8s,0.4379983523049794,0.08359839625929585,-0.6413947939872742,-0.11855234205722809,-0.02329242415726185,0.08278922736644745,0.004422783851623535,-0.010727286338806152,-0.586340561851222,-0.17665930012747208,-0.04342421799490035,-0.14638788998126984,0.5533165335655212,-0.8200069665908813,0.0
1727343803198,9i,17.45318649397476,2.1s : 3.8s,0.4893987348299477,0.03763897817964546,-0.7207639217376709,-0.10013231635093689,-0.04800975322723389,-0.007458686828613281,0.005553305149078369,-0.036472201347351074,-0.593040148543325,-0.17831230844406673,-0.045402891303830406,-0.1470823585987091,0.5588846206665039,-0.8160973191261292,0.0
1727343803208,9i,17.45318649397476,2.1s : 3.8s,0.4746494940325638,0.051238340061570714,-0.6985006928443909,-0.08176529407501221,-0.07530049979686737,-0.009306520223617554,0.005188584327697754,-0.050118207931518555,-0.5998993783250071,-0.18046709183059811,-0.04770012966740154,-0.14814895391464233,0.5645594000816345,-0.8119880557060242,0.0
1727343803218,9i,17.45318649397476,2.1s : 3.8s,0.46224641842260095,0.07258472333611071,-0.6754994988441467,-0.112386055290699,-0.07433563470840454,-0.02581651508808136,-0.006837964057922363,-0.06749290227890015,-0.6065173567368758,-0.1827926186212166,-0.05014170978547141,-0.14935439825057983,0.5700094699859619,-0.8079495429992676,0.0
1727343803228,9i,17.45318649397476,2.1s : 3.8s,0.40934101321624117,0.06176081793120755,-0.5884050726890564,-0.14872674643993378,-0.06103501096367836,-0.020415589213371277,-0.005420982837677002,-0.05803632736206055,-0.6125869094401329,-0.1851705341799645,-0.05246620736550746,-0.15063545107841492,0.574985921382904,-0.8041767477989197,0.0
1727343803238,9i,17.45318649397476,2.1s : 3.8s,0.37556017484346055,0.06087437620774634,-0.49337705969810486,-0.2629558742046356,0.024965651333332062,-0.011323213577270508,0.01325535774230957,-0.05832469463348389,-0.6177254532450634,-0.18758308799156434,-0.05463130068949745,-0.15202213823795319,0.5791824460029602,-0.8008976578712463,0.0
1727343803248,9i,17.45318649397476,2.1s : 3.8s,0.36958111739792787,0.0720518200767984,-0.35973870754241943,-0.38265395164489746,0.16571418941020966,-0.012173101305961609,0.029381632804870605,-0.06465291976928711,-0.6217583753454605,-0.18987509681162454,-0.05662768109208144,-0.15341530740261078,0.5824653506278992,-0.7982468008995056,0.0
1727343803258,9i,17.45318649397476,2.1s : 3.8s,0.43322074008233386,0.07264214318055544,-0.20213642716407776,-0.520372211933136,0.3241845965385437,-0.021975800395011902,0.021668553352355957,-0.06576031446456909,-0.6241723631022569,-0.1917518164211445,-0.05826434679126056,-0.1546446979045868,0.5844258666038513,-0.7965748310089111,0.0
1727343803268,9i,17.45318649397476,2.1s : 3.8s,0.5055332983207586,0.08008092135071193,-0.16302205622196198,-0.5927137732505798,0.43542084097862244,-0.04077230393886566,-0.004085838794708252,-0.06880319118499756,-0.6255804213859119,-0.193563037788033,-0.05965593031840581,-0.15592877566814423,0.5855678915977478,-0.7954851388931274,0.0
1727343803278,9i,17.45318649397476,2.1s : 3.8s,0.4932209555277175,0.06549166260759165,-0.12065095454454422,-0.5638009905815125,0.45578891038894653,-0.05786348879337311,-0.01773977279663086,-0.025025486946105957,-0.6265939783202982,-0.1953946332397274,-0.060904989469611016,-0.15727020800113678,0.5863891839981079,-0.7946155667304993,0.0
1727343803288,9i,17.45318649397476,2.1s : 3.8s,0.34786788623084136,0.0789717651010428,-0.06189150735735893,-0.39045479893684387,0.3352917730808258,-0.07256253063678741,-0.028516948223114014,-0.012569904327392578,-0.6270704685228018,-0.19730131875781906,-0.062123494350066186,-0.15873020887374878,0.5867750644683838,-0.7940402030944824,0.0
1727343803298,9i,17.45318649397476,2.1s : 3.8s,0.0941950765897855,0.09250577112229352,-0.004685541614890099,-0.11293599754571915,0.08321823924779892,-0.08071008324623108,-0.03721219301223755,-0.025660336017608643,-0.6269733943206944,-0.1992676413055591,-0.06333069241791185,-0.1603025197982788,0.5866965055465698,-0.7937823534011841,0.0
1727343803308,9i,17.45318649397476,2.1s : 3.8s,0.237338711020315,0.08494865200927873,0.048418689519166946,0.23367442190647125,-0.26101982593536377,-0.07019767165184021,-0.02743154764175415,-0.03919273614883423,-0.6263897763760975,-0.20142978611907042,-0.06445404183063341,-0.16208690404891968,0.5862237811088562,-0.7937692999839783,0.0
1727343803318,9i,17.45318649397476,2.1s : 3.8s,0.5625770793224242,0.06500016774363425,0.0684136375784874,0.575247049331665,-0.6059536933898926,-0.046733513474464417,-0.018589913845062256,-0.04117542505264282,-0.6255717731663825,-0.2036485670621175,-0.06524775627533867,-0.16394461691379547,0.5855608582496643,-0.7938770055770874,0.0
1727343803328,9i,17.45318649397476,2.1s : 3.8s,0.7621037841944251,0.04827819551134021,0.010702935978770256,0.7436972856521606,-0.85817551612854,-0.01484537124633789,-0.022994160652160645,-0.03977018594741821,-0.6251320066344935,-0.20600117396939027,-0.06590783387883636,-0.165864497423172,0.5852043032646179,-0.7937411069869995,0.0
1727343803338,9i,17.45318649397476,2.1s : 3.8s,0.8143443905517854,0.05150283221914774,-0.10488025099039078,0.7269747257232666,-0.9659404158592224,0.022499680519104004,-0.04051941633224487,-0.0224606990814209,-0.6257067261297884,-0.208655039684244,-0.0666895127084371,-0.1679006963968277,0.5856702327728271,-0.7929689884185791,0.0
1727343803348,9i,17.45318649397476,2.1s : 3.8s,0.7493693774743017,0.09407917042153725,-0.26874294877052307,0.5860431790351868,-0.9117327928543091,0.04977506399154663,-0.0798187255859375,0.0015180110931396484,-0.6277511195773829,-0.2114269970887079,-0.06762120010233486,-0.16984650492668152,0.5873261094093323,-0.7913281917572021,0.0
1727343803357,9i,17.45318649397476,2.1s : 3.8s,0.6100137590220234,0.12960163781544665,-0.4490337669849396,0.30444979667663574,-0.7293562889099121,0.0660019963979721,-0.11096781492233276,0.011245667934417725,-0.6315342051107578,-0.2144460026427035,-0.0688740770711744,-0.1717606782913208,0.590383768081665,-0.7886350750923157,0.0
1727343803367,9i,17.45318649397476,2.1s : 3.8s,0.5136124895921654,0.13329964120483745,-0.6149827837944031,-0.021926460787653923,-0.45505577325820923,0.06428594887256622,-0.11276519298553467,0.030333518981933594,-0.6370238764918048,-0.21778680326038274,-0.0705217097888875,-0.17369148135185242,0.5948056578636169,-0.7848805785179138,0.0
1727343803377,9i,17.45318649397476,2.1s : 3.8s,0.5351544907474455,0.12622519694603052,-0.7215626835823059,-0.3161780536174774,-0.12371576577425003,0.04847085475921631,-0.09996837377548218,0.05991411209106445,-0.6437859946676255,-0.22110493902174208,-0.07246869843174414,-0.1754087507724762,0.6002278923988342,-0.780357837677002,0.0
1727343803387,9i,17.45318649397476,2.1s : 3.8s,0.6449415385043388,0.1087747067914458,-0.7537118792533875,-0.5650627017021179,0.19035346806049347,0.026450350880622864,-0.07958459854125977,0.069271981716156,-0.6511537060349324,-0.22410916258530258,-0.07457865847498589,-0.17676471173763275,0.6061044335365295,-0.7754944562911987,0.0
1727343803397,9i,17.45318649397476,2.1s : 3.8s,0.7589893510716781,0.08635666876393754,-0.7433633208274841,-0.7237948179244995,0.4501979947090149,0.0010686665773391724,-0.06055796146392822,0.06155538558959961,-0.6585040511687169,-0.2267572307621071,-0.07671081106347585,-0.17781125009059906,0.6119343638420105,-0.7706617712974548,0.0
1727343803407,9i,17.45318649397476,2.1s : 3.8s,0.8336187494380415,0.07991316351587886,-0.7405563592910767,-0.7716038823127747,0.6318758726119995,-0.02098800241947174,-0.05299663543701172,0.05600869655609131,-0.6656712532634943,-0.2289163278682462,-0.07868091802790465,-0.17847491800785065,0.6175872087478638,-0.7659848928451538,0.0
1727343803417,9i,17.45318649397476,2.1s : 3.8s,0.8372569985447246,0.09040377174408776,-0.7284389734268188,-0.7134274244308472,0.7189992070198059,-0.035368844866752625,-0.05968153476715088,0.05796551704406738,-0.6727158288408922,-0.23052973436807428,-0.08030685442466304,-0.17871198058128357,0.6231124401092529,-0.7614414691925049,0.0
1727343803427,9i,17.45318649397476,2.1s : 3.8s,0.7782558131933277,0.10724865409643848,-0.7338625192642212,-0.5500568747520447,0.7097846865653992,-0.04409646987915039,-0.07542246580123901,0.06220310926437378,-0.6797903116422497,-0.2316248193747143,-0.08145395228485369,-0.178529292345047,0.6286299824714661,-0.7569357752799988,0.0
1727343803437,9i,17.45318649397476,2.1s : 3.8s,0.6747846962506042,0.13216900125744166,-0.7289451956748962,-0.3081296384334564,0.6202906370162964,-0.05155818164348602,-0.09519070386886597,0.07582300901412964,-0.6869632825238061,-0.23201265794357184,-0.08198254040742724,-0.17778143286705017,0.634192168712616,-0.7524586915969849,0.0
1727343803447,9i,17.45318649397476,2.1s : 3.8s,0.5846410711097809,0.1573319120930405,-0.7340624928474426,-0.020531674847006798,0.4687277376651764,-0.052928149700164795,-0.11605554819107056,0.09210348129272461,-0.6942755011965097,-0.23149061549546893,-0.08179877264790479,-0.1763199269771576,0.6398288011550903,-0.7480177283287048,0.0
1727343803457,9i,17.45318649397476,2.1s : 3.8s,0.5685505644910928,0.1740688936813446,-0.7582003474235535,0.25180673599243164,0.28195464611053467,-0.046612486243247986,-0.13322389125823975,0.1018756628036499,-0.701867125627083,-0.23012090580947733,-0.0810831920223357,-0.1741822212934494,0.6456446051597595,-0.7435077428817749,0.0
1727343803467,9i,17.45318649397476,2.1s : 3.8s,0.6468804773143623,0.18520539999829191,-0.831177830696106,0.4723619818687439,0.12325287610292435,-0.036697208881378174,-0.14593911170959473,0.10796356201171875,-0.7100944647026103,-0.2279431159336369,-0.07999475979486602,-0.1713564097881317,0.6519054174423218,-0.7386856079101562,0.0
1727343803477,9i,17.45318649397476,2.1s : 3.8s,0.7582668734273599,0.1905650250271959,-0.9545817971229553,0.6039445400238037,0.027142584323883057,-0.01959662139415741,-0.15725618600845337,0.10583710670471191,-0.7194422845481684,-0.22516265104704458,-0.07855944109058322,-0.16793392598628998,0.6589652895927429,-0.7331869006156921,0.0
1727343803487,9i,17.45318649397476,2.1s : 3.8s,0.8508791728217844,0.1983864044959249,-1.0997105836868286,0.6305090188980103,0.026823006570339203,0.0034596025943756104,-0.17007356882095337,0.10207927227020264,-0.7303271853708531,-0.22185668972532627,-0.07664453581258678,-0.1639210432767868,0.6671134233474731,-0.7266977429389954,0.0
1727343803497,9i,17.45318649397476,2.1s : 3.8s,0.9294557745426819,0.21913602440332333,-1.2552952766418457,0.5703611969947815,0.13105957210063934,0.02400413155555725,-0.19792157411575317,0.09094750881195068,-0.7429145019166589,-0.21795787192511587,-0.0738183486804517,-0.15925806760787964,0.6764373183250427,-0.7190755009651184,0.0
1727343803507,9i,17.45318649397476,2.1s : 3.8s,1.018889379621539,0.2683988862058007,-1.410373568534851,0.46842098236083984,0.3108018934726715,0.03425508737564087,-0.2496933937072754,0.09229171276092529,-0.7572827876197317,-0.2132636659634195,-0.06975830697261742,-0.15380774438381195,0.6869493722915649,-0.7102421522140503,0.0
1727343803517,9i,17.45318649397476,2.1s : 3.8s,1.1792917872559567,0.3270233458223772,-1.6416326761245728,0.3781430125236511,0.5001500844955444,0.02908259630203247,-0.3068012595176697,0.10941416025161743,-0.7737180186129001,-0.20759175643009842,-0.06465546525104211,-0.14742976427078247,0.6987996101379395,-0.6999596953392029,0.0
1727343803527,9i,17.45318649397476,2.1s : 3.8s,1.34783039892686,0.3658922209003825,-1.8628445863723755,0.2998410165309906,0.6882960200309753,0.00901561975479126,-0.3389609456062317,0.13748204708099365,-0.7925709693863213,-0.2010112974895064,-0.059033261171546045,-0.14016491174697876,0.7121604681015015,-0.6878817081451416,0.0
1727343803537,9i,17.45318649397476,2.1s : 3.8s,1.5014077219537563,0.3760434406247987,-2.0358948707580566,0.2866227626800537,0.8823059797286987,-0.006909176707267761,-0.3465122580528259,0.1459115743637085,-0.8133729908921008,-0.1931338467912648,-0.052681658763595506,-0.13186952471733093,0.7266086935997009,-0.6742775440216064,0.0
1727343803547,9i,17.45318649397476,2.1s : 3.8s,1.6477161035394547,0.3712392400764524,-2.1959309577941895,0.29319679737091064,1.0585286617279053,-0.009209886193275452,-0.3417186141014099,0.14478307962417603,-0.8358931414991353,-0.18345550210882713,-0.04521458667288464,-0.12232089042663574,0.7418956756591797,-0.659263551235199,0.0
1727343803557,9i,17.45318649397476,2.1s : 3.8s,1.7756664041283963,0.34330359045147973,-2.3322553634643555,0.28538644313812256,1.2166860103607178,0.001261696219444275,-0.3137527108192444,0.1393377184867859,-0.8600031002833872,-0.17205986355713185,-0.03618742380430214,-0.11170482635498047,0.7578445672988892,-0.6428014039993286,0.0
1727343803567,9i,17.45318649397476,2.1s : 3.8s,1.8745114585728233,0.3205960698665746,-2.414647102355957,0.31056874990463257,1.3694411516189575,0.019473090767860413,-0.2894512414932251,0.1364573836326599,-0.8852454741732357,-0.1586317115497476,-0.024776926769089283,-0.10000898689031601,0.7740704417228699,-0.6251505017280579,0.0
1727343803577,9i,17.45318649397476,2.1s : 3.8s,1.957426815590837,0.3293403709879041,-2.490304708480835,0.367757648229599,1.4734272956848145,0.03343942016363144,-0.3001571297645569,0.1313490867614746,-0.9113235318354592,-0.14264836914572793,-0.010470230325624452,-0.08710459619760513,0.7903153896331787,-0.6064771413803101,0.0
1727343803587,9i,17.45318649397476,2.1s : 3.8s,2.0342715779792746,0.3579171513201947,-2.5709774494171143,0.4460045397281647,1.5427643060684204,0.033510103821754456,-0.32724255323410034,0.14104634523391724,-0.9381666256673928,-0.1238311364667448,0.006835500762029233,-0.07303036749362946,0.8064754605293274,-0.5867401957511902,0.0
1727343803597,9i,17.45318649397476,2.1s : 3.8s,2.095322031982145,0.3709562336812639,-2.6404683589935303,0.5230124592781067,1.5821400880813599,0.025912314653396606,-0.3334670662879944,0.16042691469192505,-0.9656515206845454,-0.10191899805485079,0.027229312963060227,-0.057879477739334106,0.8224197030067444,-0.565929114818573,0.0
1727343803607,9i,17.45318649397476,2.1s : 3.8s,2.161144895956568,0.3497037957361635,-2.6921029090881348,0.5873405933380127,1.6668882369995117,0.023633923381567,-0.298381507396698,0.18083876371383667,-0.9935675935771783,-0.07620983386297481,0.05135637264429538,-0.0415477529168129,0.837978184223175,-0.5441198945045471,0.0
1727343803617,9i,17.45318649397476,2.1s : 3.8s,2.2345817432380057,0.3184235260592961,-2.7238869667053223,0.6353129148483276,1.8067964315414429,0.032148297876119614,-0.25537174940109253,0.18747079372406006,-1.0215558711335102,-0.045434006274764106,0.08055918244220643,-0.023710189387202263,0.8529213070869446,-0.521500825881958,0.0
1727343803627,9i,17.45318649397476,2.1s : 3.8s,2.3323322103890565,0.31084342038057455,-2.8068642616271973,0.6642037034034729,1.9388937950134277,0.040452320128679276,-0.2426985502243042,0.18995961546897888,-1.049603019045157,-0.008583362650017088,0.1158334712692782,-0.004273736383765936,0.8672256469726562,-0.49789711833000183,0.0
1727343803637,9i,17.45318649397476,2.1s : 3.8s,2.463559405174765,0.33091343010543905,-2.9788570404052734,0.6543058753013611,2.0432145595550537,0.039747998118400574,-0.271104633808136,0.18554264307022095,-1.078162164208588,0.034498547523596455,0.1575253867021394,0.01631280407309532,0.8810901045799255,-0.4726671874523163,0.0
1727343803647,9i,17.45318649397476,2.1s : 3.8s,2.635272041396604,0.3782967323734199,-3.21083927154541,0.6519013047218323,2.164735794067383,0.02858486771583557,-0.32801955938339233,0.18626457452774048,-1.107726286522865,0.08501045242513604,0.2070714436295442,0.03792820870876312,0.8946853280067444,-0.4450840651988983,0.0
1727343803657,9i,17.45318649397476,2.1s : 3.8s,2.8415393922946066,0.4445512567342786,-3.4640495777130127,0.6518306136131287,2.346163272857666,0.016611885279417038,-0.39650851488113403,0.20032688975334167,-1.1382634054953142,0.1459930717855869,0.26751979648094004,0.06097904592752457,0.9079069495201111,-0.4147127866744995,0.0
1727343803667,9i,17.45318649397476,2.1s : 3.8s,3.041328954457093,0.5036637198540069,-3.67570161819458,0.6691552400588989,2.565204620361328,0.006693661212921143,-0.4588228464126587,0.2076389491558075,-1.1688714885324527,0.22166132439423797,0.3430688548516706,0.08600348979234695,0.9203097224235535,-0.38161957263946533,0.0
1727343803677,9i,17.45318649397476,2.1s : 3.8s,3.1763480499573693,0.5394759457634218,-3.764234781265259,0.6871457099914551,2.785912036895752,0.0020767375826835632,-0.49798834323883057,0.20745503902435303,-1.197693207417231,0.31583231351990393,0.4374485596995938,0.11321868002414703,0.9312007427215576,-0.34647777676582336,0.0
1727343803687,9i,17.45318649397476,2.1s : 3.8s,3.255683118589275,0.5431782684652493,-3.7696681022644043,0.7024053335189819,2.9719104766845703,-0.00015279650688171387,-0.5030802488327026,0.20482400059700012,-1.2222744872720155,0.4301458348203476,0.5521753489945154,0.1424105316400528,0.939878523349762,-0.31039950251579285,0.0
1727343803697,9i,17.45318649397476,2.1s : 3.8s,3.2916113979954833,0.5137502785088862,-3.7086336612701416,0.7266385555267334,3.1267216205596924,0.009008258581161499,-0.4746198058128357,0.19645416736602783,-1.2406486087736066,0.5636835364735265,0.6862254437263792,0.1732122302055359,0.9459944367408752,-0.2740297317504883,0.0
1727343803707,9i,17.45318649397476,2.1s : 3.8s,3.3076809423980515,0.4828086540487271,-3.6054277420043945,0.7738097906112671,3.270465135574341,0.025346428155899048,-0.44673001766204834,0.1813671588897705,-1.2509329643679703,0.711894207571409,0.8346718947526007,0.20541225373744965,0.9492784142494202,-0.23806868493556976,0.0
1727343803717,9i,17.45318649397476,2.1s : 3.8s,3.344374118822379,0.48704325414157096,-3.583974599838257,0.7953768968582153,3.370211124420166,0.05001768469810486,-0.45304232835769653,0.17164501547813416,-1.252620515046988,0.8677187353045402,0.9904670043860758,0.23864814639091492,0.9498076438903809,-0.20226934552192688,0.0
1727343803727,9i,17.45318649397476,2.1s : 3.8s,3.3964523053786935,0.4841480171229082,-3.6519994735717773,0.7947004437446594,3.412722587585449,0.07375863194465637,-0.446381151676178,0.1723451018333435,-1.2462173732989679,1.0231185140303325,1.1458460647981117,0.2722649574279785,0.9477850794792175,-0.16605839133262634,0.0
1727343803737,9i,17.45318649397476,2.1s : 3.8s,3.5093277919734054,0.4840287755315031,-3.8405961990356445,0.7481231689453125,3.46933913230896,0.09563794732093811,-0.42938125133514404,0.20191329717636108,-1.2326575786865077,1.1731688327772187,1.2963273713817538,0.3058513402938843,0.9433737397193909,-0.12845738232135773,0.0
1727343803747,9i,17.45318649397476,2.1s : 3.8s,3.591878271165112,0.4643355577337249,-3.9002487659454346,0.6821590662002563,3.6014676094055176,0.11948788166046143,-0.37641090154647827,0.2442232370376587,-1.2116869539353778,1.3127134677217605,1.4371759974703306,0.33980169892311096,0.9362102150917053,-0.08969738334417343,0.0
1727343803757,9i,17.45318649397476,2.1s : 3.8s,3.5966832449913624,0.43101315751263486,-3.809225559234619,0.6223275065422058,3.718475103378296,0.1455973982810974,-0.30559664964675903,0.2668040990829468,-1.1833628524543782,1.4340127497418154,1.560402673029044,0.3742848336696625,0.9258818030357361,-0.05151771381497383,0.0
1727343803767,9i,17.45318649397476,2.1s : 3.8s,3.5794662925474223,0.38875961974751116,-3.6350629329681396,0.6095193028450012,3.8555164337158203,0.1659879982471466,-0.1829429268836975,0.3001897931098938,-1.1488977830298783,1.5344115121491317,1.6629390985062829,0.4092226028442383,0.9123131632804871,-0.014896063134074211,0.0
1727343803777,9i,17.45318649397476,2.1s : 3.8s,3.4950571243320536,0.36413037167669887,-3.2641139030456543,0.6384037137031555,4.007771015167236,0.1721254587173462,-0.01233220100402832,0.3206425905227661,-1.109509544537827,1.6134685768192294,1.743473991340272,0.4446958601474762,0.8954805135726929,0.01898769848048687,0.0
1727343803787,9i,17.45318649397476,2.1s : 3.8s,3.3656348529642997,0.3729240584199225,-2.7835967540740967,0.6939055919647217,4.113718509674072,0.1602848768234253,0.1206403374671936,0.3143676519393921,-1.06684722772526,1.672010552731193,1.8020219366305694,0.480416476726532,0.8756824135780334,0.048791710287332535,0.0
1727343803797,9i,17.45318649397476,2.1s : 3.8s,3.2452351589556905,0.3795367795555857,-2.4538862705230713,0.7199774980545044,4.104300022125244,0.13828414678573608,0.20248448848724365,0.2896993160247803,-1.0229000183764152,1.7148994702514888,1.8434265412562327,0.5154939889907837,0.8536221981048584,0.07480280101299286,0.0
1727343803807,9i,17.45318649397476,2.1s : 3.8s,3.168965971448062,0.38113700387074384,-2.3268065452575684,0.7656016945838928,4.037171363830566,0.10186868906021118,0.24237871170043945,0.2759361267089844,-0.9789597983665003,1.7486463084001136,1.8747472103516338,0.5490865707397461,0.8299174904823303,0.09869786351919174,0.0
1727343803817,9i,17.45318649397476,2.1s : 3.8s,3.1416222323896377,0.3790195301677727,-2.388094902038574,0.8664188981056213,3.9321866035461426,0.0630757212638855,0.23818731307983398,0.28800010681152344,-0.9354101221686176,1.778578568618546,1.901411450452911,0.5807231664657593,0.8048425316810608,0.12243098020553589,0.0
1727343803827,9i,17.45318649397476,2.1s : 3.8s,3.170392550030587,0.3582510243513709,-2.5985090732574463,1.013625979423523,3.8130462169647217,0.040601491928100586,0.20353752374649048,0.2920064926147461,-0.8922042030593986,1.8082879716815632,1.9271339208846796,0.6100791692733765,0.7784572243690491,0.14767560362815857,0.0
1727343803837,9i,17.45318649397476,2.1s : 3.8s,3.21162602385302,0.36137472414178556,-2.8125274181365967,1.162272572517395,3.693527936935425,0.04313617944717407,0.19576680660247803,0.3006764352321625,-0.8491753044112661,1.8391239823414467,1.9532244723026602,0.6369632482528687,0.750735878944397,0.1751384735107422,0.0
1727343803847,9i,17.45318649397476,2.1s : 3.8s,3.226198213411815,0.39483221779438954,-2.9345643520355225,1.1994491815567017,3.614042282104492,0.08143329620361328,0.23130881786346436,0.3094468116760254,-0.8061586069336691,1.8699346566277817,1.9789443373859958,0.661532461643219,0.7216331958770752,0.20401157438755035,0.0
1727343803857,9i,17.45318649397476,2.1s : 3.8s,3.184634813460285,0.48299443399610686,-2.8833558559417725,1.1618616580963135,3.5855712890625,0.13815057277679443,0.3299816846847534,0.3245152235031128,-0.7630182183729988,1.898405858172117,2.0025266571301743,0.6843134760856628,0.6911060214042664,0.23256812989711761,0.0
1727343803867,9i,17.45318649397476,2.1s : 3.8s,3.045202957706695,0.5859070598683255,-2.6164283752441406,1.1287606954574585,3.531484842300415,0.1806524395942688,0.4512968063354492,0.3270825147628784,-0.7203123172664542,1.9227911135936653,2.021719964022885,0.705517053604126,0.6596194505691528,0.2591298818588257,0.0
1727343803877,9i,17.45318649397476,2.1s : 3.8s,2.8147662193314007,0.6549148164002596,-2.1669583320617676,1.1298770904541016,3.408872127532959,0.1899210810661316,0.5499138236045837,0.3007294237613678,-0.679377594031651,1.9426392000948562,2.0350206291933914,0.7247976660728455,0.6283089518547058,0.2826600670814514,0.0
1727343803887,9i,17.45318649397476,2.1s : 3.8s,2.527288570950971,0.7087565721183464,-1.540719747543335,1.1335464715957642,3.2440624237060547,0.1663094162940979,0.6415851712226868,0.2510886788368225,-0.6416231037765443,1.9577463100377441,2.041292585413022,0.7418937087059021,0.5984965562820435,0.30231723189353943,0.0
1727343803897,9i,17.45318649397476,2.1s : 3.8s,2.2371612503007365,0.7839463504223172,-0.8088189959526062,1.1675769090652466,3.0159385204315186,0.13046139478683472,0.7482439875602722,0.19412016868591309,-0.6082445101758419,1.9684828080646932,2.0399649578921646,0.7566084861755371,0.5714277029037476,0.31782761216163635,0.0
1727343803906,9i,17.45318649397476,2.1s : 3.8s,2.0113198035357835,0.8629700409435169,-0.1535191535949707,1.1989387273788452,2.7425835132598877,0.08296453952789307,0.8476392030715942,0.139075368642807,-0.5799784882866421,1.975593447156683,2.0315895290418586,0.7688726782798767,0.5480059385299683,0.3294306993484497,0.0
1727343803916,9i,17.45318649397476,2.1s : 3.8s,1.864688331418583,0.9036163584339374,0.36667880415916443,1.284501552581787,2.436469793319702,0.037199556827545166,0.8988346457481384,0.0850587785243988,-0.5566924173362696,1.9807523196271364,2.0182139491330293,0.7786574363708496,0.5283809304237366,0.3383880853652954,0.0
1727343803926,9i,17.45318649397476,2.1s : 3.8s,1.7310286193256694,0.8772224245190906,0.701111912727356,1.357649564743042,2.078181743621826,0.004760861396789551,0.8764621019363403,0.036203593015670776,-0.538253244003862,1.9854088824469613,2.0017341251064966,0.7858580350875854,0.5126370191574097,0.34587666392326355,0.0
1727343803936,9i,17.45318649397476,2.1s : 3.8s,1.5671807388802301,0.8146603613931545,0.7720295190811157,1.400052785873413,1.702195405960083,-0.010333359241485596,0.8144934773445129,0.012849181890487671,-0.5240631840262143,1.9906678840669778,1.9849230121002261,0.7905915379524231,0.5004021525382996,0.35293468832969666,0.0
1727343803946,9i,17.45318649397476,2.1s : 3.8s,1.3939064394017797,0.7656589935443897,0.6430904269218445,1.411502480506897,1.3814674615859985,-0.005034744739532471,0.7655946016311646,0.008558720350265503,-0.5130239046447835,1.997390992491027,1.9702560008632226,0.7931817173957825,0.49081411957740784,0.36050572991371155,0.0
1727343803956,9i,17.45318649397476,2.1s : 3.8s,1.2670416242161977,0.7260942802372594,0.4934220016002655,1.4170974493026733,1.145919680595398,0.0066564083099365234,0.724626898765564,0.04565581679344177,-0.5039724198007417,2.0057005219984347,1.958349632629745,0.7941553592681885,0.48290786147117615,0.36894088983535767,0.0
1727343803966,9i,17.45318649397476,2.1s : 3.8s,1.1930753552333389,0.7101061722181763,0.447624146938324,1.4257819652557373,0.9630616903305054,0.009720563888549805,0.705193281173706,0.08281740546226501,-0.49641863095454597,2.01516539928887,1.9484964451532343,0.79389888048172,0.47627952694892883,0.3779982626438141,0.0
1727343803976,9i,17.45318649397476,2.1s : 3.8s,1.1692051224707103,0.7309917801621089,0.5432608723640442,1.4665424823760986,0.7678676843643188,-0.013033866882324219,0.7266356945037842,0.0786108672618866,-0.49074840846628465,2.0252300950987094,1.9393130714140583,0.7924681305885315,0.4712860882282257,0.38714855909347534,0.0
1727343803986,9i,17.45318649397476,2.1s : 3.8s,1.2191351017319487,0.7758848657771866,0.8016136288642883,1.5248292684555054,0.5767185091972351,-0.04664736986160278,0.7731112837791443,0.04604661464691162,-0.4876917824534471,2.035421147974064,1.929208623233278,0.7897657752037048,0.4685880243778229,0.3958480954170227,0.0
1727343803996,9i,17.45318649397476,2.1s : 3.8s,1.334746995735102,0.8071242314228336,1.0991817712783813,1.6042248010635376,0.4173429608345032,-0.06721800565719604,0.8033751249313354,0.03898298740386963,-0.4875644288308644,2.0453212951955644,1.9171337486824027,0.7858613133430481,0.4684755206108093,0.4036746323108673,0.0
1727343804006,9i,17.45318649397476,2.1s : 3.8s,1.4767846911703664,0.8244234110312609,1.351776123046875,1.7214394807815552,0.2280319184064865,-0.062072157859802246,0.8184120059013367,0.0776066780090332,-0.49035660512285684,2.0553234684532784,1.9030898673018186,0.7806238532066345,0.470940500497818,0.4109037220478058,0.0
1727343804016,9i,17.45318649397476,2.1s : 3.8s,1.5895685265674502,0.831632753778613,1.5277717113494873,1.8096338510513306,0.041392963379621506,-0.04340940713882446,0.8219860792160034,0.11860668659210205,-0.4959477487813362,2.0658186233281612,1.8879915261715778,0.7739390730857849,0.4758654236793518,0.4178161919116974,0.0
1727343804026,9i,17.45318649397476,2.1s : 3.8s,1.7042579821831108,0.8225550002646267,1.733944058418274,1.8510686159133911,-0.1280064582824707,-0.021014630794525146,0.8107008337974548,0.1375473439693451,-0.5041303497410518,2.076441361034797,1.872006168231019,0.7660250663757324,0.48304617404937744,0.42411360144615173,0.0
1727343804036,9i,17.45318649397476,2.1s : 3.8s,1.8058982412876248,0.7761240702062682,1.9332787990570068,1.8511419296264648,-0.27806583046913147,0.0019057989120483398,0.7583849430084229,0.16497641801834106,-0.5148199075210779,2.0865271547828934,1.8548575987798772,0.7571734189987183,0.4923781156539917,0.42924684286117554,0.0
1727343804046,9i,17.45318649397476,2.1s : 3.8s,1.9811969523251882,0.7312027913151873,2.215740203857422,1.904486894607544,-0.4232754707336426,0.013990998268127441,0.7093614339828491,0.17682796716690063,-0.5280851453561386,2.0959516655536787,1.836288502360343,0.7473769187927246,0.5038802623748779,0.4330507814884186,0.0
1727343804056,9i,17.45318649397476,2.1s : 3.8s,2.278980645523922,0.6910160591883964,2.639117956161499,2.0463387966156006,-0.6166279315948486,0.014026463031768799,0.6675892472267151,0.17785120010375977,-0.5447650100254307,2.104779497749962,1.8149596022476828,0.7361872792243958,0.518217146396637,0.43529292941093445,0.0
1727343804066,9i,17.45318649397476,2.1s : 3.8s,2.530099767440332,0.6720975779891684,2.975069522857666,2.1146700382232666,-0.9441331028938293,0.026586830615997314,0.6406261324882507,0.20151042938232422,-0.5657756086404966,2.113113869436428,1.7912894081607262,0.7230470776557922,0.536070704460144,0.4356968104839325,0.0
1727343804076,9i,17.45318649397476,2.1s : 3.8s,2.7063617775940405,0.7283741466365187,3.216402530670166,2.069899082183838,-1.2782864570617676,0.07289499044418335,0.7018391489982605,0.18065720796585083,-0.5914073004935592,2.120549856698087,1.7665650630381253,0.7078363299369812,0.557529866695404,0.43373817205429077,0.0
1727343804086,9i,17.45318649397476,2.1s : 3.8s,2.8422546109395594,0.8017247614317905,3.4183642864227295,1.9605273008346558,-1.5521435737609863,0.14925450086593628,0.7729515433311462,0.15176165103912354,-0.6208463556742243,2.126345163318015,1.74136117631401,0.6910623908042908,0.5817238092422485,0.4289880096912384,0.0
1727343804096,9i,17.45318649397476,2.1s : 3.8s,2.913572388581488,0.8207130238422358,3.484027624130249,1.831773042678833,-1.8318530321121216,0.23061615228652954,0.7713302969932556,0.15948551893234253,-0.6534279881014382,2.1301209319656884,1.7159467341112558,0.6730095148086548,0.6079118251800537,0.42131003737449646,0.0
1727343804106,9i,17.45318649397476,2.1s : 3.8s,2.9484714777824483,0.8203362235417208,3.4105141162872314,1.7375283241271973,-2.1571238040924072,0.28319835662841797,0.7443915605545044,0.19654875993728638,-0.6886447819232063,2.133118809179704,1.6921470056842722,0.6532184481620789,0.6354913711547852,0.41165149211883545,0.0
1727343804116,9i,17.45318649397476,2.1s : 3.8s,2.9811209136401264,0.8692527511782456,3.302011728286743,1.704518437385559,-2.4341347217559814,0.316487193107605,0.7737815380096436,0.2381141185760498,-0.7259629167086211,2.136600215574606,1.6711428246422062,0.6313126087188721,0.6638558506965637,0.4009241461753845,0.0
1727343804126,9i,17.45318649397476,2.1s : 3.8s,3.057556580081416,0.9083831862008829,3.306575298309326,1.7011245489120483,-2.6327407360076904,0.35501760244369507,0.7918652892112732,0.26846206188201904,-0.7650680687931156,2.140364574601629,1.6517635746200274,0.607461154460907,0.6925861239433289,0.3889935612678528,0.0
1727343804136,9i,17.45318649397476,2.1s : 3.8s,3.1885747441982213,0.907327063592018,3.2535300254821777,1.838557481765747,-2.9342784881591797,0.3975009322166443,0.751358687877655,0.3173255920410156,-0.8061808805259837,2.1453522334135013,1.633950705472502,0.5811063647270203,0.721648633480072,0.3762170076370239,0.0
1727343804146,9i,17.45318649397476,2.1s : 3.8s,3.450453564919449,0.9307837549055301,3.3862228393554688,1.9346370697021484,-3.350672483444214,0.4362570643424988,0.7258647084236145,0.386210560798645,-0.850551000852293,2.152697085859158,1.6183577478804287,0.551017165184021,0.75164395570755,0.3625078499317169,0.0
1727343804156,9i,17.45318649397476,2.1s : 3.8s,3.808029733007274,1.0095236623285904,3.7228920459747314,2.0530142784118652,-3.758288621902466,0.49001723527908325,0.7732385993003845,0.42558571696281433,-0.8997773437524004,2.1606638302286094,1.6028238796598282,0.5167118906974792,0.7831884622573853,0.34586822986602783,0.0
1727343804166,9i,17.45318649397476,2.1s : 3.8s,4.109551083947446,1.155171194393103,4.002941608428955,2.1195058822631836,-4.121249675750732,0.5767605304718018,0.8948114514350891,0.4484197199344635,-0.9539629871120937,2.16830475170199,1.586277650053223,0.4782322347164154,0.8157142996788025,0.3254300057888031,0.0
1727343804176,9i,17.45318649397476,2.1s : 3.8s,4.395451432492573,1.3289188611447533,4.3756232261657715,2.076376438140869,-4.40935754776001,0.6876303553581238,1.046357274055481,0.4453383982181549,-1.0127883257627157,2.173681684798452,1.5675110121469944,0.43614906072616577,0.8483115434646606,0.3002367317676544,0.0
1727343804186,9i,17.45318649397476,2.1s : 3.8s,4.566290046026473,1.4171624047067521,4.666893482208252,1.9060736894607544,-4.5701680183410645,0.8163051605224609,1.0800189971923828,0.4189918041229248,-1.0754512204382058,2.1733440047207395,1.544012346300656,0.3916264474391937,0.8798047304153442,0.26939335465431213,0.0
1727343804206,9i,17.45318649397476,2.1s : 3.8s,4.562141360154102,1.330138457923619,4.5120978355407715,1.379592776298523,-4.894185543060303,1.0108373165130615,0.718469500541687,0.48091351985931396,-1.2051408913874837,2.1528343498097557,1.4857692964983062,0.29868724942207336,0.933889627456665,0.19656164944171906,0.0
1727343804216,9i,17.45318649397476,2.1s : 3.8s,4.696402437217863,1.3049582139582503,4.548074722290039,1.2587422132492065,-5.16779899597168,1.0128107070922852,0.5598108768463135,0.6031104326248169,-1.271795009356624,2.13503089251886,1.4531398914635587,0.2489081174135208,0.9556311368942261,0.15752506256103516,0.0
1727343804226,9i,17.45318649397476,2.1s : 3.8s,4.885029591291667,1.3063810200457704,4.639373302459717,1.2738440036773682,-5.462804317474365,0.9733051061630249,0.5815943479537964,0.6488887071609497,-1.340959360783338,2.1053548734972645,1.4093614434417228,0.1960369199514389,0.9737035632133484,0.11606502532958984,0.0
1727343804236,9i,17.45318649397476,2.1s : 3.8s,5.155973565709313,1.387410030012823,4.913653373718262,1.1978992223739624,-5.783657550811768,0.9593702554702759,0.8279016613960266,0.5648841857910156,-1.4130840379213465,2.043211756064127,1.3333883884701925,0.13985766470432281,0.9875891804695129,0.07146843522787094,0.0
1727343804246,9i,17.45318649397476,2.1s : 3.8s,5.39010609395757,1.5162722341238968,5.1406707763671875,1.0402171611785889,-6.08308219909668,0.9905073642730713,1.0365684032440186,0.4934598207473755,-1.4870742157051007,1.848723828761847,1.1262871122984415,0.08041548728942871,0.9964973330497742,0.022943485528230667,0.0
1727343804256,9i,17.45318649397476,2.1s : 3.8s,5.4071842178212,1.5545197393662777,5.150935649871826,0.6571893692016602,-6.160994529724121,1.0933767557144165,1.0417823791503906,0.3684404492378235,-1.5366330703001185,0.5996689821519428,-0.1327160695190425,0.019278865307569504,0.9994164705276489,-0.02819986455142498,0.0
1727343804266,9i,17.45318649397476,2.1s : 3.8s,5.202685118294469,1.5472276561245417,4.758304595947266,0.1541571319103241,-6.118729114532471,1.228824496269226,0.8758152723312378,0.3418353199958801,-1.4824790533457206,-0.49250689442154727,-1.2302986263650784,-0.041705965995788574,0.9961025714874268,-0.07772081345319748,0.0
1727343804276,9i,17.45318649397476,2.1s : 3.8s,4.987334841273567,1.5292043862769045,4.178921699523926,-0.24731822311878204,-6.140588283538818,1.281107783317566,0.6751500368118286,0.49132609367370605,-1.4108386482072846,-0.6983860752024492,-1.4370550800941193,-0.10241212695837021,0.9872339963912964,-0.121986985206604,0.0
1727343804286,9i,17.45318649397476,2.1s : 3.8s,4.807157454149492,1.4672862296627784,3.5392372608184814,-0.4268549680709839,-6.2132415771484375,1.1914342641830444,0.5203283429145813,0.6801997423171997,-1.34056640518605,-0.7982245595520931,-1.5352133413599383,-0.16341914236545563,0.973613977432251,-0.15927985310554504,0.0
1727343804296,9i,17.45318649397476,2.1s : 3.8s,4.637489752900712,1.3798120758009662,3.0286624431610107,-0.4031349718570709,-6.198325157165527,1.0533459186553955,0.44405364990234375,0.772761344909668,-1.272690685099064,-0.8675724768346768,-1.6026780518313595,-0.2240307778120041,0.9558945894241333,-0.18993651866912842,0.0
1727343804306,9i,17.45318649397476,2.1s : 3.8s,4.503535782331741,1.2797086204272845,2.7828562259674072,-0.3102963864803314,-6.09877347946167,0.9488388299942017,0.3636670708656311,0.7778851389884949,-1.2067374366001187,-0.9177681105335812,-1.6519626167620003,-0.28280800580978394,0.9344592690467834,-0.2163463532924652,0.0
1727343804316,9i,17.45318649397476,2.1s : 3.8s,4.415371969667123,1.1981926179857585,2.738175868988037,-0.23370635509490967,-5.9780731201171875,0.8916351199150085,0.2248414158821106,0.7681788206100464,-1.1419258736543123,-0.953249032446997,-1.6874663057662032,-0.3390381336212158,0.909436047077179,-0.24078918993473053,0.0
1727343804326,9i,17.45318649397476,2.1s : 3.8s,4.374797975585195,1.165780115170012,2.878941774368286,-0.17005015909671783,-5.846402168273926,0.8708986639976501,0.07947123050689697,0.77088463306427,-1.0775060984347957,-0.9765588709656512,-1.7112474852609942,-0.39235252141952515,0.8807796239852905,-0.2651166319847107,0.0
1727343804336,9i,17.45318649397476,2.1s : 3.8s,4.317881722836368,1.154319315471868,2.9141523838043213,-0.2120537906885147,-5.732520580291748,0.8770749568939209,-0.05383789539337158,0.7485279440879822,-1.013260593418521,-0.9918355564040814,-1.7267424913770582,-0.4428709149360657,0.8485615253448486,-0.2894977033138275,0.0
1727343804346,9i,17.45318649397476,2.1s : 3.8s,4.213662348118029,1.1742601569083202,2.8924875259399414,-0.20418281853199005,-5.569247245788574,0.8895112872123718,-0.0959673523902893,0.7605569362640381,-0.9501658094592208,-1.003436775437174,-1.7381134404019754,-0.4904329478740692,0.8135119676589966,-0.31252819299697876,0.0
1727343804356,9i,17.45318649397476,2.1s : 3.8s,4.0854844437334785,1.1916281578324557,2.8404932022094727,-0.24037472903728485,-5.379258632659912,0.9081089496612549,-0.09193772077560425,0.7660700082778931,-0.8886449605835052,-1.0120659119537339,-1.7462339114623744,-0.5345890522003174,0.7762181758880615,-0.33421561121940613,0.0
1727343804366,9i,17.45318649397476,2.1s : 3.8s,3.9237580375657126,1.1985062771634714,2.7170233726501465,-0.2860274612903595,-5.169367790222168,0.9369323253631592,-0.11437743902206421,0.7385749220848083,-0.8292491134858108,-1.0195369595608925,-1.7525931231760505,-0.5753753781318665,0.7374244332313538,-0.3537634015083313,0.0
1727343804376,9i,17.45318649397476,2.1s : 3.8s,3.770916007743153,1.1759239321265111,2.609218120574951,-0.2925006151199341,-4.968034267425537,0.9721229076385498,-0.16253280639648438,0.6413713693618774,-0.7722307179421316,-1.0261781533599528,-1.7578176313220006,-0.6127175092697144,0.6977349519729614,-0.3711380958557129,0.0
1727343804386,9i,17.45318649397476,2.1s : 3.8s,3.6181457699110466,1.1593818331291783,2.4610507488250732,-0.322917103767395,-4.786161422729492,1.014827013015747,-0.24808871746063232,0.5027368664741516,-0.7174518905259385,-1.0323264075892369,-1.7623825808778293,-0.6468614339828491,0.6574668288230896,-0.38640373945236206,0.0
1727343804396,9i,17.45318649397476,2.1s : 3.8s,3.4036861579030697,1.1779461665177309,2.1704671382904053,-0.3540608286857605,-4.57036828994751,1.047631025314331,-0.32077479362487793,0.4325851798057556,-0.6654405144258625,-1.0389102048591836,-1.767416377303369,-0.677971601486206,0.6174057126045227,-0.39895474910736084,0.0
1727343804406,9i,17.45318649397476,2.1s : 3.8s,3.1962594798465145,1.2052120639327313,1.9402098655700684,-0.3193899393081665,-4.338002681732178,1.0644981861114502,-0.327656626701355,0.4604572355747223,-0.6167338341032359,-1.0458946083553693,-1.7733680704019508,-0.7059471607208252,0.5783737897872925,-0.40880611538887024,0.0
1727343804416,9i,17.45318649397476,2.1s : 3.8s,2.992482612338635,1.2161983338641609,1.8252710103988647,-0.20481380820274353,-4.063350677490234,1.077237606048584,-0.27330076694488525,0.49396783113479614,-0.5709919931611037,-1.0516562960220732,-1.7789602135015021,-0.7305122017860413,0.5404669642448425,-0.4174296259880066,0.0
1727343804426,9i,17.45318649397476,2.1s : 3.8s,2.746082472768769,1.204722080536281,1.6971009969711304,-0.0743841677904129,-3.7227625846862793,1.0942707061767578,-0.19553327560424805,0.4644283056259155,-0.5284946007301011,-1.0555144402913417,-1.7836712396055927,-0.7514364123344421,0.5042338967323303,-0.42554882168769836,0.0
1727343804436,9i,17.45318649397476,2.1s : 3.8s,2.5325826192111305,1.2231177928029107,1.8128899335861206,-0.01555937621742487,-3.309887409210205,1.1292978525161743,-0.1625111699104309,0.44078749418258667,-0.4894017092887191,-1.0570723710050594,-1.7861010774725892,-0.7686870098114014,0.4700978994369507,-0.4337378442287445,0.0
1727343804446,9i,17.45318649397476,2.1s : 3.8s,2.3525111149838245,1.274137460998956,1.9626882076263428,-0.027636542916297913,-2.9044737815856934,1.1822810173034668,-0.2338976263999939,0.41343653202056885,-0.45306642445210704,-1.0566182826080637,-1.7847266955715904,-0.7828519344329834,0.43772464990615845,-0.44219931960105896,0.0
1727343804455,9i,17.45318649397476,2.1s : 3.8s,2.1214931546160285,1.3437763652835633,1.9486347436904907,-0.11060120165348053,-2.4868500232696533,1.2380690574645996,-0.3531818687915802,0.3849447965621948,-0.419985720221148,-1.0554666926876346,-1.7804524730777989,-0.794511616230011,0.40774741768836975,-0.4499930143356323,0.0
1727343804465,9i,17.45318649397476,2.1s : 3.8s,1.7884974231185227,1.4295221985403366,1.6214771270751953,-0.2287169247865677,-2.102672815322876,1.2751103639602661,-0.4780012369155884,0.43490469455718994,-0.39120898310723695,-1.0552682239844022,-1.7756528952942419,-0.8043005466461182,0.38130635023117065,-0.4557481110095978,0.0
1727343804475,9i,17.45318649397476,2.1s : 3.8s,1.3990637334673384,1.5030264831737796,1.1097283363342285,-0.2604750990867615,-1.7455649375915527,1.2681090831756592,-0.5968717932701111,0.5428922772407532,-0.3679348000591541,-1.0566123297029408,-1.7729499638734956,-0.8124207258224487,0.35968920588493347,-0.458907812833786,0.0
1727343804485,9i,17.45318649397476,2.1s : 3.8s,1.0968628097050366,1.5324032922764275,0.7428174614906311,-0.1421668529510498,-1.4489651918411255,1.2136987447738647,-0.698677122592926,0.6221297979354858,-0.34964844868434297,-1.058589462004458,-1.77276796833112,-0.8189234733581543,0.3425675630569458,-0.46044760942459106,0.0
1727343804495,9i,17.45318649397476,2.1s : 3.8s,0.8702194533372214,1.5257182875398936,0.4540218412876129,0.05372285097837448,-1.2134722471237183,1.1291711330413818,-0.7825459241867065,0.6636344790458679,-0.33512464191335317,-1.059508054978152,-1.7741018578401335,-0.8235986232757568,0.32888686656951904,-0.46208107471466064,0.0
1727343804505,9i,17.45318649397476,2.1s : 3.8s,0.6397559045585824,1.473213497986279,0.16245390474796295,0.2780134975910187,-0.8972938656806946,1.0364880561828613,-0.7879961729049683,0.689284086227417,-0.32440264809986513,-1.0587024006718844,-1.776811776063473,-0.8262525796890259,0.31874266266822815,-0.46444568037986755,0.0
1727343804515,9i,17.45318649397476,2.1s : 3.8s,0.4643602537710999,1.3951072478053512,0.17650115489959717,0.4107658565044403,-0.5281325578689575,0.9805657863616943,-0.7188704013824463,0.6841347217559814,-0.3175167551563201,-1.0559221673681312,-1.779162700874716,-0.8268488645553589,0.3122084140777588,-0.4678107798099518,0.0
1727343804525,9i,17.45318649397476,2.1s : 3.8s,0.38130911816137686,1.3224209939839326,0.23998717963695526,0.48668137192726135,-0.16852058470249176,0.9654390215873718,-0.6630542874336243,0.6140714883804321,-0.3133601892525054,-1.0513509596253703,-1.778874563209253,-0.8258211612701416,0.30825692415237427,-0.47222569584846497,0.0
1727343804535,9i,17.45318649397476,2.1s : 3.8s,0.3963254287119258,1.2652998758229952,-0.18760569393634796,0.5140568017959595,0.22210495173931122,0.9606472849845886,-0.6299483776092529,0.530382513999939,-0.31331801203419324,-1.0461154024474828,-1.7782504606424157,-0.8233487606048584,0.30821681022644043,-0.476549357175827,0.0
1727343804545,9i,17.45318649397476,2.1s : 3.8s,0.7807831528172912,1.2653396685469442,-0.8282306790351868,0.5053725242614746,0.6421003341674805,0.9668253660202026,-0.604811429977417,0.548211932182312,-0.3196059899316534,-1.0417323914788124,-1.7806553590622465,-0.8195628523826599,0.314192533493042,-0.47916585206985474,0.0
1727343804555,9i,17.45318649397476,2.1s : 3.8s,1.1332318456092865,1.3201328331744315,-1.2246026992797852,0.47938743233680725,1.0593022108078003,0.9878958463668823,-0.631344735622406,0.6068083047866821,-0.33221579645303023,-1.0384250400182673,-1.7855677872645883,-0.8144950270652771,0.3261384665966034,-0.47982457280158997,0.0
1727343804565,9i,17.45318649397476,2.1s : 3.8s,1.3856969205904013,1.386384994416894,-1.4047576189041138,0.5095745921134949,1.4250181913375854,1.0151920318603516,-0.6984391212463379,0.6353198289871216,-0.3496712502611911,-1.0352800747800206,-1.7909661503773342,-0.8079625368118286,0.34258896112442017,-0.4794054627418518,0.0
1727343804575,9i,17.45318649397476,2.1s : 3.8s,1.546621372064023,1.417557718900909,-1.4078627824783325,0.5267269015312195,1.7469907999038696,1.0239157676696777,-0.714725136756897,0.6709950566291809,-0.3705139602427949,-1.031590761208857,-1.7952565338593616,-0.7998862862586975,0.36209455132484436,-0.47861218452453613,0.0
1727343804585,9i,17.45318649397476,2.1s : 3.8s,1.7089977275168158,1.3875261148933995,-1.3361701965332031,0.558229386806488,2.0948400497436523,1.018371820449829,-0.6508732438087463,0.6815508604049683,-0.3939230634745038,-1.026932228514832,-1.7972525916616977,-0.7901767492294312,0.3838139474391937,-0.4778154492378235,0.0
1727343804595,9i,17.45318649397476,2.1s : 3.8s,1.9561061715094963,1.332375933623984,-1.3123804330825806,0.5946463346481323,2.5338563919067383,1.0150086879730225,-0.5271520614624023,0.6834425330162048,-0.4204755251325733,-1.0208351744476694,-1.7964913675676133,-0.778283953666687,0.4081946015357971,-0.47712835669517517,0.0
1727343804605,9i,17.45318649397476,2.1s : 3.8s,2.2325263951422536,1.3107264323503507,-1.2502551078796387,0.6424140930175781,3.015207290649414,1.0223701000213623,-0.4345180094242096,0.6956703662872314,-0.4506893804637167,-1.012961917486943,-1.7923855933176067,-0.7636879682540894,0.43558618426322937,-0.4764930307865143,0.0
1727343804615,9i,17.45318649397476,2.1s : 3.8s,2.5847432295563753,1.310999180979306,-1.329296588897705,0.7328880429267883,3.53987455368042,1.046757698059082,-0.4251694679260254,0.6650173664093018,-0.4851462747361428,-1.0027586335296743,-1.7849425852115866,-0.7456867098808289,0.46633777022361755,-0.475899875164032,0.0
1727343804625,9i,17.45318649397476,2.1s : 3.8s,2.95419756205267,1.3629855622252671,-1.4336552619934082,0.8320972323417664,4.078123569488525,1.0923378467559814,-0.48161447048187256,0.6577044725418091,-0.5245872998989943,-0.9899420985897448,-1.7745691133138264,-0.7235787510871887,0.5008558630943298,-0.4749498665332794,0.0
1727343804635,9i,17.45318649397476,2.1s : 3.8s,3.3346768442517942,1.4842428560688665,-1.62677001953125,0.9863406419754028,4.5905070304870605,1.1472995281219482,-0.6131781935691833,0.7146279811859131,-0.5690021534192162,-0.9739336139184794,-1.7611934912415315,-0.6967839598655701,0.5387917160987854,-0.4734932780265808,0.0
1727343804645,9i,17.45318649397476,2.1s : 3.8s,3.761153865762522,1.6066462849592869,-2.0015103816986084,1.1588362455368042,5.105166435241699,1.2074086666107178,-0.7666261196136475,0.731956958770752,-0.6190046254098983,-0.9546107780080008,-1.7457373027134193,-0.6646687984466553,0.5802247524261475,-0.4706959128379822,0.0
1727343804655,9i,17.45318649397476,2.1s : 3.8s,4.15847609148999,1.7352074607472554,-2.3282976150512695,1.3430849313735962,5.58336067199707,1.2605167627334595,-0.8994594812393188,0.7829527854919434,-0.6750138545436274,-0.9317763104793,-1.728519245512202,-0.626651406288147,0.6249081492424011,-0.4656156003475189,0.0
1727343804665,9i,17.45318649397476,2.1s : 3.8s,4.486808630076205,1.857670735199979,-2.5406641960144043,1.6395565271377563,5.963100433349609,1.3094624280929565,-1.0067980289459229,0.8500626087188721,-0.7356568038129242,-0.903645111749958,-1.7079304634545391,-0.5824270248413086,0.6710742712020874,-0.4587356448173523,0.0
1727343804675,9i,17.45318649397476,2.1s : 3.8s,4.814442014350398,1.9059750839037324,-2.6864564418792725,2.047672986984253,6.329170227050781,1.3710585832595825,-1.0148696899414062,0.8502816557884216,-0.7996026369796402,-0.8673438440966561,-1.682079359724019,-0.5315353274345398,0.7170791625976562,-0.45085224509239197,0.0
1727343804685,9i,17.45318649397476,2.1s : 3.8s,5.323366803599641,1.903869020748425,-2.806000232696533,2.4857053756713867,6.990879535675049,1.4567811489105225,-0.8730556964874268,0.860395073890686,-0.8673427928699671,-0.8187439374272835,-1.6471017686818081,-0.4723910391330719,0.7626128196716309,-0.44189223647117615,0.0
1727343804695,9i,17.45318649397476,2.1s : 3.8s,6.103030557224983,1.968921533443696,-2.933870792388916,2.79201078414917,8.142704010009766,1.6344408988952637,-0.6731727123260498,0.8672332167625427,-0.9406710916453545,-0.750247557535796,-1.593683052252701,-0.4017597436904907,0.8079537153244019,-0.43104541301727295,0.0
1727343804705,9i,17.45318649397476,2.1s : 3.8s,7.151934874201435,2.2055795894636674,-3.5716071128845215,2.925529718399048,9.60538101196289,1.9388455152511597,-0.623879075050354,0.8463062644004822,-1.022272295923886,-0.6512335244755614,-1.5090971327021034,-0.31607332825660706,0.853295087814331,-0.4147113263607025,0.0
1727343804715,9i,17.45318649397476,2.1s : 3.8s,8.269322216754196,2.5962753187975327,-4.928170680999756,2.8369827270507812,10.93185806274414,2.3076694011688232,-0.8428810238838196,0.8395588397979736,-1.1138772296773554,-0.5076435265482963,-1.378336709368024,-0.2144687920808792,0.8974159955978394,-0.3855487108230591,0.0
1727343804725,9i,17.45318649397476,2.1s : 3.8s,9.038614064653604,3.113846939012637,-6.238202095031738,2.9984686374664307,11.55423641204834,2.6644434928894043,-1.3560006618499756,0.870658278465271,-1.209798790476488,-0.28845818341916185,-1.171189249579736,-0.1004786491394043,0.9355449676513672,-0.33861470222473145,0.0
1727343804735,9i,17.45318649397476,2.1s : 3.8s,9.582431457191385,3.7179454886119268,-7.332320690155029,3.5599939823150635,11.724143981933594,3.0184695720672607,-1.9470609426498413,0.9596425294876099,-1.2911199665299136,0.07189788148091013,-0.8268532031638299,0.019829928874969482,0.9611448049545288,-0.2753314673900604,0.0
1727343804745,9i,17.45318649397476,2.1s : 3.8s,9.765555160003519,4.270490340615977,-6.727506160736084,3.413804531097412,12.443713188171387,3.5395097732543945,-2.0771474838256836,1.1808542013168335,-1.3186654407580987,0.6188167790399645,-0.297823173252564,0.1447094827890396,0.9683830142021179,-0.20320819318294525,0.0
1727343804755,9i,17.45318649397476,2.1s : 3.8s,10.264137123824305,5.233984364371018,-6.736351490020752,2.240952968597412,13.547468185424805,4.76228666305542,-1.6472115516662598,1.4148894548416138,-1.2610226080403024,1.116268928314253,0.18881492499014232,0.2738921046257019,0.9524025917053223,-0.13383769989013672,0.0
1727343804765,9i,17.45318649397476,2.1s : 3.8s,11.02039964864365,6.785095443236536,-7.631063938140869,0.3301442265510559,14.537352561950684,6.511131763458252,-0.7260717749595642,1.7650787830352783,-1.146463384498204,1.416257579675,0.4963496536847248,0.40680667757987976,0.9113135933876038,-0.06337269395589828,0.0
1727343804775,9i,17.45318649397476,2.1s : 3.8s,11.766949912235678,8.244640103539576,-9.915619850158691,-0.66047602891922,14.446306228637695,8.001265525817871,0.11681663990020752,1.984992265701294,-1.007004763088531,1.593513957299288,0.6994149591153578,0.5342573523521423,0.8452349901199341,0.012139149941504002,0.0
1727343804785,9i,17.45318649397476,2.1s : 3.8s,12.480202455210968,8.637227937652382,-11.929726600646973,-2.73292875289917,14.002362251281738,8.42320442199707,0.46079033613204956,1.8544557094573975,-0.8556533046981848,1.7084873051595835,0.8622633795241671,0.6495194435119629,0.7549994587898254,0.09000246971845627,0.0
1727343804795,9i,17.45318649397476,2.1s : 3.8s,12.243091621235852,8.753672460180393,-11.556966781616211,-4.57505989074707,13.354471206665039,8.499610900878906,0.7718266844749451,1.94619619846344,-0.7011801254605577,1.7651096547999923,0.9935836995770361,0.7497020959854126,0.645119845867157,0.1475387066602707,0.0
1727343804805,9i,17.45318649397476,2.1s : 3.8s,13.98550824807142,9.067390709285881,-13.908880233764648,-8.15312385559082,13.205495834350586,8.889203071594238,0.9595234394073486,1.5096217393875122,-0.5469394488908211,1.7697719899671398,1.1105603153201258,0.8372682929039001,0.5200756192207336,0.16882997751235962,0.0
1727343804815,9i,17.45318649397476,2.1s : 3.8s,16.179847400711203,9.123045462790202,-20.159500122070312,-9.359697341918945,9.342754364013672,9.045324325561523,0.7090896368026733,0.9535503387451172,-0.4002516759250191,1.7535012114109079,1.2715816626290806,0.9056345820426941,0.3896501362323761,0.16732990741729736,0.0
1727343804825,9i,17.45318649397476,2.1s : 3.8s,17.45318649397476,9.897595541665307,-24.359683990478516,-8.605755805969238,2.9897284507751465,9.751131057739258,-1.6460483074188232,-0.41032373905181885,-0.3010416791407498,1.7412353170234312,1.4982554042966805,0.9411903619766235,0.29651519656181335,0.16198712587356567,0.0
1727343804835,9i,17.45318649397476,2.1s : 3.8s,15.147603248743373,10.010776232462247,-20.36610221862793,-9.697324752807617,0.8215497732162476,9.65924072265625,-2.5848655700683594,0.48288655281066895,-0.24927398926797395,1.7124838648766685,1.7277804431568358,0.9593808650970459,0.2467004507780075,0.1368493139743805,0.0
1727343804845,9i,17.45318649397476,2.1s : 3.8s,12.405853469951145,9.929814774464912,-15.393353462219238,-10.20932674407959,0.7478457689285278,9.145366668701172,1.8148351907730103,3.4161181449890137,-0.22028244177102546,1.6526563303605204,1.906885934594206,0.972568154335022,0.21850524842739105,0.07979274541139603,0.0
1727343804855,9i,17.45318649397476,2.1s : 3.8s,10.511699245908588,11.370342171938136,-11.235627174377441,-10.6380615234375,-2.4386868476867676,8.949411392211914,4.922636985778809,4.996034622192383,-0.2235219273939255,1.5738617453226724,2.0429139872048174,0.9751183986663818,0.22166530787944794,0.002989155473187566,0.0
1727343804865,9i,17.45318649397476,2.1s : 3.8s,9.315291848013864,10.577102991959434,-6.343019485473633,-11.63901138305664,-4.120896339416504,8.00966739654541,4.524630546569824,5.219966888427734,-0.2599808907327463,1.484039610770808,2.1311003510067006,0.9627605080604553,0.25706207752227783,-0.0837361291050911,0.0
1727343804875,9i,17.45318649397476,2.1s : 3.8s,9.109796392345395,10.837894724305109,-1.8851191997528076,-12.304121017456055,-5.415701389312744,7.874888896942139,4.62851095199585,5.832921504974365,-0.31218920045985943,1.373009756427111,2.166376452535945,0.9331098198890686,0.3071427643299103,-0.18700143694877625,0.0
1727343804885,9i,17.45318649397476,2.1s : 3.8s,8.968903415676332,11.136009947406885,1.369379997253418,-12.237720489501953,-5.194414138793945,7.699796676635742,4.849433422088623,6.41925573348999,-0.36476315309810553,1.2451776951245397,2.1523383812652863,0.8851185441017151,0.35672804713249207,-0.29884856939315796,0.0
1727343804895,9i,17.45318649397476,2.1s : 3.8s,8.824685819235516,10.088293464818337,1.2976338863372803,-12.033939361572266,-5.140163898468018,6.575738906860352,3.961135149002075,6.545435905456543,-0.4052596441633898,1.1100596813677337,2.1166704691121603,0.8231715559959412,0.39425739645957947,-0.40859484672546387,0.0
1727343804905,9i,17.45318649397476,2.1s : 3.8s,8.951432597747653,8.900259605759834,0.043460216373205185,-11.475994110107422,-6.79878044128418,6.19049596786499,2.6180224418640137,5.834238529205322,-0.45341529002909814,0.9765577761947349,2.0776056585610028,0.7448528409004211,0.43803828954696655,-0.5033059120178223,0.0
1727343804915,9i,17.45318649397476,2.1s : 3.8s,9.014694049655638,7.504503092924736,-0.19698567688465118,-11.415302276611328,-7.078103065490723,5.850327491760254,0.254353791475296,4.693243980407715,-0.509903673124066,0.8409143445526113,2.0307737019623917,0.6504506468772888,0.48809316754341125,-0.581961452960968,0.0
1727343804925,9i,17.45318649397476,2.1s : 3.8s,9.239379215596331,7.09964419311219,0.7792690396308899,-11.646994590759277,-7.300334930419922,5.840613842010498,0.6538819670677185,3.9830410480499268,-0.5577211695214059,0.6941564119342576,1.9691770414615335,0.5427937507629395,0.5292540788650513,-0.6521236300468445,0.0
1727343804935,9i,17.45318649397476,2.1s : 3.8s,9.38788474425564,7.359992475953714,2.5973942279815674,-11.6094388961792,-7.360131740570068,5.757439136505127,1.993462085723877,4.128860950469971,-0.5868045377212782,0.533063593937698,1.886530945004918,0.4231640100479126,0.5537029504776001,-0.7171788215637207,0.0
1727343804945,9i,17.45318649397476,2.1s : 3.8s,9.62909525311557,7.602218428933661,5.123513221740723,-11.660520553588867,-6.607914924621582,5.0749969482421875,2.236132860183716,5.199792385101318,-0.5825652712374713,0.3639936322449764,1.7913211129456927,0.29728683829307556,0.5501678586006165,-0.7803434729576111,0.0
1727343804955,9i,17.45318649397476,2.1s : 3.8s,10.054809154169742,8.086962571361546,7.735398292541504,-11.241368293762207,-6.187486171722412,4.327765464782715,2.738992214202881,6.258380889892578,-0.5372268789108143,0.1991427117322323,1.7030922566981601,0.1699611097574234,0.5117554664611816,-0.8421517610549927,0.0
1727343804965,9i,17.45318649397476,2.1s : 3.8s,10.802706923302106,8.207010868023604,9.707531929016113,-11.349836349487305,-6.006066799163818,3.751608371734619,2.923185110092163,6.6884565353393555,-0.4561986624992582,0.0505636398735899,1.6327151247414713,0.0453733392059803,0.4405387043952942,-0.8965862989425659,0.0
1727343804975,9i,17.45318649397476,2.1s : 3.8s,10.937443386942995,7.890168099591132,10.17630672454834,-11.76058292388916,-4.874783039093018,3.389385938644409,2.399488925933838,6.708894729614258,-0.35502294814114255,-0.08578263313092938,1.5822121852084539,-0.08033449202775955,0.3476118743419647,-0.9341907501220703,0.0
1727343804985,9i,17.45318649397476,2.1s : 3.8s,9.906851182093776,7.243170677163633,9.006256103515625,-10.694843292236328,-4.737005710601807,3.122387647628784,1.6670022010803223,6.319439888000488,-0.2526856828035351,-0.20787355422200604,1.5480944568534851,-0.19982600212097168,0.25000524520874023,-0.9474000930786133,0.0
1727343804995,9i,17.45318649397476,2.1s : 3.8s,8.870478568028838,6.0302208412967255,7.354293346405029,-9.762359619140625,-5.032973766326904,2.9191737174987793,1.1055454015731812,5.159433841705322,-0.16114229785367243,-0.3153720846814804,1.5217392134930496,-0.3061518669128418,0.16044580936431885,-0.9383646249771118,0.0
1727343805004,9i,17.45318649397476,2.1s : 3.8s,8.098625296139353,5.226242601162021,6.377650260925293,-8.84460735321045,-5.170628547668457,2.6585144996643066,0.8668438196182251,4.415256977081299,-0.07965155427095542,-0.4111347678366746,1.4978898828965688,-0.39838269352912903,0.07956735789775848,-0.9137616157531738,0.0
1727343805014,9i,17.45318649397476,2.1s : 3.8s,7.852674741969272,4.804055708568395,6.548120498657227,-8.166511535644531,-5.230259418487549,2.430459499359131,0.8260904550552368,4.060713291168213,0.000742572773103803,-0.4965948704150396,1.4791657518476846,-0.4764343798160553,-0.0007425727089866996,-0.8792097568511963,0.0
1727343805024,9i,17.45318649397476,2.1s : 3.8s,7.676927528845272,4.477196019324264,6.9559245109558105,-7.786382675170898,-4.674656867980957,2.093329906463623,0.915660560131073,3.8503012657165527,0.08415588840931067,-0.575909926525779,1.4707583045041763,-0.5426708459854126,-0.08405658602714539,-0.8357289433479309,0.0
1727343805034,9i,17.45318649397476,2.1s : 3.8s,7.241254849187328,4.411607639542684,7.137344837188721,-7.207515716552734,-3.6800994873046875,1.8129758834838867,1.3333243131637573,3.7944231033325195,0.1664899176718142,-0.6510327441039653,1.476652232456838,-0.5976287126541138,-0.1657218337059021,-0.7844592332839966,0.0
1727343805044,9i,17.45318649397476,2.1s : 3.8s,6.69411749898253,4.354764551637717,7.218885898590088,-6.074272632598877,-3.2394042015075684,1.649721384048462,1.6669833660125732,3.6692724227905273,0.24582191219881067,-0.7215664976279,1.4933443128217745,-0.640703558921814,-0.24335360527038574,-0.7282019257545471,0.0
1727343805054,9i,17.45318649397476,2.1s : 3.8s,6.24195341039894,3.90010874007749,7.14848518371582,-5.001348972320557,-3.224958896636963,1.3794996738433838,1.5211244821548462,3.3157215118408203,0.32186493880238803,-0.7884437129252826,1.5194836923641881,-0.6728346347808838,-0.3163362741470337,-0.6687487959861755,0.0
1727343805064,9i,17.45318649397476,2.1s : 3.8s,5.941474639438988,3.4460441924995866,6.9625244140625,-4.536981105804443,-3.0536603927612305,1.442326307296753,1.0667130947113037,2.94228458404541,0.39231225167111117,-0.8512760073255651,1.5528183858011086,-0.6949814558029175,-0.38232600688934326,-0.6089563369750977,0.0
1727343805074,9i,17.45318649397476,2.1s : 3.8s,5.396695772703964,3.166527785840778,6.5630927085876465,-3.784210205078125,-2.6973764896392822,1.4520349502563477,0.7533513307571411,2.7112643718719482,0.45722712109282876,-0.9086289042511536,1.5903483009481734,-0.7076502442359924,-0.4414617717266083,-0.551672637462616,0.0
1727343805084,9i,17.45318649397476,2.1s : 3.8s,4.886464821116264,2.978770414090599,6.013360023498535,-3.223316192626953,-2.543534755706787,1.3315625190734863,0.678398847579956,2.5767788887023926,0.5155573359889576,-0.9618378400303377,1.6297361242140918,-0.713627278804779,-0.49301981925964355,-0.4976620674133301,0.0
1727343805094,9i,17.45318649397476,2.1s : 3.8s,4.6021367338956924,2.965172819762502,5.913355827331543,-2.7093634605407715,-2.1727404594421387,1.2489020824432373,0.7646883130073547,2.578322172164917,0.5679223969828796,-1.0133825185012106,1.6721957374244028,-0.7154091000556946,-0.5378817319869995,-0.4459521472454071,0.0
1727343805104,9i,17.45318649397476,2.1s : 3.8s,4.381169114460086,2.77929605172235,5.933430194854736,-2.0116262435913086,-1.835559368133545,1.123417854309082,0.8207582831382751,2.40598726272583,0.6150497853191426,-1.0645063541268989,1.7215814433212477,-0.7142839431762695,-0.5769991874694824,-0.3960689902305603,0.0
1727343805114,9i,17.45318649397476,2.1s : 3.8s,4.129640391198561,2.451008991353486,5.7206034660339355,-1.488822102546692,-1.7106095552444458,0.9919313788414001,0.7301098108291626,2.119069814682007,0.657515663391868,-1.1141795521175248,1.7756930677630214,-0.7104219794273376,-0.6111523509025574,-0.34898918867111206,0.0
1727343805124,9i,17.45318649397476,2.1s : 3.8s,3.898933651526887,2.1725315232809104,5.443203926086426,-1.1129608154296875,-1.6994221210479736,0.8381070494651794,0.505204975605011,1.9396488666534424,0.6945196509325062,-1.1627071474835724,1.8323275180151313,-0.7052640914916992,-0.6400164365768433,-0.30492889881134033,0.0
1727343805134,9i,17.45318649397476,2.1s : 3.8s,3.6311189738759966,2.0413242892272936,5.172088623046875,-1.1185263395309448,-1.129430890083313,0.8083452582359314,0.2499350905418396,1.857717752456665,0.7261524942163008,-1.2078796252164,1.8903085283844452,-0.6990312933921814,-0.6639976501464844,-0.2654476761817932,0.0
1727343805144,9i,17.45318649397476,2.1s : 3.8s,3.307185917336779,1.838589011980342,4.879286766052246,-0.4975641667842865,-0.4811990261077881,0.6231576204299927,0.1135513186454773,1.726033091545105,0.7513944020388992,-1.250778273937295,1.9499327568023623,-0.6936379671096802,-0.6826583743095398,-0.22987815737724304,0.0
1727343805154,9i,17.45318649397476,2.1s : 3.8s,3.091171521780518,1.5409710034096673,4.578149795532227,0.26306310296058655,-0.4346057176589966,0.4006977081298828,0.1416102647781372,1.4812088012695312,0.770694327943905,-1.291172594892972,2.009846836779497,-0.6895619630813599,-0.696633517742157,-0.19800563156604767,0.0
1727343805164,9i,17.45318649397476,2.1s : 3.8s,2.8230589307823593,1.3782676994061525,4.188746452331543,0.3104945421218872,-0.2335602343082428,0.3441230058670044,0.249642014503479,1.3110606670379639,0.7851736269289689,-1.3292228722844481,2.0682135598090916,-0.6867286562919617,-0.7069479823112488,-0.16919966042041779,0.0
1727343805174,9i,17.45318649397476,2.1s : 3.8s,2.4336061264342455,1.3571721633819307,3.6060092449188232,0.37396982312202454,-0.08694779872894287,0.32362890243530273,0.35779768228530884,1.2685272693634033,0.7953459336442991,-1.3640148576936852,2.1217681975943985,-0.6851249933242798,-0.7141057848930359,-0.14372551441192627,0.0
1727343805184,9i,17.45318649397476,2.1s : 3.8s,1.9970971983229722,1.3757279349049034,2.923119068145752,0.552011251449585,-0.08279246836900711,0.2927362322807312,0.38827043771743774,1.2869261503219604,0.8023254447947276,-1.3922420375303721,2.16750375393006,-0.6839869618415833,-0.7189742922782898,-0.12344346940517426,0.0
1727343805194,9i,17.45318649397476,2.1s : 3.8s,1.5593430006566353,1.2846544194723102,2.1671345233917236,0.8374032974243164,-0.038954176008701324,0.22772490978240967,0.31586676836013794,1.2242166996002197,0.8072988197965055,-1.4112042250371062,2.203398493131132,-0.6826657652854919,-0.7224220633506775,-0.10988254100084305,0.0
1727343805204,9i,17.45318649397476,2.1s : 3.8s,1.291895838901879,1.1513301368448126,1.6189595460891724,1.0339115858078003,0.1264246702194214,0.19220751523971558,0.19531750679016113,1.1182434558868408,0.8097665359910396,-1.4210897825212423,2.2302154279053914,-0.6819536685943604,-0.7241261601448059,-0.10286252945661545,0.0
1727343805214,9i,17.45318649397476,2.1s : 3.8s,1.0897448636464038,0.9812333171482552,1.3113375902175903,0.8977504372596741,0.3337171673774719,0.2172086238861084,0.09116232395172119,0.952538013458252,0.8097021618232937,-1.4267508298804603,2.251490690554813,-0.682571291923523,-0.7240817546844482,-0.09900704026222229,0.0
1727343805224,9i,17.45318649397476,2.1s : 3.8s,1.0286862921721625,0.877077860848838,1.2393227815628052,0.5880469083786011,0.6840996742248535,0.2649124264717102,0.01987522840499878,0.8358779549598694,0.8065245433924537,-1.432920929297784,2.270365688757673,-0.6854448318481445,-0.7218864560127258,-0.09510940313339233,0.0
1727343805234,9i,17.45318649397476,2.1s : 3.8s,0.9546549608894149,0.8988658024605377,0.9605334401130676,0.4111204743385315,0.9654194712638855,0.2836059331893921,0.02894800901412964,0.8524608016014099,0.799748018716273,-1.4402152695834984,2.287546359023231,-0.6909546256065369,-0.7171804904937744,-0.09074193239212036,0.0
1727343805244,9i,17.45318649397476,2.1s : 3.8s,1.0065096128515727,0.9214393821626412,0.9809990525245667,0.4027608335018158,1.0606213808059692,0.2213323712348938,0.11755114793777466,0.88670414686203,0.7908052037308984,-1.447571548760135,2.3032975072991144,-0.6979407668113708,-0.7109197974205017,-0.08644156157970428,0.0
1727343805254,9i,17.45318649397476,2.1s : 3.8s,0.9307456540531065,0.8363241165782165,0.8980937004089355,0.5128174424171448,0.9241366982460022,0.10127401351928711,0.1738569140434265,0.811760663986206,0.7820577737863771,-1.4535154881968264,2.318075377223472,-0.7045913934707642,-0.7047408223152161,-0.0830160453915596,0.0
1727343805264,9i,17.45318649397476,2.1s : 3.8s,1.0164447620907902,0.7927537036656493,0.9975124597549438,0.7230116724967957,0.881104052066803,-0.009822428226470947,0.12212449312210083,0.7832289338111877,0.7742947144041763,-1.4575042716048434,2.3325123113019472,-0.7103315591812134,-0.6992120146751404,-0.08082100003957748,0.0
1727343805274,9i,17.45318649397476,2.1s : 3.8s,1.2036485817421225,0.7296137729165335,1.1976701021194458,0.9100639224052429,0.9769079089164734,-0.07129919528961182,-0.04155343770980835,0.7249317169189453,0.7663685412270876,-1.4608602019037844,2.3491515106785834,-0.716084897518158,-0.6935235857963562,-0.07904229313135147,0.0
1727343805284,9i,17.45318649397476,2.1s : 3.8s,1.3186255772547817,0.6534449281205501,1.2837045192718506,1.0092569589614868,1.0929007530212402,-0.10895520448684692,-0.21278536319732666,0.6081458926200867,0.7574506364518451,-1.4641965055912889,2.3679238275375676,-0.7224658131599426,-0.6870713233947754,-0.07730777561664581,0.0
1727343805294,9i,17.45318649397476,2.1s : 3.8s,1.36351337653137,0.6269715131287693,1.2374569177627563,1.0019022226333618,1.262203574180603,-0.1390973925590515,-0.3252938985824585,0.5176186561584473,0.747119124148969,-1.4670830970005007,2.386810789056921,-0.729707658290863,-0.6795280575752258,-0.07595285773277283,0.0
1727343805304,9i,17.45318649397476,2.1s : 3.8s,1.3657808829293208,0.6186142326184821,1.0920706987380981,0.9465012550354004,1.4330123662948608,-0.1382419466972351,-0.36956459283828735,0.4764396548271179,0.7349716000496874,-1.4691992685611712,2.4044128583976057,-0.7380246520042419,-0.6705660820007324,-0.07524018734693527,0.0
1727343805314,9i,17.45318649397476,2.1s : 3.8s,1.3497811326081026,0.5860526684783759,0.8963326811790466,0.8655585646629333,1.5789005756378174,-0.10591387748718262,-0.33579373359680176,0.4684896469116211,0.7209745772064319,-1.4703000142216391,2.419698252535768,-0.7473729848861694,-0.6601170301437378,-0.07536210864782333,0.0
1727343805324,9i,17.45318649397476,2.1s : 3.8s,1.3171122546123275,0.5359600152475248,0.6825365424156189,0.7791344523429871,1.6670829057693481,-0.08001059293746948,-0.253797709941864,0.4652291536331177,0.7056127223717823,-1.470335724506384,2.432180444440609,-0.7573766112327576,-0.648500382900238,-0.07634350657463074,0.0
1727343805334,9i,17.45318649397476,2.1s : 3.8s,1.3313641719936373,0.4999555115928891,0.5318030118942261,0.7594321370124817,1.7539483308792114,-0.09512460231781006,-0.1855500340461731,0.454398512840271,0.6892226049493559,-1.469182714237293,2.4422543615405363,-0.7677599787712097,-0.6359374523162842,-0.07828448712825775,0.0
1727343805344,9i,17.45318649397476,2.1s : 3.8s,1.325476167114629,0.48077531655489525,0.38518771529197693,0.8428652286529541,1.744235873222351,-0.13119345903396606,-0.13838106393814087,0.4413432478904724,0.6722626305144991,-1.4663897928211354,2.450425750441276,-0.7781540751457214,-0.6227579116821289,-0.08154087513685226,0.0
1727343805354,9i,17.45318649397476,2.1s : 3.8s,1.293532439632656,0.4476873514945469,0.25197911262512207,0.953537106513977,1.6560964584350586,-0.1809840202331543,-0.092043936252594,0.3989945650100708,0.6557304663740691,-1.4613159464479912,2.4567422724134182,-0.7878576517105103,-0.6097383499145508,-0.08660122752189636,0.0
1727343805364,9i,17.45318649397476,2.1s : 3.8s,1.2692734188913268,0.4113764031589703,0.09231676906347275,1.02065110206604,1.5896793603897095,-0.21344918012619019,-0.08210015296936035,0.3419496417045593,0.6398608381350005,-1.4541573126976757,2.4612260577756606,-0.7967284917831421,-0.5970838069915771,-0.09335335344076157,0.0
1727343805374,9i,17.45318649397476,2.1s : 3.8s,1.2456121115944827,0.3864408846571809,-0.10059516131877899,1.0200603008270264,1.5474358797073364,-0.20839297771453857,-0.09079480171203613,0.31251436471939087,0.6243555254179893,-1.445289630441608,2.4634988296811704,-0.8049585819244385,-0.5845745205879211,-0.1015615165233612,0.0
1727343805384,9i,17.45318649397476,2.1s : 3.8s,1.2616802629318868,0.3784857208361354,-0.24299517273902893,1.03188955783844,1.5526801347732544,-0.18906694650650024,-0.10131651163101196,0.3118334412574768,0.6088032088348773,-1.4352604039750532,2.46383817233764,-0.8128100037574768,-0.5718861222267151,-0.11084452271461487,0.0
1727343805394,9i,17.45318649397476,2.1s : 3.8s,1.272387506464487,0.35984991728709853,-0.3584138751029968,1.0687313079833984,1.5245522260665894,-0.16975194215774536,-0.10009121894836426,0.301094651222229,0.593138770888341,-1.424223774619702,2.4628816303208794,-0.8202993273735046,-0.5589663982391357,-0.12110184878110886,0.0
1727343805404,9i,17.45318649397476,2.1s : 3.8s,1.2520777017664872,0.3126441130168337,-0.48987334966659546,1.0612142086029053,1.4542721509933472,-0.1469009518623352,-0.07752394676208496,0.26487070322036743,0.5778143520038882,-1.4122999403687164,2.4605851777769328,-0.8271592259407043,-0.5461944341659546,-0.13221070170402527,0.0
1727343805414,9i,17.45318649397476,2.1s : 3.8s,1.2450806033723045,0.25833093978363875,-0.5985451936721802,1.0313392877578735,1.4213879108428955,-0.11668020486831665,-0.057286858558654785,0.22324609756469727,0.5628270414241808,-1.3998560196895342,2.4569566799361917,-0.8334236741065979,-0.5335792899131775,-0.14386975765228271,0.0
1727343805424,9i,17.45318649397476,2.1s : 3.8s,1.2176416097699951,0.21607416157675044,-0.6683815717697144,0.9574714303016663,1.3887859582901,-0.0760694146156311,-0.0437159538269043,0.197459876537323,0.547892995427284,-1.3875748683704265,2.4525476168532814,-0.8393359184265137,-0.5208898186683655,-0.15552863478660583,0.0
1727343805434,9i,17.45318649397476,2.1s : 3.8s,1.1926241004386222,0.19250534810632722,-0.7652286887168884,0.8644211292266846,1.3511180877685547,-0.03605449199676514,-0.03638648986816406,0.18556509912014008,0.5331286898129636,-1.3758720399367328,2.4473968230844667,-0.8449119329452515,-0.5082303285598755,-0.16681192815303802,0.0
1727343805444,9i,17.45318649397476,2.1s : 3.8s,1.2038024647752068,0.19698992668696452,-0.8653347492218018,0.823297917842865,1.3383489847183228,-0.015030741691589355,-0.03336292505264282,0.19356141984462738,0.5183830747815705,-1.3644150313671837,2.441251602296386,-0.8501886129379272,-0.49547627568244934,-0.1779973953962326,0.0
1727343805454,9i,17.45318649397476,2.1s : 3.8s,1.2371606969888411,0.2328569258623845,-0.9332584738731384,0.824853241443634,1.3591370582580566,-0.010040223598480225,-0.026434361934661865,0.23113365471363068,0.5033234305616233,-1.352896180902214,2.4343791831360138,-0.855270504951477,-0.482339471578598,-0.18937022984027863,0.0
1727343805464,9i,17.45318649397476,2.1s : 3.8s,1.2565526526976258,0.27325697557978285,-0.9265300035476685,0.8796413540840149,1.3688533306121826,-0.0066220760345458984,0.004500150680541992,0.2731396555900574,0.4879601911830268,-1.3411785688829658,2.427538495600735,-0.8601077198982239,-0.4688251316547394,-0.20104175806045532,0.0
1727343805474,9i,17.45318649397476,2.1s : 3.8s,1.2511467814651498,0.2914527292247097,-0.9398620128631592,0.9542695879936218,1.2968860864639282,-0.009590566158294678,0.05942189693450928,0.28516969084739685,0.47279023394941055,-1.3289310575415696,2.4208540786874044,-0.8643870949745178,-0.4553722143173218,-0.2132396101951599,0.0
1727343805484,9i,17.45318649397476,2.1s : 3.8s,1.2076987209780263,0.28383764274013684,-0.947790801525116,0.9722493886947632,1.1811387538909912,-0.017687439918518066,0.10854876041412354,0.26166415214538574,0.4584726015315372,-1.3162106250237082,2.4139946814904643,-0.867825984954834,-0.4425789713859558,-0.22583641111850739,0.0
1727343805494,9i,17.45318649397476,2.1s : 3.8s,1.1585910256504603,0.26824562651565514,-0.9651817679405212,0.9558654427528381,1.0655434131622314,-0.020098984241485596,0.1300806701183319,0.23373225331306458,0.44521110720568813,-1.3035431140472056,2.407010818472077,-0.8704804182052612,-0.43064841628074646,-0.2383403331041336,0.0
1727343805504,9i,17.45318649397476,2.1s : 3.8s,1.1685316358794557,0.26448881878186375,-1.0652047395706177,0.9577046036720276,0.990022599697113,0.0031374096870422363,0.1264411211013794,0.2322867512702942,0.43266076555124366,-1.290712663635145,2.3993337902382232,-0.8724765181541443,-0.41928786039352417,-0.250963419675827,0.0
1727343805514,9i,17.45318649397476,2.1s : 3.8s,1.2004350998871514,0.28041245739343157,-1.1891950368881226,0.9499709010124207,0.9397846460342407,0.02603590488433838,0.10427975654602051,0.2589961588382721,0.42025215722506054,-1.2774973280941584,2.390436298600975,-0.8739973306655884,-0.4079906940460205,-0.26395514607429504,0.0
1727343805524,9i,17.45318649397476,2.1s : 3.8s,1.222929836088087,0.2798932856787085,-1.2862988710403442,0.9194255471229553,0.9060695767402649,0.032244324684143066,0.06419965624809265,0.2705160975456238,0.4078402679120778,-1.2641981678798158,2.3805168843405844,-0.8751704692840576,-0.39662766456604004,-0.2770620584487915,0.0
1727343805534,9i,17.45318649397476,2.1s : 3.8s,1.2534705841973535,0.2834683783274793,-1.361678123474121,0.9019895195960999,0.9061213731765747,0.02963125705718994,0.02492693066596985,0.28081125020980835,0.39517895776989453,-1.250976023885352,2.3698895237303104,-0.8761279582977295,-0.38497334718704224,-0.2901647984981537,0.0
1727343805544,9i,17.45318649397476,2.1s : 3.8s,1.2798257048428072,0.2923216272921887,-1.3946943283081055,0.9217097163200378,0.9177902936935425,0.026601195335388184,0.011781692504882812,0.2908702492713928,0.3820955371161211,-1.237745074149027,2.358915555777945,-0.876897394657135,-0.3728657066822052,-0.30335184931755066,0.0
1727343805553,9i,17.45318649397476,2.1s : 3.8s,1.3167339006199068,0.2910221014354638,-1.4310212135314941,1.0150609016418457,0.8784582614898682,0.012472391128540039,0.015582621097564697,0.29033684730529785,0.3689101774282041,-1.2240813067497305,2.347906762801674,-0.8772186040878296,-0.360599160194397,-0.3169480860233307,0.0
1727343805563,9i,17.45318649397476,2.1s : 3.8s,1.3615102586702863,0.2682644082876161,-1.5460847616195679,1.0656490325927734,0.7682180404663086,-0.006436586380004883,0.026810139417648315,0.2668437361717224,0.3560311094386731,-1.209490723645859,2.336094365208978,-0.8767727613449097,-0.3485569953918457,-0.33132731914520264,0.0
1727343805573,9i,17.45318649397476,2.1s : 3.8s,1.4325060223808364,0.25484938930200773,-1.683275818824768,1.1192773580551147,0.6858639717102051,-0.01431572437286377,0.044855326414108276,0.2504621148109436,0.34351815489943155,-1.1940251453012454,2.322845342434072,-0.8755311369895935,-0.33680176734924316,-0.34642457962036133,0.0
1727343805583,9i,17.45318649397476,2.1s : 3.8s,1.5228713014201143,0.26588756594558993,-1.853854775428772,1.1049388647079468,0.7013936638832092,0.011076748371124268,0.06348633766174316,0.2579592764377594,0.3305026350145553,-1.1780729285224267,2.3082639897324335,-0.8738698959350586,-0.32451850175857544,-0.361993670463562,0.0
1727343805593,9i,17.45318649397476,2.1s : 3.8s,1.5599572202630407,0.2808773001403225,-1.96646249294281,0.9982830286026001,0.7348090410232544,0.052666306495666504,0.09448942542076111,0.259210467338562,0.31640182145483287,-1.1625974859569967,2.2926620493595684,-0.872277021408081,-0.311149001121521,-0.37725237011909485,0.0
1727343805603,9i,17.45318649397476,2.1s : 3.8s,1.5814634716507967,0.28002815553435323,-2.0398168563842773,0.9389235973358154,0.714894711971283,0.05629146099090576,0.11239725351333618,0.250227689743042,0.3016752429696155,-1.148034071076286,2.276525340358091,-0.8707752227783203,-0.29712021350860596,-0.39175286889076233,0.0
1727343805613,9i,17.45318649397476,2.1s : 3.8s,1.4841403669933435,0.25500646915724906,-1.9352644681930542,0.8440122008323669,0.6583368182182312,0.0089951753616333,0.10459780693054199,0.23239338397979736,0.2870833911709702,-1.1344476222612034,2.2605848377562507,-0.8692095279693604,-0.2831561863422394,-0.4053364098072052,0.0
1727343805623,9i,17.45318649397476,2.1s : 3.8s,1.412844404775004,0.2503022098025225,-1.8461060523986816,0.8377897143363953,0.5677904486656189,-0.04695409536361694,0.0923495888710022,0.2278553545475006,0.27352778730891175,-1.1220709497540475,2.245588971486573,-0.8675051927566528,-0.2701297402381897,-0.41768985986709595,0.0
1727343805633,9i,17.45318649397476,2.1s : 3.8s,1.398848472547575,0.29366112670343203,-1.7588733434677124,0.9770756959915161,0.5446939468383789,-0.08369553089141846,0.09265220165252686,0.2657959461212158,0.26061627535101717,-1.109313639600339,2.23133865290027,-0.8651571273803711,-0.25767606496810913,-0.43023982644081116,0.0
1727343805643,9i,17.45318649397476,2.1s : 3.8s,1.3652339025275135,0.33987879642194757,-1.6177138090133667,1.138702392578125,0.47439369559288025,-0.11784064769744873,0.1206727921962738,0.295074999332428,0.24844984105337492,-1.0953502611140213,2.2181183545597456,-0.8617889881134033,-0.2459016889333725,-0.4436802566051483,0.0
1727343805653,9i,17.45318649397476,2.1s : 3.8s,1.2428669256620457,0.3399897245949303,-1.3260228633880615,1.214799165725708,0.4426710307598114,-0.1590808629989624,0.13798898458480835,0.26691821217536926,0.2375527220279009,-1.0809568760290875,2.2069634710355364,-0.8576275706291199,-0.23532478511333466,-0.4572715163230896,0.0
1727343805663,9i,17.45318649397476,2.1s : 3.8s,1.2267107235976,0.31499207675598234,-1.1385596990585327,1.3660168647766113,0.4232206344604492,-0.16875392198562622,0.14995929598808289,0.2196686863899231,0.22790054053649758,-1.0660604377483434,2.1979266611595483,-0.8526695370674133,-0.22593285143375397,-0.4710724353790283,0.0
1727343805673,9i,17.45318649397476,2.1s : 3.8s,1.174701590104381,0.3135232488380464,-0.9200205206871033,1.4407148361206055,0.376842200756073,-0.13906675577163696,0.16976819932460785,0.22391074895858765,0.21929696436785065,-1.050444196076939,2.1908010931216118,-0.8468647599220276,-0.21754348278045654,-0.485278457403183,0.0
1727343805683,9i,17.45318649397476,2.1s : 3.8s,1.1147360933153083,0.28439913737401246,-0.759994626045227,1.4596890211105347,0.22578345239162445,-0.1343226432800293,0.17031219601631165,0.1839403510093689,0.21251179407553658,-1.034717916428878,2.184997574361159,-0.8403784036636353,-0.21091584861278534,-0.49927839636802673,0.0
1727343805693,9i,17.45318649397476,2.1s : 3.8s,1.1303863335049267,0.2563821977268071,-0.7200757265090942,1.5161162614822388,0.1420041173696518,-0.13942158222198486,0.1444919854402542,0.15942245721817017,0.20720503166881699,-1.0187687051519951,2.179527489111016,-0.8332499861717224,-0.2057255208492279,-0.5131974220275879,0.0
1727343805703,9i,17.45318649397476,2.1s : 3.8s,1.1619947192764584,0.26230829424357544,-0.6716520190238953,1.587597131729126,0.16307957470417023,-0.12071454524993896,0.13922223448753357,0.18668371438980103,0.20221250841999874,-1.0021324134575726,2.174194512950113,-0.8254525661468506,-0.20083725452423096,-0.5275344848632812,0.0
1727343805713,9i,17.45318649397476,2.1s : 3.8s,1.150618465995092,0.2706739840696809,-0.443471223115921,1.6380172967910767,0.24492867290973663,-0.10663068294525146,0.1536254733800888,0.19568729400634766,0.19750967649350692,-0.9854007469806247,2.1705822250092823,-0.8172891139984131,-0.19622802734375,-0.5417870879173279,0.0
1727343805723,9i,17.45318649397476,2.1s : 3.8s,1.2000096191934975,0.2764285539638848,-0.19951501488685608,1.743282437324524,0.34455326199531555,-0.11121183633804321,0.1866525411605835,0.17089617252349854,0.19320823921477367,-0.9683459206737015,2.1694982866758594,-0.8086185455322266,-0.19200842082500458,-0.556119441986084,0.0
1727343805733,9i,17.45318649397476,2.1s : 3.8s,1.2847323184927402,0.32261603394377153,0.138532817363739,1.884713888168335,0.3060447573661804,-0.13582521677017212,0.2605568468570709,0.13320189714431763,0.19024549097222782,-0.9505707144187383,2.1711649090721834,-0.7990656495094299,-0.1890999674797058,-0.5707323551177979,0.0
1727343805743,9i,17.45318649397476,2.1s : 3.8s,1.4054097552667464,0.38257074800845353,0.540300726890564,2.0210494995117188,0.09640471637248993,-0.18297117948532104,0.32480156421661377,0.08594107627868652,0.19056160078495982,-0.931921462311046,2.1751845901196427,-0.7882355451583862,-0.18941035866737366,-0.585498571395874,0.0
1727343805753,9i,17.45318649397476,2.1s : 3.8s,1.5977890409472522,0.42320448339151834,0.8765064477920532,2.210503101348877,-0.11902770400047302,-0.22167038917541504,0.3559001088142395,0.05744028091430664,0.19504021949415198,-0.9118194031870316,2.180857637267068,-0.7756288647651672,-0.193805992603302,-0.6006988883018494,0.0
1727343805763,9i,17.45318649397476,2.1s : 3.8s,1.6901253776229421,0.4531388411086022,1.0372767448425293,2.2733817100524902,-0.31412583589553833,-0.21282899379730225,0.39793556928634644,0.04105985164642334,0.20271151582402896,-0.8906342896861303,2.187229786108633,-0.761551558971405,-0.20132605731487274,-0.6160414218902588,0.0
1727343805773,9i,17.45318649397476,2.1s : 3.8s,1.721448365636163,0.4953718299110004,1.1401783227920532,2.2254891395568848,-0.572151243686676,-0.1722751259803772,0.4634000062942505,0.031224429607391357,0.2130707065787273,-0.8693337016985789,2.192893796809952,-0.7466244697570801,-0.21146215498447418,-0.6307421922683716,0.0
1727343805783,9i,17.45318649397476,2.1s : 3.8s,1.7646784682821042,0.47775920361196367,1.1623997688293457,2.2232351303100586,-0.787945568561554,-0.12623751163482666,0.4603719115257263,0.019381701946258545,0.22582089134290476,-0.8481292948286687,2.19732917488993,-0.7310013175010681,-0.2239064872264862,-0.644595205783844,0.0
1727343805793,9i,17.45318649397476,2.1s : 3.8s,1.7415131505015606,0.3908366042171311,1.098872423171997,2.1529364585876465,-0.9443501234054565,-0.07536017894744873,0.38303643465042114,0.01889932155609131,0.23975806643884368,-0.8267582617776886,2.199905337473328,-0.7146942615509033,-0.23746761679649353,-0.657891571521759,0.0
1727343805803,9i,17.45318649397476,2.1s : 3.8s,1.7031480793606157,0.32558770047901414,1.1626219749450684,2.0080950260162354,-1.0280416011810303,-0.04231297969818115,0.32272398471832275,-0.008135855197906494,0.25474591301849847,-0.8065298644182167,2.2014440595959033,-0.6985929012298584,-0.25199952721595764,-0.6696747541427612,0.0
1727343805813,9i,17.45318649397476,2.1s : 3.8s,1.757392133918806,0.3185101615387654,1.1974049806594849,2.094590425491333,-1.018201231956482,-0.013072490692138672,0.31780296564102173,-0.016706526279449463,0.270269546560327,-0.7864412913176395,2.202696115858382,-0.6821485757827759,-0.26699119806289673,-0.6807268857955933,0.0
1727343805823,9i,17.45318649397476,2.1s : 3.8s,1.888123297536245,0.3952687293569798,1.2534959316253662,2.2874538898468018,-1.054689884185791,-0.003318607807159424,0.39153850078582764,-0.05407363176345825,0.28612804392555674,-0.7646832157982532,2.203913919805724,-0.6641618609428406,-0.2822398245334625,-0.692264199256897,0.0
1727343805833,9i,17.45318649397476,2.1s : 3.8s,1.981954940633123,0.4902899416434762,1.7070157527923584,2.052354574203491,-1.2634656429290771,-0.024552106857299805,0.4635621905326843,-0.15777045488357544,0.30456810600061895,-0.7433755238018616,2.2055385355295494,-0.6456292271614075,-0.2998811900615692,-0.7023063898086548,0.0
1727343805843,9i,17.45318649397476,2.1s : 3.8s,2.1391387366197843,0.5512876829897226,2.1321916580200195,1.857529640197754,-1.4710930585861206,-0.024169564247131348,0.49331754446029663,-0.24489128589630127,0.328106713024604,-0.7248309939951706,2.2084698023732647,-0.6276401877403259,-0.3222513198852539,-0.7086762189865112,0.0
1727343805853,9i,17.45318649397476,2.1s : 3.8s,2.222583807446463,0.5955072445733476,2.3367888927459717,1.6345328092575073,-1.6842421293258667,0.013509988784790039,0.5348297357559204,-0.26154065132141113,0.35529168696316304,-0.7084087034469436,2.211497521500662,-0.6099913716316223,-0.3478638529777527,-0.7119700312614441,0.0
1727343805863,9i,17.45318649397476,2.1s : 3.8s,2.3559705332523917,0.6472577876608722,2.463571310043335,1.5043026208877563,-1.9982330799102783,0.03580760955810547,0.6023814678192139,-0.23408764600753784,0.3854121276228189,-0.6933510119612902,2.2130788773560277,-0.5922346711158752,-0.37594106793403625,-0.7126895785331726,0.0
1727343805873,9i,17.45318649397476,2.1s : 3.8s,2.504382570102462,0.586279791660205,2.501558780670166,1.4378525018692017,-2.3667585849761963,0.04453200101852417,0.5510513782501221,-0.19514936208724976,0.41845833992332776,-0.6782292114714404,2.2118089450973737,-0.5732795596122742,-0.40635228157043457,-0.7114973068237305,0.0
1727343805883,9i,17.45318649397476,2.1s : 3.8s,2.556234195520045,0.4425797773192068,2.428649663925171,1.3481396436691284,-2.6064538955688477,0.03788632154464722,0.3902871906757355,-0.20522522926330566,0.4532895190952175,-0.6622695113965751,2.207187308687938,-0.552809476852417,-0.43792521953582764,-0.7089592814445496,0.0
1727343805893,9i,17.45318649397476,2.1s : 3.8s,2.472182004990839,0.3726460888431667,2.3021230697631836,1.137743353843689,-2.6413447856903076,0.02523815631866455,0.2673399746417999,-0.2583746910095215,0.4880374990867792,-0.6464849147140385,2.1998522843361217,-0.5320588946342468,-0.4688934087753296,-0.7050194144248962,0.0
1727343805903,9i,17.45318649397476,2.1s : 3.8s,2.376519446885206,0.3693186245417945,2.240823268890381,0.9774818420410156,-2.5620739459991455,0.026424169540405273,0.2440594732761383,-0.2759220600128174,0.5216738279983009,-0.631879449022754,2.1914231652250464,-0.5120962262153625,-0.49833202362060547,-0.6995875835418701,0.0
1727343805913,9i,17.45318649397476,2.1s : 3.8s,2.351929595850628,0.41808658452509023,2.3305115699768066,0.7360591888427734,-2.511918544769287,0.030636191368103027,0.2837539315223694,-0.3055184483528137,0.554934381938329,-0.6189049198829167,2.183004346244017,-0.4930843412876129,-0.5268875360488892,-0.6922841668128967,0.0
1727343805923,9i,17.45318649397476,2.1s : 3.8s,2.4085466177331845,0.4790795200416249,2.4948232173919678,0.5252212285995483,-2.5261189937591553,0.029469668865203857,0.34417641162872314,-0.3319507837295532,0.5890688030594735,-0.6083556390780864,2.1750506029407144,-0.47519421577453613,-0.5555869936943054,-0.6822856068611145,0.0
1727343805933,9i,17.45318649397476,2.1s : 3.8s,2.490921689039233,0.5059888203807666,2.6401517391204834,0.3526616394519806,-2.5850884914398193,0.045335084199905396,0.4118960499763489,-0.2903636693954468,0.62462545962854,-0.5995160069624885,2.1672526049121292,-0.45770391821861267,-0.5847935080528259,-0.6697192788124084,0.0
1727343805943,9i,17.45318649397476,2.1s : 3.8s,2.598642889185869,0.5445233865603469,2.7673423290252686,0.22721128165721893,-2.6990809440612793,0.0443304181098938,0.46914732456207275,-0.27283936738967896,0.6617553497144854,-0.5917487266046471,2.1589728095887883,-0.4400671720504761,-0.6145026087760925,-0.6547728776931763,0.0
1727343805953,9i,17.45318649397476,2.1s : 3.8s,2.652175361857417,0.5518179857815123,2.7984414100646973,0.2491159588098526,-2.7795088291168213,0.01484176516532898,0.4604540467262268,-0.3037513494491577,0.7001570445566802,-0.5834333615964594,2.1495371249242425,-0.42129015922546387,-0.6443377733230591,-0.6382346749305725,0.0
1727343805963,9i,17.45318649397476,2.1s : 3.8s,2.4948076152549503,0.47122565601963046,2.4821174144744873,0.10971252620220184,-2.7654168605804443,0.00783395767211914,0.33046263456344604,-0.33583730459213257,0.7376072170271821,-0.5738555308335,2.13797705138047,-0.40177014470100403,-0.6725189685821533,-0.6215295791625977,0.0
1727343805973,9i,17.45318649397476,2.1s : 3.8s,2.1719242454131735,0.3517958089090035,1.8966764211654663,-0.22470034658908844,-2.6128041744232178,0.03808104991912842,0.1430383324623108,-0.3191397190093994,0.7705792928607675,-0.564120367735098,2.123062088872877,-0.3836316466331482,-0.6965510249137878,-0.6063362956047058,0.0
1727343805983,9i,17.45318649397476,2.1s : 3.8s,1.8512814232060686,0.3001927081899969,1.2914605140686035,-0.5725818276405334,-2.369480609893799,0.08298453688621521,0.011107802391052246,-0.2882808446884155,0.7971856610677066,-0.5555384156582347,2.1051707648654783,-0.3685069978237152,-0.7153924703598022,-0.5936465263366699,0.0
1727343805993,9i,17.45318649397476,2.1s : 3.8s,1.6981429390180918,0.2953470522468042,0.8962830305099487,-0.8558512330055237,-2.2062182426452637,0.12814787030220032,-0.030976414680480957,-0.26428860425949097,0.818291993281013,-0.5483557810589869,2.0853085956878967,-0.3562820851802826,-0.7299795150756836,-0.5832608342170715,0.0
1727343806003,9i,17.45318649397476,2.1s : 3.8s,1.6624361291898195,0.2900729903578201,0.7617055177688599,-1.002962589263916,-2.1332194805145264,0.14631125330924988,0.0057302117347717285,-0.2504047155380249,0.8364546196469743,-0.5421801778899938,2.0642169678769093,-0.34577417373657227,-0.7422720193862915,-0.5739971399307251,0.0
1727343806013,9i,17.45318649397476,2.1s : 3.8s,1.6627527872406684,0.29053875127529305,0.7967755794525146,-1.0114266872406006,-2.1168980598449707,0.12024933099746704,0.09230571985244751,-0.24785584211349487,0.853972710731343,-0.5363119862627378,2.042815907215635,-0.33570346236228943,-0.7538964152336121,-0.5647509098052979,0.0
1727343806023,9i,17.45318649397476,2.1s : 3.8s,1.6422792813561768,0.3107897434957576,0.7949219942092896,-0.9030235409736633,-2.1310770511627197,0.06063005328178406,0.16633230447769165,-0.2554365396499634,0.871650923959785,-0.529416700501241,2.021032838620492,-0.32501912117004395,-0.7653924822807312,-0.5554612874984741,0.0
1727343806033,9i,17.45318649397476,2.1s : 3.8s,1.596417742341442,0.29745089561265475,0.6390036344528198,-0.7520388960838318,-2.1645185947418213,-0.0020640194416046143,0.18035519123077393,-0.2365264892578125,0.8886093986648791,-0.519572869512912,1.9976046980916815,-0.3130452632904053,-0.776195764541626,-0.5472869277000427,0.0
1727343806043,9i,17.45318649397476,2.1s : 3.8s,1.5612498882937667,0.2237953407972655,0.4072690010070801,-0.7670372724533081,-2.1582939624786377,-0.03257876634597778,0.09897881746292114,-0.19805598258972168,0.9038034337493797,-0.5066991080368485,1.971577898113987,-0.3002154529094696,-0.7856854796409607,-0.5408965945243835,0.0
1727343806053,9i,17.45318649397476,2.1s : 3.8s,1.5081836399694926,0.16986497039665602,0.1302001029253006,-0.9254103899002075,-2.0438761711120605,-0.011985808610916138,-0.03094083070755005,-0.16659265756607056,0.9161992658393212,-0.4929590007676794,1.9435428599812152,-0.28812408447265625,-0.793293297290802,-0.5363491773605347,0.0
1727343806063,9i,17.45318649397476,2.1s : 3.8s,1.4581957209070742,0.14844348381399183,0.00538466963917017,-1.0945377349853516,-1.877089023590088,0.047649234533309937,-0.05260181427001953,-0.1303766369819641,0.9258190355889779,-0.48066171071334085,1.915392795545467,-0.2779654264450073,-0.799113392829895,-0.5330601930618286,0.0
1727343806073,9i,17.45318649397476,2.1s : 3.8s,1.4301134044075188,0.13955273480621663,0.18139337003231049,-1.1392191648483276,-1.7918360233306885,0.09291252493858337,0.04796111583709717,-0.0924227237701416,0.9348453643798253,-0.470567075365747,1.8888280050906607,-0.26928889751434326,-0.8045072555541992,-0.5293881893157959,0.0
1727343806083,9i,17.45318649397476,2.1s : 3.8s,1.4562591580979694,0.19033810226015035,0.5056985020637512,-1.0934383869171143,-1.8048917055130005,0.07930430769920349,0.13613557815551758,-0.10680133104324341,0.9459660747132074,-0.4619550700420949,1.8643059567854188,-0.2607160806655884,-0.8110624551773071,-0.5236459970474243,0.0
1727343806093,9i,17.45318649397476,2.1s : 3.8s,1.4733290365506473,0.21670451621716771,0.6677010655403137,-1.0027673244476318,-1.8353874683380127,0.027492284774780273,0.1421763300895691,-0.16121697425842285,0.9593920294156489,-0.45318585222035346,1.8407203281084563,-0.25132349133491516,-0.8188427090644836,-0.5160748362541199,0.0
1727343806112,9i,17.45318649397476,2.1s : 3.8s,1.360867547769118,0.14270324487902963,0.42552050948143005,-0.9532670974731445,-1.7385263442993164,-0.008381187915802002,0.05894601345062256,-0.12968939542770386,0.985104303918769,-0.43245695845793647,1.7920428594552875,-0.23167014122009277,-0.8333297371864319,-0.5018870830535889,0.0
1727343806102,9i,17.45318649397476,2.1s : 3.8s,1.4282210974095946,0.21273100842833745,0.586995542049408,-0.9810647368431091,-1.795087218284607,-0.011462986469268799,0.1156650185585022,-0.17817038297653198,0.9730169756749675,-0.44333845001763433,1.816786638196392,-0.24142096936702728,-0.826587438583374,-0.5083988308906555,0.0
1727343806122,9i,17.45318649397476,2.1s : 3.8s,1.3029623148583427,0.08417104784660213,0.10810791701078415,-1.0776731967926025,-1.6114226579666138,0.024197593331336975,-0.0508689284324646,-0.06254273653030396,0.9945617280899417,-0.42095840409087687,1.7662900661667538,-0.22265341877937317,-0.8385202288627625,-0.49730220437049866,0.0
1727343806132,9i,17.45318649397476,2.1s : 3.8s,1.2291863148540296,0.19242125682533565,-0.2114141434431076,-1.1243654489517212,-1.4303994178771973,0.04125186800956726,-0.13895541429519653,-0.12655282020568848,1.0000785929078961,-0.4102386270550868,1.7402956832981051,-0.21546147763729095,-0.841513454914093,-0.49541062116622925,0.0
1727343806142,9i,17.45318649397476,2.1s : 3.8s,1.2088727349560326,0.18672063233527705,-0.3212354779243469,-1.175169825553894,-1.3269319534301758,0.041108161211013794,-0.13789069652557373,-0.11899945139884949,1.002987914687722,-0.4002858840158505,1.714920674963131,-0.209565207362175,-0.8430815935134888,-0.49527350068092346,0.0
1727343806152,9i,17.45318649397476,2.1s : 3.8s,1.1991918876113599,0.14605779815405107,-0.3439861238002777,-1.2168984413146973,-1.262549877166748,0.05804523825645447,-0.09039926528930664,-0.0989525318145752,1.0048748276935993,-0.39151505941282655,1.6903223026214915,-0.20460592210292816,-0.8440948724746704,-0.49562138319015503,0.0
1727343806162,9i,17.45318649397476,2.1s : 3.8s,1.1634607490570956,0.1366263153533929,-0.27541956305503845,-1.2004016637802124,-1.2202155590057373,0.05707089602947235,-0.017142057418823242,-0.12294638156890869,1.0066411364701833,-0.3836691066050629,1.6667342124617546,-0.20015257596969604,-0.8450406193733215,-0.49582797288894653,0.0
1727343806172,9i,17.45318649397476,2.1s : 3.8s,1.1552146013085984,0.1392117648391883,-0.2380273938179016,-1.1901147365570068,-1.220762014389038,0.03799264132976532,0.026512622833251953,-0.13127663731575012,1.0088409272836498,-0.37624763406457296,1.6438444556969611,-0.195783793926239,-0.8462148308753967,-0.4955695569515228,0.0
1727343806182,9i,17.45318649397476,2.1s : 3.8s,1.145971387715731,0.14451478893775443,-0.3079494833946228,-1.1414794921875,-1.2321733236312866,0.017665430903434753,0.02605438232421875,-0.1410447657108307,1.0107903818315105,-0.36815545061414423,1.6205523562954314,-0.19117312133312225,-0.8472519516944885,-0.49559760093688965,0.0
1727343806192,9i,17.45318649397476,2.1s : 3.8s,1.1686731792565772,0.12191584935551643,-0.4498977065086365,-1.145385503768921,-1.2322429418563843,-0.00488513708114624,0.0034247636795043945,-0.12176978588104248,1.0116800281547764,-0.359072741985767,1.5964061028434093,-0.18639905750751495,-0.847724199295044,-0.49660781025886536,0.0
1727343806202,9i,17.45318649397476,2.1s : 3.8s,1.1853171509235012,0.11328170090074925,-0.5894015431404114,-1.1390917301177979,-1.214418649673462,-0.01009303331375122,-0.026360630989074707,-0.10970866680145264,1.0110184957179338,-0.34929263033515384,1.5713886978084222,-0.18172523379325867,-0.8473731279373169,-0.49893391132354736,0.0
1727343806212,9i,17.45318649397476,2.1s : 3.8s,1.176405206885543,0.09507232447108833,-0.5873072743415833,-1.1170413494110107,-1.2166715860366821,-0.014554992318153381,-0.003382563591003418,-0.09389066696166992,1.00946538412822,-0.33921543304600615,1.5461687720534267,-0.1771259307861328,-0.8465473651885986,-0.5019802451133728,0.0
1727343806222,9i,17.45318649397476,2.1s : 3.8s,1.142460080629301,0.09748827408487154,-0.46820008754730225,-1.0594947338104248,-1.2475882768630981,-0.023004457354545593,0.04846113920211792,-0.08140194416046143,1.0084808893737331,-0.3289177277929539,1.5211366013858156,-0.1722165048122406,-0.84602290391922,-0.5045660734176636,0.0
1727343806232,9i,17.45318649397476,2.1s : 3.8s,1.1059211360979937,0.12262423923515536,-0.3249817192554474,-0.9660358428955078,-1.2949739694595337,-0.03643035888671875,0.0893169641494751,-0.07571005821228027,1.0087822326422988,-0.31794067628998046,1.4962182385908545,-0.16658784449100494,-0.8461835384368896,-0.5061837434768677,0.0
1727343806242,9i,17.45318649397476,2.1s : 3.8s,1.0891206081425757,0.13468175754933256,-0.223504900932312,-0.8961590528488159,-1.3344862461090088,-0.05227561295032501,0.1020958423614502,-0.07058948278427124,1.0102578404661693,-0.3060332957547567,1.47119495529666,-0.1601725071668625,-0.846968948841095,-0.5069403052330017,0.0
1727343806252,9i,17.45318649397476,2.1s : 3.8s,1.0827233698777952,0.12864589988123573,-0.22436104714870453,-0.8966463208198547,-1.3224014043807983,-0.05919347703456879,0.08201974630355835,-0.07949000597000122,1.0120771680017102,-0.29365239824183276,1.4460726409656606,-0.1534377634525299,-0.8479347825050354,-0.5074087381362915,0.0
1727343806262,9i,17.45318649397476,2.1s : 3.8s,1.0773535639927732,0.10245209466360979,-0.2882790267467499,-0.9333063364028931,-1.2740237712860107,-0.03969143331050873,0.049586474895477295,-0.08038783073425293,1.0133003771982076,-0.281734715915984,1.4212576658168796,-0.14709141850471497,-0.8485825657844543,-0.5082046389579773,0.0
1727343806272,9i,17.45318649397476,2.1s : 3.8s,1.0727849408427237,0.09018230865397225,-0.32583388686180115,-0.9637362360954285,-1.2330995798110962,-0.019340112805366516,0.04072064161300659,-0.0781065821647644,1.0137324302266797,-0.2705582840543492,1.3969229200745088,-0.14130444824695587,-0.8488110899925232,-0.5094635486602783,0.0
1727343806282,9i,17.45318649397476,2.1s : 3.8s,1.0695458034758514,0.09093936864370657,-0.3290539085865021,-0.9630895853042603,-1.2264840602874756,-0.012606129050254822,0.0456387996673584,-0.07764118909835815,1.0137701581280092,-0.25981753995439744,1.3729247557223367,-0.13581611216068268,-0.8488309979438782,-0.5109207630157471,0.0
1727343806292,9i,17.45318649397476,2.1s : 3.8s,1.0657506470755858,0.10968414806252824,-0.29368892312049866,-0.9687339663505554,-1.2236781120300293,-0.026644781231880188,0.05519586801528931,-0.0909619927406311,1.0138375185062194,-0.24919696903892527,1.349069281930547,-0.130368173122406,-0.8488666415214539,-0.5122789144515991,0.0
1727343806302,9i,17.45318649397476,2.1s : 3.8s,1.0506496438260073,0.12368414674249015,-0.23595185577869415,-0.9738118052482605,-1.2029703855514526,-0.03746262192726135,0.06661832332611084,-0.09724360704421997,1.0142007306944467,-0.23892872445427132,1.3255754979191927,-0.12502822279930115,-0.8490585684776306,-0.5132910013198853,0.0
1727343806312,9i,17.45318649397476,2.1s : 3.8s,1.0257409163553053,0.12520409161883495,-0.18044139444828033,-0.9777549505233765,-1.1609101295471191,-0.04182355850934982,0.07851296663284302,-0.08810544013977051,1.0149096265120754,-0.22943200034872077,1.3029266727410722,-0.12001115828752518,-0.8494328856468201,-0.5138689279556274,0.0
1727343806322,9i,17.45318649397476,2.1s : 3.8s,1.0117803420962226,0.12407708298550361,-0.1566644310951233,-0.9817403554916382,-1.1334710121154785,-0.04735596477985382,0.07568621635437012,-0.08616340160369873,1.0158572810333824,-0.22065083706363556,1.2810886879001946,-0.11531799286603928,-0.8499325513839722,-0.5141172409057617,0.0
1727343806332,9i,17.45318649397476,2.1s : 3.8s,1.0104770272366923,0.11448420894570209,-0.21532607078552246,-1.0121657848358154,-1.0938085317611694,-0.05446863919496536,0.04578644037246704,-0.08968502283096313,1.0164797863992128,-0.2124126573491364,1.2597000992937761,-0.11096715182065964,-0.8502603769302368,-0.5145323872566223,0.0
1727343806342,9i,17.45318649397476,2.1s : 3.8s,1.0221808489765127,0.09965043911759128,-0.31140202283859253,-1.0521979331970215,-1.056406855583191,-0.05098201334476471,0.01761418581008911,-0.083790123462677,1.0161234925793083,-0.20487021179341883,1.2386942079735157,-0.10714483261108398,-0.8500728011131287,-0.5156513452529907,0.0
1727343806352,9i,17.45318649397476,2.1s : 3.8s,1.0326179493849077,0.07226587150951554,-0.3896787762641907,-1.080931544303894,-1.023447871208191,-0.03461574763059616,0.015508949756622314,-0.06151080131530762,1.0147352624620691,-0.19802081793729268,1.218068075644616,-0.10384251177310944,-0.8493408560752869,-0.5175296664237976,0.0
1727343806362,9i,17.45318649397476,2.1s : 3.8s,1.0331237765370593,0.05794538091907541,-0.45163214206695557,-1.07233464717865,-1.0080451965332031,-0.02736823260784149,0.020254552364349365,-0.046887099742889404,1.0125711330421927,-0.19156952388299311,1.197762507387657,-0.1008513793349266,-0.8481965065002441,-0.5199921131134033,0.0
1727343806372,9i,17.45318649397476,2.1s : 3.8s,1.0354669813317885,0.0636659601327652,-0.5043171048164368,-1.047317624092102,-1.0146828889846802,-0.03741198778152466,0.02177739143371582,-0.04668450355529785,1.009806000134566,-0.18489913292677046,1.1774162855370738,-0.09781141579151154,-0.8467286229133606,-0.5229565501213074,0.0
1727343806382,9i,17.45318649397476,2.1s : 3.8s,1.0380731655727038,0.07159387689998603,-0.580214262008667,-1.021926999092102,-1.005886435508728,-0.04881405085325241,0.02160722017288208,-0.047707438468933105,1.006283859435834,-0.17793583102060956,1.1569816417210717,-0.09469486773014069,-0.8448495268821716,-0.5265570282936096,0.0
1727343806392,9i,17.45318649397476,2.1s : 3.8s,1.040461011098087,0.07016378814624279,-0.6152482628822327,-1.0286297798156738,-0.9834643006324768,-0.049161478877067566,0.01502150297164917,-0.04775416851043701,1.0020879796043751,-0.17115072099558978,1.1368337341663273,-0.09172293543815613,-0.8425973057746887,-0.530676007270813,0.0
1727343806402,9i,17.45318649397476,2.1s : 3.8s,1.029279871758979,0.06344342176857086,-0.6037409901618958,-1.0481222867965698,-0.9430596232414246,-0.041512444615364075,-0.0015498995780944824,-0.04795187711715698,0.9976823788994001,-0.1651543510902618,1.1173935855811614,-0.08914857357740402,-0.8402165174484253,-0.5348727107048035,0.0
