timestamp,club,max_speed,tempo,speed,acc,rotation.x,rotation.y,rotation.z,userAcceleration.x,userAcceleration.y,userAcceleration.z,pitch,roll,yaw,gravity.x,gravity.y,gravity.z,lsp
1727345163951,9i,15.371712865556084,2.5s : 4.3s,0.5286807110760483,0.24172990180527618,-0.49287691712379456,0.5278715491294861,0.31463202834129333,0.10725671052932739,0.08095329999923706,-0.20093756914138794,-0.5813384938168806,2.128888419286068,2.812791592726673,0.7089206576347351,0.5491430163383484,0.44257551431655884,0.005407352865442945
1727345163961,9i,15.371712865556084,2.5s : 4.3s,0.41161283826187756,0.2638318618445063,-0.16490118205547333,0.5216293334960938,0.27684202790260315,0.11594504117965698,0.16426056623458862,-0.17082875967025757,-0.5770243247351362,2.135035323205811,2.8143421744109856,0.7081820964813232,0.5455324649810791,0.44818755984306335,0.011143443306287516
1727345163971,9i,15.371712865556084,2.5s : 4.3s,0.39793070751668624,0.3281769247756331,0.19629976153373718,0.5228023529052734,0.19755445420742035,0.12174844741821289,0.26054370403289795,-0.15809613466262817,-0.5751682780002163,2.1392830049536737,2.812618539115926,0.7071243524551392,0.5439760088920593,0.451736181974411,0.018111418796040783
1727345163981,9i,15.371712865556084,2.5s : 4.3s,0.519642829437251,0.3712070036394167,0.4751439094543457,0.5977948307991028,0.12236862629652023,0.1201276183128357,0.32146215438842773,-0.14151352643966675,-0.5756892211874128,2.1424214605930354,2.8081906073300966,0.7054644227027893,0.5444130301475525,0.45379969477653503,0.026003747451401996
1727345163991,9i,15.371712865556084,2.5s : 4.3s,0.6389144749882052,0.36134415510051776,0.6227898001670837,0.7161319851875305,0.05658654868602753,0.11653834581375122,0.3276295065879822,-0.09822076559066772,-0.5779796420033054,2.145610148556936,2.8020401556847805,0.7029654383659363,0.546332836151123,0.455367773771286,0.03366006262265782
1727345164001,9i,15.371712865556084,2.5s : 4.3s,0.7232534416709376,0.3072541775030011,0.6744668483734131,0.8384693264961243,-0.0007390596438199282,0.12355160713195801,0.27422183752059937,-0.0627894401550293,-0.5813559535961144,2.1497242747615566,2.79535796297591,0.699537992477417,0.5491576194763184,0.4572441279888153,0.04021749679917044
1727345164011,9i,15.371712865556084,2.5s : 4.3s,0.7623594107856737,0.22946052069661288,0.6904739737510681,0.8991850018501282,-0.027144066989421844,0.1339942216873169,0.18292462825775146,-0.03516048192977905,-0.585236312530639,2.1547611408629055,2.788639578073405,0.6954430341720581,0.5523963570594788,0.45958346128463745,0.04504732984339543
1727345164021,9i,15.371712865556084,2.5s : 4.3s,0.7713532734299523,0.1843388386582076,0.7327955961227417,0.8799170255661011,-0.06839244067668915,0.1478257179260254,0.10908663272857666,-0.01511526107788086,-0.589545049377477,2.1599320590462834,2.781927711355297,0.6910719871520996,0.5559829473495483,0.46184661984443665,0.04857488927784009
1727345164031,9i,15.371712865556084,2.5s : 4.3s,0.7981958536177018,0.17000992317872943,0.780584454536438,0.8876801133155823,-0.10719003528356552,0.14908140897750854,0.0805736780166626,-0.013637810945510864,-0.5945213498027491,2.1647538421575603,2.774966500840697,0.6865355968475342,0.5601122975349426,0.46361929178237915,0.051692051775888245
1727345164041,9i,15.371712865556084,2.5s : 4.3s,0.7249804590994651,0.12189544806715977,0.9829503297805786,0.4392669200897217,0.03727206960320473,0.08364403247833252,0.08649349212646484,-0.019520550966262817,-0.599910341339571,2.168834499429272,2.766923149795615,0.6821335554122925,0.5645684599876404,0.46471071243286133,0.05429609373858327
1727345164051,9i,15.371712865556084,2.5s : 4.3s,0.9226416274576837,0.08683411918468094,1.124131441116333,-0.21032193303108215,0.7585106492042542,0.02286362648010254,0.08316481113433838,-0.010051518678665161,-0.607029436881766,2.174318781869451,2.7581353424101227,0.6762482523918152,0.5704300999641418,0.46615174412727356,0.056090197907662724
1727345164061,9i,15.371712865556084,2.5s : 4.3s,0.91287472682167,0.17463137434668016,1.1917201280593872,0.568712055683136,0.31453245878219604,0.13435685634613037,0.11129754781723022,0.007563591003417969,-0.615363362431138,2.1803105601033095,2.748297606864099,0.6695219874382019,0.5772552490234375,0.4674576222896576,0.05950642345202434
1727345164071,9i,15.371712865556084,2.5s : 4.3s,1.223311297626318,0.12802055340193758,1.291700839996338,1.2515017986297607,-0.28211072087287903,0.08874201774597168,0.09052175283432007,-0.01788654923439026,-0.6245414967415501,2.1855495586147735,2.73736627593737,0.6627075672149658,0.5847253799438477,0.46788322925567627,0.06226242503581855
1727345164081,9i,15.371712865556084,2.5s : 4.3s,1.2482821546474054,0.07127285587917928,1.309248447418213,1.2719402313232422,-0.34503722190856934,0.03452426195144653,0.026609420776367188,-0.05639001727104187,-0.6345572300916448,2.191342829583741,2.7263671365103495,0.6551881432533264,0.5928210020065308,0.4682855010032654,0.06356489965713175
1727345164091,9i,15.371712865556084,2.5s : 4.3s,1.1989448384333865,0.10168393377406329,1.2516597509384155,1.2130368947982788,-0.38011670112609863,0.08220642805099487,-0.019737303256988525,-0.05649924278259277,-0.6449686781560053,2.197506136632688,2.7160262848575445,0.6472553014755249,0.6011734008789062,0.46866947412490845,0.06466657382265685
1727345164101,9i,15.371712865556084,2.5s : 4.3s,1.1774201930548838,0.11085889385692753,1.217321515083313,1.1935691833496094,-0.40301162004470825,0.07002854347229004,-0.05854922533035278,-0.06291013956069946,-0.6554083506334016,2.2037948626807253,2.706443969362822,0.6391999125480652,0.6094830632209778,0.46899211406707764,0.06509322360989371
1727345164111,9i,15.371712865556084,2.5s : 4.3s,1.1746277688993592,0.12124940273380143,1.2349318265914917,1.1646252870559692,-0.41562584042549133,0.06861376762390137,-0.0634695291519165,-0.07723462581634521,-0.6659689638179193,2.209801351668383,2.6970377602917286,0.6311696171760559,0.6178213357925415,0.4689580202102661,0.06564412390472772
1727345164121,9i,15.371712865556084,2.5s : 4.3s,1.163464763366916,0.10833557703526041,1.2462279796600342,1.1290156841278076,-0.4100677967071533,0.0636017918586731,-0.039559006690979004,-0.07827192544937134,-0.676706741161492,2.2152997562320498,2.687496442776092,0.6232420802116394,0.6262288689613342,0.46840837597846985,0.0666051909625438
1727345164131,9i,15.371712865556084,2.5s : 4.3s,1.1575423847470194,0.08845384646802998,1.2486445903778076,1.1151841878890991,-0.4028533697128296,0.057866811752319336,-0.01516944169998169,-0.06515675783157349,-0.6874711214727643,2.2203644636494277,2.6778057829685187,0.6154578924179077,0.6345847845077515,0.46745455265045166,0.06779032014241687
1727345164141,9i,15.371712865556084,2.5s : 4.3s,1.1443120797367607,0.07907411997746287,1.2203255891799927,1.1217752695083618,-0.3867010474205017,0.05549055337905884,-0.019367337226867676,-0.052900105714797974,-0.6981222033461153,2.2253616802473757,2.6681575615372157,0.6077174544334412,0.6427803635597229,0.46638259291648865,0.06879464392560251
1727345164151,9i,15.371712865556084,2.5s : 4.3s,1.1187232785074528,0.09012418969877146,1.1930136680603027,1.1051661968231201,-0.3516446352005005,0.06124269962310791,-0.04754781723022461,-0.04594460129737854,-0.7084419054866954,2.2302962781738693,2.658572700000895,0.6001342535018921,0.6506513953208923,0.4652864634990692,0.06944351990227923
1727345164161,9i,15.371712865556084,2.5s : 4.3s,1.064477868420134,0.12431026960335435,1.1317914724349976,1.063125491142273,-0.3067184388637543,0.07492166757583618,-0.08949965238571167,-0.042773813009262085,-0.7182154066450741,2.2349202614283126,2.6491291168803923,0.5929402112960815,0.6580419540405273,0.4641145169734955,0.06974870001774554
1727345164171,9i,15.371712865556084,2.5s : 4.3s,1.024096137080216,0.1656933527513788,1.1085762977600098,1.0138555765151978,-0.24725985527038574,0.08738631010055542,-0.1347944736480713,-0.04060012102127075,-0.7272783710309145,2.2390693355704974,2.6397384147032703,0.5863045454025269,0.6648390889167786,0.4628564119338989,0.0697658972984656
1727345164181,9i,15.371712865556084,2.5s : 4.3s,0.9734212086463927,0.21206409119210098,1.0576226711273193,0.9651226997375488,-0.2079971432685852,0.09065252542495728,-0.18608254194259644,-0.04611492156982422,-0.7357924862095572,2.2424668836012955,2.630212149908826,0.580276608467102,0.6711748242378235,0.46130648255348206,0.06952222746385395
1727345164191,9i,15.371712865556084,2.5s : 4.3s,0.7726622400072553,0.23788681329801756,1.0675270557403564,0.41888049244880676,-0.0025796699337661266,0.06417930126190186,-0.22124415636062622,-0.05934792757034302,-0.7434214306079366,2.244903742002228,2.62044588610053,0.5751335620880127,0.6768105626106262,0.45950958132743835,0.06898250091583256
1727345164201,9i,15.371712865556084,2.5s : 4.3s,0.7723986086540523,0.2733577568579899,1.0450204610824585,-0.258973628282547,0.3940883278846741,0.033858418464660645,-0.2626769542694092,-0.06766748428344727,-0.7509789204525861,2.248471098246567,2.6114815940446183,0.5694894194602966,0.6823546886444092,0.45833805203437805,0.06811647235051362
1727345164211,9i,15.371712865556084,2.5s : 4.3s,0.7264945091207322,0.31485464054897583,1.0016480684280396,0.3157743215560913,0.2413877546787262,0.12910687923431396,-0.27917689085006714,-0.06726902723312378,-0.7575394475603991,2.251074680292422,2.601784871949912,0.5648019313812256,0.6871358752250671,0.45699357986450195,0.06935746551330388
1727345164221,9i,15.371712865556084,2.5s : 4.3s,0.8715011542447103,0.3477126482100167,0.9647720456123352,0.8626115918159485,0.004260426387190819,0.1609961986541748,-0.2909567356109619,-0.10162916779518127,-0.7638590427542833,2.2525822979138455,2.591531983736365,0.5607292652130127,0.6917134523391724,0.45509880781173706,0.0722522109233433
1727345164231,9i,15.371712865556084,2.5s : 4.3s,0.8606076295347677,0.3609790521303433,0.9651327729225159,0.8360171914100647,0.03790723532438278,0.13084489107131958,-0.3055833578109741,-0.14072775840759277,-0.7697405191950567,2.253537742324531,2.580853650473248,0.5571281909942627,0.6959489583969116,0.45305973291397095,0.07578452922670084
1727345164241,9i,15.371712865556084,2.5s : 4.3s,0.7929455941879477,0.38844499041391056,0.9210315942764282,0.723474383354187,0.0993916392326355,0.1860859990119934,-0.3097516894340515,-0.1425321102142334,-0.77517712143547,2.253651470575134,2.569993424894034,0.5541331768035889,0.699842631816864,0.4507288932800293,0.08099889229444737
1727345164251,9i,15.371712865556084,2.5s : 4.3s,0.7308452763018546,0.40985801608773365,0.8529847264289856,0.6334877610206604,0.20070168375968933,0.19253617525100708,-0.3242282271385193,-0.1605910062789917,-0.7797102063795397,2.2529050549750664,2.5591334148435316,0.5520012378692627,0.7030733823776245,0.44831058382987976,0.08716361558450521
1727345164261,9i,15.371712865556084,2.5s : 4.3s,0.6722242716688526,0.44587991076474665,0.7790380716323853,0.5116838216781616,0.3388536870479584,0.21390658617019653,-0.3457334637641907,-0.18308806419372559,-0.7833940851034906,2.2515898572207074,2.5485403003394596,0.5505740642547607,0.7056882381439209,0.44595104455947876,0.09458375063044377
1727345164271,9i,15.371712865556084,2.5s : 4.3s,0.682598332399251,0.4721542633493272,0.7516002058982849,0.5064170956611633,0.43561452627182007,0.22998225688934326,-0.3688853979110718,-0.18428611755371094,-0.7863336741291101,2.2494849462500417,2.5378226000418214,0.5498946309089661,0.7077679634094238,0.44348710775375366,0.10286402032090909
1727345164281,9i,15.371712865556084,2.5s : 4.3s,0.7401674501859333,0.47119660510396966,0.7714405059814453,0.6316040754318237,0.44145774841308594,0.23741376399993896,-0.373071551322937,-0.16272234916687012,-0.7886979579245531,2.2465325501748947,2.52643551362166,0.5498940944671631,0.7094362378120422,0.4408135414123535,0.11141087105427099
1727345164291,9i,15.371712865556084,2.5s : 4.3s,0.8012905675744831,0.44267818404071535,0.8305996656417847,0.766721785068512,0.34078559279441833,0.23920893669128418,-0.3497498035430908,-0.12813326716423035,-0.7908996275775452,2.2423477661624283,2.5137568854374988,0.5505096316337585,0.7109861969947815,0.43753543496131897,0.11968889811215092
1727345164301,9i,15.371712865556084,2.5s : 4.3s,0.8750418989554295,0.40652727121957943,0.8334351181983948,0.9655102491378784,0.19278015196323395,0.23919910192489624,-0.3046256899833679,-0.12349656224250793,-0.7927185756284845,2.2370526226531617,2.500129556206262,0.5518012642860413,0.7122641205787659,0.4338143765926361,0.12774754255590856
1727345164311,9i,15.371712865556084,2.5s : 4.3s,0.9351696641266545,0.3906620401556945,0.8803842067718506,1.0608898401260376,0.016292188316583633,0.24712175130844116,-0.260712206363678,-0.15354743599891663,-0.7939821309555362,2.2307521444000398,2.4855995527555037,0.5538120865821838,0.7131504416465759,0.4297770857810974,0.136021856239687
1727345164321,9i,15.371712865556084,2.5s : 4.3s,0.95554309995413,0.3981641445087225,0.9000135660171509,1.0724239349365234,-0.14496861398220062,0.23441064357757568,-0.27677756547927856,-0.1642574667930603,-0.7948502696381909,2.2233216092576593,2.4703189307570774,0.5564982891082764,0.7137587666511536,0.42527416348457336,0.1444198778725443
1727345164331,9i,15.371712865556084,2.5s : 4.3s,0.8970258578972596,0.42153204754920454,0.8965872526168823,0.9428432583808899,-0.20442445576190948,0.2251291275024414,-0.30865567922592163,-0.17815110087394714,-0.7952240414857092,2.215449774214999,2.4548618067204466,0.5596150755882263,0.7140204906463623,0.42071977257728577,0.1532034328262646
1727345164341,9i,15.371712865556084,2.5s : 4.3s,0.7479740567654705,0.438056838191146,0.8872427344322205,0.6196489334106445,-0.11219944059848785,0.22296005487442017,-0.3235333561897278,-0.1936718225479126,-0.7950503489710189,2.207222307910123,2.439435311969078,0.5631575584411621,0.7138988375663757,0.41617530584335327,0.1623597824399069
1727345164351,9i,15.371712865556084,2.5s : 4.3s,0.6071963126845366,0.4387992726395667,0.8370510935783386,0.14631305634975433,0.17672377824783325,0.22390645742416382,-0.3264211416244507,-0.18936720490455627,-0.7941196295271012,2.198453589546302,2.4241695980800335,0.5673229694366455,0.7132468223571777,0.4116113483905792,0.17158355423349259
1727345164361,9i,15.371712865556084,2.5s : 4.3s,0.6711758412395835,0.44170274824132555,0.6726703643798828,-0.3562294542789459,0.5900413393974304,0.24524033069610596,-0.3230079412460327,-0.1749981939792633,-0.7922122336950438,2.1896769246760783,2.4099775631745226,0.572020411491394,0.7119085788726807,0.4074046313762665,0.18100073778575979
1727345164371,9i,15.371712865556084,2.5s : 4.3s,0.8724756437435911,0.45882314424854986,0.4141117334365845,-0.7074300646781921,0.9682402014732361,0.27723515033721924,-0.3336901068687439,-0.14936619997024536,-0.7889383744001779,2.182059228162745,2.3983404235966277,0.5770130157470703,0.7096056342124939,0.40437090396881104,0.19079582088324315
1727345164381,9i,15.371712865556084,2.5s : 4.3s,1.0877435918459315,0.4877820107763051,0.27921968698501587,-0.8422951698303223,1.3229209184646606,0.31282657384872437,-0.3594164252281189,-0.10435831546783447,-0.7844655193592462,2.1761547686554445,2.388989665832268,0.5819946527481079,0.7064470052719116,0.4027590751647949,0.2009981848149573
1727345164391,9i,15.371712865556084,2.5s : 4.3s,1.263547217178914,0.5034598348146261,0.23667848110198975,-0.8645781874656677,1.6255302429199219,0.3616992235183716,-0.344107449054718,-0.06508103013038635,-0.7791697039847264,2.1706301706373075,2.3798164442644305,0.5872906446456909,0.7026889324188232,0.40164390206336975,0.21143456624652587
1727345164401,9i,15.371712865556084,2.5s : 4.3s,1.3320384230651592,0.4789574495122063,0.24905765056610107,-0.8227410316467285,1.7585351467132568,0.40564990043640137,-0.25423282384872437,-0.014631062746047974,-0.7732245728314554,2.1642800454791766,2.370053740187368,0.5932819843292236,0.6984465718269348,0.40023571252822876,0.22104542759025286
1727345164411,9i,15.371712865556084,2.5s : 4.3s,1.27841729609851,0.4476518267099877,0.18070508539676666,-0.7500220537185669,1.7078837156295776,0.41679221391677856,-0.1626887321472168,0.014449387788772583,-0.7670505925502825,2.156341142457286,2.360165711148767,0.6000229120254517,0.6940147876739502,0.3978886008262634,0.22955061754784578
1727345164421,9i,15.371712865556084,2.5s : 4.3s,1.120306110139328,0.42880582589077765,0.152212455868721,-0.4322683811187744,1.5656371116638184,0.413646399974823,-0.10951918363571167,-0.027868270874023438,-0.7603639867326449,2.1479207569072294,2.3507739987215635,0.6072276830673218,0.6891852021217346,0.39534544944763184,0.23789006079428382
1727345164431,9i,15.371712865556084,2.5s : 4.3s,0.9239262751895221,0.4259740338791564,0.19519594311714172,-0.11436904221773148,1.3073270320892334,0.39865952730178833,-0.11881375312805176,-0.09169378876686096,-0.7536284336696246,2.1392673986876987,2.340909209206494,0.6145240664482117,0.6842891573905945,0.3925663232803345,0.2467655691721458
1727345164441,9i,15.371712865556084,2.5s : 4.3s,0.7242417393593149,0.41663765652024826,0.07823550701141357,0.08936384320259094,1.0026865005493164,0.37622684240341187,-0.13951855897903442,-0.11213773488998413,-0.7467018285496112,2.1304652959684285,2.331600555509016,0.6219573020935059,0.6792218089103699,0.38964909315109253,0.255732469930298
1727345164451,9i,15.371712865556084,2.5s : 4.3s,0.568675195827876,0.3905039017647717,-0.12380480766296387,0.17334014177322388,0.7195062637329102,0.34711992740631104,-0.13586467504501343,-0.11636942625045776,-0.7388204810146131,2.1222263824163448,2.324553967960763,0.629686713218689,0.6734163761138916,0.38730427622795105,0.2642255665434235
1727345164461,9i,15.371712865556084,2.5s : 4.3s,0.4719786290912706,0.3506387258185745,-0.31109291315078735,0.13722661137580872,0.46336930990219116,0.2848803400993347,-0.16739964485168457,-0.11733740568161011,-0.7299739054914506,2.1145967629555544,2.3203329031118356,0.6376965641975403,0.666850209236145,0.38555610179901123,0.27203564011469294
1727345164471,9i,15.371712865556084,2.5s : 4.3s,0.4811346202914838,0.3249749850047583,-0.48168396949768066,0.06473910063505173,0.3237840533256531,0.2004845142364502,-0.22488301992416382,-0.121829092502594,-0.7203552567808897,2.1078027642188735,2.318663913319145,0.6457833051681519,0.6596516966819763,0.38447850942611694,0.2791053175483267
1727345164481,9i,15.371712865556084,2.5s : 4.3s,0.5535412100635819,0.3124718025745606,-0.6389068961143494,-0.029999656602740288,0.3006337285041809,0.12986183166503906,-0.24681472778320312,-0.1409149467945099,-0.7098326254852166,2.102437867021505,2.3192477171587416,0.6537839770317078,0.6517068147659302,0.3845061957836151,0.28542133678189946
1727345164491,9i,15.371712865556084,2.5s : 4.3s,0.6330754990475901,0.28805527636469025,-0.755968451499939,-0.17245186865329742,0.31748586893081665,0.083770751953125,-0.22742092609405518,-0.1556856632232666,-0.6987996541138624,2.0986886336630355,2.32171586279115,0.6613922715187073,0.6432991623878479,0.3856506943702698,0.2909068414374919
1727345164500,9i,15.371712865556084,2.5s : 4.3s,0.759809968149696,0.23248687137691854,-0.8857749104499817,-0.39289265871047974,0.3864113986492157,0.06251108646392822,-0.17213863134384155,-0.14321592450141907,-0.6877105360364517,2.0964465445253917,2.3261007497030914,0.6683849096298218,0.6347697973251343,0.38772258162498474,0.2953051417530188
1727345164510,9i,15.371712865556084,2.5s : 4.3s,0.9484355835022207,0.16739625827759125,-1.0196822881698608,-0.6782132387161255,0.547216534614563,0.07733386754989624,-0.09693789482116699,-0.1124456524848938,-0.6763423346564267,2.094949541472913,2.3323350028938266,0.675168514251709,0.6259447336196899,0.3903080224990845,0.2987832993251379
1727345164520,9i,15.371712865556084,2.5s : 4.3s,1.1410878004107523,0.15879581432656587,-1.1094993352890015,-0.9651102423667908,0.7252440452575684,0.11673557758331299,-0.058839499950408936,-0.09014892578125,-0.6645253304764224,2.0931579215523253,2.3398009069007752,0.6822298765182495,0.6166855096817017,0.3927610218524933,0.3022501207720819
1727345164530,9i,15.371712865556084,2.5s : 4.3s,1.3250358576686014,0.17475223064074918,-1.2147959470748901,-1.2142877578735352,0.8604358434677124,0.15287631750106812,-0.06640195846557617,-0.05251622200012207,-0.652440703151908,2.0906318250077507,2.3482788572110906,0.6896377205848694,0.6071276068687439,0.39470961689949036,0.30604940581852536
1727345164540,9i,15.371712865556084,2.5s : 4.3s,1.486337924764069,0.19017740107287248,-1.3527863025665283,-1.3916503190994263,0.9621369242668152,0.17860937118530273,-0.06531548500061035,0.00015434622764587402,-0.6399753759599937,2.087343323207224,2.358054090139378,0.6974587440490723,0.5971757173538208,0.3961467146873474,0.3097743737007122
1727345164550,9i,15.371712865556084,2.5s : 4.3s,1.6210050675130323,0.2075542379274261,-1.5118087530136108,-1.530969262123108,0.9938427805900574,0.20070332288742065,-0.025606930255889893,0.04627335071563721,-0.6269438430726223,2.083228170831726,2.3693698869309565,0.7058060765266418,0.5866725444793701,0.3970552980899811,0.31299408188962347
1727345164560,9i,15.371712865556084,2.5s : 4.3s,1.7063570679152582,0.22279169968951357,-1.6662241220474243,-1.5931415557861328,0.9644625186920166,0.2031623125076294,0.03176379203796387,0.0857454240322113,-0.6134086414331503,2.0782761833611754,2.3823187692811243,0.7146385908126831,0.5756580233573914,0.397378146648407,0.3152719760360406
1727345164570,9i,15.371712865556084,2.5s : 4.3s,1.7408904335057436,0.23496637557961497,-1.7949033975601196,-1.5800286531448364,0.8879754543304443,0.19744527339935303,0.07261008024215698,0.10465341806411743,-0.5994457476650028,2.0728160474358823,2.3967950801799462,0.7237736582756042,0.5641849637031555,0.39729955792427063,0.31688201129375404
1727345164580,9i,15.371712865556084,2.5s : 4.3s,1.7411503730513267,0.22901009803677175,-1.8890697956085205,-1.5356030464172363,0.7615885138511658,0.18695908784866333,0.07984870672225952,0.10543295741081238,-0.585312805798531,2.067083660261675,2.4125483198953304,0.7329780459403992,0.5524601340293884,0.396901398897171,0.31830038393558663
1727345164590,9i,15.371712865556084,2.5s : 4.3s,1.7071821465039012,0.219102674273347,-1.9051586389541626,-1.4937061071395874,0.6194745302200317,0.1781734824180603,0.06888711452484131,0.1073068380355835,-0.5713795812290379,2.060998062637987,2.4291242439420047,0.7420993447303772,0.5407930016517639,0.39601930975914,0.31974599603195447
1727345164600,9i,15.371712865556084,2.5s : 4.3s,1.6793469228375344,0.2204413131675021,-1.8583900928497314,-1.530350685119629,0.48739397525787354,0.17805808782577515,0.07340061664581299,0.10724756121635437,-0.558088610012877,2.054025884221997,2.445731932620819,0.7511413097381592,0.5295658111572266,0.3941408693790436,0.3212089965102608
1727345164610,9i,15.371712865556084,2.5s : 4.3s,1.6839581912908288,0.23570545483658448,-1.8224661350250244,-1.6154893636703491,0.36693933606147766,0.18087738752365112,0.10891294479370117,0.10477787256240845,-0.5456110194924217,2.0458319820365674,2.4622849370039774,0.7601628303527832,0.5189405083656311,0.3909648060798645,0.3224295995728558
1727345164620,9i,15.371712865556084,2.5s : 4.3s,1.6986025438927457,0.24533362045416177,-1.7816990613937378,-1.712488055229187,0.25953537225723267,0.17712777853012085,0.1413387656211853,0.09400898218154907,-0.53413597115606,2.0365629935386242,2.478901153752554,0.7690238952636719,0.5090975761413574,0.3865511119365692,0.3234062355952779
1727345164630,9i,15.371712865556084,2.5s : 4.3s,1.7312782298860732,0.2355866885687465,-1.7687782049179077,-1.8054462671279907,0.18328849971294403,0.17003852128982544,0.13929980993270874,0.08475583791732788,-0.5237194604172349,2.0265834242193907,2.49576142867295,0.7775629758834839,0.5001044869422913,0.38117116689682007,0.32443284834495545
1727345164640,9i,15.371712865556084,2.5s : 4.3s,1.7739693516700816,0.2181764560176407,-1.788174033164978,-1.8806332349777222,0.13435104489326477,0.16229617595672607,0.11879894137382507,0.08454424142837524,-0.51418703258473,2.0162745643071904,2.5131183552011285,0.7857170104980469,0.4918271601200104,0.3751722574234009,0.32560367501839294
1727345164650,9i,15.371712865556084,2.5s : 4.3s,1.8408050205574058,0.2146291132306935,-1.859821081161499,-1.9538909196853638,0.1025073379278183,0.1585235595703125,0.10643091797828674,0.09802243113517761,-0.5052289825482306,2.0058516785524505,2.531326306922511,0.7935484647750854,0.4840078353881836,0.36880478262901306,0.3267959613231519
1727345164660,9i,15.371712865556084,2.5s : 4.3s,1.9022733503625386,0.21623809625418056,-1.9295122623443604,-2.0182015895843506,0.01387706771492958,0.15544599294662476,0.10277450084686279,0.10969439148902893,-0.4968371565091405,1.9953065886308101,2.550662784544167,0.8010665774345398,0.4766474962234497,0.36207666993141174,0.32794889247255204
1727345164670,9i,15.371712865556084,2.5s : 4.3s,1.9515347875061733,0.20744365069570422,-2.0001068115234375,-2.0519967079162598,-0.0746157094836235,0.13553553819656372,0.09020313620567322,0.12855497002601624,-0.48916166587745,1.984650216266642,2.571146676019624,0.8082054853439331,0.46988603472709656,0.3549806773662567,0.3287783305420858
1727345164680,9i,15.371712865556084,2.5s : 4.3s,1.9708159393329816,0.20215623069502292,-2.0358450412750244,-2.054375648498535,-0.13712278008460999,0.11593681573867798,0.08559653162956238,0.14177104830741882,-0.48213764509675616,1.9741306656201387,2.5925470442233247,0.8149105310440063,0.4636741876602173,0.3477460741996765,0.32924935196141714
1727345164690,9i,15.371712865556084,2.5s : 4.3s,1.9703307221598951,0.19297646209159294,-2.042187213897705,-2.0409653186798096,-0.2085369974374771,0.09533178806304932,0.0915968120098114,0.14057663083076477,-0.47584063105953955,1.9637508672191246,2.6144336998204234,0.8211570382118225,0.4580858647823334,0.34038016200065613,0.32933482658148217
1727345164700,9i,15.371712865556084,2.5s : 4.3s,1.9589900606274124,0.1826888655754522,-2.018984079360962,-2.0307087898254395,-0.28433990478515625,0.07924562692642212,0.10722270607948303,0.12489452958106995,-0.4704741647741895,1.9535131698239914,2.636558793909407,0.8268671631813049,0.45330899953842163,0.3328689634799957,0.3291188171222165
1727345164710,9i,15.371712865556084,2.5s : 4.3s,1.9487334330610708,0.17920145522946115,-1.9850512742996216,-2.033701181411743,-0.34086844325065613,0.06833434104919434,0.12225264310836792,0.1117938756942749,-0.4660281948691844,1.94317673204966,2.65864629391741,0.8321326375007629,0.4493415951728821,0.325034499168396,0.32868500159217273
1727345164720,9i,15.371712865556084,2.5s : 4.3s,1.935750906301844,0.17933943834145333,-1.935767412185669,-2.0430104732513428,-0.40051740407943726,0.05851161479949951,0.13172647356987,0.10671064257621765,-0.4624807367803248,1.9326413982500277,2.6805720617092215,0.8369961380958557,0.4461696147918701,0.31681206822395325,0.3280531935844012
1727345164730,9i,15.371712865556084,2.5s : 4.3s,1.9134731747639946,0.18240702690633634,-1.8673431873321533,-2.0537772178649902,-0.4329046905040741,0.04692721366882324,0.1386558711528778,0.10883340239524841,-0.4597865147422431,1.9217232487317806,2.7020624710323986,0.8415309190750122,0.4437567889690399,0.30806705355644226,0.3271680082630408
1727345164740,9i,15.371712865556084,2.5s : 4.3s,1.8837280584566525,0.19632274203330646,-1.785502552986145,-2.0569546222686768,-0.4735807478427887,0.03565192222595215,0.15200760960578918,0.1190178394317627,-0.4578800861759132,1.9104159297455545,2.7228989885509742,0.8457567691802979,0.4420475661754608,0.29881343245506287,0.32593865485299806
1727345164750,9i,15.371712865556084,2.5s : 4.3s,1.8374200204480775,0.22178531777950888,-1.6936427354812622,-2.0363240242004395,-0.4981653392314911,0.02193838357925415,0.17515921592712402,0.13426348567008972,-0.456787155026586,1.898796733158365,2.742974182979095,0.8496283292770386,0.4410669505596161,0.2891218960285187,0.324219212791213
1727345164760,9i,15.371712865556084,2.5s : 4.3s,1.7709204868020505,0.24447712725794798,-1.5835602283477783,-1.9906235933303833,-0.5129597187042236,0.011935114860534668,0.19259268045425415,0.15011554956436157,-0.4564042465475702,1.8870866024856827,2.7620321873288187,0.853115975856781,0.4407232701778412,0.2792055010795593,0.32214559295277334
1727345164770,9i,15.371712865556084,2.5s : 4.3s,1.728529507427761,0.2602451752814205,-1.5182437896728516,-1.95526123046875,-0.5282618999481201,0.0061370134353637695,0.19621476531028748,0.17084980010986328,-0.45666992254460376,1.8753837251833982,2.7801702799036483,0.8562134504318237,0.44096171855926514,0.26916763186454773,0.3199029888607574
1727345164780,9i,15.371712865556084,2.5s : 4.3s,1.7099222338117037,0.2743759724440117,-1.4853167533874512,-1.941463589668274,-0.5410799980163574,0.007519781589508057,0.18727558851242065,0.20038333535194397,-0.457398439184481,1.8637421985124742,2.7978826256197293,0.858981192111969,0.4416154623031616,0.2590891718864441,0.31770607965328657
1727345164790,9i,15.371712865556084,2.5s : 4.3s,1.7072788124710891,0.2746050859548397,-1.4922401905059814,-1.9316614866256714,-0.5410997271537781,0.010378062725067139,0.16021782159805298,0.2227790355682373,-0.45840644945274356,1.8521691829951672,2.8154416635502084,0.8614938259124756,0.4425196349620819,0.24900729954242706,0.3157656656715182
1727345164800,9i,15.371712865556084,2.5s : 4.3s,1.7041915609658211,0.2683751936005953,-1.4956830739974976,-1.921001672744751,-0.5502333045005798,0.002223968505859375,0.12938523292541504,0.23511648178100586,-0.4595918152466471,1.8407569157176469,2.833134439638888,0.8637732863426208,0.44358232617378235,0.23901964724063873,0.3139258143726707
1727345164810,9i,15.371712865556084,2.5s : 4.3s,1.6855796496947724,0.2620312951252539,-1.479773998260498,-1.886610746383667,-0.5864654779434204,-0.02594137191772461,0.1008940041065216,0.24043262004852295,-0.46119630976993425,1.8295487630502711,2.85080199337617,0.8657087683677673,0.44501975178718567,0.22914110124111176,0.31177232862527804
1727345164820,9i,15.371712865556084,2.5s : 4.3s,1.6360681160277437,0.27272019581787593,-1.4401789903640747,-1.8108552694320679,-0.6152414679527283,-0.06569218635559082,0.105378657579422,0.24280893802642822,-0.4633629977088411,1.818844015681017,2.8682516455242664,0.8671753406524658,0.4469590187072754,0.21962372958660126,0.3088385304917207
1727345164830,9i,15.371712865556084,2.5s : 4.3s,1.5599695208119984,0.29580465403073575,-1.3523072004318237,-1.7207353115081787,-0.6381897330284119,-0.10193264484405518,0.13323044776916504,0.24363861978054047,-0.46614023649041114,1.8087541062529295,2.8850842262380056,0.8681374192237854,0.44944167137145996,0.2105695605278015,0.3050452459930824
1727345164840,9i,15.371712865556084,2.5s : 4.3s,1.4828618429749427,0.31113461063799086,-1.2532812356948853,-1.644132375717163,-0.6385577321052551,-0.11955338716506958,0.15758442878723145,0.24016427993774414,-0.4693701684723893,1.7990858535117118,2.9009069283684257,0.8687140941619873,0.45232465863227844,0.20183689892292023,0.3008276184408232
1727345164850,9i,15.371712865556084,2.5s : 4.3s,1.4084548536098709,0.31531693346523393,-1.1469213962554932,-1.5828083753585815,-0.6235095262527466,-0.12047082185745239,0.1636871099472046,0.24107691645622253,-0.4729157868512558,1.7896652448178314,2.9155860531057733,0.8690058588981628,0.45548397302627563,0.19329477846622467,0.296653852361155
1727345164860,9i,15.371712865556084,2.5s : 4.3s,1.349333211279127,0.3203697984090265,-1.0557878017425537,-1.5470290184020996,-0.5870417952537537,-0.11684054136276245,0.1533980369567871,0.2558400630950928,-0.47652377418197395,1.7802451439380333,2.929081387258879,0.8691750168800354,0.4586929976940155,0.1847573071718216,0.29270381688934693
1727345164870,9i,15.371712865556084,2.5s : 4.3s,1.2940253174873537,0.3305900346676824,-0.9840782880783081,-1.5064475536346436,-0.5432150959968567,-0.11777067184448242,0.14067018032073975,0.2750122547149658,-0.47999786864576804,1.7707279585521198,2.941568970543734,0.8693269491195679,0.46177729964256287,0.17615942656993866,0.28890599862295796
1727345164880,9i,15.371712865556084,2.5s : 4.3s,1.2352682701883442,0.3417859595666827,-0.9502391219139099,-1.4328409433364868,-0.5019195675849915,-0.13205981254577637,0.1359725296497345,0.2844104766845703,-0.4832668857216919,1.761519443507397,2.9533850518203537,0.8694254159927368,0.4646744132041931,0.16785979270935059,0.2849591118088589
1727345164890,9i,15.371712865556084,2.5s : 4.3s,1.1712484137928896,0.3410146870212148,-0.9120243191719055,-1.3502516746520996,-0.46482396125793457,-0.15180367231369019,0.12393411993980408,0.27908241748809814,-0.4863186149868807,1.7529102526521816,2.964749270394833,0.8694397211074829,0.4673745036125183,0.16011106967926025,0.28080563301492506
1727345164900,9i,15.371712865556084,2.5s : 4.3s,1.0957374295730642,0.3272049785349117,-0.8664142489433289,-1.2414849996566772,-0.4519243836402893,-0.17024534940719604,0.09703972935676575,0.2620360851287842,-0.4892646190376333,1.7450506230161358,2.9755810233177895,0.8693114519119263,0.46997690200805664,0.1530333310365677,0.2765443673208409
1727345164910,9i,15.371712865556084,2.5s : 4.3s,1.0140349982892807,0.3141279873543163,-0.7993523478507996,-1.1336500644683838,-0.44113773107528687,-0.18725299835205078,0.0654953122138977,0.24356327950954437,-0.49228001280778083,1.7379835518136006,2.9857562629227385,0.8689697980880737,0.4726364016532898,0.146649569272995,0.27220411872015504
1727345164920,9i,15.371712865556084,2.5s : 4.3s,0.9280299816360288,0.3134396043504215,-0.7204931974411011,-1.0260429382324219,-0.4257957935333252,-0.20077162981033325,0.050324976444244385,0.23537743091583252,-0.4953507996432159,1.7316082458257285,2.9950615298981704,0.8684504628181458,0.4753403067588806,0.14087362587451935,0.26775868892358246
1727345164930,9i,15.371712865556084,2.5s : 4.3s,0.8437403318965938,0.316480094555618,-0.6243621706962585,-0.9411069750785828,-0.3889126479625702,-0.20212513208389282,0.058952540159225464,0.2362830489873886,-0.49834641264435653,1.72574419549989,3.0033206910116443,0.8678507208824158,0.47797372937202454,0.13555823266506195,0.2633501535779571
1727345164940,9i,15.371712865556084,2.5s : 4.3s,0.763678060762333,0.3259470497921666,-0.5266979336738586,-0.8727558851242065,-0.32704609632492065,-0.2016875147819519,0.07884043455123901,0.243614062666893,-0.5010518858724938,1.7200884841859039,3.0104386008539583,0.8673214912414551,0.4803483784198761,0.13045494258403778,0.25897709739479513
1727345164950,9i,15.371712865556084,2.5s : 4.3s,0.6907246143348196,0.323641289517665,-0.41706565022468567,-0.8175325393676758,-0.2702493369579315,-0.19834041595458984,0.09497037529945374,0.2374560832977295,-0.5033133738434642,1.7144572470344452,3.016268271724327,0.8669652342796326,0.48233065009117126,0.12541300058364868,0.2547098381862556
1727345164960,9i,15.371712865556084,2.5s : 4.3s,0.6261404415548434,0.31957854132384766,-0.3401295840740204,-0.7488128542900085,-0.23450468480587006,-0.21060240268707275,0.08499616384506226,0.22483932971954346,-0.505311934166056,1.7088372688365825,3.0208937684519457,0.866699755191803,0.48408040404319763,0.12040581554174423,0.25032882623812813
1727345164970,9i,15.371712865556084,2.5s : 4.3s,0.5560295193852854,0.3238700426819336,-0.2989481985569,-0.653130292892456,-0.19080600142478943,-0.2310720682144165,0.05185088515281677,0.22092756628990173,-0.5070252133697596,1.703743544044959,3.0248278476073724,0.8664783239364624,0.48557886481285095,0.11587940901517868,0.24579393933626154
1727345164980,9i,15.371712865556084,2.5s : 4.3s,0.484222467566837,0.32533548984402366,-0.2691117525100708,-0.5402516722679138,-0.16484443843364716,-0.24906229972839355,0.007074087858200073,0.20919156074523926,-0.5084482959428789,1.6994647170873838,3.028327291841005,0.866280198097229,0.4868224263191223,0.1120820865035057,0.24119278866890365
1727345164990,9i,15.371712865556084,2.5s : 4.3s,0.4127287585939631,0.33600960033401184,-0.23345953226089478,-0.42421361804008484,-0.1394437700510025,-0.2624724507331848,-0.031467169523239136,0.20741379261016846,-0.5096861998063545,1.6961443008930168,3.031404392476462,0.8660489320755005,0.487903356552124,0.1091296374797821,0.23664022106155724
1727345165000,9i,15.371712865556084,2.5s : 4.3s,0.3471045766922649,0.34043678327565274,-0.17461885511875153,-0.3299829959869385,-0.09115082025527954,-0.2619224786758423,-0.03595474362373352,0.21447861194610596,-0.5105971126488745,1.6936176364099897,3.0338982467714564,0.86588054895401,0.488698273897171,0.10688658803701401,0.23231378225547325
1727345165010,9i,15.371712865556084,2.5s : 4.3s,0.30325217687231204,0.3322379751048521,-0.093972347676754,-0.2778894305229187,-0.050490137189626694,-0.2532004117965698,-0.0047401487827301025,0.2150561660528183,-0.5111623966189263,1.6914032721883479,3.0355211251037506,0.8658406138420105,0.4891913831233978,0.10493568331003189,0.22816575667459885
1727345165020,9i,15.371712865556084,2.5s : 4.3s,0.27129808996300003,0.33612868363189535,-0.01659553125500679,-0.22715303301811218,0.0014143390581011772,-0.24562323093414307,0.041464269161224365,0.22568215429782867,-0.5113715811541737,1.6891902030978434,3.0361645194775635,0.8659693598747253,0.4893738329410553,0.10300720483064651,0.2241434405711832
1727345165030,9i,15.371712865556084,2.5s : 4.3s,0.2532476695281655,0.33874683985810183,0.03989970311522484,-0.17345748841762543,0.054545603692531586,-0.23612385988235474,0.08195707201957703,0.22864378988742828,-0.5111312692922622,1.6871290520683904,3.0359701968284365,0.866296648979187,0.48916423320770264,0.10123574733734131,0.2202898029756187
1727345165040,9i,15.371712865556084,2.5s : 4.3s,0.23919337379875322,0.33656714750332045,0.06919074803590775,-0.10521584749221802,0.08289388567209244,-0.23268342018127441,0.07732909917831421,0.23055602610111237,-0.5105417412502937,1.685341801828697,3.0352265709886597,0.8667624592781067,0.48864996433258057,0.09972023218870163,0.21674266373959486
1727345165049,9i,15.371712865556084,2.5s : 4.3s,0.23036865154708258,0.32614280348483027,0.04945226013660431,-0.0015714769251644611,0.1182112917304039,-0.2308521270751953,0.02497953176498413,0.2290249913930893,-0.509628600065121,1.68442693009673,3.0344168161573335,0.867296040058136,0.487853080034256,0.09897773712873459,0.21371498172740894
1727345165059,9i,15.371712865556084,2.5s : 4.3s,0.24005083324306556,0.31465104465549637,0.02918241173028946,0.047812849283218384,0.15985007584095,-0.2196630835533142,-0.04291924834251404,0.22115910053253174,-0.5083149050769513,1.6844224487291306,3.0338284841568814,0.8679326176643372,0.4867058992385864,0.09904644638299942,0.21143309387355555
1727345165069,9i,15.371712865556084,2.5s : 4.3s,0.2491470810795486,0.3127829974035737,0.03247227892279625,0.050304148346185684,0.1911357343196869,-0.20996153354644775,-0.09940627217292786,0.20944629609584808,-0.5066200992295591,1.6846417249548244,3.033256533766701,0.8687289953231812,0.4852246642112732,0.09933029860258102,0.2097788437639659
1727345165079,9i,15.371712865556084,2.5s : 4.3s,0.2662590198955449,0.31191317976104205,0.06168023496866226,0.08110494166612625,0.2253296673297882,-0.21471011638641357,-0.12841805815696716,0.18627452850341797,-0.5046199926988283,1.6849290463019444,3.0324760432205937,0.8696630597114563,0.48347482085227966,0.09969025105237961,0.20821198807401314
1727345165089,9i,15.371712865556084,2.5s : 4.3s,0.29617526039705094,0.31383646495919365,0.11861168593168259,0.12540112435817719,0.2654251456260681,-0.2326490879058838,-0.12736493349075317,0.16776740550994873,-0.5023201611821021,1.6853251612103761,3.0311443892246377,0.8707257509231567,0.4814603924751282,0.10016152262687683,0.2063358597550842
1727345165099,9i,15.371712865556084,2.5s : 4.3s,0.3289386398205081,0.31828271507236083,0.16086088120937347,0.17405574023723602,0.30267903208732605,-0.2533944249153137,-0.11753830313682556,0.15257751941680908,-0.49969331483464113,1.685868178417575,3.029179179059715,0.8719245791435242,0.47915637493133545,0.10077919065952301,0.20407094154264352
1727345165109,9i,15.371712865556084,2.5s : 4.3s,0.3508310965193381,0.3283862946450673,0.1526089459657669,0.23335039615631104,0.32446882128715515,-0.2703137993812561,-0.11906635761260986,0.14349637925624847,-0.49679479885091093,1.6868243046672207,3.0269625363589183,0.8732035756111145,0.4766102433204651,0.10177315771579742,0.2016391507532017
1727345165119,9i,15.371712865556084,2.5s : 4.3s,0.3790947124279567,0.3460968303177942,0.11490310728549957,0.2784736752510071,0.3743050694465637,-0.2837769389152527,-0.1319628357887268,0.1477818489074707,-0.49352042856591377,1.688452693305342,3.02500944867801,0.8745818734169006,0.4737291634082794,0.10337758809328079,0.19936697499631556
1727345165129,9i,15.371712865556084,2.5s : 4.3s,0.4226970739768927,0.35918997498259364,0.1066325306892395,0.3198353946208954,0.44344067573547363,-0.2937619686126709,-0.1473332941532135,0.14496290683746338,-0.48961438416620057,1.6905868366277252,3.023217673356755,0.8761898875236511,0.4702856242656708,0.10546417534351349,0.19729855423472012
1727345165139,9i,15.371712865556084,2.5s : 4.3s,0.48306059187826134,0.37297980348255855,0.13375601172447205,0.38233500719070435,0.5191019177436829,-0.310860276222229,-0.15721142292022705,0.1332831233739853,-0.4850271691093619,1.6931866223871903,3.0212732853647384,0.8780445456504822,0.46623238921165466,0.10800394415855408,0.19520105924839043
1727345165149,9i,15.371712865556084,2.5s : 4.3s,0.561930441370983,0.3816222113620756,0.18162687122821808,0.4557223916053772,0.6146507859230042,-0.32870393991470337,-0.14795419573783875,0.12529480457305908,-0.47962446271084,1.6961932925370145,3.018719850260609,0.8802022933959961,0.46144604682922363,0.11095688492059708,0.19297317036223283
1727345165159,9i,15.371712865556084,2.5s : 4.3s,0.6398324735445349,0.38066874159329167,0.21871991455554962,0.5128421187400818,0.719400942325592,-0.341025173664093,-0.11340898275375366,0.12549471855163574,-0.4733061758047703,1.6995658844862749,3.0155385995407955,0.8826968669891357,0.45583149790763855,0.11429692804813385,0.19058428496971605
1727345165169,9i,15.371712865556084,2.5s : 4.3s,0.6985698770267625,0.3810712883907645,0.20989792048931122,0.5198630094528198,0.831046462059021,-0.3481908440589905,-0.07253983616828918,0.13680802285671234,-0.46592432980945153,1.7031740457705546,3.0119801790645555,0.8855899572372437,0.4492487907409668,0.11792200058698654,0.1881974366658344
1727345165179,9i,15.371712865556084,2.5s : 4.3s,0.7404753774968407,0.3982512495909211,0.16106034815311432,0.5027927160263062,0.928325891494751,-0.3600080609321594,-0.053526878356933594,0.1616574376821518,-0.45747028149966074,1.7067589751902874,3.0086182514018414,0.8888927698135376,0.4416799247264862,0.12160647660493851,0.18618523167174592
1727345165189,9i,15.371712865556084,2.5s : 4.3s,0.7904201773186599,0.43302159880108687,0.07676597684621811,0.4950210750102997,1.0297962427139282,-0.3847891092300415,-0.07316821813583374,0.18463872373104095,-0.44798869672648944,1.7104858577022595,3.0057607483454496,0.892540454864502,0.43315356969833374,0.12549589574337006,0.18483790310270543
1727345165199,9i,15.371712865556084,2.5s : 4.3s,0.8664723323804082,0.4732921667037689,0.026974717155098915,0.5740636587142944,1.1232231855392456,-0.42029380798339844,-0.09351569414138794,0.1965029388666153,-0.4374090735251741,1.7148097500682833,3.003555573523014,0.8964748978614807,0.4235938787460327,0.130004420876503,0.1840035129844452
1727345165209,9i,15.371712865556084,2.5s : 4.3s,0.9710327005872643,0.5053644811568095,-0.013751673512160778,0.70484858751297,1.233702301979065,-0.4566779136657715,-0.09705919027328491,0.19343747198581696,-0.4258044256441726,1.7203522689741593,3.001592654586573,0.9005408883094788,0.4130535125732422,0.1356944441795349,0.1834007145110517
1727345165219,9i,15.371712865556084,2.5s : 4.3s,1.0691000424605304,0.5228063528581429,-0.007410953752696514,0.8356696963310242,1.3285845518112183,-0.47964179515838623,-0.0817854106426239,0.19126258790493011,-0.4131238132583356,1.7273161041835774,2.9996205206904545,0.904675304889679,0.4014723002910614,0.14276733994483948,0.18308200647800538
1727345165229,9i,15.371712865556084,2.5s : 4.3s,1.1176078864248082,0.5354775748005351,0.05754281207919121,0.8623053431510925,1.397157907485962,-0.49483925104141235,-0.06464841961860657,0.19414152204990387,-0.39971645007190093,1.7348028169707803,2.997006316169037,0.9088102579116821,0.38915714621543884,0.15040171146392822,0.183250024494342
1727345165239,9i,15.371712865556084,2.5s : 4.3s,1.142504606286748,0.5580571592175844,0.12963618338108063,0.8420006036758423,1.4482042789459229,-0.5130374431610107,-0.045737117528915405,0.2147754430770874,-0.385902162303215,1.741938111380317,2.99346341130982,0.9129244685173035,0.3763951063156128,0.15778300166130066,0.18424426821817919
1727345165249,9i,15.371712865556084,2.5s : 4.3s,1.1988356942061755,0.5877143290111569,0.20268681645393372,0.8764941096305847,1.5182232856750488,-0.5347083210945129,-0.018695205450057983,0.24319875240325928,-0.37164341282918784,1.7488460471837037,2.9889317196606666,0.9170019626617432,0.36314713954925537,0.1650194376707077,0.1861910810012558
1727345165259,9i,15.371712865556084,2.5s : 4.3s,1.2880365427577025,0.6176780828335696,0.21209657192230225,0.9920039176940918,1.6047738790512085,-0.5542160272598267,0.0071721673011779785,0.27261579036712646,-0.35666503677662714,1.7562003882188113,2.983628299463187,0.9210067391395569,0.3491511046886444,0.17274226248264313,0.18924231709088427
1727345165269,9i,15.371712865556084,2.5s : 4.3s,1.4076560869611194,0.6370636496462028,0.16285045444965363,1.2038663625717163,1.6855320930480957,-0.5610789060592651,0.037846148014068604,0.29934632778167725,-0.3408791429542172,1.7653509494978608,2.9783781682559383,0.9246805906295776,0.33431577682495117,0.18220561742782593,0.1934047958842759
1727345165279,9i,15.371712865556084,2.5s : 4.3s,1.5117386158650583,0.6331319550567892,0.1969815343618393,1.389035940170288,1.7375153303146362,-0.5456969738006592,0.07110285758972168,0.31307390332221985,-0.3244684988405071,1.7765778855596976,2.973008913712249,0.9278228878974915,0.318805068731308,0.19367031753063202,0.1984211375953079
1727345165289,9i,15.371712865556084,2.5s : 4.3s,1.5957502960112073,0.6215483738951317,0.37108707427978516,1.482917308807373,1.7958027124404907,-0.5125541687011719,0.11122241616249084,0.3335268795490265,-0.3078314213052274,1.7888994736068566,2.9662586915821842,0.9304161667823792,0.30299270153045654,0.2062067985534668,0.20425731084450027
1727345165299,9i,15.371712865556084,2.5s : 4.3s,1.663033314928625,0.6268725363080658,0.6013991236686707,1.4719406366348267,1.874663233757019,-0.4630892872810364,0.20257681608200073,0.37078312039375305,-0.2910474207854709,1.8009756919466804,2.9570491096647147,0.9326785802841187,0.28695574402809143,0.2185569703578949,0.21062990383913754
1727345165309,9i,15.371712865556084,2.5s : 4.3s,1.7261511896608517,0.669528286873531,0.8175370693206787,1.4268566370010376,1.951121211051941,-0.4117376208305359,0.32492247223854065,0.41613176465034485,-0.27414057645828976,1.8121184948026023,2.9451768736924397,0.9347632527351379,0.2707197070121765,0.23006252944469452,0.21746233184397654
1727345165319,9i,15.371712865556084,2.5s : 4.3s,1.7968849955716948,0.7173601757053997,0.9881908297538757,1.4702045917510986,1.9795507192611694,-0.3814104199409485,0.3934347331523895,0.462969571352005,-0.25728254155821806,1.8228588926903495,2.931132162358588,0.9365252256393433,0.25445348024368286,0.24119283258914948,0.22545238730980116
1727345165329,9i,15.371712865556084,2.5s : 4.3s,1.8741408340498529,0.7315445398422149,1.1472811698913574,1.5934793949127197,1.9547994136810303,-0.35685789585113525,0.39520296454429626,0.5016218423843384,-0.2409882340733079,1.8342047496937952,2.9152885699796403,0.9376073479652405,0.23866242170333862,0.2528487741947174,0.2349613354552732
1727345165339,9i,15.371712865556084,2.5s : 4.3s,1.9409648719183608,0.736846094737536,1.28852379322052,1.7430074214935303,1.879571795463562,-0.3298579454421997,0.38383692502975464,0.5355418920516968,-0.2258040943407459,1.8468763205950456,2.8979814191704256,0.9377070665359497,0.22389011085033417,0.2656664252281189,0.24583271288550623
1727345165349,9i,15.371712865556084,2.5s : 4.3s,2.026519060809485,0.7547453038884312,1.4229384660720825,1.9170337915420532,1.8088960647583008,-0.28670114278793335,0.4170924127101898,0.5598900318145752,-0.21190072708164737,1.8611552344070625,2.8794850196326567,0.9367101192474365,0.21031849086284637,0.2798924446105957,0.25745890080966566
1727345165359,9i,15.371712865556084,2.5s : 4.3s,2.1504529326557194,0.7951538356832127,1.7696099281311035,2.010530710220337,1.7128379344940186,-0.2169453501701355,0.5083433389663696,0.5716567039489746,-0.1997542845042611,1.8765506338380251,2.85873184922639,0.9346577525138855,0.19842851161956787,0.2950270473957062,0.26924798229806185
1727345165369,9i,15.371712865556084,2.5s : 4.3s,2.2597458376154127,0.8777851349555331,2.0322277545928955,2.1612186431884766,1.5367053747177124,-0.15352606773376465,0.6123515963554382,0.609886884689331,-0.1901688985876161,1.8927721035604836,2.835094487864751,0.9315105080604553,0.18902474641799927,0.31073662638664246,0.28197010296804015
1727345165379,9i,15.371712865556084,2.5s : 4.3s,2.300137797994219,1.0144529026520523,2.232600688934326,2.186004161834717,1.3375569581985474,-0.07243210077285767,0.735464870929718,0.6949530243873596,-0.1835169362161976,1.9099097726589223,2.80991623663248,0.9272140264511108,0.1824885755777359,0.32706519961357117,0.2968132365429891
1727345165389,9i,15.371712865556084,2.5s : 4.3s,2.3417511628502945,1.1534871030322036,2.396035671234131,2.2293224334716797,1.116551160812378,0.0157739520072937,0.8472908735275269,0.7825483083724976,-0.17993902933147224,1.9270537545448543,2.7834531372949067,0.9220771193504333,0.1789695918560028,0.3431381285190582,0.3141694228121169
1727345165399,9i,15.371712865556084,2.5s : 4.3s,2.337681226623303,1.2530921406362672,2.3756802082061768,2.338627338409424,0.8792688250541687,0.07722640037536621,0.897067129611969,0.8715196847915649,-0.1791769409906732,1.9451852648604908,2.75716729096278,0.9158308506011963,0.1782197505235672,0.35984915494918823,0.334386453996147
1727345165409,9i,15.371712865556084,2.5s : 4.3s,2.379593791260979,1.2773637152464923,2.3773744106292725,2.4999563694000244,0.6249831914901733,0.1451316475868225,0.9030914306640625,0.8916393518447876,-0.1811031004266486,1.964891565108026,2.732004047051978,0.9082435965538025,0.18011474609375,0.3776932954788208,0.35583517994340635
1727345165419,9i,15.371712865556084,2.5s : 4.3s,2.4190005701306383,1.2549537842614338,2.4227800369262695,2.5852410793304443,0.35175248980522156,0.22290021181106567,0.8734637498855591,0.8730896711349487,-0.18604889244011885,1.9858764938289275,2.7077346503455857,0.8992921710014343,0.1849774271249771,0.39630407094955444,0.37740495998207835
1727345165429,9i,15.371712865556084,2.5s : 4.3s,2.469188428252147,1.247955883508518,2.5256741046905518,2.6076152324676514,0.07484294474124908,0.29787909984588623,0.8536467552185059,0.860202968120575,-0.1943424537122472,2.007255777767122,2.683945972542329,0.8891935348510742,0.19312140345573425,0.41477540135383606,0.3991658586451374
1727345165439,9i,15.371712865556084,2.5s : 4.3s,2.5406425593356547,1.2232994669656758,2.647848606109619,2.6242973804473877,-0.20427976548671722,0.35798966884613037,0.8158451318740845,0.8382730484008789,-0.20605679875357658,2.0287068947334332,2.660448635866682,0.8780030012130737,0.2046017199754715,0.4327230155467987,0.42080269273954796
1727345165449,9i,15.371712865556084,2.5s : 4.3s,2.601616790595044,1.168497675677299,2.666412591934204,2.688704490661621,-0.5066506862640381,0.3930560350418091,0.7475295662879944,0.8075229525566101,-0.22131371854871687,2.050410699632829,2.637876284793169,0.865534782409668,0.2195114940404892,0.45018264651298523,0.4418980032588036
1727345165459,9i,15.371712865556084,2.5s : 4.3s,2.6585492406875475,1.0874990907515847,2.6647746562957764,2.743767023086548,-0.7691563367843628,0.429717481136322,0.6550818681716919,0.754231333732605,-0.2394734037037235,2.0727244968276906,2.6168289582643114,0.8516393303871155,0.2371910959482193,0.4673871397972107,0.4616746158168222
1727345165469,9i,15.371712865556084,2.5s : 4.3s,2.6724859625233743,1.0139127545121114,2.5850467681884766,2.7555642127990723,-1.0355960130691528,0.474651575088501,0.5812139511108398,0.6818469762802124,-0.26022937822785613,2.0955210911102484,2.597821161412926,0.8363224864006042,0.2573022246360779,0.48410743474960327,0.47975645926932375
1727345165479,9i,15.371712865556084,2.5s : 4.3s,2.6809752758801007,0.9958710973536368,2.5248217582702637,2.7315611839294434,-1.2551316022872925,0.5246864557266235,0.5613976716995239,0.6334792971611023,-0.2830973268143663,2.118448876806293,2.5811637855622536,0.8197653889656067,0.2793310284614563,0.49995851516723633,0.4970313582028095
1727345165489,9i,15.371712865556084,2.5s : 4.3s,2.7418235681505845,1.0140367550883658,2.5731217861175537,2.7041187286376953,-1.4737478494644165,0.5709452033042908,0.5657762289047241,0.6182146668434143,-0.3081733666332194,2.141299139740881,2.5661832860338696,0.8019796013832092,0.3033185601234436,0.5146127939224243,0.5144189038679365
1727345165499,9i,15.371712865556084,2.5s : 4.3s,2.8498331331306583,1.054138205423773,2.5854265689849854,2.780428171157837,-1.728497862815857,0.59260493516922,0.5783387422561646,0.6523427367210388,-0.335658863823983,2.1643436869413484,2.5528165136960967,0.78270024061203,0.32939133048057556,0.5280922055244446,0.5330359098570994
1727345165509,9i,15.371712865556084,2.5s : 4.3s,2.95800267881384,1.132279091995291,2.61954665184021,2.8399055004119873,-1.9546040296554565,0.616005539894104,0.6113935708999634,0.7271801829338074,-0.3656645522609585,2.1884155974137083,2.541185837171717,0.7613595724105835,0.35756999254226685,0.540809690952301,0.5538901789456513
1727345165519,9i,15.371712865556084,2.5s : 4.3s,3.056245691466509,1.2084779367823724,2.6368589401245117,2.901576280593872,-2.1517837047576904,0.659194827079773,0.6322634816169739,0.7912799715995789,-0.39784828314963017,2.2135778415139793,2.5314221998771345,0.7379150986671448,0.38743558526039124,0.5526071190834045,0.5766814520656406
1727345165529,9i,15.371712865556084,2.5s : 4.3s,3.1227038853386024,1.2798171043947981,2.700011968612671,2.897876501083374,-2.27223539352417,0.7311131358146667,0.6402397155761719,0.8327655792236328,-0.43166596409832797,2.2391910540528506,2.5231494464090085,0.712826132774353,0.41838452219963074,0.5628793239593506,0.6009134100562835
1727345165539,9i,15.371712865556084,2.5s : 4.3s,3.2011422674484282,1.3257045134366998,2.8744349479675293,2.8280606269836426,-2.3714349269866943,0.799541711807251,0.629942774772644,0.8493512868881226,-0.46754930959122387,2.264480206305023,2.515428919750119,0.6863746643066406,0.45069995522499084,0.5707536339759827,0.6259603527381918
1727345165549,9i,15.371712865556084,2.5s : 4.3s,3.337239560081351,1.3607435966570847,3.066143274307251,2.835526704788208,-2.5189037322998047,0.8414260745048523,0.6183903217315674,0.8724784851074219,-0.5057039845944225,2.2892354061449876,2.507803562784546,0.6586046814918518,0.48442342877388,0.5758246779441833,0.6518992618337326
1727345165559,9i,15.371712865556084,2.5s : 4.3s,3.4762560723978093,1.398725368663316,3.181654691696167,2.8957772254943848,-2.702011823654175,0.8606784343719482,0.6296322345733643,0.9051124453544617,-0.5461132593398176,2.314402163249622,2.501027812096776,0.6289761066436768,0.5193697214126587,0.5784841179847717,0.6790447738649027
1727345165569,9i,15.371712865556084,2.5s : 4.3s,3.579410833846989,1.4242816702595187,3.144256830215454,3.0572187900543213,-2.8472297191619873,0.8836195468902588,0.6433864831924438,0.9131531119346619,-0.5880428140711871,2.341585347621919,2.496393440678151,0.596864640712738,0.5547336339950562,0.5796751379966736,0.7069226574454063
1727345165579,9i,15.371712865556084,2.5s : 4.3s,3.6826455618420284,1.4067479580218345,3.1687591075897217,3.1913630962371826,-2.948209047317505,0.9412213563919067,0.5732519626617432,0.8743136525154114,-0.6307965206535464,2.3716247816525104,2.4942456192065965,0.5621509552001953,0.5897881984710693,0.5797725915908813,0.7339826660237793
1727345165589,9i,15.371712865556084,2.5s : 4.3s,3.7094625079208017,1.3972413718218941,3.1977925300598145,3.140646457672119,-3.030349016189575,1.0368576049804688,0.4289952516555786,0.8325700163841248,-0.6744743133293121,2.403404776399983,2.494249486582093,0.5255966782569885,0.6244868040084839,0.5777234435081482,0.7597284831869361
1727345165599,9i,15.371712865556084,2.5s : 4.3s,3.6731163424564364,1.4836236319585236,3.2406134605407715,2.9488790035247803,-3.0635902881622314,1.126512885093689,0.3650208115577698,0.8937939405441284,-0.7187131408714534,2.4351276329473595,2.496372357809491,0.4885842204093933,0.6584166288375854,0.5725144147872925,0.7870055724512136
1727345165608,9i,15.371712865556084,2.5s : 4.3s,3.7838063879292165,1.5691276818732014,3.3931870460510254,2.9930620193481445,-3.13639760017395,1.155212163925171,0.40341824293136597,0.9822933673858643,-0.7638471648338255,2.4671504179094303,2.500137685087388,0.4509737491607666,0.6917049288749695,0.5640625357627869,0.8169717990519512
1727345165618,9i,15.371712865556084,2.5s : 4.3s,3.9723281274612803,1.607076749882718,3.496208429336548,3.244544267654419,-3.2691168785095215,1.1275721788406372,0.4877725839614868,1.036028265953064,-0.8106740800597421,2.502417892011835,2.5061298617815315,0.41101738810539246,0.7247517704963684,0.5529913306236267,0.8489421135588572
1727345165628,9i,15.371712865556084,2.5s : 4.3s,4.162533684347408,1.649407893509874,3.5595664978027344,3.5166170597076416,-3.4215972423553467,1.1236940622329712,0.5574110150337219,1.0710513591766357,-0.8587507210794277,2.543811797576605,2.5162906656707635,0.36773064732551575,0.7570269107818604,0.5400782823562622,0.8824913107475889
1727345165638,9i,15.371712865556084,2.5s : 4.3s,4.258986465562792,1.6851151120081975,3.624890089035034,3.5755929946899414,-3.5337917804718018,1.1938921213150024,0.5113764405250549,1.0736520290374756,-0.9077785826356973,2.5911473910658898,2.5315194512353147,0.3219466209411621,0.7881383895874023,0.5245839357376099,0.9164665977410524
1727345165648,9i,15.371712865556084,2.5s : 4.3s,4.254186835301855,1.7271467028797602,3.5996649265289307,3.4702072143554688,-3.6305994987487793,1.2981445789337158,0.363522469997406,1.0796794891357422,-0.9569644038451746,2.6437655853585373,2.5531449687359546,0.2750520408153534,0.8174468278884888,0.5060900449752808,0.9503535199898925
1727345165658,9i,15.371712865556084,2.5s : 4.3s,4.218885839406232,1.7368611341608726,3.4974682331085205,3.3336758613586426,-3.7456929683685303,1.3654241561889648,0.1920638084411621,1.0561320781707764,-1.0051392666586516,2.702904473023235,2.5834611246605146,0.22765454649925232,0.8442366123199463,0.4852190315723419,0.9832213990294516
1727345165668,9i,15.371712865556084,2.5s : 4.3s,4.211995020608359,1.6996695253849958,3.4437313079833984,3.1975128650665283,-3.876336097717285,1.377516269683838,0.04596978425979614,0.994591474533081,-1.0520236436741222,2.7709695360245106,2.624812912393706,0.17958222329616547,0.8684283494949341,0.4621497392654419,1.0142311687733687
1727345165678,9i,15.371712865556084,2.5s : 4.3s,4.1708230171376455,1.653181604173374,3.298194646835327,3.119673490524292,-3.9490864276885986,1.3549846410751343,0.0029862523078918457,0.9471098780632019,-1.0966181405827664,2.8504823203520786,2.679458422283992,0.13105370104312897,0.8896682858467102,0.43739622831344604,1.0442577210198896
1727345165688,9i,15.371712865556084,2.5s : 4.3s,4.155386249793728,1.6085668565636693,3.17326021194458,3.139340877532959,-3.9817471504211426,1.3245394229888916,0.06336915493011475,0.9105311632156372,-1.1375157692247226,2.9444642324994574,2.7492601695204044,0.08222943544387817,0.907593309879303,0.41171908378601074,1.0742281731616332
1727345165698,9i,15.371712865556084,2.5s : 4.3s,4.200808203056206,1.555680725429357,3.140028238296509,3.1215732097625732,-4.1080121994018555,1.282975196838379,0.08517682552337646,0.8757066130638123,-1.1743452251263355,3.0563753434820433,2.837366402965507,0.032866571098566055,0.9224371910095215,0.3847454786300659,1.1036715635370709
1727345165708,9i,15.371712865556084,2.5s : 4.3s,4.2598138282829074,1.5168113477755953,3.111952304840088,3.1310036182403564,-4.2375712394714355,1.2441757917404175,0.05967605113983154,0.8655530214309692,-1.2063669517756381,-3.0926266052417786,2.9482335945707514,-0.017445329576730728,0.9343273043632507,0.3559891879558563,1.1326387716255264
1727345165718,9i,15.371712865556084,2.5s : 4.3s,4.277452035474463,1.5262362144299841,3.0811607837677,3.1288530826568604,-4.282972812652588,1.2368465662002563,0.0791163444519043,0.8907009363174438,-1.2316056117717573,-2.9355103450102256,3.0822676304374896,-0.06808427721261978,0.943024218082428,0.3256838917732239,1.1624020856573625
1727345165728,9i,15.371712865556084,2.5s : 4.3s,4.333321962918492,1.5612816552818791,3.1480438709259033,3.1098690032958984,-4.353174209594727,1.2338858842849731,0.11572438478469849,0.9495967030525208,-1.248899265622015,-2.757824229047738,-3.0460487227993314,-0.11845293641090393,0.9486369490623474,0.2933535873889923,1.1937071176975407
1727345165738,9i,15.371712865556084,2.5s : 4.3s,4.348689345443748,1.6059402115536077,3.1296141147613525,3.0186259746551514,-4.443401336669922,1.2208863496780396,0.13125139474868774,1.0350137948989868,-1.2563837593139608,-2.564779765049365,-2.8750349248470104,-0.16865532100200653,0.9509782195091248,0.2592213749885559,1.2267230930061495
1727345165748,9i,15.371712865556084,2.5s : 4.3s,4.364636289028007,1.6234814733437581,3.219592332839966,2.9716594219207764,-4.424455165863037,1.2163947820663452,0.14878714084625244,1.0648653507232666,-1.2533280862296996,-2.3684420976429035,-2.6999652374968575,-0.21801207959651947,0.9500287771224976,0.22341881692409515,1.2605105184918253
1727345165758,9i,15.371712865556084,2.5s : 4.3s,4.38899590271108,1.5822131012691563,3.3726868629455566,2.8992018699645996,-4.390842437744141,1.2126379013061523,0.1435813307762146,1.0061272382736206,-1.2410511622473777,-2.179234738974348,-2.5313977039639575,-0.26569244265556335,0.9461249113082886,0.18508055806159973,1.2932998766011519
1727345165768,9i,15.371712865556084,2.5s : 4.3s,4.4144461584532335,1.5193118887123198,3.444955825805664,2.8210434913635254,-4.421446800231934,1.1874055862426758,0.13134467601776123,0.9386826753616333,-1.2198395983750168,-2.005682316167861,-2.377534638579805,-0.311795175075531,0.9390442371368408,0.14484383165836334,1.3246406005731273
1727345165778,9i,15.371712865556084,2.5s : 4.3s,4.470582783141912,1.4687603007510852,3.3652408123016357,2.8522045612335205,-4.5653462409973145,1.143768548965454,0.09595334529876709,0.9164296388626099,-1.1898360935132566,-1.852585565851949,-2.243885025761062,-0.35714733600616455,0.9283080101013184,0.10339147597551346,1.3549634572481917
1727345165788,9i,15.371712865556084,2.5s : 4.3s,4.52254638095279,1.4390782695474134,3.087663173675537,3.0394604206085205,-4.731468200683594,1.1159723997116089,0.0767143964767456,0.9053544998168945,-1.1514424977845854,-1.7250813924797967,-2.137399719737098,-0.40233397483825684,0.9133522510528564,0.06257139146327972,1.3847484481622554
1727345165798,9i,15.371712865556084,2.5s : 4.3s,4.597560407154013,1.4017049955436964,2.991030693054199,3.213561773300171,-4.8195624351501465,1.1466820240020752,0.0700947642326355,0.8031089305877686,-1.1070494843574543,-1.619988249963795,-2.055750095955315,-0.4467611610889435,0.8943828344345093,0.021994784474372864,1.4131524568559681
1727345165808,9i,15.371712865556084,2.5s : 4.3s,4.62451812804812,1.4177700098230246,2.988004446029663,3.203019380569458,-4.867186069488525,1.2207226753234863,0.053553223609924316,0.7190549373626709,-1.0587731379385068,-1.5308904762563862,-1.9914495383122062,-0.4895518124103546,0.871755063533783,-0.019546357914805412,1.4409941473839532
1727345165818,9i,15.371712865556084,2.5s : 4.3s,4.525603153296996,1.485975013147289,2.9932258129119873,2.909346342086792,-4.822398662567139,1.2963576316833496,0.06630706787109375,0.7233132123947144,-1.0082099724345726,-1.4567161861537559,-1.9406789576832557,-0.5299083590507507,0.8458784222602844,-0.06071564182639122,1.4700856555871842
1727345165828,9i,15.371712865556084,2.5s : 4.3s,4.420034861617112,1.5130052230356277,2.9909651279449463,2.598966360092163,-4.76306676864624,1.3265920877456665,0.04490244388580322,0.7261694073677063,-0.956569434100507,-1.3952276105806376,-1.8998500172494597,-0.5674672722816467,0.8172192573547363,-0.10066594928503036,1.4996485175438303
1727345165838,9i,15.371712865556084,2.5s : 4.3s,4.356926763210244,1.4757356359560239,2.9829845428466797,2.2968060970306396,-4.774263858795166,1.30118989944458,-0.048483848571777344,0.6945140957832336,-0.9040196174201907,-1.3442795131532157,-1.8667657148689336,-0.6026577353477478,0.7858192324638367,-0.13889585435390472,1.5279508494947176
1727345165848,9i,15.371712865556084,2.5s : 4.3s,4.2797882816340405,1.4199492050146192,2.8565683364868164,2.070488452911377,-4.781131744384766,1.2360169887542725,-0.17985296249389648,0.6754040718078613,-0.8505997757946189,-1.3026605654167878,-1.8408379161523731,-0.6359649896621704,0.751676082611084,-0.1747327446937561,1.554489260577306
1727345165858,9i,15.371712865556084,2.5s : 4.3s,4.228722502803771,1.3669679242547188,2.755831241607666,2.014111042022705,-4.745396614074707,1.1773273944854736,-0.2865382432937622,0.6327695846557617,-0.7970244187929855,-1.2676945922011036,-1.8209667881032232,-0.6669818758964539,0.7152798175811768,-0.20859062671661377,1.5791077933687239
1727345165868,9i,15.371712865556084,2.5s : 4.3s,4.126962462725573,1.3070834279198766,2.548250675201416,1.9741649627685547,-4.661456108093262,1.1282742023468018,-0.32724708318710327,0.5730390548706055,-0.7441058636746407,-1.2375905879132165,-1.8063000956515127,-0.6952295899391174,0.677314281463623,-0.24062637984752655,1.6020320089035833
1727345165878,9i,15.371712865556084,2.5s : 4.3s,4.012455095216158,1.241465232381831,2.2815635204315186,1.9826128482818604,-4.556234836578369,1.0962388515472412,-0.29685837030410767,0.5013695359230042,-0.6926701951460911,-1.2116525903077906,-1.7968971098704474,-0.7204453349113464,0.6385942697525024,-0.2704735994338989,1.623668153304894
1727345165888,9i,15.371712865556084,2.5s : 4.3s,3.918295039099951,1.1779053359426173,2.080688953399658,2.013507604598999,-4.439313888549805,1.071287989616394,-0.2617822289466858,0.4138515293598175,-0.6429970794758713,-1.188477057548889,-1.7918256453407961,-0.7425220608711243,0.5995966792106628,-0.2985714375972748,1.6438462257767688
1727345165898,9i,15.371712865556084,2.5s : 4.3s,3.823984217731743,1.133042995820082,1.9227662086486816,1.9855034351348877,-4.323378086090088,1.0528860092163086,-0.24644023180007935,0.3383558690547943,-0.5949485501931102,-1.1672601261057103,-1.7897259319682066,-0.7616565823554993,0.5604661703109741,-0.3252028226852417,1.6627472736861566
1727345165908,9i,15.371712865556084,2.5s : 4.3s,3.7301505255979657,1.1094843042436333,1.8120455741882324,1.9167135953903198,-4.2029337882995605,1.0404061079025269,-0.2472538948059082,0.2955944240093231,-0.5485367671091432,-1.1477849142074286,-1.7898031498703166,-0.7780770063400269,0.521439254283905,-0.3502820134162903,1.6809225800134497
1727345165918,9i,15.371712865556084,2.5s : 4.3s,3.620803622663619,1.0985616365635054,1.7372899055480957,1.7940784692764282,-4.057718276977539,1.0284032821655273,-0.25700145959854126,0.2884000837802887,-0.5036588026894743,-1.1298803431788158,-1.7911841076355746,-0.7920597791671753,0.48263323307037354,-0.3737730383872986,1.6989297239973873
1727345165928,9i,15.371712865556084,2.5s : 4.3s,3.48737039567521,1.0831697148548816,1.6658165454864502,1.643462061882019,-3.871122121810913,1.0134879350662231,-0.26415467262268066,0.2762628197669983,-0.46066530184956894,-1.1137125639052796,-1.7933070031398535,-0.8038015365600586,0.4445441663265228,-0.39532721042633057,1.7166522057044684
1727345165938,9i,15.371712865556084,2.5s : 4.3s,3.407045826296077,1.0589978891725853,1.6555424928665161,1.5758506059646606,-3.725299835205078,0.9917973279953003,-0.2805560231208801,0.24311089515686035,-0.4194241382847054,-1.098701148589851,-1.7957189363866284,-0.8134219646453857,0.4072345793247223,-0.4153369069099426,1.7335980715711607
1727345165948,9i,15.371712865556084,2.5s : 4.3s,3.36323417459706,1.0333322686265245,1.6128203868865967,1.5638208389282227,-3.6430153846740723,0.9605165719985962,-0.30978840589523315,0.22184371948242188,-0.37928793508412545,-1.0840353292176643,-1.7982997558438973,-0.8210359215736389,0.3702591061592102,-0.43452078104019165,1.7497670205453968
1727345165958,9i,15.371712865556084,2.5s : 4.3s,3.3178464734444555,1.0133923154471831,1.3661197423934937,1.5669636726379395,-3.6333422660827637,0.9383069276809692,-0.32395049929618835,0.20396119356155396,-0.340275457773792,-1.0698611547620636,-1.8025446259889117,-0.8268413543701172,0.3337467610836029,-0.45271003246307373,1.765411672012857
1727345165968,9i,15.371712865556084,2.5s : 4.3s,3.2369938391402435,1.012287254717052,1.0207295417785645,1.531179666519165,-3.583001136779785,0.9344876408576965,-0.33929443359375,0.19062429666519165,-0.30303287533185813,-1.0567008647716125,-1.8100427490418376,-0.831063449382782,0.29841625690460205,-0.46934136748313904,1.7808705348029792
1727345165978,9i,15.371712865556084,2.5s : 4.3s,3.143680600255678,1.0382207156858192,0.7383060455322266,1.4748839139938354,-3.4725444316864014,0.9490243196487427,-0.37986496090888977,0.18154257535934448,-0.2681848828210219,-1.044584078978046,-1.820407948012607,-0.8338051438331604,0.26498162746429443,-0.48430752754211426,1.7963894663220155
1727345165988,9i,15.371712865556084,2.5s : 4.3s,3.0180306457667596,1.0794967534640378,0.5251858234405518,1.3205318450927734,-3.3033478260040283,0.9683621525764465,-0.43525516986846924,0.1952970027923584,-0.23594613255050068,-1.0334633557792525,-1.8325339672742615,-0.835274875164032,0.23376300930976868,-0.4976651966571808,1.8123714221853742
1727345165998,9i,15.371712865556084,2.5s : 4.3s,2.886536736830238,1.100355588521912,0.42926785349845886,1.133261799812317,-3.099233865737915,0.9669981598854065,-0.4719276428222656,0.2301766276359558,-0.2065787533207558,-1.0238777061004243,-1.8452686768531033,-0.8359708786010742,0.20511260628700256,-0.5090005397796631,1.8289327975822816
1727345166008,9i,15.371712865556084,2.5s : 4.3s,2.7719020103472043,1.074824836527238,0.4840657114982605,0.9464236497879028,-2.893012523651123,0.9325221180915833,-0.47566041350364685,0.2437172532081604,-0.17880601449462838,-1.01575838028269,-1.8573191175699313,-0.8363305926322937,0.1778547465801239,-0.5185738801956177,1.8453467067206344
1727345166018,9i,15.371712865556084,2.5s : 4.3s,2.7985715750450257,0.9903490438135907,0.5726137161254883,0.9470066428184509,-2.9120469093322754,0.8700395822525024,-0.42672884464263916,0.20426660776138306,-0.15167509433528706,-1.0081768155706132,-1.8682448382469043,-0.8361497521400452,0.1510942131280899,-0.5272799730300903,1.8605025252896512
1727345166028,9i,15.371712865556084,2.5s : 4.3s,2.817525423380912,0.8846799807044953,0.6433891654014587,0.8150944113731384,-2.9580447673797607,0.7951955795288086,-0.3552279770374298,0.15535682439804077,-0.12359366722751969,-1.0008528005228303,-1.8789828999164049,-0.8355092406272888,0.12327925115823746,-0.535468578338623,1.8740967013166376
1727345166038,9i,15.371712865556084,2.5s : 4.3s,2.7486820691785283,0.8059274314371616,0.731613278388977,0.7685881853103638,-2.7831273078918457,0.7373498678207397,-0.29628121852874756,0.13435637950897217,-0.09569798679837371,-0.9940874494341921,-1.888905310451379,-0.83442622423172,0.0955519825220108,-0.5427731871604919,1.8867528035216383
1727345166048,9i,15.371712865556084,2.5s : 4.3s,2.6626497197140355,0.7582874212456338,0.8301746249198914,0.8640120625495911,-2.5106117725372314,0.7062621116638184,-0.25821346044540405,0.09756767749786377,-0.06938067257718908,-0.986652429589728,-1.8968677852622413,-0.8321775197982788,0.0693250223994255,-0.5501586198806763,1.8985498650462138
1727345166058,9i,15.371712865556084,2.5s : 4.3s,2.6106719734249055,0.7512908321988128,0.8145706653594971,1.0689363479614258,-2.2875471115112305,0.6875192523002625,-0.2979784309864044,0.05444306135177612,-0.044835000213107726,-0.9775769852003805,-1.9032753474589814,-0.8283120393753052,0.04481998085975647,-0.5584714412689209,1.909339458169569
1727345166068,9i,15.371712865556084,2.5s : 4.3s,2.55982756174842,0.836824360817084,0.935658872127533,1.3657431602478027,-1.9051095247268677,0.6914886832237244,-0.47054603695869446,0.026548802852630615,-0.02277897444212583,-0.9653103807527422,-1.9079595959403177,-0.8220123052597046,0.022777004167437553,-0.5690140724182129,1.9193518452746032
1727345166078,9i,15.371712865556084,2.5s : 4.3s,2.3110105007917716,1.0430665531337464,0.5863133668899536,0.9064435362815857,-1.5611519813537598,0.7223687171936035,-0.7516565322875977,-0.03440535068511963,-0.0038844797759167923,-0.9535911617383014,-1.9112462470347946,-0.8154930472373962,0.0038844700902700424,-0.5787538886070251,1.928298576199325
1727345166088,9i,15.371712865556084,2.5s : 4.3s,2.099351848789543,1.1265807852381453,-0.07463366538286209,0.3748452067375183,-1.139074683189392,0.7415915131568909,-0.8479114174842834,0.01650822162628174,0.008442321610758323,-0.9473511899106019,-1.917120665461366,-0.8118429183959961,-0.008442221209406853,-0.583814799785614,1.9383407356623958
1727345166098,9i,15.371712865556084,2.5s : 4.3s,2.0601679168252196,1.0788009605897435,-0.42247897386550903,-0.013334481976926327,-0.8974521160125732,0.7561018466949463,-0.7675808668136597,0.054232120513916016,0.01502759502331241,-0.9454471647141925,-1.9250865499951573,-0.8106672167778015,-0.015027029439806938,-0.5853142738342285,1.9496428941395105
1727345166108,9i,15.371712865556084,2.5s : 4.3s,2.088306795541437,0.9548523742500694,-0.6042813062667847,-0.31329819560050964,-0.829053521156311,0.7097387909889221,-0.6380484104156494,0.03013521432876587,0.018904461961947852,-0.9470404071058279,-1.9343646476637646,-0.8115453720092773,-0.0189033355563879,-0.5839835405349731,1.9603144416071754
1727345166118,9i,15.371712865556084,2.5s : 4.3s,2.0809705645142915,0.8136781930767439,-0.5570120811462402,-0.3443956673145294,-0.7515049576759338,0.6545129418373108,-0.48255857825279236,0.028674542903900146,0.021868075826733703,-0.9502598611928077,-1.943804478277871,-0.8133720755577087,-0.0218663327395916,-0.5813326239585876,1.9705217417291503
1727345166128,9i,15.371712865556084,2.5s : 4.3s,2.030974188884587,0.736405822963783,-0.27379730343818665,-0.27315017580986023,-0.5459502339363098,0.6241341233253479,-0.38847237825393677,0.04288756847381592,0.024768533625492396,-0.9531453455887188,-1.9510708655339852,-0.8149909973144531,-0.024766001850366592,-0.5789440870285034,1.980722614215657
1727345166138,9i,15.371712865556084,2.5s : 4.3s,2.0003723822748927,0.7282091839631604,0.09579858183860779,-0.2440713793039322,-0.11515012383460999,0.6217654943466187,-0.3755494952201843,0.051564157009124756,0.027041569020613672,-0.9555985468448345,-1.9538072660164845,-0.8163607716560364,-0.027038274332880974,-0.576909065246582,1.9911196317680047
1727345166148,9i,15.371712865556084,2.5s : 4.3s,2.044995849536947,0.7843676226171385,0.3168310523033142,-0.36044877767562866,0.40277382731437683,0.6314156651496887,-0.4643276631832123,0.030767619609832764,0.027145866736331545,-0.9585825795348242,-1.9511365181319202,-0.8180763721466064,-0.027142532169818878,-0.5744688510894775,2.00130728003787
1727345166157,9i,15.371712865556084,2.5s : 4.3s,2.135048167901797,0.8983295564565621,0.18710260093212128,-0.6345085501670837,0.8406012058258057,0.6265554428100586,-0.6437479853630066,-0.0035777688026428223,0.023536123506805513,-0.9636892954074827,-1.945310154004223,-0.821074366569519,-0.023533951491117477,-0.5703358054161072,2.0107537165356444
1727345166167,9i,15.371712865556084,2.5s : 4.3s,2.2384507116601946,0.9898472542618807,-0.19260716438293457,-0.9029110074043274,1.1046713590621948,0.6055797934532166,-0.7816601991653442,-0.045585453510284424,0.015520465856589939,-0.9714883872513924,-1.9395949084005732,-0.8256267309188843,-0.015519842505455017,-0.5640032291412354,2.0192186376838808
1727345166177,9i,15.371712865556084,2.5s : 4.3s,2.3218664536616593,0.9769310098097732,-0.6234107613563538,-0.9375845789909363,1.2529326677322388,0.5957289934158325,-0.7739967703819275,-0.020740389823913574,0.0034078814690039296,-0.9808643582260393,-1.9365392416055218,-0.8309736251831055,-0.003407874843105674,-0.5563012361526489,2.028095649994564
1727345166187,9i,15.371712865556084,2.5s : 4.3s,2.367254183248697,0.9022930351792195,-0.7319009900093079,-0.818899393081665,1.4142472743988037,0.648943305015564,-0.6224570870399475,0.07451498508453369,-0.011495574721854336,-0.9896375957763215,-1.9349398025770443,-0.8357718586921692,0.011495321989059448,-0.548956573009491,2.0395832874972815
1727345166197,9i,15.371712865556084,2.5s : 4.3s,2.4417057633469885,0.9051570726278845,-0.8241156339645386,-0.710858166217804,1.6348203420639038,0.7651594281196594,-0.4299500286579132,0.22132182121276855,-0.028403695142823565,-0.9972114585597983,-1.9331556621711052,-0.8396221995353699,0.0283998753875494,-0.5424277782440186,2.0554482311958235
1727345166207,9i,15.371712865556084,2.5s : 4.3s,2.5643211382210023,1.0300803878526459,-0.8514823913574219,-0.6765236258506775,1.9607986211776733,0.9065414071083069,-0.2845216691493988,0.3978639245033264,-0.048044308600063104,-1.003916080363817,-1.9306543641723952,-0.8426070213317871,0.04802582785487175,-0.5363832712173462,2.0764467351478677
1727345166217,9i,15.371712865556084,2.5s : 4.3s,2.739272738466659,1.2019174781976931,-0.7309807538986206,-0.7962050437927246,2.3840460777282715,1.0468981266021729,-0.2526257038116455,0.5336573719978333,-0.07052485533811285,-1.0108777362189292,-1.9258011115833156,-0.8451920747756958,0.07046640664339066,-0.5297969579696655,2.101863884164893
1727345166227,9i,15.371712865556084,2.5s : 4.3s,3.04724140576553,1.3728773551308138,-0.7147725820541382,-1.0444005727767944,2.9891085624694824,1.1819490194320679,-0.3180795907974243,0.6217830181121826,-0.09694858072600304,-1.0193174981701971,-1.9176819567084429,-0.8477509617805481,0.09679678082466125,-0.5214870572090149,2.1308642096257304
1727345166237,9i,15.371712865556084,2.5s : 4.3s,3.4610942887831335,1.56188800825926,-0.848239541053772,-1.3598155975341797,3.6937084197998047,1.328826904296875,-0.49123549461364746,0.6575719714164734,-0.1294909051871862,-1.0300728332642024,-1.906953285152289,-0.85015869140625,0.1291293203830719,-0.5104467868804932,2.162878084571214
1727345166247,9i,15.371712865556084,2.5s : 4.3s,3.8109297999900504,1.7686465107416733,-1.0189262628555298,-1.5864448547363281,4.239754676818848,1.4638159275054932,-0.7575375437736511,0.6414750814437866,-0.16847449845164644,-1.0431061418817973,-1.8945344494520975,-0.8517400026321411,0.16767863929271698,-0.4964097738265991,2.1970174448458306
1727345166257,9i,15.371712865556084,2.5s : 4.3s,3.935976974121975,1.9608700714150462,-1.3590928316116333,-1.4006742238998413,4.418327331542969,1.5635392665863037,-1.010611891746521,0.6156460046768188,-0.21194809775604628,-1.056109838152274,-1.8828556251873259,-0.8509690165519714,0.21036480367183685,-0.48124656081199646,2.232697336554817
1727345166267,9i,15.371712865556084,2.5s : 4.3s,3.9392727530399716,2.0869933423644036,-1.961729645729065,-0.8978937864303589,4.2853546142578125,1.6504931449890137,-1.1402257680892944,0.5755856037139893,-0.2579606893650741,-1.065960654453806,-1.8757091730859115,-0.8462937474250793,0.2551092505455017,-0.46766024827957153,2.2696479361550184
1727345166277,9i,15.371712865556084,2.5s : 4.3s,4.059709491433291,2.184536243273561,-2.4797000885009766,-0.6130271553993225,4.270997047424316,1.767040491104126,-1.1754875183105469,0.5176829099655151,-0.3060679386109358,-1.073084367677384,-1.874990158665755,-0.8378413915634155,0.3013116419315338,-0.4552288055419922,2.308200211459376
1727345166287,9i,15.371712865556084,2.5s : 4.3s,4.23558274400352,2.3261242780603846,-2.476433753967285,-0.5878860950469971,4.593564510345459,1.9469184875488281,-1.1890861988067627,0.4543529152870178,-0.3566324010000955,-1.0793149180654722,-1.8761270272001043,-0.8261603116989136,0.34912052750587463,-0.4422374367713928,2.3494368250407858
1727345166297,9i,15.371712865556084,2.5s : 4.3s,4.609131340772992,2.497523203681464,-2.5243234634399414,-0.6422340273857117,5.258484840393066,2.161447048187256,-1.164363145828247,0.4582873284816742,-0.41152203818292654,-1.0849737187130388,-1.8748970133447087,-0.8104643821716309,0.4000047445297241,-0.4279528856277466,2.3949220187534173
1727345166307,9i,15.371712865556084,2.5s : 4.3s,5.171068316784412,2.7093696220150623,-2.9038238525390625,-0.7281490564346313,6.093310832977295,2.4056577682495117,-1.132350206375122,0.5208430290222168,-0.4741693226160412,-1.090589870374828,-1.8721212503448967,-0.7890499234199524,0.45659956336021423,-0.4109950363636017,2.4459953806740105
1727345166317,9i,15.371712865556084,2.5s : 4.3s,5.740934072490182,2.9723232942982487,-3.539062023162842,-0.7766513824462891,6.793003082275391,2.658445358276367,-1.1955362558364868,0.5814353823661804,-0.5461892183652288,-1.097573367766779,-1.8708495752846033,-0.7606029510498047,0.5194346308708191,-0.3894493579864502,2.5029280791573063
1727345166327,9i,15.371712865556084,2.5s : 4.3s,6.2034567667830185,3.2532096303104154,-4.180529594421387,-0.9295518398284912,7.244875907897949,2.867920398712158,-1.3597979545593262,0.7136911153793335,-0.6261818994966252,-1.1076211788045223,-1.8741225117042435,-0.7248996496200562,0.586055338382721,-0.3620218336582184,2.566107302498457
1727345166337,9i,15.371712865556084,2.5s : 4.3s,6.693844258986504,3.5463444041980603,-4.531501770019531,-1.655990481376648,7.796425819396973,3.051037549972534,-1.5433673858642578,0.9411405920982361,-0.7127507757024908,-1.1252936180925937,-1.8823718007359689,-0.6827207207679749,0.6539173722267151,-0.32601305842399597,2.636391571658965
1727345166347,9i,15.371712865556084,2.5s : 4.3s,7.268890034097507,3.807325675547822,-4.538898944854736,-2.4993135929107666,8.610013008117676,3.2491509914398193,-1.657866358757019,1.0909746885299683,-0.8060039641211509,-1.1527875551104143,-1.8919621319187345,-0.6327721476554871,0.7215261459350586,-0.28106874227523804,2.7129485474806474
1727345166357,9i,15.371712865556084,2.5s : 4.3s,7.903358836676705,3.9526104471731167,-4.512121677398682,-2.9232754707336426,9.615772247314453,3.394221067428589,-1.6478822231292725,1.1776573657989502,-0.9074109624820618,-1.1874857315685825,-1.901639119603863,-0.5711008906364441,0.7879120707511902,-0.230300173163414,2.793732053599168
1727345166367,9i,15.371712865556084,2.5s : 4.3s,8.677349722022342,4.103155148201663,-4.518307685852051,-3.068084716796875,10.906862258911133,3.545952081680298,-1.6034399271011353,1.3004177808761597,-1.0187558774730137,-1.2248442401312911,-1.9107124936126447,-0.49335479736328125,0.8514562249183655,-0.17782872915267944,2.8791690593197505
1727345166377,9i,15.371712865556084,2.5s : 4.3s,9.732512631193199,4.369751262325674,-4.572332382202148,-3.3719894886016846,12.58765983581543,3.81347918510437,-1.6038717031478882,1.407017469406128,-1.1443739779305497,-1.2685674072587907,-1.9238055322345828,-0.3948693871498108,0.910451352596283,-0.12311243265867233,2.971241359325232
1727345166387,9i,15.371712865556084,2.5s : 4.3s,10.617061737005173,4.978114254598609,-5.159448623657227,-3.0752885341644287,13.900482177734375,4.346194267272949,-1.947352647781372,1.4491496086120605,-1.284946230217631,-1.3284070372127772,-1.9527276265070728,-0.27373000979423523,0.9594222903251648,-0.06767990440130234,3.0750906078758087
1727345166397,9i,15.371712865556084,2.5s : 4.3s,11.439744651658456,5.869462213410649,-6.412511348724365,-2.976715326309204,14.761359214782715,5.206685543060303,-2.179689884185791,1.6093366146087646,-1.4352803088761221,-1.538321140584429,-2.136394141306865,-0.13503007590770721,0.990831732749939,-0.004386669024825096,3.1981605364811343
1727345166407,9i,15.371712865556084,2.5s : 4.3s,11.978948618598343,7.246886927473882,-6.147234916687012,-3.75419545173645,15.548648834228516,6.678807735443115,-1.8210639953613281,2.143507242202759,-1.5083457073987747,2.871909456569212,2.303371867508232,0.01662694290280342,0.9980505704879761,0.06015164405107498,3.354518430636559
1727345166417,9i,15.371712865556084,2.5s : 4.3s,13.094503988036408,8.69700462236661,-6.374235153198242,-5.0082197189331055,16.94459342956543,8.080039978027344,-0.35617202520370483,3.1974966526031494,-1.353586788338076,2.1497757139668705,1.6204054324289392,0.18038205802440643,0.9765025973320007,0.11791768670082092,3.545081009355299
1727345166427,9i,15.371712865556084,2.5s : 4.3s,14.191192209065278,10.124014378070333,-7.148048400878906,-5.888321399688721,18.16657829284668,9.238076210021973,1.511492371559143,3.856034994125366,-1.1673692734185557,2.0073821059225865,1.5283943756891107,0.35574978590011597,0.9197210073471069,0.165998637676239,3.760026746922697
1727345166437,9i,15.371712865556084,2.5s : 4.3s,15.371712865556084,10.725019498470623,-10.23769760131836,-6.811141490936279,18.390411376953125,9.89166259765625,1.9614262580871582,3.6515560150146484,-0.9652454986804373,1.9547473814386471,1.5409324268711189,0.5277715921401978,0.822188675403595,0.21322043240070343,3.985417152749558
1727345166447,9i,15.371712865556084,2.5s : 4.3s,15.255458671101943,10.834694449366488,-14.167084693908691,-6.774598598480225,15.188183784484863,10.422202110290527,0.6552548408508301,2.887723684310913,-0.7611806559877912,1.9447927142661894,1.6192933014669135,0.673973798751831,0.6897767186164856,0.2645131051540375,4.217154043698988
1727345166457,9i,15.371712865556084,2.5s : 4.3s,14.330591739893498,11.382584175199637,-16.228313446044922,-6.1397809982299805,10.525748252868652,11.122143745422363,-1.0572679042816162,2.177917718887329,-0.5862663739019804,1.9562775127420775,1.7408284394365166,0.7718836069107056,0.5532547235488892,0.3132167458534241,4.45986330414106
1727345166467,9i,15.371712865556084,2.5s : 4.3s,13.848390410945603,11.385309952721698,-16.202985763549805,-7.410981178283691,7.695189476013184,11.052603721618652,0.14646592736244202,2.7283294200897217,-0.4417855963267636,1.954696923183249,1.8745264814823002,0.8381888270378113,0.42755430936813354,0.3385802209377289,4.705505922715396
1727345166477,9i,15.371712865556084,2.5s : 4.3s,13.49207852628846,11.387029123525064,-15.955241203308105,-8.004048347473145,5.587385177612305,10.311410903930664,2.440591812133789,4.169262409210205,-0.3214942523085059,1.9284158540597847,2.0099123923749005,0.8887383937835693,0.3159846067428589,0.3321104645729065,4.9476604024647886
1727345166487,9i,15.371712865556084,2.5s : 4.3s,11.914471219571256,10.844836836600242,-13.262542724609375,-8.465921401977539,2.8477840423583984,9.220780372619629,2.6797711849212646,5.040488243103027,-0.2332417133333864,1.8807563294418255,2.140054247875206,0.9265584945678711,0.23113267123699188,0.29676130414009094,5.177869884563349
1727345166497,9i,15.371712865556084,2.5s : 4.3s,10.954135715125227,10.261687617291905,-10.462214469909668,-9.505066871643066,1.4011244773864746,8.64809513092041,2.4809157848358154,4.935356140136719,-0.18058648173487732,1.8136515038450405,2.2495893091240218,0.9548710584640503,0.17960654199123383,0.2365645170211792,5.396937903933313
1727345166507,9i,15.371712865556084,2.5s : 4.3s,10.738771361506206,10.239460398236325,-9.044536590576172,-10.211441040039062,0.08989384025335312,8.393743515014648,2.7576851844787598,5.175595760345459,-0.15385554557275158,1.7304114628517675,2.3437687774708933,0.9756262302398682,0.15324926376342773,0.15706078708171844,5.614046844551692
1727345166517,9i,15.371712865556084,2.5s : 4.3s,10.848177052444202,9.457805065168179,-8.455260276794434,-10.58074951171875,-1.6534053087234497,7.67570686340332,2.209745168685913,5.064644813537598,-0.15095014820479222,1.6406226155003973,2.432048743530327,0.9862192869186401,0.1503775417804718,0.06897617131471634,5.817021710096954
1727345166527,9i,15.371712865556084,2.5s : 4.3s,11.29005632341414,8.749869315928823,-8.336262702941895,-11.066509246826172,-3.308638572692871,7.12792444229126,1.6736007928848267,4.790821075439453,-0.1741872374924499,1.5472095107817527,2.5177614528541685,0.9845936298370361,0.17330773174762726,-0.023227736353874207,6.007124470419349
1727345166537,9i,15.371712865556084,2.5s : 4.3s,11.550331167148862,8.549293634250498,-7.774032115936279,-11.355301856994629,-4.658951759338379,6.89556884765625,1.7168426513671875,4.753314971923828,-0.2194700753773052,1.4502767309868854,2.5964355557924814,0.9689332246780396,0.21771244704723358,-0.11734412610530853,6.1925858560448575
1727345166547,9i,15.371712865556084,2.5s : 4.3s,11.319221367059079,8.106528409376331,-6.414723873138428,-10.941035270690918,-5.797051906585693,6.454588890075684,1.7631800174713135,4.576601505279541,-0.2828748073944235,1.354724136723589,2.6594452787064666,0.9379282593727112,0.2791173458099365,-0.20587413012981415,6.367823104011338
1727345166557,9i,15.371712865556084,2.5s : 4.3s,11.196785254733713,7.841693637301474,-4.256161212921143,-11.229476928710938,-6.267009258270264,6.156857490539551,1.760110855102539,4.526287078857422,-0.3552716265288716,1.2561113660989396,2.6971278567710244,0.8915125131607056,0.34784504771232605,-0.2901882231235504,6.5370043442016925
1727345166567,9i,15.371712865556084,2.5s : 4.3s,11.444964409106301,8.027473416265957,-2.3102211952209473,-12.335458755493164,-5.781202793121338,5.994003772735596,1.8395030498504639,5.012831211090088,-0.4247566677274869,1.142867270352194,2.705530917056471,0.8289788961410522,0.41209909319877625,-0.3781112730503082,6.708565419833509
1727345166577,9i,15.371712865556084,2.5s : 4.3s,11.220572008764442,7.895404108716557,-0.14220990240573883,-12.262286186218262,-4.927961349487305,5.317854881286621,1.8404626846313477,5.538097381591797,-0.4843448192130314,1.0136228682571133,2.686285752128487,0.751129686832428,0.46562862396240234,-0.46796801686286926,6.873063980500794
1727345166587,9i,15.371712865556084,2.5s : 4.3s,11.258179848705012,7.222715386518642,1.577921748161316,-12.190678596496582,-4.575235843658447,4.436433792114258,1.8834385871887207,5.379436016082764,-0.5264548599415517,0.868808928653686,2.6414814147085544,0.6601695418357849,0.502471387386322,-0.558299720287323,7.0192842428116045
1727345166597,9i,15.371712865556084,2.5s : 4.3s,11.293259115882352,6.44516180891325,1.1411899328231812,-12.078500747680664,-4.749364852905273,3.818763256072998,1.968700885772705,4.80430793762207,-0.5513678636055339,0.7192603774891572,2.5894354086816254,0.5611958503723145,0.5238528847694397,-0.640809953212738,7.147802346628927
1727345166607,9i,15.371712865556084,2.5s : 4.3s,11.14879501356698,5.564938743823323,0.17272505164146423,-11.479117393493652,-5.199128150939941,3.6142284870147705,1.2019402980804443,4.057244777679443,-0.5759619252493605,0.5751977902332364,2.538751736626991,0.45623645186424255,0.5446417927742004,-0.7037141919136047,7.264018579801061
1727345166617,9i,15.371712865556084,2.5s : 4.3s,10.930372054951455,5.055502047787775,0.6950079798698425,-10.70826244354248,-5.421658992767334,3.6480932235717773,0.1520167589187622,3.4966280460357666,-0.5984666112187993,0.43157984339026595,2.480672114760405,0.34560486674308777,0.563376247882843,-0.7504428625106812,7.374100133406608
1727345166627,9i,15.371712865556084,2.5s : 4.3s,11.1374191275489,4.984614065940049,1.9989269971847534,-10.894852638244629,-5.330483436584473,3.6021976470947266,0.3927881121635437,3.422903299331665,-0.6051826275832556,0.2852108615264283,2.4144235375745895,0.23138980567455292,0.5689122676849365,-0.789175271987915,7.482689946193822
1727345166637,9i,15.371712865556084,2.5s : 4.3s,11.405818679124433,5.058967577062104,3.6717519760131836,-10.977452278137207,-5.190178394317627,3.4445130825042725,0.823293149471283,3.6125712394714355,-0.5880360967620205,0.1369517188492328,2.3451242922164663,0.11359231173992157,0.554728090763092,-0.8242412209510803,7.590805583601333
1727345166647,9i,15.371712865556084,2.5s : 4.3s,11.459154511315178,4.9807338155726875,4.202432155609131,-10.817117691040039,-5.034212589263916,3.4005846977233887,0.8469534516334534,3.5392658710479736,-0.5513290232771064,-0.006390028963783717,2.282016496815857,-0.0054431757889688015,0.5238198041915894,-0.8518117070198059,7.69739266011863
1727345166657,9i,15.371712865556084,2.5s : 4.3s,11.371836933759358,4.682175664748994,3.745666980743408,-10.271971702575684,-5.703963756561279,3.3819262981414795,0.6365902423858643,3.1749167442321777,-0.5071564859792768,-0.14051011045587122,2.227190766697909,-0.12242022156715393,0.4856936037540436,-0.8655142784118652,7.7993529276310305
1727345166667,9i,15.371712865556084,2.5s : 4.3s,11.098125817747949,4.209719461148719,3.408601760864258,-9.362339973449707,-5.993833541870117,3.1256918907165527,0.34252631664276123,2.79901123046875,-0.460776765929735,-0.26369400119858927,2.175852714684405,-0.23346491158008575,0.4446440041065216,-0.86474609375,7.8918836777696955
1727345166677,9i,15.371712865556084,2.5s : 4.3s,10.779410072454425,4.098108310402847,3.2094571590423584,-8.84718132019043,-5.289093494415283,3.0334463119506836,0.5161634087562561,2.7067084312438965,-0.41168849070059826,-0.3738468405935884,2.130466675835913,-0.3346855640411377,0.40015730261802673,-0.8531469702720642,7.98174687574099
1727345166687,9i,15.371712865556084,2.5s : 4.3s,10.497920609053784,4.185406253002993,3.3071060180664062,-8.10649299621582,-4.831009387969971,3.1044349670410156,0.7669600248336792,2.700348377227783,-0.3617590981290315,-0.471976284084405,2.0937776797734666,-0.42522066831588745,0.35392001271247864,-0.8330234289169312,8.073125880470803
1727345166697,9i,15.371712865556084,2.5s : 4.3s,10.393626200881767,4.2528138448749395,3.9658915996551514,-7.680203914642334,-4.139881134033203,3.0937905311584473,1.1027113199234009,2.7016501426696777,-0.30840433336442774,-0.5581166092459023,2.071467205448893,-0.5046030282974243,0.30353865027427673,-0.8082326650619507,8.164656812570401
1727345166707,9i,15.371712865556084,2.5s : 4.3s,10.278468282165798,4.0696830440847265,4.597405433654785,-7.044092655181885,-3.559323310852051,2.806347131729126,1.1843147277832031,2.69891357421875,-0.25136845598020363,-0.6338850749234489,2.0637587924848164,-0.573665976524353,0.2487296462059021,-0.7804107666015625,8.250863706075735
1727345166716,9i,15.371712865556084,2.5s : 4.3s,10.121851187724767,3.7385093357150407,4.720580577850342,-6.377265930175781,-3.235334873199463,2.4766387939453125,0.9697204232215881,2.6272332668304443,-0.1937514023553391,-0.7003970556440199,2.066242922631833,-0.6324615478515625,0.1925414502620697,-0.7502800226211548,8.329870345850741
1727345166726,9i,15.371712865556084,2.5s : 4.3s,9.921016264673758,3.5905292740172086,4.493507385253906,-5.677136421203613,-3.0381736755371094,2.3212640285491943,0.6842517852783203,2.6524391174316406,-0.13862514645834603,-0.7593269577795473,2.073826376145911,-0.6818292140960693,0.13818158209323883,-0.7183416485786438,8.406041108488369
1727345166736,9i,15.371712865556084,2.5s : 4.3s,9.810656424131382,3.4860791594122147,4.483517169952393,-5.1670241355896,-2.69299578666687,2.173311710357666,0.33622467517852783,2.704887628555298,-0.08632199080010851,-0.8117791663580108,2.0844823047607983,-0.7228113412857056,0.0862148255109787,-0.6856462359428406,8.479768478818848
1727345166746,9i,15.371712865556084,2.5s : 4.3s,9.726365509639683,3.4667761456849173,4.725468635559082,-4.337978839874268,-2.5476837158203125,2.1070191860198975,0.14283686876296997,2.7492916584014893,-0.03345410377790951,-0.8584203461400947,2.098741687159983,-0.7563875317573547,0.03344786539673805,-0.653268039226532,8.55266037201634
1727345166756,9i,15.371712865556084,2.5s : 4.3s,9.658470235188371,3.394915258550901,4.843778610229492,-3.4357404708862305,-2.6006507873535156,1.9582014083862305,0.2744680941104889,2.7596311569213867,0.01825885170426193,-0.9004453344517007,2.118122630418447,-0.783473014831543,-0.018257837742567062,-0.6211575269699097,8.623099379840703
1727345166766,9i,15.371712865556084,2.5s : 4.3s,9.6872220157819,3.3135973800417684,4.899356365203857,-3.2403275966644287,-2.483569860458374,1.7854392528533936,0.40474241971969604,2.7619409561157227,0.06662647516987631,-0.9383899998878116,2.1422179026568338,-0.8048178553581238,-0.06657719612121582,-0.5897759795188904,8.690558202486962
1727345166776,9i,15.371712865556084,2.5s : 4.3s,9.684869635414394,3.1566071786279046,4.915857791900635,-3.109097719192505,-2.0621185302734375,1.67823326587677,0.25470811128616333,2.661357879638672,0.11302668380461109,-0.9730746563587922,2.169059077188819,-0.8213455080986023,-0.1127861812710762,-0.5591698288917542,8.754730983313236
1727345166786,9i,15.371712865556084,2.5s : 4.3s,9.88053597840645,2.946062819230837,5.509900093078613,-3.372692346572876,-1.5864646434783936,1.5685738325119019,-0.05336485803127289,2.4931936264038086,0.1565635539414181,-1.009503032333058,2.202507221370805,-0.8362129926681519,-0.1559247225522995,-0.5257711410522461,8.814564178545876
1727345166796,9i,15.371712865556084,2.5s : 4.3s,10.23573911352271,2.6910163229246793,6.33295202255249,-4.082878112792969,-1.1062817573547363,1.4142029285430908,-0.3406944274902344,2.263962507247925,0.19908549397676306,-1.054510766473707,2.248289628795278,-0.8524811267852783,-0.19777296483516693,-0.4839024841785431,8.868482327733183
1727345166806,9i,15.371712865556084,2.5s : 4.3s,10.003923020603334,2.5344335021005944,4.842177867889404,-4.612082481384277,-0.9668176174163818,1.1572880744934082,-0.32085737586021423,2.231835126876831,0.23436763600106722,-1.108144499980557,2.294059887622834,-0.8704074621200562,-0.23222795128822327,-0.4341208338737488,8.917327062968461
1727345166816,9i,15.371712865556084,2.5s : 4.3s,9.678270824915947,2.6456995937698413,3.525373697280884,-4.027576923370361,-0.9710879921913147,0.8142609000205994,-0.25852322578430176,2.5039710998535156,0.26077996757229854,-1.160327357375641,2.3287047601674393,-0.8859315514564514,-0.25783422589302063,-0.38554754853248596,8.96336132707061
1727345166826,9i,15.371712865556084,2.5s : 4.3s,9.39588691148312,2.4034654917584666,2.7451517581939697,-2.84688138961792,-0.6843581795692444,0.5022733211517334,-0.30615609884262085,2.3303725719451904,0.2792778354460678,-1.2007677772185081,2.354747356063108,-0.8961942195892334,-0.27566152811050415,-0.3476301431655884,9.001556183574472
1727345166836,9i,15.371712865556084,2.5s : 4.3s,9.261194919681865,1.8911073723275416,2.280876636505127,-1.9469029903411865,-0.6096064448356628,0.3261900544166565,-0.23280993103981018,1.8481576442718506,0.29376653394551927,-1.2304457953749914,2.3768725816217287,-0.902255117893219,-0.2895594537258148,-0.31951677799224854,9.03063905089284
1727345166846,9i,15.371712865556084,2.5s : 4.3s,9.206363476046194,1.459936003992721,1.8974640369415283,-1.4361581802368164,-0.7296817302703857,0.269897997379303,-0.13115647435188293,1.4287638664245605,0.30680043267549895,-1.2525212140795567,2.3954073026532186,-0.9054265022277832,-0.30201002955436707,-0.29831647872924805,9.053565241721097
1727345166856,9i,15.371712865556084,2.5s : 4.3s,9.208864371585761,1.3182012087723687,1.6169487237930298,-1.451681137084961,-0.8123456835746765,0.3767949342727661,-0.1352826952934265,1.2559373378753662,0.31946442394868146,-1.271203359735615,2.410353070901578,-0.9071140885353088,-0.3140581250190735,-0.28019875288009644,9.07631426643767
1727345166866,9i,15.371712865556084,2.5s : 4.3s,9.197842188654285,1.3763219346186752,1.001884937286377,-1.5834364891052246,-0.6272937059402466,0.5273976922035217,-0.21661746501922607,1.2526733875274658,0.3303754198349754,-1.2900342995862533,2.4216851413297014,-0.9088826775550842,-0.3243981599807739,-0.2621031701564789,9.101751829393532
1727345166876,9i,15.371712865556084,2.5s : 4.3s,9.194772147455485,1.5481709267231711,0.46624863147735596,-1.521618127822876,-0.24759428203105927,0.6433092951774597,-0.2483678162097931,1.3861095905303955,0.3363696572232212,-1.3074123269508362,2.4274215607434235,-0.9114061594009399,-0.3300623893737793,-0.24575912952423096,9.13102505827696
1727345166886,9i,15.371712865556084,2.5s : 4.3s,9.229648186684047,1.5940894079301473,0.5078427195549011,-1.591220498085022,-0.040867701172828674,0.6775941252708435,-0.2867061197757721,1.4141381978988647,0.33872188973579237,-1.3243619259172843,2.4318865191740877,-0.914685070514679,-0.3322818875312805,-0.230086550116539,9.161289482937486
1727345166896,9i,15.371712865556084,2.5s : 4.3s,9.260454865675566,1.4732995098859012,0.7262072563171387,-1.5510059595108032,0.022894231602549553,0.6045759320259094,-0.31440162658691406,1.306235432624817,0.34019361318378744,-1.342309573237397,2.438110035577743,-0.9181897640228271,-0.33366960287094116,-0.21352294087409973,9.188847056597847
1727345166906,9i,15.371712865556084,2.5s : 4.3s,9.277137114374975,1.4924637370019724,0.9498802423477173,-1.2708300352096558,0.1375865489244461,0.51039057970047,-0.3465876281261444,1.3589799404144287,0.3412404409642267,-1.3595179957318613,2.4470877374679953,-0.9213860034942627,-0.3346562683582306,-0.19761815667152405,9.21537234840725
1727345166916,9i,15.371712865556084,2.5s : 4.3s,9.28499409096764,1.4551418800562317,0.9664895534515381,-0.940290629863739,0.20041878521442413,0.40061241388320923,-0.3649817407131195,1.3504576683044434,0.3415079820553957,-1.3739266222729172,2.4574859573767576,-0.9240499138832092,-0.3349083662033081,-0.18430468440055847,9.239814693715072
1727345166926,9i,15.371712865556084,2.5s : 4.3s,9.295253306902596,1.1695721430113162,0.9797453880310059,-0.6858814358711243,0.3105098009109497,0.25726962089538574,-0.36673715710639954,1.0803773403167725,0.34079483782756975,-1.3855693270468903,2.468069206287175,-0.9263674020767212,-0.3342363238334656,-0.1735779047012329,9.258194222141102
1727345166936,9i,15.371712865556084,2.5s : 4.3s,9.306420085443508,0.857108919678542,1.0729639530181885,-0.46858879923820496,0.3192894458770752,0.15621978044509888,-0.349122017621994,0.7670364379882812,0.33949064179319965,-1.3949023447936941,2.4793313535400636,-0.9283754229545593,-0.3330068588256836,-0.1650008112192154,9.27071680092187
1727345166946,9i,15.371712865556084,2.5s : 4.3s,9.31875626401836,0.6665416408150988,1.1432082653045654,-0.4458797574043274,0.2882898151874542,0.12291520833969116,-0.30102071166038513,0.5818557739257812,0.3383640622728338,-1.4034441566377498,2.4914714886392804,-0.9301203489303589,-0.3319443464279175,-0.1571272760629654,9.280284496283787
1727345166956,9i,15.371712865556084,2.5s : 4.3s,9.324959109080787,0.556056176323168,1.05827796459198,-0.5511623024940491,0.22947603464126587,0.1517886519432068,-0.2176201045513153,0.48867183923721313,0.33759969096753284,-1.4123050046881065,2.5035938793070884,-0.931726336479187,-0.3312232196331024,-0.14891955256462097,9.289239364702393
1727345166966,9i,15.371712865556084,2.5s : 4.3s,9.328250619481484,0.5682323313517331,0.8751006126403809,-0.6219441890716553,0.21217210590839386,0.1955433487892151,-0.16153565049171448,0.5084850192070007,0.3369133835945654,-1.4216777410370256,2.5140268155189944,-0.9333058595657349,-0.3305755853652954,-0.14021408557891846,9.299295913855762
1727345166976,9i,15.371712865556084,2.5s : 4.3s,9.329747186659255,0.6089724487980236,0.6305307745933533,-0.6000891923904419,0.2501743733882904,0.20508825778961182,-0.19134530425071716,0.5405305027961731,0.33578824744569064,-1.430586634643427,2.522405552874442,-0.9348857402801514,-0.3295134902000427,-0.13194580376148224,9.309928899933185
1727345166986,9i,15.371712865556084,2.5s : 4.3s,9.32987174314753,0.6067014649122084,0.32246527075767517,-0.4571343958377838,0.34667423367500305,0.14843147993087769,-0.2475312054157257,0.5336506962776184,0.3335071738760369,-1.437738245424347,2.5277474309830974,-0.9365479946136475,-0.3273589611053467,-0.12535594403743744,9.319412119923069
1727345166996,9i,15.371712865556084,2.5s : 4.3s,9.334566442100266,0.5748475068679684,0.14180389046669006,-0.2383951097726822,0.4819790720939636,0.07528883218765259,-0.27567264437675476,0.4987843632698059,0.3296295706668543,-1.4421296840379805,2.5306340980453292,-0.9383411407470703,-0.32369256019592285,-0.12140389531850815,9.327103629882727
1727345167006,9i,15.371712865556084,2.5s : 4.3s,9.34268277781426,0.47501446790373336,0.16221721470355988,-0.1707584708929062,0.5958507657051086,0.027042746543884277,-0.2397221028804779,0.4091952443122864,0.3245226295725475,-1.4447283543278409,2.532840704122438,-0.9402812123298645,-0.3188563585281372,-0.11917135119438171,9.332783476534448
1727345167016,9i,15.371712865556084,2.5s : 4.3s,9.348318878755258,0.3585887839415291,0.19253970682621002,-0.18260979652404785,0.6548035144805908,-0.02296745777130127,-0.1811157763004303,0.308634877204895,0.3184405180969625,-1.447386482614821,2.5355879567338864,-0.9425018429756165,-0.3130858540534973,-0.11690811067819595,9.336287117257788
1727345167026,9i,15.371712865556084,2.5s : 4.3s,9.35174307796549,0.3447748647524996,0.15765276551246643,-0.245130255818367,0.6679138541221619,-0.05808603763580322,-0.17380443215370178,0.2920406460762024,0.31208732683560403,-1.4503330282751938,2.5383270467257173,-0.944797933101654,-0.3070457875728607,-0.11436722427606583,9.338947408623667
1727345167036,9i,15.371712865556084,2.5s : 4.3s,9.354559576698648,0.3966276214901597,0.007704549469053745,-0.26059815287590027,0.6795127391815186,-0.074928879737854,-0.20519331097602844,0.3310511112213135,0.3055189423487274,-1.4534772706429646,2.5400602891216706,-0.947135329246521,-0.30078813433647156,-0.11162963509559631,9.341800157115408
1727345167046,9i,15.371712865556084,2.5s : 4.3s,9.36057457308936,0.4743811894499684,-0.16634641587734222,-0.18324726819992065,0.7570807933807373,-0.07935845851898193,-0.26038026809692383,0.38851237297058105,0.2983793628812293,-1.4557516230820038,2.54012112462349,-0.9494958519935608,-0.29397156834602356,-0.10971894860267639,9.345300621995538
1727345167056,9i,15.371712865556084,2.5s : 4.3s,9.371947720655545,0.54163515473704,-0.2634764015674591,-0.11703016608953476,0.9242543578147888,-0.0751766562461853,-0.3204074501991272,0.4301815629005432,0.28983456284211534,-1.456838365191209,2.5387892456848844,-0.9520754814147949,-0.2857936918735504,-0.10896869003772736,9.349399024575904
1727345167066,9i,15.371712865556084,2.5s : 4.3s,9.384308190809449,0.5581037798742521,-0.19213667511940002,-0.09221918135881424,1.1107932329177856,-0.07587277889251709,-0.3402467966079712,0.43583858013153076,0.27946563521503365,-1.4575087804953049,2.5375341858412237,-0.9550414681434631,-0.2758420407772064,-0.10865955054759979,9.353561568114895
1727345167076,9i,15.371712865556084,2.5s : 4.3s,9.392088419814492,0.5084887218166699,-0.06260210275650024,0.011798834428191185,1.2046767473220825,-0.09331703186035156,-0.28404927253723145,0.41130125522613525,0.26775303873684114,-1.4580267490096057,2.537563572217081,-0.9582424163818359,-0.26456519961357117,-0.1085209995508194,9.357132416739598
1727345167086,9i,15.371712865556084,2.5s : 4.3s,9.394560690963488,0.45259983206042886,0.08145720511674881,0.18675298988819122,1.1877638101577759,-0.13725006580352783,-0.18580138683319092,0.3892131447792053,0.25585425895103847,-1.4573644886442025,2.5390503762651724,-0.9612302780151367,-0.25307196378707886,-0.10950417816638947,9.359686323598067
1727345167096,9i,15.371712865556084,2.5s : 4.3s,9.39845047706672,0.41755410215162325,0.21467171609401703,0.5424883961677551,1.1085174083709717,-0.19445353746414185,-0.10996711254119873,0.35276973247528076,0.2445442647095202,-1.454722731057879,2.5420192823326233,-0.9637190103530884,-0.24211417138576508,-0.1123674288392067,9.360779118347258
1727345167106,9i,15.371712865556084,2.5s : 4.3s,9.396455646408398,0.3835711883802432,0.12777136266231537,0.7653915882110596,0.9439128637313843,-0.22622829675674438,-0.08241692185401917,0.29858845472335815,0.2346411196334178,-1.44860250995284,2.545110004322115,-0.9653457403182983,-0.23249395191669464,-0.1185498982667923,9.360606282136594
1727345167116,9i,15.371712865556084,2.5s : 4.3s,9.393842588800474,0.3489800019251481,-0.035357099026441574,0.8438488245010376,0.8299540281295776,-0.20585453510284424,-0.1254083514213562,0.25235629081726074,0.22588823695905502,-1.4409140914700955,2.546736582445918,-0.966386616230011,-0.2239721268415451,-0.12622703611850739,9.360171834021722
1727345167126,9i,15.371712865556084,2.5s : 4.3s,9.39004440665751,0.334365961604928,-0.16597849130630493,0.7235127687454224,0.8201267123222351,-0.12091207504272461,-0.23033590614795685,0.21006245911121368,0.21769913571048546,-1.4329202419463158,2.5468014362641536,-0.9671310186386108,-0.21598364412784576,-0.13419565558433533,9.360655536288117
1727345167136,9i,15.371712865556084,2.5s : 4.3s,9.393155214579506,0.37392990168841506,-0.25091469287872314,0.40392622351646423,1.0188935995101929,-0.026042580604553223,-0.3089040517807007,0.20910198986530304,0.20848741209432345,-1.4270207868986924,2.5459624844265853,-0.9682504534721375,-0.20698030292987823,-0.14017796516418457,9.362798974201752
1727345167146,9i,15.371712865556084,2.5s : 4.3s,9.41550127544164,0.38671111961691146,-0.2896318733692169,0.14133544266223907,1.4035223722457886,0.005614876747131348,-0.3119008541107178,0.22854281961917877,0.19608235229067716,-1.4243375149425432,2.5449966836693436,-0.9703364968299866,-0.19482825696468353,-0.14313924312591553,9.365775699874872
1727345167156,9i,15.371712865556084,2.5s : 4.3s,9.429061192610366,0.39085332294253905,-0.2427849918603897,0.3764326274394989,1.5203909873962402,-0.03284698724746704,-0.2627986669540405,0.2874443531036377,0.18109111203521552,-1.4218235904068615,2.5444801715084497,-0.9727529883384705,-0.18010294437408447,-0.14599528908729553,9.368874392300908
1727345167166,9i,15.371712865556084,2.5s : 4.3s,9.440606273494565,0.3945458488310461,-0.13301528990268707,0.6230356693267822,1.5764716863632202,-0.10070168972015381,-0.18725275993347168,0.3323582410812378,0.16546038473601818,-1.4168429590222453,2.5449847462371666,-0.9746765494346619,-0.16470643877983093,-0.15125159919261932,9.371393898845374
1727345167176,9i,15.371712865556084,2.5s : 4.3s,9.43991951045423,0.35317796966667037,-0.05179952085018158,0.813129186630249,1.451636552810669,-0.11384326219558716,-0.09159664809703827,0.32153451442718506,0.1503016023944973,-1.4098940442822159,2.5464717639928565,-0.9759545922279358,-0.14973634481430054,-0.158402681350708,9.37358563398584
1727345167186,9i,15.371712865556084,2.5s : 4.3s,9.439670546669946,0.30713284146165903,0.03185608983039856,0.9670636653900146,1.3156969547271729,-0.08863472938537598,-0.05122709274291992,0.28956907987594604,0.13671366170124777,-1.4013102660305354,2.5486698994664287,-0.9764745235443115,-0.13628818094730377,-0.1671019196510315,9.375828776069103
1727345167196,9i,15.371712865556084,2.5s : 4.3s,9.440727192407374,0.2688404853336337,0.025821633636951447,0.9923370480537415,1.2601112127304077,-0.004368960857391357,-0.07691700011491776,0.25756531953811646,0.12416166021005057,-1.3917303713586902,2.551261184697936,-0.9764354825019836,-0.12384288758039474,-0.1767394244670868,9.37914978240244
1727345167206,9i,15.371712865556084,2.5s : 4.3s,9.443541826889383,0.3208585663857042,-0.06582566350698471,0.8869937062263489,1.2965333461761475,0.10408836603164673,-0.157085120677948,0.25969231128692627,0.11164030274384701,-1.38263814366342,2.553469750660352,-0.976235032081604,-0.1114085391163826,-0.1858854740858078,9.38441122823388
1727345167216,9i,15.371712865556084,2.5s : 4.3s,9.453488443176678,0.4155334931983755,-0.22685395181179047,0.7999099493026733,1.3820172548294067,0.17122501134872437,-0.23664304614067078,0.2955505847930908,0.09823161449590775,-1.3743311980879895,2.554625573836589,-0.9760345816612244,-0.09807371348142624,-0.19426262378692627,9.391323118156889
1727345167226,9i,15.371712865556084,2.5s : 4.3s,9.466669251258327,0.4576946555725971,-0.2803795039653778,0.744109034538269,1.4852081537246704,0.17957723140716553,-0.25403255224227905,0.3357139825820923,0.0836963090536781,-1.3667492142414435,2.5548785537044743,-0.9758265018463135,-0.08359862864017487,-0.20192478597164154,9.398918075768226
1727345167236,9i,15.371712865556084,2.5s : 4.3s,9.487403816783502,0.44021305613029943,-0.17564643919467926,0.9167785048484802,1.5917340517044067,0.13862866163253784,-0.19731318950653076,0.3682894706726074,0.06816620355892244,-1.358664197640169,2.5557505592559306,-0.9753138422966003,-0.06811342388391495,-0.21005572378635406,9.4062430101751
1727345167246,9i,15.371712865556084,2.5s : 4.3s,9.50241338616099,0.36525255176159943,-0.028312640264630318,1.1690930128097534,1.5593149662017822,0.05929642915725708,-0.08422492444515228,0.35042762756347656,0.05242630062083752,-1.3483943091780757,2.558258039258058,-0.9740303158760071,-0.05240228772163391,-0.2202700525522232,9.411958194005212
1727345167256,9i,15.371712865556084,2.5s : 4.3s,9.510145741334425,0.34288516995590873,-0.056033216416835785,1.435692548751831,1.3621728420257568,0.018546104431152344,0.010961361229419708,0.34220772981643677,0.038131237767402265,-1.3355386371617533,2.561245637885727,-0.9717473983764648,-0.03812199831008911,-0.23292414844036102,9.416876100846418
1727345167265,9i,15.371712865556084,2.5s : 4.3s,9.523121689237403,0.3278613358706067,-0.10138098895549774,1.6598753929138184,1.222760796546936,0.03469550609588623,0.046175725758075714,0.3227337598800659,0.025457047631888854,-1.3201021881228174,2.563541689722138,-0.9684265851974487,-0.02545429766178131,-0.24799609184265137,9.421840438186223
1727345167275,9i,15.371712865556084,2.5s : 4.3s,9.5325456499402,0.28651675344884264,-0.12114297598600388,1.742669701576233,1.1716253757476807,0.11859571933746338,-0.005301663652062416,0.26076579093933105,0.013665428651991753,-1.303065192040237,2.565554793863103,-0.9642835259437561,-0.013665003702044487,-0.2645193934440613,9.427457118597696
1727345167285,9i,15.371712865556084,2.5s : 4.3s,9.537528747405721,0.3296040906220576,-0.23641636967658997,1.7134838104248047,1.1625968217849731,0.2300892472267151,-0.09668223559856415,0.21529129147529602,0.002011616879767724,-1.2857895042977383,2.5670711047883894,-0.9596577882766724,-0.002011615550145507,-0.28116342425346375,9.434422712790402
1727345167295,9i,15.371712865556084,2.5s : 4.3s,9.543422117099844,0.43165181611136005,-0.43851062655448914,1.645766019821167,1.1493982076644897,0.33569931983947754,-0.16244789958000183,0.21734750270843506,-0.010028034591220264,-1.269025361132792,2.567203139023281,-0.954763650894165,0.010027866810560226,-0.2971966564655304,9.443280386849704
1727345167305,9i,15.371712865556084,2.5s : 4.3s,9.549496093344942,0.5281109596123293,-0.657265305519104,1.4774185419082642,1.18833589553833,0.4094069004058838,-0.20420822501182556,0.26379191875457764,-0.022737408172685616,-1.2533718181850992,2.5655104040571257,-0.9497969150543213,0.02273544855415821,-0.3120401203632355,9.454065503530542
1727345167315,9i,15.371712865556084,2.5s : 4.3s,9.561283235847377,0.5777932174150846,-0.8366691470146179,1.3276524543762207,1.2505336999893188,0.42755788564682007,-0.21466976404190063,0.32396936416625977,-0.036699475830164606,-1.2394489168925669,2.562262003764179,-0.9449681639671326,0.03669123724102974,-0.3250983953475952,9.465980864673142
1727345167325,9i,15.371712865556084,2.5s : 4.3s,9.578795075182251,0.5533398085759028,-0.7263920903205872,1.3442597389221191,1.3990893363952637,0.37112730741500854,-0.19947879016399384,0.3586888313293457,-0.05170518360434835,-1.226533560518641,2.55901320805086,-0.9400665760040283,0.05168214812874794,-0.33705174922943115,9.477359839541231
1727345167335,9i,15.371712865556084,2.5s : 4.3s,9.609560160102195,0.44482969050938626,-0.5650644302368164,1.5675508975982666,1.5632128715515137,0.2561344504356384,-0.13038739562034607,0.3395110070705414,-0.06789375753917276,-1.212075005224508,2.5582391884512607,-0.9341892004013062,0.06784161180257797,-0.3502683639526367,9.486450721157594
1727345167345,9i,15.371712865556084,2.5s : 4.3s,9.627727267512737,0.3413782659279859,-0.5500932335853577,1.8642370700836182,1.394017219543457,0.1287480592727661,-0.025762267410755157,0.3151180148124695,-0.0837826236420362,-1.1949942689397866,2.558443570115147,-0.9269505739212036,0.08368463814258575,-0.3657313287258148,9.492973927622176
1727345167355,9i,15.371712865556084,2.5s : 4.3s,9.651676063798623,0.3209485549058189,-0.5001653432846069,2.2099246978759766,1.1819158792495728,0.04860186576843262,0.03666406869888306,0.31512153148651123,-0.0976309636128287,-1.174631586767078,2.558338943035892,-0.9181544780731201,0.09747593849897385,-0.3840453624725342,9.49808781909531
1727345167365,9i,15.371712865556084,2.5s : 4.3s,9.67267550739337,0.3002780080254457,-0.37267839908599854,2.436697244644165,1.0633959770202637,0.08435261249542236,0.056134648621082306,0.2826666235923767,-0.10962741487172085,-1.1513297892461134,2.5587523462589115,-0.9078236818313599,0.10940796136856079,-0.40482839941978455,9.503414346221142
1727345167375,9i,15.371712865556084,2.5s : 4.3s,9.686015206870618,0.308244948928001,-0.318430095911026,2.521224021911621,1.0218000411987305,0.18560200929641724,0.03912975639104843,0.24297264218330383,-0.12043237012112946,-1.1263531205250605,2.560017170417311,-0.8963106274604797,0.12014145404100418,-0.42684096097946167,9.510012479561057
1727345167385,9i,15.371712865556084,2.5s : 4.3s,9.689379701172303,0.36091057448116065,-0.35964030027389526,2.4637374877929688,1.0518667697906494,0.28464269638061523,0.011325255036354065,0.22160035371780396,-0.13117091829155747,-1.1011862704315525,2.561591006743864,-0.8840842247009277,0.13079509139060974,-0.4486510455608368,9.518083790003535
1727345167395,9i,15.371712865556084,2.5s : 4.3s,9.688685365366405,0.41139706053092034,-0.4492335617542267,2.3141047954559326,1.1541444063186646,0.3483821749687195,-0.019713208079338074,0.2179192304611206,-0.14275617051310804,-1.0770824779749912,2.563142162340825,-0.8716213703155518,0.14227178692817688,-0.46907880902290344,9.527233714080062
1727345167405,9i,15.371712865556084,2.5s : 4.3s,9.693266017078457,0.428055574740453,-0.5393387079238892,2.169116735458374,1.2994129657745361,0.36417555809020996,-0.03350740671157837,0.22245222330093384,-0.1558415438601399,-1.054552868547932,2.5647266217271603,-0.859140157699585,0.15521149337291718,-0.4876346290111542,9.536722027791887
1727345167415,9i,15.371712865556084,2.5s : 4.3s,9.701691733146879,0.4013941977948229,-0.5786551833152771,2.097393751144409,1.3908169269561768,0.32809847593307495,-0.02573949098587036,0.2297959327697754,-0.17033020508527927,-1.0329957452997138,2.5667051890695847,-0.846409022808075,0.16950778663158417,-0.5048354864120483,9.545666987738
1727345167425,9i,15.371712865556084,2.5s : 4.3s,9.71364753244821,0.3674774472942684,-0.5599772930145264,2.134477138519287,1.4031702280044556,0.26135724782943726,-0.006891906261444092,0.25823354721069336,-0.18521031814667954,-1.0115631775128144,2.569143044508921,-0.8331651091575623,0.1841532588005066,-0.5214628577232361,9.553807800029269
1727345167435,9i,15.371712865556084,2.5s : 4.3s,9.76040613665884,0.3671323368512881,-0.5034154653549194,2.4564566612243652,1.4985337257385254,0.2002272605895996,0.02905234694480896,0.30635136365890503,-0.20024958879291527,-0.9880494811975128,2.5725509507833677,-0.8182692527770996,0.19891393184661865,-0.5393224358558655,9.561515986451647
1727345167445,9i,15.371712865556084,2.5s : 4.3s,9.807978559751787,0.3500746082910054,-0.4336933493614197,2.811509370803833,1.4873430728912354,0.16186493635177612,0.08015619218349457,0.29987823963165283,-0.2152802807567794,-0.960891546847878,2.5771327628124427,-0.8007810115814209,0.21362124383449554,-0.5595674514770508,9.568470984046538
1727345167455,9i,15.371712865556084,2.5s : 4.3s,9.86616768492901,0.2926132340179453,-0.31483858823776245,3.2090752124786377,1.4868825674057007,0.13062262535095215,0.10151399672031403,0.24136102199554443,-0.2294741435103165,-0.9295458402599084,2.582884194820223,-0.7803419232368469,0.22746548056602478,-0.5825169086456299,9.57408954578704
1727345167465,9i,15.371712865556084,2.5s : 4.3s,9.926148121458839,0.24629848018320452,-0.11595214158296585,3.555122137069702,1.5455827713012695,0.1348455548286438,0.11270284652709961,0.1725621223449707,-0.24279444953462548,-0.8939240503848109,2.5906607520269516,-0.7566717863082886,0.2404160499572754,-0.6079868078231812,9.578862789093524
