timestamp,club,max_speed,tempo,speed,acc,rotation.x,rotation.y,rotation.z,userAcceleration.x,userAcceleration.y,userAcceleration.z,pitch,roll,yaw,gravity.x,gravity.y,gravity.z,lsp
1727345763638,9i,9.546932981066655,4.7s : 4.7s,0.048281257022883835,0.43562811476961405,-0.25311192870140076,-1.4762598276138306,-0.1976305991411209,-0.2809126377105713,0.07790344953536987,0.32371437549591064,-0.5435279842170428,1.715927112146137,2.680175950137555,0.8468916416168213,0.5171587467193604,0.12378033250570297,0.0004640352166917812
1727345763628,9i,9.546932981066655,4.7s : 4.7s,0.09640453726110272,0.4183421883024952,-0.34675002098083496,-1.518222451210022,-0.26200157403945923,-0.2740941047668457,0.04400104284286499,0.3129640817642212,-0.5416897149185508,1.7289436107198397,2.676379453788558,0.8461461067199707,0.5155845284461975,0.13494259119033813,0.0013507654783137552
1727345763648,9i,9.546932981066655,4.7s : 4.7s,0.13758610923055442,0.4516831633390233,-0.22773227095603943,-1.4086229801177979,-0.14015305042266846,-0.29005300998687744,0.10707902908325195,0.3292734622955322,-0.544864779308,1.703032232985,2.6831807357081185,0.8477314114570618,0.5183024406433105,0.11275853961706161,0.0026749990048814693
1727345763658,9i,9.546932981066655,4.7s : 4.7s,0.17282374022772895,0.477693917306117,-0.21458424627780914,-1.2895314693450928,-0.07759885489940643,-0.3146335482597351,0.09866452217102051,0.34563350677490234,-0.5456046150074035,1.690853267986423,2.6857456721937796,0.8486607670783997,0.5189350247383118,0.10237998515367508,0.004444704892532481
1727345763668,9i,9.546932981066655,4.7s : 4.7s,0.20443361493075474,0.4795867034988728,-0.33390292525291443,-1.1961954832077026,-0.13470834493637085,-0.33719611167907715,0.04694551229476929,0.33778440952301025,-0.5463984039390681,1.680168111863407,2.6891337525001022,0.849296510219574,0.5196133852005005,0.0932612419128418,0.006638716364739357
1727345763678,9i,9.546932981066655,4.7s : 4.7s,0.23025605726370849,0.4905342557183764,-0.42395931482315063,-1.0395994186401367,-0.09960202127695084,-0.36023807525634766,-0.007128596305847168,0.33286869525909424,-0.5472521662781299,1.6712983612126118,2.693650670507132,0.8496484160423279,0.5203426480293274,0.08568006753921509,0.009240298883129175
1727345763688,9i,9.546932981066655,4.7s : 4.7s,0.2517555638929308,0.49727939377078273,-0.4999508857727051,-0.9171707630157471,-0.060477323830127716,-0.38368093967437744,-0.02577364444732666,0.3152958154678345,-0.5475724170244994,1.664434583752291,2.699170877214579,0.8500505685806274,0.5206161141395569,0.07983071357011795,0.01223288992359125
1727345763698,9i,9.546932981066655,4.7s : 4.7s,0.2677372036535183,0.49608154093459056,-0.4559096693992615,-0.7792097330093384,0.004345081280916929,-0.39279836416244507,-0.01958709955215454,0.3023618459701538,-0.5474751424248842,1.6588775175290555,2.7048372047133573,0.8505314588546753,0.5205330848693848,0.07511016726493835,0.015599239114584712
1727345763708,9i,9.546932981066655,4.7s : 4.7s,0.27863429344393065,0.49613298530307687,-0.31234094500541687,-0.6814857125282288,0.0989828035235405,-0.3968985676765442,0.002644658088684082,0.29767847061157227,-0.5466535577135692,1.653902101809794,2.7092583741839507,0.8513204455375671,0.5198313593864441,0.07091297954320908,0.019326912063767118
1727345763718,9i,9.546932981066655,4.7s : 4.7s,0.28078836689748804,0.4975984417237811,-0.2203548401594162,-0.42989078164100647,0.04979262501001358,-0.3946751356124878,0.04911273717880249,0.2990379333496094,-0.5454158853360375,1.6494147540364288,2.7122131200890816,0.8522710800170898,0.5187736749649048,0.06714260578155518,0.02340514841929864
1727345763728,9i,9.546932981066655,4.7s : 4.7s,0.26518321534328765,0.5101233973037306,-0.16905057430267334,0.22806376218795776,-0.6990580558776855,-0.3894055485725403,0.1128925085067749,0.30958759784698486,-0.5434380435195568,1.6440752284197244,2.7140930030816692,0.8536389470100403,0.5170817971229553,0.06266593188047409,0.027828414427732293
1727345763738,9i,9.546932981066655,4.7s : 4.7s,0.2512317321182389,0.510249009606241,-0.15507803857326508,0.31909459829330444,-0.8566932082176208,-0.35960084199905396,0.14948302507400513,0.32969093322753906,-0.5395918987585644,1.6387439597511986,2.7150144093617423,0.8559386730194092,0.5137858986854553,0.05824867635965347,0.032576243893560695
1727345763748,9i,9.546932981066655,4.7s : 4.7s,0.24707388005366285,0.5477653007105147,-0.11082429438829422,-0.1854122281074524,-0.04287882149219513,-0.4266015887260437,0.10625213384628296,0.3267543315887451,-0.537693147461753,1.6354521342770674,2.716096884553906,0.857097864151001,0.5121560096740723,0.05549370497465134,0.03767672329036018
1727345763768,9i,9.546932981066655,4.7s : 4.7s,0.24525170729673215,0.5086545251798099,-0.23631609976291656,-0.10362265259027481,0.2842611074447632,-0.4070729613304138,0.016321003437042236,0.3045564889907837,-0.5324024282913955,1.6332931770352752,2.7197313642741014,0.8599080443382263,0.507604718208313,0.05381162092089653,0.04307200640138196
1727345763778,9i,9.546932981066655,4.7s : 4.7s,0.23554437436014433,0.4829570352466894,-0.27858632802963257,0.028479455038905144,0.2963912785053253,-0.3798934817314148,-0.0025582313537597656,0.29819774627685547,-0.5293992714635107,1.634329380486094,2.7224721849265423,0.8613694906234741,0.505014955997467,0.05479918420314789,0.048720659624372796
1727345763788,9i,9.546932981066655,4.7s : 4.7s,0.22532911511523432,0.4802990836532909,-0.3321903645992279,0.12947069108486176,0.3071801960468292,-0.3859791159629822,-0.003917336463928223,0.28581809997558594,-0.5262212286457659,1.6367458952772456,2.7257972208377454,0.8628315925598145,0.5022693872451782,0.0569860115647316,0.05460649251763809
1727345763798,9i,9.546932981066655,4.7s : 4.7s,0.21385048485576338,0.46178298063809786,-0.3146446645259857,0.23919452726840973,0.3247711658477783,-0.36940789222717285,0.005252629518508911,0.2770446538925171,-0.5228723527865633,1.640307011502002,2.7292948578238536,0.8642962574958801,0.4993707537651062,0.06017477065324783,0.06070056786324869
1727345763808,9i,9.546932981066655,4.7s : 4.7s,0.20203192263234937,0.4484332487135347,-0.3023911416530609,0.3370087742805481,0.3568159341812134,-0.35980314016342163,0.02443280816078186,0.2665278911590576,-0.5192833283400751,1.6447844119556225,2.732537953174578,0.8657998442649841,0.49625808000564575,0.06417602300643921,0.0669804150108814
1727345763818,9i,9.546932981066655,4.7s : 4.7s,0.19105658213173238,0.43681530221298126,-0.295214980840683,0.42155537009239197,0.3931361436843872,-0.3442752957344055,0.05790895223617554,0.262542724609375,-0.5153351323523533,1.6501084228354737,2.7356368787039504,0.8673922419548035,0.4928264915943146,0.06893931329250336,0.07342598987190967
1727345763828,9i,9.546932981066655,4.7s : 4.7s,0.18192148106955902,0.4233378150135515,-0.28325265645980835,0.4968152344226837,0.42174017429351807,-0.3276439309120178,0.07813256978988647,0.25643646717071533,-0.5110549119341943,1.6561164139631575,2.7385564533200832,0.8690562844276428,0.4890976548194885,0.07432840764522552,0.08001408226845207
1727345763838,9i,9.546932981066655,4.7s : 4.7s,0.17568565900728564,0.41003327598693584,-0.28287795186042786,0.5741441249847412,0.43625468015670776,-0.3186900019645691,0.06999430060386658,0.24832391738891602,-0.5065531841896964,1.662815960652767,2.741360084761559,0.8707224726676941,0.48516616225242615,0.08035048097372055,0.08672411056396255
1727345763848,9i,9.546932981066655,4.7s : 4.7s,0.17313640570628275,0.39943016362674066,-0.28803932666778564,0.6638906002044678,0.4410535991191864,-0.31702953577041626,0.05328887701034546,0.2370591163635254,-0.5019140443682606,1.6702955823316359,2.744111818087038,0.8723273873329163,0.48110440373420715,0.08708348870277405,0.09353919607549985
1727345763858,9i,9.546932981066655,4.7s : 4.7s,0.17500215411003064,0.38954616618647536,-0.29683229327201843,0.7676391005516052,0.43483299016952515,-0.31938785314559937,0.041066527366638184,0.21920573711395264,-0.49727274139677013,1.6787537991449102,2.746891952175846,0.8737701773643494,0.47703036665916443,0.09469819813966751,0.10044244057574589
1727345763868,9i,9.546932981066655,4.7s : 4.7s,0.18009631643640767,0.3791367433172313,-0.30708327889442444,1.0998526811599731,0.2656979262828827,-0.32083457708358765,0.0319845974445343,0.19946636259555817,-0.49307948436690113,1.6888926676429956,2.7498042668481406,0.8747440576553345,0.473340779542923,0.10378701984882355,0.10741622668425803
1727345763888,9i,9.546932981066655,4.7s : 4.7s,0.19137433395015427,0.46538943307916075,-0.12229806184768677,2.2778687477111816,-0.626037061214447,-0.43015730381011963,0.00952962040901184,0.17737306654453278,-0.48284590508510244,1.709562530291248,2.753135903926909,0.8771637082099915,0.46430161595344543,0.12250802665948868,0.11452719920407534
1727345763878,9i,9.546932981066655,4.7s : 4.7s,0.22469566053439324,0.3849689208092102,-0.25904837250709534,2.018383741378784,-0.5897488594055176,-0.3405003547668457,0.022129029035568237,0.17824389040470123,-0.4887693542178115,1.6994833424940496,2.752334297825912,0.8756110072135925,0.46953970193862915,0.11330591887235641,0.12170018040858513
1727345763898,9i,9.546932981066655,4.7s : 4.7s,0.25260622457191456,0.3973946977616495,-0.01598040759563446,1.4781287908554077,0.2647862732410431,-0.31790363788604736,0.09408137202262878,0.2191084623336792,-0.47824820308629556,1.7214352326202231,2.753024772040188,0.8777486085891724,0.46022462844848633,0.13323239982128143,0.1289504295891818
1727345763908,9i,9.546932981066655,4.7s : 4.7s,0.27481237859494256,0.3944592918042037,0.10183017700910568,1.1435025930404663,0.6505054831504822,-0.18800461292266846,0.25438201427459717,0.2356739044189453,-0.47314241372160837,1.7331557687409938,2.7517293942330228,0.8784343004226685,0.45568573474884033,0.1438886672258377,0.13619803521848822
1727345763918,9i,9.546932981066655,4.7s : 4.7s,0.29633373302367566,0.445571093939822,0.18473277986049652,1.0711016654968262,0.7044622302055359,-0.17797589302062988,0.351279079914093,0.20847347378730774,-0.4668060176712471,1.7430889232986573,2.7489361264943737,0.879788875579834,0.45003631711006165,0.15309901535511017,0.1434276749168398
1727345763928,9i,9.546932981066655,4.7s : 4.7s,0.3186773887566943,0.43030089503166064,0.2837825417518616,1.0848805904388428,0.717483401298523,-0.14018464088439941,0.337399959564209,0.22730682790279388,-0.4602651270762985,1.752048569487395,2.744992499710565,0.8812581896781921,0.44418564438819885,0.16150248050689697,0.1506238173748621
1727345763938,9i,9.546932981066655,4.7s : 4.7s,0.3425761795371341,0.3776079804799686,0.3265441358089447,1.1354998350143433,0.6686535477638245,-0.16262441873550415,0.25263047218322754,0.22873331606388092,-0.4539303049069421,1.7610228678350008,2.7401852158623416,0.8825189471244812,0.4385012090206146,0.1699332296848297,0.15780046553054447
1727345763948,9i,9.546932981066655,4.7s : 4.7s,0.368242264306434,0.334124678459355,0.3403032720088959,1.1905156373977661,0.6583227515220642,-0.1795453429222107,0.18760475516319275,0.21025514602661133,-0.4478191324437709,1.770754664697018,2.735153883097773,0.8834332823753357,0.43300074338912964,0.17904247343540192,0.16497322338182652
1727345763958,9i,9.546932981066655,4.7s : 4.7s,0.39395755823490947,0.309380837561461,0.4143921434879303,1.1689215898513794,0.7344568967819214,-0.17307358980178833,0.16911253333091736,0.19277703762054443,-0.4420192618090877,1.7813930134987999,2.7297344846514733,0.8839195370674133,0.42776551842689514,0.1889522224664688,0.17213559382578414
1727345763968,9i,9.546932981066655,4.7s : 4.7s,0.4191798761420203,0.29273390221016155,0.5321505665779114,1.1013530492782593,0.8636694550514221,-0.1562616229057312,0.16756844520568848,0.1821984052658081,-0.43681258696591835,1.7925988660224377,2.7233627188161114,0.8839075565338135,0.423053503036499,0.19933252036571503,0.17925749719096146
1727345763978,9i,9.546932981066655,4.7s : 4.7s,0.44511600801742185,0.27674490709262956,0.6503232717514038,1.0497766733169556,1.0117321014404297,-0.13252079486846924,0.17841115593910217,0.16491040587425232,-0.4323446848769737,1.8041539845714871,2.7157585078040163,0.8833752274513245,0.41900089383125305,0.20996759831905365,0.18629075861130062
1727345763988,9i,9.546932981066655,4.7s : 4.7s,0.4733279750434265,0.2737215449257573,0.7288274168968201,1.0658713579177856,1.1102615594863892,-0.1075218915939331,0.19803765416145325,0.1553821563720703,-0.4287305490211938,1.8161492155108874,2.707170268072508,0.8822564482688904,0.41571658849716187,0.22091493010520935,0.1932175320584707
1727345763998,9i,9.546932981066655,4.7s : 4.7s,0.5051970633562134,0.2889877911404708,0.8001604676246643,1.1961050033569336,1.1048029661178589,-0.08852452039718628,0.2144712209701538,0.17227724194526672,-0.4260648688504562,1.8284881320106128,2.6978143699596604,0.8805321455001831,0.41329067945480347,0.2320655733346939,0.20009756016422073
1727345764008,9i,9.546932981066655,4.7s : 4.7s,0.5405629214920987,0.3079881952673486,0.862959623336792,1.4008748531341553,0.9950619339942932,-0.07052773237228394,0.24123308062553406,0.17801451683044434,-0.424291514624472,1.8409895776791003,2.687657691835753,0.8782669901847839,0.41167521476745605,0.2432502806186676,0.2069477335290915
1727345764018,9i,9.546932981066655,4.7s : 4.7s,0.5798412630430334,0.3347173645974372,0.9144944548606873,1.7218695878982544,0.7469959259033203,-0.0551716685295105,0.27977505326271057,0.17526471614837646,-0.42313843071210994,1.8532165152231348,2.676718770244586,0.875682532787323,0.41062411665916443,0.2541024684906006,0.21375202433145782
1727345764028,9i,9.546932981066655,4.7s : 4.7s,0.6223264815867059,0.35848559556228304,0.9341659545898438,2.122199535369873,0.3019055426120758,-0.05272775888442993,0.31145167350769043,0.16949796676635742,-0.4227542590673544,1.8654523020009741,2.665392495630066,0.8726587891578674,0.41027379035949707,0.2648436427116394,0.22045285192250924
1727345764038,9i,9.546932981066655,4.7s : 4.7s,0.6682104402399355,0.346661959566087,0.960076093673706,2.4848246574401855,-0.1836467683315277,-0.06388431787490845,0.3092708885669708,0.14298540353775024,-0.4235060436682689,1.8778493477986362,2.6539636410058782,0.8690145611763,0.41095927357673645,0.27554816007614136,0.22705045740241817
1727345764048,9i,9.546932981066655,4.7s : 4.7s,0.7168908005383342,0.3099368214469199,0.9649405479431152,2.720059394836426,-0.6088773608207703,-0.06379318237304688,0.280169814825058,0.11617287993431091,-0.42536740078961954,1.890834621480689,2.642844549709106,0.8646354079246521,0.41265547275543213,0.286567747592926,0.23361661049054241
1727345764058,9i,9.546932981066655,4.7s : 4.7s,0.766867049156463,0.2783373681914742,1.016632080078125,2.7811403274536133,-0.8841126561164856,-0.03381025791168213,0.2578926682472229,0.09909555315971375,-0.42833367095226366,1.904499530947332,2.6320559795260308,0.8594785332679749,0.4153555929660797,0.2979535460472107,0.24011303680461119
1727345764068,9i,9.546932981066655,4.7s : 4.7s,0.8135073332467231,0.28065702830201633,1.0684512853622437,2.615931510925293,-0.9398917555809021,0.01290959119796753,0.26266342401504517,0.0980287492275238,-0.4320664721533002,1.9183037056646481,2.621271932035965,0.8538200259208679,0.41874825954437256,0.30925899744033813,0.24655547098641842
1727345764077,9i,9.546932981066655,4.7s : 4.7s,0.8527828542930466,0.32927204966937906,1.1386393308639526,2.308084726333618,-0.8669757843017578,0.075999915599823,0.30712294578552246,0.09121179580688477,-0.43632693885344553,1.9314744935295414,2.6102154743820942,0.8479960560798645,0.42261338233947754,0.3198448717594147,0.2528436417699425
1727345764087,9i,9.546932981066655,4.7s : 4.7s,0.8836392342193975,0.35998348574461064,1.2461453676223755,1.9595633745193481,-0.6738277077674866,0.13091421127319336,0.3296475112438202,0.06149876117706299,-0.44129654704922455,1.9440052626845439,2.598694505111088,0.8419556617736816,0.4271121621131897,0.32967570424079895,0.25885873042796065
1727345764097,9i,9.546932981066655,4.7s : 4.7s,0.9051845921024747,0.3423343615278305,1.2936468124389648,1.6126835346221924,-0.5049830079078674,0.15781980752944946,0.29956668615341187,0.05045318603515625,-0.4473699230804459,1.9561624633304757,2.5867974443732167,0.8354663252830505,0.43259578943252563,0.3389055132865906,0.26458453929465175
1727345764107,9i,9.546932981066655,4.7s : 4.7s,0.9216201515405616,0.2934158885067659,1.3450849056243896,1.4026477336883545,-0.30956557393074036,0.1716640591621399,0.23628544807434082,0.02816951274871826,-0.4549863551836659,1.9686079220009003,2.5751848140632236,0.8281223177909851,0.43945005536079407,0.3479902446269989,0.27022008523625746
1727345764117,9i,9.546932981066655,4.7s : 4.7s,0.93169647645263,0.256306957914197,1.359403371810913,1.157633662223816,-0.08225012570619583,0.18253523111343384,0.17925521731376648,0.015547126531600952,-0.463643097901806,1.9813861515823454,2.563623359610073,0.8200891613960266,0.44720956683158875,0.3570115864276886,0.2757569756452557
1727345764127,9i,9.546932981066655,4.7s : 4.7s,0.9386158073392443,0.24668645182629156,1.3705980777740479,1.0220433473587036,0.040196556597948074,0.19349026679992676,0.1492748260498047,0.03365632891654968,-0.4732675856697565,1.9934942295798888,2.552107175908184,0.811743438243866,0.45579713582992554,0.36513224244117737,0.2811722450535742
1727345764137,9i,9.546932981066655,4.7s : 4.7s,0.9476786846881428,0.2489145827269993,1.421474575996399,1.0547534227371216,0.12465791404247284,0.20149236917495728,0.14605441689491272,0.0052346885204315186,-0.48356456027669414,2.0053579856925197,2.5404761761153787,0.803054690361023,0.4649379849433899,0.37274083495140076,0.2864827689492877
1727345764147,9i,9.546932981066655,4.7s : 4.7s,0.9602697418810667,0.2520565940703292,1.5023777484893799,1.1342748403549194,0.06924931704998016,0.1992608904838562,0.15393799543380737,-0.011433184146881104,-0.49463328439178034,2.0164116703328236,2.528057727292516,0.7941932082176208,0.4747089147567749,0.37935328483581543,0.2916878999950819
1727345764157,9i,9.546932981066655,4.7s : 4.7s,0.9787865662152265,0.23315557069425916,1.5322775840759277,1.3461705446243286,-0.07937397807836533,0.18239068984985352,0.14342162013053894,-0.022921502590179443,-0.5065508838056301,2.0268705198509416,2.515123659171377,0.7850469350814819,0.48516416549682617,0.3851195275783539,0.29676862040703034
1727345764167,9i,9.546932981066655,4.7s : 4.7s,1.0026511218066165,0.21011629868796197,1.5429418087005615,1.5689574480056763,-0.28229978680610657,0.16689270734786987,0.12524840235710144,-0.024668216705322266,-0.5190188647855726,2.0371930418621846,2.502169391815083,0.7755663394927979,0.49602845311164856,0.39045199751853943,0.30151974629925987
1727345764177,9i,9.546932981066655,4.7s : 4.7s,1.0308632030628768,0.18654242903951512,1.5696943998336792,1.7533115148544312,-0.5112195014953613,0.1608007550239563,0.09179544448852539,-0.022689014673233032,-0.5318837754950384,2.0470585094722806,2.489102147464963,0.7659417390823364,0.5071578025817871,0.39512571692466736,0.3059520985780782
1727345764187,9i,9.546932981066655,4.7s : 4.7s,1.0615646058891954,0.1817033782605259,1.5581562519073486,1.8895237445831299,-0.7381014227867126,0.16800934076309204,0.06392335891723633,-0.02651005983352661,-0.5451010810182433,2.056379431970394,2.4761004121447083,0.7562305927276611,0.5185045003890991,0.39908403158187866,0.3100653919830713
1727345764197,9i,9.546932981066655,4.7s : 4.7s,1.0924472023050054,0.18191234181164206,1.5247154235839844,1.9445682764053345,-0.9019571542739868,0.17292827367782593,0.05137819051742554,-0.023413538932800293,-0.5583450689204305,2.065400542326537,2.463503872092822,0.7464900016784668,0.529783308506012,0.402594655752182,0.31397397471337374
1727345764207,9i,9.546932981066655,4.7s : 4.7s,1.1210036198451268,0.1869063988617524,1.486036777496338,1.8979979753494263,-1.0349228382110596,0.18176281452178955,0.037573933601379395,-0.0220109224319458,-0.5715817625535164,2.073902934301945,2.4514762682153135,0.736831545829773,0.5409630537033081,0.40551018714904785,0.3177914206413481
1727345764217,9i,9.546932981066655,4.7s : 4.7s,1.1461659706815146,0.1874081916066173,1.4449844360351562,1.8093743324279785,-1.0808525085449219,0.18622952699661255,0.0018347501754760742,-0.02090519666671753,-0.5848137271041508,2.082173463466883,2.4402142723948,0.7271463871002197,0.5520440936088562,0.40805137157440186,0.32151416456723453
1727345764227,9i,9.546932981066655,4.7s : 4.7s,1.1665338191432326,0.1985978963189905,1.4081566333770752,1.6640082597732544,-1.071913242340088,0.19345033168792725,-0.039130330085754395,-0.022066056728363037,-0.5980237572256539,2.0902006929072177,2.4295597285507946,0.7174535393714905,0.5630103349685669,0.4102192521095276,0.32513668357916437
1727345764237,9i,9.546932981066655,4.7s : 4.7s,1.181343688509238,0.21435348912431568,1.3659719228744507,1.497053623199463,-0.998437762260437,0.1983014941215515,-0.0782511830329895,-0.022376060485839844,-0.6112073639904404,2.098162030248165,2.419562729385262,0.707689106464386,0.5738566517829895,0.4121466875076294,0.32861254177738636
1727345764247,9i,9.546932981066655,4.7s : 4.7s,1.1902009556486115,0.2289490497647932,1.288761019706726,1.3437010049819946,-0.8850043416023254,0.20497387647628784,-0.10052013397216797,-0.017293930053710938,-0.6241489418825117,2.1060605776510815,2.410284760785214,0.6979649662971497,0.5844069123268127,0.4139004945755005,0.3317399212020715
1727345764257,9i,9.546932981066655,4.7s : 4.7s,1.1935242489722895,0.24345881189554533,1.233125925064087,1.1898847818374634,-0.7591484189033508,0.2131490707397461,-0.11695700883865356,-0.01267772912979126,-0.6366957027986,2.114037866448737,2.4017426948950664,0.6883095502853394,0.5945418477058411,0.4156319499015808,0.3345258782898124
1727345764267,9i,9.546932981066655,4.7s : 4.7s,1.1933353527933928,0.261697521097493,1.1530134677886963,1.055635690689087,-0.6599512100219727,0.22551745176315308,-0.13245344161987305,-0.009140968322753906,-0.6489456849632285,2.121571765157263,2.393734399573964,0.6789014339447021,0.604346752166748,0.41696271300315857,0.3369739037921174
1727345764277,9i,9.546932981066655,4.7s : 4.7s,1.1872673244727197,0.276112682094468,1.0370069742202759,0.995607316493988,-0.5366116762161255,0.2345438003540039,-0.14522933959960938,-0.011655807495117188,-0.6603772174558026,2.1291978197432857,2.386666033881597,0.6697988510131836,0.6134148240089417,0.4184400141239166,0.3390868022109336
1727345764287,9i,9.546932981066655,4.7s : 4.7s,1.1777892681130957,0.30085654478311874,0.9673343896865845,0.8996277451515198,-0.502650260925293,0.2509642243385315,-0.16494745016098022,-0.017998814582824707,-0.6710723056839005,2.136290884159209,2.3801992174611195,0.6612366437911987,0.6218261122703552,0.41964083909988403,0.34085704966103175
1727345764297,9i,9.546932981066655,4.7s : 4.7s,1.1663427477563661,0.3236679193431658,0.8432952761650085,0.8927927613258362,-0.4910527169704437,0.2473435401916504,-0.20722544193267822,-0.025292515754699707,-0.6812005574868637,2.1431821679332423,2.374748415741057,0.6530012488365173,0.6297261118888855,0.42075467109680176,0.3422830922619116
1727345764307,9i,9.546932981066655,4.7s : 4.7s,1.153690320348329,0.3478511133381036,0.7751801609992981,0.8704439401626587,-0.49107295274734497,0.2424314022064209,-0.2476070523262024,-0.030301153659820557,-0.6905557094509593,2.149968249273513,2.370101398822208,0.6451723575592041,0.6369656920433044,0.42193344235420227,0.3433664908752464
1727345764317,9i,9.546932981066655,4.7s : 4.7s,1.1396007919800244,0.3696944973398371,0.6798964738845825,0.853155255317688,-0.5050460696220398,0.2401013970375061,-0.27710121870040894,-0.04733133316040039,-0.6992751803329197,2.156422808273565,2.3661588728679464,0.6377825140953064,0.6436631679534912,0.42300280928611755,0.3441024132579355
1727345764327,9i,9.546932981066655,4.7s : 4.7s,1.123964105022893,0.3816238695136023,0.6031666994094849,0.822769820690155,-0.4874168932437897,0.23820137977600098,-0.2928076386451721,-0.05621892213821411,-0.7072039573714697,2.1628721916033906,2.3629784830939933,0.6307867169380188,0.6497108340263367,0.4242458939552307,0.3444969915906228
1727345764337,9i,9.546932981066655,4.7s : 4.7s,1.1061801113348304,0.3943091023335566,0.5469217896461487,0.7501022815704346,-0.464457243680954,0.24438685178756714,-0.3026539087295532,-0.06446197628974915,-0.7143976160316026,2.1688937294919226,2.3602123740707013,0.6243416666984558,0.6551624536514282,0.42539355158805847,0.34455342953341694
1727345764347,9i,9.546932981066655,4.7s : 4.7s,1.0858066953519463,0.4075923888550537,0.4822811782360077,0.6690861582756042,-0.413327157497406,0.2522165775299072,-0.3125690221786499,-0.06941872835159302,-0.7209562013151447,2.1744101550237502,2.3578399981342546,0.618434727191925,0.6601032614707947,0.4263830780982971,0.344276486133468
1727345764357,9i,9.546932981066655,4.7s : 4.7s,1.0626147136491804,0.4202510106314136,0.3973444700241089,0.5929083228111267,-0.34838250279426575,0.261880099773407,-0.3202793598175049,-0.07382991909980774,-0.7266235042555839,2.1794205888934473,2.3558972970794483,0.6132113337516785,0.6643497347831726,0.42733046412467957,0.3436712161044664
1727345764367,9i,9.546932981066655,4.7s : 4.7s,1.036525599564294,0.43945480415171256,0.3155039846897125,0.4993758499622345,-0.3027855455875397,0.27366119623184204,-0.3360200524330139,-0.07294243574142456,-0.7313615313226736,2.183902778675775,2.354457885959347,0.6087087988853455,0.667883574962616,0.42825883626937866,0.34274253613037975
1727345764377,9i,9.546932981066655,4.7s : 4.7s,1.007596862370748,0.459793549506369,0.2152993530035019,0.4141160845756531,-0.26134198904037476,0.2808226943016052,-0.35770708322525024,-0.06778174638748169,-0.7352282819019962,2.187917720163063,2.3536711223027678,0.604873776435852,0.670756459236145,0.429201602935791,0.34150009081669036
1727345764387,9i,9.546932981066655,4.7s : 4.7s,0.9760803779218968,0.47648520369903946,0.11067647486925125,0.3411751389503479,-0.2036820501089096,0.28391170501708984,-0.37578409910202026,-0.07223990559577942,-0.7380855864891482,2.1917159813349723,2.3537037014504643,0.6016779541969299,0.6728729605674744,0.4303792119026184,0.33995098931779405
1727345764397,9i,9.546932981066655,4.7s : 4.7s,0.942100729776607,0.49131178552571453,0.030221575871109962,0.24829472601413727,-0.14883291721343994,0.2916482090950012,-0.3859217166900635,-0.08598268032073975,-0.7399305027458974,2.1950738902336915,2.3543372477571562,0.599220871925354,0.6742365956306458,0.4316706359386444,0.3380955960992382
1727345764407,9i,9.546932981066655,4.7s : 4.7s,0.9058284812461054,0.5007059003299894,-0.072810597717762,0.16916492581367493,-0.10431302338838577,0.29432374238967896,-0.39165443181991577,-0.10337668657302856,-0.740875035145091,2.197914671223132,2.355542522005552,0.597476065158844,0.6749338507652283,0.43299710750579834,0.33593704599597873
1727345764417,9i,9.546932981066655,4.7s : 4.7s,0.8677932057242326,0.5093224178051123,-0.17632313072681427,0.1130707785487175,-0.03761761263012886,0.29287683963775635,-0.399058997631073,-0.11993497610092163,-0.7407358076262712,2.2006636926292313,2.3574816653759294,0.5963594913482666,0.6748310923576355,0.4346933662891388,0.333481497964809
1727345764427,9i,9.546932981066655,4.7s : 4.7s,0.828437575429549,0.5305372721768877,-0.235813170671463,0.03448754549026489,0.017160112038254738,0.3003912568092346,-0.4159966707229614,-0.13483938574790955,-0.7395789613792124,2.2029317020349826,2.359806304638249,0.596001386642456,0.6739769577980042,0.4365057051181793,0.3307273742029915
1727345764437,9i,9.546932981066655,4.7s : 4.7s,0.7878050398938414,0.5552177167338445,-0.31588616967201233,-0.03798772022128105,0.05782844498753548,0.30427682399749756,-0.4411771297454834,-0.1450691819190979,-0.7376646193362779,2.2046324201101757,2.3624508191175577,0.5962969660758972,0.6725614666938782,0.43828222155570984,0.32767733675909433
1727345764447,9i,9.546932981066655,4.7s : 4.7s,0.7456039305666544,0.5676292185491675,-0.41767922043800354,-0.10752507299184799,0.12387783825397491,0.30583077669143677,-0.4541855454444885,-0.14961937069892883,-0.7347923828488628,2.2061478916591946,2.3657167946564046,0.5971842408180237,0.6704331040382385,0.4403298497200012,0.32434516813194175
1727345764457,9i,9.546932981066655,4.7s : 4.7s,0.7024832962765502,0.5774773062877119,-0.4773542881011963,-0.19091422855854034,0.17593598365783691,0.3212365508079529,-0.45388859510421753,-0.15579557418823242,-0.7309236598599053,2.207016329142625,2.369361998552336,0.5988837480545044,0.6675576567649841,0.44238635897636414,0.32073925678788284
1727345764467,9i,9.546932981066655,4.7s : 4.7s,0.6580283113746429,0.5779925092446269,-0.5849282741546631,-0.26747676730155945,0.2403794825077057,0.3270946145057678,-0.4470897316932678,-0.1649097502231598,-0.7261263760761609,2.2074718347734037,2.3734232992501116,0.6012499928474426,0.663978099822998,0.44455769658088684,0.31687441415711864
1727345764477,9i,9.546932981066655,4.7s : 4.7s,0.6412513269811421,0.5728527819979246,-0.6980798840522766,-0.37147799134254456,0.2831328213214874,0.3322371244430542,-0.43434983491897583,-0.17064297199249268,-0.7202866449163515,2.20732409234327,2.3781058414637823,0.6044236421585083,0.6596001386642456,0.4467661678791046,0.31277026093004645
1727345764487,9i,9.546932981066655,4.7s : 4.7s,0.5926925126023896,0.5824169990460173,-0.8786637187004089,-0.40091672539711,0.3458442687988281,0.3389244079589844,-0.43361949920654297,-0.1905621588230133,-0.7130847718411276,2.207377686496319,2.3840928842753244,0.6082038283348083,0.654170036315918,0.44961073994636536,0.3084300332318302
1727345764497,9i,9.546932981066655,4.7s : 4.7s,0.5450023453152516,0.5898784493726171,-0.954276978969574,-0.47563597559928894,0.36952218413352966,0.342623233795166,-0.43784236907958984,-0.19712930917739868,-0.7047574069180869,2.2074819718059073,2.3909540267164164,0.6125158071517944,0.6478490233421326,0.45289716124534607,0.3038689147761922
1727345764507,9i,9.546932981066655,4.7s : 4.7s,0.4989769727719441,0.5975792913611527,-1.0800009965896606,-0.5203256011009216,0.38691532611846924,0.340831458568573,-0.44998741149902344,-0.1960771679878235,-0.6957169807658786,2.2074340646646493,2.39865229337903,0.6172221302986145,0.6409359574317932,0.4563313126564026,0.2991104151588466
1727345764517,9i,9.546932981066655,4.7s : 4.7s,0.45522933172325114,0.5765659513270489,-1.1941219568252563,-0.585068941116333,0.4150124788284302,0.34793221950531006,-0.41922056674957275,-0.18874740600585938,-0.6857328657391962,2.2075519831096932,2.407442772109848,0.6222826242446899,0.6332404017448425,0.4601861536502838,0.2941890264690216
1727345764527,9i,9.546932981066655,4.7s : 4.7s,0.4148030160848547,0.5499536809806435,-1.2439435720443726,-0.6793994903564453,0.44308942556381226,0.3609914183616638,-0.3781183362007141,-0.1707652509212494,-0.675060389687314,2.2071121285077133,2.4167848044528863,0.6278847455978394,0.6249444484710693,0.46390193700790405,0.2891453748133047
1727345764537,9i,9.546932981066655,4.7s : 4.7s,0.3791043645455672,0.5315015643578168,-1.2673321962356567,-0.7720937728881836,0.4700337052345276,0.3710213899612427,-0.34798067808151245,-0.15409895777702332,-0.6639469101179534,2.2056715208238153,2.4261745461566946,0.6341054439544678,0.6162300705909729,0.46708735823631287,0.2840163887455449
1727345764547,9i,9.546932981066655,4.7s : 4.7s,0.3494256260408979,0.5072157176755401,-1.3109513521194458,-0.872894823551178,0.5002239942550659,0.3747466206550598,-0.31240928173065186,-0.13868379592895508,-0.6524472223196393,2.203249090057997,2.435634700845761,0.6409088969230652,0.6071327924728394,0.469708114862442,0.27884115467968945
1727345764557,9i,9.546932981066655,4.7s : 4.7s,0.32785006944913575,0.4794035471560903,-1.3527262210845947,-0.9667712450027466,0.525700569152832,0.3741404414176941,-0.2729911208152771,-0.12378424406051636,-0.6404557150039554,2.1998962965734363,2.4453042917372487,0.6483205556869507,0.5975608825683594,0.47180694341659546,0.2736591714881991
1727345764567,9i,9.546932981066655,4.7s : 4.7s,0.31620838580115246,0.4624442081917693,-1.365864634513855,-1.037467122077942,0.5420727729797363,0.37165284156799316,-0.24761444330215454,-0.12006622552871704,-0.6281595542934818,2.1956888782991113,2.4550892746600255,0.6562097072601318,0.5876566171646118,0.47333788871765137,0.26849610648570527
1727345764577,9i,9.546932981066655,4.7s : 4.7s,0.3148762296004414,0.4495402786434515,-1.3558177947998047,-1.0934255123138428,0.5513070225715637,0.3644483685493469,-0.2305472493171692,-0.1269323229789734,-0.6157958431689663,2.1906459362407045,2.4647312959438517,0.6644517183303833,0.5776083469390869,0.47420722246170044,0.2633678642234612
1727345764587,9i,9.546932981066655,4.7s : 4.7s,0.3233526062980347,0.43588005510202377,-1.3601471185684204,-1.1332685947418213,0.543316662311554,0.3566722273826599,-0.20978200435638428,-0.1369958221912384,-0.6035144410107027,2.1849608697457548,2.47430080379635,0.672883927822113,0.5675395727157593,0.47447460889816284,0.258286727508372
1727345764597,9i,9.546932981066655,4.7s : 4.7s,0.3402880425445773,0.41743773397301537,-1.37588369846344,-1.1575711965560913,0.5340874791145325,0.35009121894836426,-0.18356943130493164,-0.13413673639297485,-0.5912994832337266,2.1789942493597914,2.4840591717485117,0.6813419461250305,0.5574403405189514,0.47437742352485657,0.2532748971713405
1727345764607,9i,9.546932981066655,4.7s : 4.7s,0.36416982457758057,0.40741375416543946,-1.4087204933166504,-1.1905293464660645,0.5314104557037354,0.3582537770271301,-0.15188360214233398,-0.1207127571105957,-0.5790617624753643,2.17285684568008,2.4941607522053455,0.6898113489151001,0.5472388863563538,0.47401493787765503,0.24835638995601508
1727345764617,9i,9.546932981066655,4.7s : 4.7s,0.393661955308016,0.4097766467475158,-1.4419269561767578,-1.2647649049758911,0.5449715256690979,0.38207244873046875,-0.10891211032867432,-0.10037776827812195,-0.5666023589560004,2.1662380428747694,2.5045531952904243,0.6985242962837219,0.5367684364318848,0.4732263386249542,0.2435497441865888
1727345764626,9i,9.546932981066655,4.7s : 4.7s,0.427690081340873,0.4210602162981716,-1.4566584825515747,-1.3925684690475464,0.5671805143356323,0.40972357988357544,-0.059726059436798096,-0.07649242877960205,-0.5539132624783629,2.1585817327682726,2.5150776677071764,0.7077385187149048,0.5260193943977356,0.471603661775589,0.23887560227093665
1727345764636,9i,9.546932981066655,4.7s : 4.7s,0.46516209977920064,0.43003852080450333,-1.4595463275909424,-1.5160890817642212,0.573328971862793,0.4259287714958191,-0.024020791053771973,-0.0542292594909668,-0.541153386547798,2.149507737043887,2.525619127123149,0.7175496220588684,0.5151249170303345,0.46879544854164124,0.2343574562179489
1727345764646,9i,9.546932981066655,4.7s : 4.7s,0.5051832531004653,0.4188900606327022,-1.4775416851043701,-1.5932708978652954,0.5628982782363892,0.4175611734390259,-0.011093556880950928,-0.031440138816833496,-0.5284337481950451,2.1393918281184297,2.5363555017271544,0.7277177572250366,0.5041813254356384,0.46500349044799805,0.2300302660306566
1727345764656,9i,9.546932981066655,4.7s : 4.7s,0.5460788114965249,0.39339286710365035,-1.4813144207000732,-1.6322585344314575,0.5336970090866089,0.3929590582847595,-0.010629266500473022,-0.015104472637176514,-0.5159091237566603,2.1287691190644504,2.5474052740444244,0.737915575504303,0.4933258593082428,0.4605545699596405,0.22592393351333717
1727345764666,9i,9.546932981066655,4.7s : 4.7s,0.5864455846485181,0.36684861864716156,-1.4566130638122559,-1.667737603187561,0.4911500811576843,0.36669474840164185,-0.006517916917800903,-0.008389711380004883,-0.5038557882593339,2.1177729922769664,2.5586451870237705,0.7479597926139832,0.4828057289123535,0.4554724395275116,0.22205050262507137
1727345764676,9i,9.546932981066655,4.7s : 4.7s,0.6255871093670146,0.3471705267535138,-1.3951427936553955,-1.7220906019210815,0.47008606791496277,0.3467732071876526,0.01623058319091797,0.0035050809383392334,-0.492411795468571,2.1061581710347324,2.5697440689701896,0.7579020261764526,0.47275251150131226,0.4495437741279602,0.21842536164903092
1727345764686,9i,9.546932981066655,4.7s : 4.7s,0.6639237158710644,0.3433502234637935,-1.331254005432129,-1.8025193214416504,0.461879700422287,0.338961660861969,0.05348899960517883,0.011545360088348389,-0.48152114415296665,2.09354789720066,2.580364501214634,0.7679262757301331,0.46312788128852844,0.4424954056739807,0.2150592866036534
1727345764696,9i,9.546932981066655,4.7s : 4.7s,0.7019071780706995,0.34766520143183577,-1.2878443002700806,-1.8872853517532349,0.4368358850479126,0.33368170261383057,0.09519198536872864,0.021589338779449463,-0.4712179781383528,2.0798092982920093,2.590653467632142,0.7780585289001465,0.45397186279296875,0.43420612812042236,0.21196167187508277
1727345764706,9i,9.546932981066655,4.7s : 4.7s,0.7400046120290292,0.3495607960722488,-1.2674996852874756,-1.9559406042099,0.44085240364074707,0.32305842638015747,0.12819597125053406,0.037306785583496094,-0.4612599484411545,2.0651747260719895,2.6008166282284213,0.7882696390151978,0.44507673382759094,0.42489737272262573,0.2091430344398643
1727345764716,9i,9.546932981066655,4.7s : 4.7s,0.7777438025068432,0.35168797935474694,-1.2465003728866577,-2.013847589492798,0.4193681478500366,0.3113210201263428,0.15401512384414673,0.05516338348388672,-0.451603114437673,2.049775169861259,2.6109100452154905,0.7984964847564697,0.43640848994255066,0.41467007994651794,0.20661328347464505
1727345764726,9i,9.546932981066655,4.7s : 4.7s,0.8147215453378474,0.34025583142176097,-1.2241394519805908,-2.0522801876068115,0.4051750898361206,0.28211331367492676,0.17246907949447632,0.08025288581848145,-0.4423742259969779,2.033845047820523,2.6210430603463615,0.8085696697235107,0.4280863404273987,0.4036797285079956,0.2043847196655987
1727345764736,9i,9.546932981066655,4.7s : 4.7s,0.8508873432530448,0.3240156798377012,-1.1623088121414185,-2.1167612075805664,0.4223540723323822,0.24394696950912476,0.18069598078727722,0.11324751377105713,-0.4334417462476654,2.017146888663223,2.6309110845989094,0.8186140656471252,0.4199967682361603,0.3917575478553772,0.20249001555608526
1727345764746,9i,9.546932981066655,4.7s : 4.7s,0.8850037682219534,0.30687495043786406,-1.1027604341506958,-2.129253387451172,0.40921273827552795,0.2125166654586792,0.18466582894325256,0.1220960021018982,-0.42484740818517064,1.999782956916913,2.6401016035093936,0.8285448551177979,0.4121817648410797,0.3789723515510559,0.20097232296842615
1727345764756,9i,9.546932981066655,4.7s : 4.7s,0.917263657393394,0.297240456800594,-1.0651044845581055,-2.1419198513031006,0.35085809230804443,0.18304908275604248,0.1980542540550232,0.12497773766517639,-0.4170162133273317,1.9820874223518825,2.649234215034965,0.8380539417266846,0.4050341844558716,0.3655315041542053,0.19980683603813604
1727345764766,9i,9.546932981066655,4.7s : 4.7s,0.9475646075072038,0.2808082292261819,-1.0389951467514038,-2.121680498123169,0.3481336534023285,0.15329045057296753,0.20084500312805176,0.12254217267036438,-0.40970326169823834,1.9644706226223139,2.6582931886047017,0.8470759391784668,0.39833715558052063,0.35183852910995483,0.19898677071019058
1727345764776,9i,9.546932981066655,4.7s : 4.7s,0.9772980087875582,0.28214152388127106,-0.9960476160049438,-2.1782755851745605,0.3278973400592804,0.15163511037826538,0.19693541526794434,0.1335180699825287,-0.4027802767445922,1.946485537014436,2.6671352605812197,0.855811357498169,0.3919776380062103,0.3375515043735504,0.19844943661961828
1727345764786,9i,9.546932981066655,4.7s : 4.7s,1.0078498557226125,0.3016109362806186,-0.978796660900116,-2.2631330490112305,0.3291412591934204,0.14573121070861816,0.20315909385681152,0.1686948537826538,-0.39623976004862804,1.9276975540732766,2.6757917142016905,0.8643853664398193,0.3859521746635437,0.3223026394844055,0.19817823162017056
1727345764796,9i,9.546932981066655,4.7s : 4.7s,1.0396495883549939,0.3303947281403779,-1.0046234130859375,-2.3382906913757324,0.3089054822921753,0.12073320150375366,0.2217479646205902,0.21310093998908997,-0.3899092734276623,1.908036425252546,2.684641816245427,0.8728430271148682,0.38010451197624207,0.3060489892959595,0.1982415029035328
1727345764806,9i,9.546932981066655,4.7s : 4.7s,1.0711488342557103,0.3383443396806138,-1.0537937879562378,-2.3408122062683105,0.27745509147644043,0.0723845362663269,0.2196972668170929,0.24692201614379883,-0.3838852269983453,1.8881753765592326,2.694138328217726,0.8809083104133606,0.3745257258415222,0.2893635332584381,0.19867464253990913
1727345764816,9i,9.546932981066655,4.7s : 4.7s,1.099887333972805,0.324759756751444,-1.0508049726486206,-2.2847511768341064,0.25103759765625,0.012260079383850098,0.18576881289482117,0.2660987377166748,-0.37819012450700135,1.868740470227208,2.704082500389938,0.8883900046348572,0.36923909187316895,0.27281132340431213,0.199465920028208
1727345764826,9i,9.546932981066655,4.7s : 4.7s,1.12520579309235,0.31064691621477736,-1.0065993070602417,-2.227675676345825,0.2295626550912857,-0.04170548915863037,0.15165722370147705,0.267884761095047,-0.37298311827168423,1.8497890842658629,2.7139415202707724,0.8952365517616272,0.36439505219459534,0.25645312666893005,0.2005833248930796
1727345764836,9i,9.546932981066655,4.7s : 4.7s,1.1464260628941239,0.31556051697342463,-0.9137735962867737,-2.168675661087036,0.22055290639400482,-0.08438187837600708,0.14337709546089172,0.268143892288208,-0.36829532266424725,1.8311972447386495,2.723237933468061,0.9014899730682373,0.3600255846977234,0.24020279943943024,0.20198484011350581
1727345764846,9i,9.546932981066655,4.7s : 4.7s,1.1640958597735653,0.33488590104465205,-0.7815520167350769,-2.140812635421753,0.24559521675109863,-0.11043238639831543,0.15979468822479248,0.2727982997894287,-0.3639819711768809,1.8125683692522816,2.731371226222643,0.9073073267936707,0.355998158454895,0.22373807430267334,0.20362775570702235
1727345764856,9i,9.546932981066655,4.7s : 4.7s,1.1796597052407978,0.3674737974846374,-0.6660518050193787,-2.143467664718628,0.29435211420059204,-0.12401020526885986,0.19318458437919617,0.28694629669189453,-0.35973607245998257,1.7935747366235049,2.7381891944974526,0.9128590822219849,0.35202720761299133,0.20679780840873718,0.2054781515387907
1727345764866,9i,9.546932981066655,4.7s : 4.7s,1.1938581910649446,0.4043044808841287,-0.5717652440071106,-2.1581003665924072,0.3227139711380005,-0.13783550262451172,0.22694462537765503,0.30489280819892883,-0.3554113692012397,1.7740733915873221,2.7439159298174793,0.9182006120681763,0.34797605872154236,0.1892632246017456,0.20751000646819534
1727345764876,9i,9.546932981066655,4.7s : 4.7s,1.205782495421454,0.4221816561336735,-0.5124475955963135,-2.117520332336426,0.3315950930118561,-0.16820603609085083,0.22353211045265198,0.3161921501159668,-0.35120959602801577,1.7543713638307254,2.748870481411653,0.9231805801391602,0.344033807516098,0.17140266299247742,0.20970454900812885
1727345764886,9i,9.546932981066655,4.7s : 4.7s,1.2153829072971496,0.441633119849719,-0.4962320923805237,-2.046173095703125,0.34766367077827454,-0.2105851173400879,0.19069728255271912,0.3381246328353882,-0.3470340734518293,1.7351210451300343,2.7534736033749287,0.9277178049087524,0.340110182762146,0.15383410453796387,0.21206392312625405
1727345764896,9i,9.546932981066655,4.7s : 4.7s,1.2221340132488887,0.46948809374726125,-0.4859325885772705,-1.9522120952606201,0.35566458106040955,-0.252862811088562,0.15855124592781067,0.36240994930267334,-0.34284640714490155,1.7166438304153913,2.7580181392841063,0.9318028092384338,0.33616921305656433,0.13687299191951752,0.21459350779623054
1727345764906,9i,9.546932981066655,4.7s : 4.7s,1.2258563688830488,0.4964999608298305,-0.47327926754951477,-1.8473589420318604,0.3792421519756317,-0.2879893183708191,0.14238598942756653,0.37855064868927,-0.3385951475778907,1.699131973102555,2.7624910334544457,0.9354654550552368,0.3321623206138611,0.12071703374385834,0.21728841427196102
1727345764916,9i,9.546932981066655,4.7s : 4.7s,1.2272079780863614,0.5188834649030643,-0.4601227045059204,-1.7646493911743164,0.3941976726055145,-0.31515854597091675,0.13953885436058044,0.3878711760044098,-0.33424022297885914,1.6825222329176428,2.766890532079844,0.9387702345848083,0.32805153727531433,0.10532356053590775,0.2201374390486127
1727345764926,9i,9.546932981066655,4.7s : 4.7s,1.2272404231253704,0.5403086268865062,-0.46132051944732666,-1.6748102903366089,0.4072800874710083,-0.3393647074699402,0.14332646131515503,0.39524996280670166,-0.329814103036464,1.6667426130994405,2.7712791871797253,0.9417513012886047,0.32386714220046997,0.09063583612442017,0.22312990986697404
1727345764936,9i,9.546932981066655,4.7s : 4.7s,1.2231134221126425,0.5591121431378107,-0.4623314440250397,-1.556457281112671,0.41051343083381653,-0.36680352687835693,0.13648945093154907,0.399289608001709,-0.32536720706854283,1.6520186883251795,2.7757461647660215,0.9444097280502319,0.31965675950050354,0.07687631249427795,0.2262583210284762
1727345764946,9i,9.546932981066655,4.7s : 4.7s,1.2159177957572223,0.5763870696591122,-0.46218177676200867,-1.4352693557739258,0.4073481559753418,-0.39672350883483887,0.1216784119606018,0.4000335931777954,-0.3209686609563838,1.6384870015606063,2.780269295367515,0.9467572569847107,0.3154858946800232,0.06418469548225403,0.22951714367795026
1727345764956,9i,9.546932981066655,4.7s : 4.7s,1.205426323933417,0.5905697655462314,-0.4638936519622803,-1.300746202468872,0.4025603234767914,-0.4217193126678467,0.11267787218093872,0.39778029918670654,-0.31665994591711333,1.6262713075905653,2.784865170461398,0.9488189220428467,0.3113943040370941,0.052689772099256516,0.23290047071586642
1727345764966,9i,9.546932981066655,4.7s : 4.7s,1.1920522201044603,0.6079523001536151,-0.4509306252002716,-1.1837422847747803,0.39139384031295776,-0.44411027431488037,0.1066989004611969,0.40123236179351807,-0.31250136926160754,1.615290778797918,2.7894618976796295,0.9506256580352783,0.30743980407714844,0.04232550412416458,0.23641104256072115
1727345764976,9i,9.546932981066655,4.7s : 4.7s,1.1763235104002963,0.6332727110629278,-0.41523411870002747,-1.087226152420044,0.39767464995384216,-0.46559464931488037,0.10446619987487793,0.4163445234298706,-0.30843623776160134,1.6052736367510316,2.7938290546160727,0.9522432088851929,0.3035690486431122,0.03284379839897156,0.24006529823308229
1727345764986,9i,9.546932981066655,4.7s : 4.7s,1.1583256375311208,0.6567980941477027,-0.3760317265987396,-0.9881711006164551,0.41390281915664673,-0.476276695728302,0.12306931614875793,0.4351990222930908,-0.30428845393148857,1.5961136467188681,2.7978580270082647,0.9537547826766968,0.29961439967155457,0.024151675403118134,0.24388265969658784
1727345764996,9i,9.546932981066655,4.7s : 4.7s,1.1371196101195256,0.6828079692299631,-0.3217434585094452,-0.8542300462722778,0.44189929962158203,-0.48952025175094604,0.15599587559700012,0.4497354030609131,-0.2999750441919401,1.5879534943885345,2.801407625060184,0.9552031755447388,0.2954963743686676,0.01639018952846527,0.24787643724207026
1727345765006,9i,9.546932981066655,4.7s : 4.7s,1.1124434227032731,0.7027282315782846,-0.2844909131526947,-0.6978356838226318,0.4586878716945648,-0.5077570080757141,0.1790132224559784,0.451623797416687,-0.2954348218191114,1.5811063703642434,2.804483917611209,0.9566248655319214,0.2911558747291565,0.009863193146884441,0.25205140405661863
1727345765016,9i,9.546932981066655,4.7s : 4.7s,1.0840778943200728,0.7167160194093225,-0.24717894196510315,-0.5244132876396179,0.4768706262111664,-0.5279802083969116,0.1735999584197998,0.4525282382965088,-0.2907450652766194,1.5757834555090826,2.8072266011532756,0.9580186009407043,0.2866660952568054,0.004777801688760519,0.2564202337239773
1727345765026,9i,9.546932981066655,4.7s : 4.7s,1.0520867826791587,0.7270346046491007,-0.21156248450279236,-0.34188973903656006,0.49625062942504883,-0.5483206510543823,0.1470114290714264,0.4542151689529419,-0.28589891285955443,1.5721253743135724,2.8096002119183314,0.9594078660011292,0.2820200026035309,0.0012750993482768536,0.2610021046507461
1727345765036,9i,9.546932981066655,4.7s : 4.7s,1.0169819183974873,0.7371175528810728,-0.15648165345191956,-0.17191852629184723,0.5286501049995422,-0.5631909370422363,0.13163205981254578,0.4569805860519409,-0.28079581347146904,1.570086921353818,2.8115382607727617,0.9608351588249207,0.2771203815937042,-0.0006816217792220414,0.26581546681862545
1727345765046,9i,9.546932981066655,4.7s : 4.7s,0.9791209552780253,0.7485603707991761,-0.10323242098093033,-0.003496498102322221,0.555440366268158,-0.57391756772995,0.14151662588119507,0.45927584171295166,-0.27540374160776554,1.5695739171344012,2.8128857087591244,0.9623148441314697,0.27193549275398254,-0.0011763435322791338,0.270873446573195
1727345765056,9i,9.546932981066655,4.7s : 4.7s,0.9395724690430397,0.7614745510053488,-0.08500627428293228,0.15952864289283752,0.5968019366264343,-0.5836696028709412,0.16577181220054626,0.46010106801986694,-0.2696749106666463,1.570603600182302,2.8138510089092064,0.9638576507568359,0.26641809940338135,-0.0001857610186561942,0.2761854269776867
1727345765066,9i,9.546932981066655,4.7s : 4.7s,0.8992578143030339,0.7770988516822191,-0.08978345990180969,0.3132128119468689,0.637952983379364,-0.5924796462059021,0.18960893154144287,0.4657241106033325,-0.2635030286768529,1.573187679547544,2.814760353051187,0.9654808044433594,0.26046425104141235,0.002308809431269765,0.2817667460954503
1727345765076,9i,9.546932981066655,4.7s : 4.7s,0.8585624020406026,0.7884370503577756,-0.11590214818716049,0.47633302211761475,0.6728092432022095,-0.6010715365409851,0.20511353015899658,0.4671984910964966,-0.25696403465277934,1.5773704037372298,2.8157638655796102,0.9671451449394226,0.25414544343948364,0.006358177866786718,0.2876299768578745
1727345765086,9i,9.546932981066655,4.7s : 4.7s,0.8179248857500583,0.7985448910008077,-0.1517665982246399,0.6439746022224426,0.6995600461959839,-0.6102110743522644,0.2224847823381424,0.46456098556518555,-0.2501160519046798,1.5833097154978528,2.817083501360101,0.9688078761100769,0.24751640856266022,0.012123702093958855,0.29378275056147063
1727345765096,9i,9.546932981066655,4.7s : 4.7s,0.7779550306343037,0.8139120602880738,-0.14459365606307983,0.7911797761917114,0.7315797805786133,-0.6177435517311096,0.24369031190872192,0.47059619426727295,-0.24296113628803462,1.590825887019382,2.818535163863069,0.9704352617263794,0.2405778467655182,0.01943999156355858,0.3002411831930629
1727345765106,9i,9.546932981066655,4.7s : 4.7s,0.738207681888958,0.8246050602846029,-0.074575275182724,0.948673665523529,0.7592169046401978,-0.6238715052604675,0.256592333316803,0.47425544261932373,-0.2355235444758437,1.5997239863104284,2.8194947769688405,0.9719855785369873,0.23335210978984833,0.028125112876296043,0.30701931301051766
1727345765116,9i,9.546932981066655,4.7s : 4.7s,0.6974477389112542,0.8390807064654844,0.11454404890537262,1.1256929636001587,0.7789791822433472,-0.6337872743606567,0.2694733738899231,0.47932684421539307,-0.2278700444486455,1.6099788816847316,2.8190958222924625,0.973402202129364,0.22590313851833344,0.03815991431474686,0.3141315988174625
1727345765126,9i,9.546932981066655,4.7s : 4.7s,0.655594367706108,0.8538498259542399,0.3748180568218231,1.311677098274231,0.7815369367599487,-0.6458050608634949,0.29302799701690674,0.4755312204360962,-0.22019105816334325,1.6215046234284645,2.816254434248945,0.9746015071868896,0.21841606497764587,0.049462784081697464,0.3215811313834192
1727345765136,9i,9.546932981066655,4.7s : 4.7s,0.6150510890714296,0.8673489713023288,0.619870662689209,1.482102394104004,0.7891554236412048,-0.6479752659797668,0.33856841921806335,0.4666837453842163,-0.21265221336974605,1.6342863116295134,2.8107121509770674,0.9755052328109741,0.21105310320854187,0.06201816350221634,0.32936304692949603
1727345765146,9i,9.546932981066655,4.7s : 4.7s,0.5785949451866352,0.8797671471060706,0.8102996945381165,1.6465058326721191,0.782721996307373,-0.6389583349227905,0.3854019045829773,0.4660341739654541,-0.205347923740782,1.648243824027538,2.8028251887191145,0.9760557413101196,0.2039077877998352,0.07574457675218582,0.3374806478165619
1727345765156,9i,9.546932981066655,4.7s : 4.7s,0.5490100773823787,0.875899598266078,0.9289158582687378,1.8368741273880005,0.7670847177505493,-0.6220065355300903,0.4110427796840668,0.4597301483154297,-0.19836402382300164,1.663693431550641,2.7932743393034003,0.9761629700660706,0.19706569612026215,0.09094447642564774,0.345931095338306
1727345765166,9i,9.546932981066655,4.7s : 4.7s,0.5286747621021338,0.8572313765119696,1.0003117322921753,2.0406363010406494,0.7213222980499268,-0.5961951613426208,0.4217684864997864,0.44889676570892334,-0.19194143484034984,1.6809965166632959,2.7827181947177126,0.9756811857223511,0.19076503813266754,0.107957623898983,0.354704320320495
1727345765175,9i,9.546932981066655,4.7s : 4.7s,0.5206162638200875,0.8455067275828233,1.0070027112960815,2.2375760078430176,0.6827458739280701,-0.56605464220047,0.43549519777297974,0.452556848526001,-0.18621512216811856,1.7002704395237662,2.771697966489051,0.9744866490364075,0.18514078855514526,0.12688058614730835,0.3638017300276323
1727345765185,9i,9.546932981066655,4.7s : 4.7s,0.5273492700651615,0.8535506152993684,0.9892117977142334,2.3944649696350098,0.6944994926452637,-0.5189166069030762,0.48316460847854614,0.4752117097377777,-0.18081334897267207,1.7214178313725341,2.7607198686642884,0.9725602865219116,0.17982971668243408,0.14760643243789673,0.37323704658556806
1727345765195,9i,9.546932981066655,4.7s : 4.7s,0.5474137423021866,0.8820363316549166,1.0558602809906006,2.4973366260528564,0.6773790717124939,-0.45381808280944824,0.5671448111534119,0.5003838539123535,-0.17568561922234,1.743847452365961,2.749432924068553,0.9699007868766785,0.17478324472904205,0.16953817009925842,0.38301893555134
1727345765205,9i,9.546932981066655,4.7s : 4.7s,0.5790306321170299,0.9228964395751875,1.2228580713272095,2.5856637954711914,0.6425522565841675,-0.3940269351005554,0.6387344598770142,0.5371209383010864,-0.17132170497321345,1.7670509418237845,2.7369144036427153,0.9664451479911804,0.17048485577106476,0.1921425312757492,0.39316714879776815
1727345765215,9i,9.546932981066655,4.7s : 4.7s,0.6215020501866841,0.9904361793303125,1.47984778881073,2.6620190143585205,0.630628228187561,-0.34089744091033936,0.7101974487304688,0.600310206413269,-0.167894229577179,1.7908008555156851,2.722239973899388,0.9621742367744446,0.16710655391216278,0.2151654213666916,0.40372823149387027
1727345765225,9i,9.546932981066655,4.7s : 4.7s,0.6730178101892541,1.071711164955694,1.7537171840667725,2.7225775718688965,0.5905483961105347,-0.2838897705078125,0.7944747805595398,0.6608942747116089,-0.16567843144318356,1.8147940442310464,2.7048664123446753,0.95709228515625,0.16492150723934174,0.23827578127384186,0.41474279267484604
1727345765235,9i,9.546932981066655,4.7s : 4.7s,0.7304737481823852,1.1251101882256367,1.8964154720306396,2.8088085651397705,0.45817598700523376,-0.23443937301635742,0.8517788648605347,0.6966949701309204,-0.16517604944737604,1.839156614900703,2.685505536971084,0.9510836601257324,0.16442598402500153,0.2615419626235962,0.4262256360604718
1727345765245,9i,9.546932981066655,4.7s : 4.7s,0.7907409443704235,1.0983545629188511,1.8904951810836792,2.944024085998535,0.2080051600933075,-0.1902647614479065,0.8286295533180237,0.6953812837600708,-0.16725103800380756,1.8647201445984742,2.6661681281902117,0.9437592029571533,0.16647237539291382,0.28566744923591614,0.4381496163882084
1727345765255,9i,9.546932981066655,4.7s : 4.7s,0.8539247701590971,1.0218163258387318,1.9242651462554932,3.047924041748047,0.0159025676548481,-0.12725979089736938,0.733889639377594,0.6995137929916382,-0.17197079489532846,1.8914543812367557,2.647480522541344,0.9350296854972839,0.1711243987083435,0.31054195761680603,0.4504793923795481
1727345765265,9i,9.546932981066655,4.7s : 4.7s,0.9209423184262442,0.9896294458181201,2.0553016662597656,3.159945249557495,-0.17383724451065063,-0.049870073795318604,0.6577787399291992,0.7377035617828369,-0.17920798646036556,1.9191889980433414,2.6287376939827536,0.9248700737953186,0.1782502979040146,0.3359202742576599,0.46320485776473663
1727345765275,9i,9.546932981066655,4.7s : 4.7s,0.9927710050660016,1.0145805363867735,2.3346521854400635,3.242400884628296,-0.3792729377746582,0.017050087451934814,0.6627449989318848,0.7680182456970215,-0.18953836456332168,1.9475335276118813,2.60900155432909,0.9132173657417297,0.18840554356575012,0.36130014061927795,0.47631408472221
1727345765285,9i,9.546932981066655,4.7s : 4.7s,1.071014795586158,1.081725314952081,2.7076730728149414,3.332448720932007,-0.6070598363876343,0.07010936737060547,0.7467293739318848,0.7794931530952454,-0.20366558354136513,1.9760749944451614,2.5871834196636074,0.8999987840652466,0.20226050913333893,0.38612598180770874,0.48979141005989896
1727345765295,9i,9.546932981066655,4.7s : 4.7s,1.1553786121250553,1.1704020554126615,3.0183987617492676,3.4359755516052246,-0.8802357316017151,0.1067308783531189,0.8438928127288818,0.8039243817329407,-0.2221072739997055,2.004845720424569,2.5634861520317367,0.8849837183952332,0.22028562426567078,0.41021764278411865,0.5036479715430711
1727345765305,9i,9.546932981066655,4.7s : 4.7s,1.24235313628073,1.2366035626235294,3.068171501159668,3.547083854675293,-1.1752568483352661,0.15130430459976196,0.9134259819984436,0.8197245597839355,-0.24466253446995725,2.0342467637287154,2.5397648630176324,0.8678759932518005,0.2422289252281189,0.43372413516044617,0.5178852404739196
1727345765315,9i,9.546932981066655,4.7s : 4.7s,1.327106257313383,1.3083716640157121,2.8660049438476562,3.6187846660614014,-1.423314094543457,0.22671473026275635,0.9654828310012817,0.8533930778503418,-0.2698513104777616,2.0646813532029773,2.5186832493006963,0.8486331105232239,0.26658812165260315,0.4568946063518524,0.5325139588120092
1727345765325,9i,9.546932981066655,4.7s : 4.7s,1.4064787463192903,1.3742144885627603,2.6465139389038086,3.575768232345581,-1.6354693174362183,0.3336741328239441,0.9817339181900024,0.9018456339836121,-0.29659762619629576,2.095840510396795,2.5015181750864093,0.8275195956230164,0.2922680974006653,0.479364812374115,0.5475450028023776
1727345765335,9i,9.546932981066655,4.7s : 4.7s,1.4827485683065713,1.401497536545772,2.631493330001831,3.482935667037964,-1.8108136653900146,0.4466506242752075,0.9520230889320374,0.9264721274375916,-0.3248710760566617,2.1267508561984863,2.487226111172451,0.8049666881561279,0.31918659806251526,0.5001484751701355,0.5629549996061223
1727345765345,9i,9.546932981066655,4.7s : 4.7s,1.5573530208477224,1.4468041079009162,2.7158186435699463,3.376616954803467,-1.9744189977645874,0.5326246619224548,0.9338000416755676,0.9682822823524475,-0.35520825474323653,2.156574382127287,2.4742481977112805,0.7812638282775879,0.347785621881485,0.5183358788490295,0.5787503844994643
1727345765355,9i,9.546932981066655,4.7s : 4.7s,1.632973429536579,1.5529185833649215,2.7778077125549316,3.3867874145507812,-2.175093173980713,0.5834823846817017,0.9788657426834106,1.0549532175064087,-0.38779081997981807,2.1860116781095362,2.462447632740327,0.7560103535652161,0.37814420461654663,0.5342803001403809,0.5950099487860107
1727345765365,9i,9.546932981066655,4.7s : 4.7s,1.7093050556805651,1.670660733953253,2.749401569366455,3.440425395965576,-2.3946192264556885,0.6262217164039612,1.051824688911438,1.1369338035583496,-0.42255211741604226,2.216261129688248,2.4528147053669143,0.7285604476928711,0.4100894331932068,0.5486590266227722,0.6118187773965318
1727345765375,9i,9.546932981066655,4.7s : 4.7s,1.785710864742718,1.7779972565188031,2.647244453430176,3.5164124965667725,-2.599604368209839,0.6967352628707886,1.0830916166305542,1.2258657217025757,-0.4588411117594686,2.248204118144335,2.4461782851038323,0.6986046433448792,0.4429093897342682,0.5619456768035889,0.6292504170254399
1727345765385,9i,9.546932981066655,4.7s : 4.7s,1.8606200937438828,1.8518238365350745,2.518152952194214,3.54683518409729,-2.7760353088378906,0.8065580725669861,1.053539514541626,1.291808843612671,-0.49603294692388017,2.2821695060440574,2.4433053563639233,0.6661743521690369,0.4759403467178345,0.5741884708404541,0.6473266261425837
1727345765395,9i,9.546932981066655,4.7s : 4.7s,1.9351893769716875,1.9011752096910632,2.5554559230804443,3.5088648796081543,-2.9200551509857178,0.9385702013969421,0.9877113699913025,1.3258881568908691,-0.5342269225685763,2.317607287755592,2.4434664221421567,0.6316048502922058,0.5091758370399475,0.5846496820449829,0.6660215989039355
1727345765405,9i,9.546932981066655,4.7s : 4.7s,2.009871435983519,1.9205335355256778,2.6735923290252686,3.430349588394165,-3.0681312084198,1.067659616470337,0.9013542532920837,1.3176162242889404,-0.5758565238752055,2.354044271133295,2.446074559596173,0.5943429470062256,0.5445533990859985,0.5917925238609314,0.6852658928189881
1727345765415,9i,9.546932981066655,4.7s : 4.7s,2.087315151286412,1.9196102010240532,2.8349852561950684,3.437645196914673,-3.2047312259674072,1.1527972221374512,0.8397194743156433,1.2848474979400635,-0.6175728880104853,2.3906227850211414,2.4501798008859854,0.5563092231750488,0.579058051109314,0.5959967970848083,0.7049920919865823
1727345765425,9i,9.546932981066655,4.7s : 4.7s,2.1682880446829054,1.8910698036795843,2.9376492500305176,3.525800943374634,-3.350172519683838,1.1992652416229248,0.7708116769790649,1.2424802780151367,-0.6609440766796953,2.429134379737233,2.4564809335220197,0.5160362720489502,0.6138623952865601,0.5973940491676331,0.7251363409667377
1727345765435,9i,9.546932981066655,4.7s : 4.7s,2.2504638454255095,1.8515497443911388,2.9585747718811035,3.579343795776367,-3.5045082569122314,1.2493985891342163,0.6767180562019348,1.187136173248291,-0.7055021686718883,2.4708408180657075,2.4662854883888388,0.47319647669792175,0.6484162211418152,0.5963569283485413,0.7456153132193538
1727345765445,9i,9.546932981066655,4.7s : 4.7s,2.331764776724287,1.8394633968145546,2.9432408809661865,3.5885348320007324,-3.6238958835601807,1.320116400718689,0.5905733108520508,1.1367239952087402,-0.750486483836172,2.5161296098716797,2.480548090520824,0.4281899034976959,0.681994616985321,0.5929058194160461,0.7663521553412992
1727345765455,9i,9.546932981066655,4.7s : 4.7s,2.413460060949493,1.86589172237197,3.0620920658111572,3.569613456726074,-3.7130353450775146,1.393292784690857,0.5514107942581177,1.1118602752685547,-0.7959150141523652,2.5648824935413375,2.499136428041608,0.38148733973503113,0.714504063129425,0.5864736437797546,0.7873174244025604
1727345765465,9i,9.546932981066655,4.7s : 4.7s,2.496153804445434,1.9084556405667847,3.1932718753814697,3.573011636734009,-3.80153751373291,1.4429266452789307,0.5607466101646423,1.1161222457885742,-0.8421969954478429,2.617184434468101,2.522020270277485,0.3333794176578522,0.7461077570915222,0.5763522386550903,0.808538686216164
1727345765475,9i,9.546932981066655,4.7s : 4.7s,2.5839512749138667,1.968644378326734,3.408062219619751,3.708381175994873,-3.8853023052215576,1.4412896633148193,0.5891305804252625,1.2046451568603516,-0.8893595964689698,2.67480465271359,2.5500029554880657,0.2834722399711609,0.7766684889793396,0.5625211596488953,0.8301443431068566
1727345765485,9i,9.546932981066655,4.7s : 4.7s,2.67766155885947,2.0034976054996294,3.704667329788208,3.8234496116638184,-3.986887216567993,1.4292970895767212,0.5678839683532715,1.2839860916137695,-0.9381406409941146,2.7393405746639843,2.5839207314830204,0.23148471117019653,0.8064600825309753,0.5440933108329773,0.8522292333735769
1727345765495,9i,9.546932981066655,4.7s : 4.7s,2.7714408451016284,2.0604562617647257,3.853315591812134,3.8125016689300537,-4.061846733093262,1.4519354104995728,0.537943422794342,1.359404444694519,-0.9878772807781171,2.8119721942119753,2.62588085921291,0.17817619442939758,0.8348593711853027,0.520829439163208,0.8748688826686085
1727345765505,9i,9.546932981066655,4.7s : 4.7s,2.8617771224839332,2.131691823817805,3.865959405899048,3.751694679260254,-4.124379634857178,1.509558081626892,0.5354407429695129,1.4066441059112549,-1.03656857956873,2.8949044893334186,2.6791010028658677,0.12433768808841705,0.8606621026992798,0.4937618374824524,0.8981148449469372
1727345765515,9i,9.546932981066655,4.7s : 4.7s,2.9452062892696733,2.137458414598645,3.6294593811035156,3.6764919757843018,-4.248485088348389,1.5569028854370117,0.45999467372894287,1.3903908729553223,-1.0815819568681873,2.991740946557879,2.7476076582004247,0.07015689462423325,0.8827023506164551,0.46466583013534546,0.9219270258436898
1727345765525,9i,9.546932981066655,4.7s : 4.7s,3.0217397939013195,2.1129190005526763,3.397867202758789,3.5678517818450928,-4.385794639587402,1.580784797668457,0.2969912886619568,1.3701614141464233,-1.1205044378928706,3.106046208838569,2.8351809554085934,0.015467563644051552,0.9003201127052307,0.4349534511566162,0.9462276877703422
1727345765535,9i,9.546932981066655,4.7s : 4.7s,3.091843697940792,2.090751525835119,3.1609601974487305,3.4590532779693604,-4.526987552642822,1.5690386295318604,0.10798847675323486,1.3775696754455566,-1.1519083652237472,-3.0439935072720017,2.943303307259531,-0.03963499143719673,0.9135417938232422,0.40480950474739075,0.9709579877201585
1727345765545,9i,9.546932981066655,4.7s : 4.7s,3.159959362939567,2.0665082228784395,3.0351076126098633,3.5036048889160156,-4.608704566955566,1.5347535610198975,0.04808551073074341,1.3829951286315918,-1.1743774115241556,-2.8928910036197473,3.070108509976508,-0.09504111856222153,0.9224496483802795,0.3742374777793884,0.9961132244719697
1727345765555,9i,9.546932981066655,4.7s : 4.7s,3.228718715213671,2.0124631732639986,3.0602035522460938,3.5698561668395996,-4.667161464691162,1.4979677200317383,0.10083991289138794,1.3401238918304443,-1.1880658231000194,-2.7267334988993666,-3.071683271741942,-0.1505252718925476,0.9276483654975891,0.3417762219905853,1.0216879587255667
1727345765565,9i,9.546932981066655,4.7s : 4.7s,3.298142382467571,1.949801736797631,3.1412405967712402,3.6018309593200684,-4.719504356384277,1.4824104309082031,0.15800267457962036,1.2566707134246826,-1.192576540999433,-2.550838161622124,-2.920875670014652,-0.20567721128463745,0.9293234944343567,0.30668386816978455,1.0476362833652464
1727345765575,9i,9.546932981066655,4.7s : 4.7s,3.3669635324260714,1.910961521767737,3.337468385696411,3.51651930809021,-4.727031707763672,1.4934091567993164,0.1623842716217041,1.1811580657958984,-1.1880094273414081,-2.372619563355757,-2.7673520401681233,-0.2597360908985138,0.9276273250579834,0.2684117257595062,1.073897245402544
1727345765585,9i,9.546932981066655,4.7s : 4.7s,3.431094585814636,1.891168805337045,3.471174955368042,3.2968533039093018,-4.705034255981445,1.506502389907837,0.11322104930877686,1.1376075744628906,-1.1748237406347994,-2.200384294095116,-2.618047957252636,-0.3117545247077942,0.9226218461990356,0.22710813581943512,1.1004197670220945
1727345765595,9i,9.546932981066655,4.7s : 4.7s,3.48588089649692,1.8573867589021085,3.3006551265716553,3.0583689212799072,-4.701532363891602,1.5012321472167969,0.07578825950622559,1.0910745859146118,-1.152631673338395,-2.0443236814705217,-2.4826608611381262,-0.36140066385269165,0.9138357639312744,0.18518581986427307,1.1271562398223134
1727345765605,9i,9.546932981066655,4.7s : 4.7s,3.532040688966444,1.7855334437766137,3.0016047954559326,2.927471876144409,-4.711588382720947,1.4503120183944702,0.02153146266937256,1.041278600692749,-1.1219626039660722,-1.9114819686261029,-2.3692354874561,-0.4089760184288025,0.9009537696838379,0.14498548209667206,1.1540459859572878
1727345765615,9i,9.546932981066655,4.7s : 4.7s,3.570139424469956,1.6955214913067533,2.6082355976104736,2.9252021312713623,-4.679657936096191,1.3752825260162354,-0.10458499193191528,0.9861303567886353,-1.0848159265016084,-1.8030287421639712,-2.2803926961377665,-0.45453667640686035,0.8842174410820007,0.10749765485525131,1.1809880173405363
1727345765625,9i,9.546932981066655,4.7s : 4.7s,3.6032780952607784,1.6064677210510783,2.366920232772827,2.9832146167755127,-4.604484558105469,1.3279472589492798,-0.22818875312805176,0.8747711181640625,-1.0439030279299446,-1.7140265932544434,-2.2123954921780333,-0.49770140647888184,0.8643734455108643,0.07177741080522537,1.2078311407100555
1727345765635,9i,9.546932981066655,4.7s : 4.7s,3.6312782324990693,1.5573618446245718,2.2278175354003906,3.010512113571167,-4.453603267669678,1.3044981956481934,-0.2977176308631897,0.796884298324585,-1.0012884121648171,-1.6391720605164861,-2.159738870146328,-0.5379576683044434,0.8421664237976074,0.036840684711933136,1.2344881967080494
1727345765645,9i,9.546932981066655,4.7s : 4.7s,3.653775059124611,1.5337270955887188,2.0984883308410645,2.9943995475769043,-4.307228088378906,1.3019418716430664,-0.3072351813316345,0.7502484321594238,-0.9584697976053873,-1.5744260823003506,-2.11797694545153,-0.5747690796852112,0.8183130025863647,0.0020862803794443607,1.2609346984615486
1727345765655,9i,9.546932981066655,4.7s : 4.7s,3.6667093153533203,1.5319442592155832,1.7856229543685913,2.854339599609375,-4.193048477172852,1.3080406188964844,-0.3221575617790222,0.7294501066207886,-0.9155389338177333,-1.5200113797040329,-2.0867934462817823,-0.6085776686668396,0.7928910851478577,-0.030933184549212456,1.2871714994246726
1727345765665,9i,9.546932981066655,4.7s : 4.7s,3.6703496014650416,1.5526659343149496,1.5892763137817383,2.7176949977874756,-3.968299388885498,1.3008238077163696,-0.3883029818534851,0.7535580396652222,-0.8736463823258026,-1.4753206264216436,-2.0651003228094345,-0.6391112208366394,0.7666751146316528,-0.061205681413412094,1.3132192258256343
1727345765675,9i,9.546932981066655,4.7s : 4.7s,3.6692047895040503,1.5739936013847982,1.7255041599273682,2.553938150405884,-3.729560613632202,1.299617052078247,-0.49880313873291016,0.7346065640449524,-0.8336357629505673,-1.435289395132342,-2.046996554942446,-0.6660263538360596,0.7403801679611206,-0.09080767631530762,1.339039111389903
1727345765685,9i,9.546932981066655,4.7s : 4.7s,3.6638841209887048,1.548078682212164,1.803221344947815,2.4184134006500244,-3.537010908126831,1.2728828191757202,-0.5790658593177795,0.6640780568122864,-0.7950848413481881,-1.3978935763767562,-2.02962713985776,-0.6897835731506348,0.7139230370521545,-0.12046836316585541,1.3645540063129733
1727345765695,9i,9.546932981066655,4.7s : 4.7s,3.6545963307258997,1.477320923550253,1.820471167564392,2.3502037525177,-3.3296449184417725,1.238145351409912,-0.5644195079803467,0.5752424001693726,-0.7580363816018366,-1.3630477552610298,-2.0138632783756183,-0.7105727791786194,0.6874968409538269,-0.14978152513504028,1.3899292400746082
1727345765705,9i,9.546932981066655,4.7s : 4.7s,3.64220593801471,1.4159063775980263,1.933457851409912,2.2229137420654297,-3.139134407043457,1.2237858772277832,-0.5471306443214417,0.4558366537094116,-0.7224445989492327,-1.330080947068866,-1.9989295490333263,-0.7285619378089905,0.6612205505371094,-0.17884378135204315,1.4152275578609994
1727345765715,9i,9.546932981066655,4.7s : 4.7s,3.626027898667091,1.3954531920523747,2.019211530685425,2.0452003479003906,-2.9764456748962402,1.198073148727417,-0.6066253781318665,0.3793626129627228,-0.687898601902234,-1.2989765978175007,-1.9838778536263137,-0.744215726852417,0.6349150538444519,-0.20742648839950562,1.4400308387667748
1727345765724,9i,9.546932981066655,4.7s : 4.7s,3.603574220560957,1.3945721847386283,1.9459826946258545,1.811680555343628,-2.827265739440918,1.1631910800933838,-0.682685911655426,0.35462379455566406,-0.6545120520270907,-1.2710833645893123,-1.9699953885004575,-0.7579786777496338,0.6087722182273865,-0.23423191905021667,1.4647160900007306
1727345765734,9i,9.546932981066655,4.7s : 4.7s,3.5751437150138425,1.3807801625770784,1.766933798789978,1.6794300079345703,-2.665731191635132,1.1338223218917847,-0.7231002449989319,0.3132520318031311,-0.6227469858930812,-1.2468795551138696,-1.9584618396551108,-0.7700376510620117,0.5832687020301819,-0.25853395462036133,1.4890856707890254
1727345765744,9i,9.546932981066655,4.7s : 4.7s,3.5438540407638848,1.3392841760399177,1.5945838689804077,1.699413776397705,-2.520211935043335,1.1015410423278809,-0.716891884803772,0.2575955390930176,-0.5928222699541791,-1.2249235197854416,-1.9494978901240574,-0.7802519798278809,0.5587039589881897,-0.2811703383922577,1.5128157181962292
1727345765754,9i,9.546932981066655,4.7s : 4.7s,3.50957149669682,1.2893157983641235,1.3763841390609741,1.756045937538147,-2.3616604804992676,1.078468918800354,-0.6780833601951599,0.198602557182312,-0.5648167227126253,-1.204174624929443,-1.9430822502479284,-0.7885519862174988,0.5352610349655151,-0.3027895390987396,1.5359048013264534
1727345765764,9i,9.546932981066655,4.7s : 4.7s,3.4720097951148117,1.2588847080403094,1.2773207426071167,1.7643311023712158,-2.1347169876098633,1.0792806148529053,-0.6347090601921082,0.13072288036346436,-0.5391440396034096,-1.1840930725383312,-1.9384428275275578,-0.7947806119918823,0.5134016275405884,-0.32363972067832947,1.5583508448296846
1727345765774,9i,9.546932981066655,4.7s : 4.7s,3.430316896966343,1.2671839808797747,1.3063422441482544,1.6371984481811523,-1.8745964765548706,1.0975010395050049,-0.6285109519958496,0.07887136936187744,-0.5157948694511199,-1.1645942496108312,-1.9336394886997366,-0.7991154789924622,0.49322646856307983,-0.34371817111968994,1.5801586658922304
1727345765784,9i,9.546932981066655,4.7s : 4.7s,3.382077214905664,1.2803194148906971,1.2710175514221191,1.3832517862319946,-1.622681736946106,1.1070467233657837,-0.6422742605209351,0.03389883041381836,-0.4948510164079575,-1.1467612573291577,-1.928132983679169,-0.802099883556366,0.4749005436897278,-0.3620848059654236,1.601330429254013
1727345765794,9i,9.546932981066655,4.7s : 4.7s,3.326800331410514,1.2787177717360987,1.1816295385360718,1.1139825582504272,-1.3589028120040894,1.0920398235321045,-0.6650287508964539,-0.017462074756622314,-0.4764450411101226,-1.1316686092167842,-1.9225762969219,-0.8043201565742493,0.4586230218410492,-0.3778015375137329,1.6222595220890503
1727345765804,9i,9.546932981066655,4.7s : 4.7s,3.266855219396098,1.287269233404982,1.142974615097046,0.8605383634567261,-1.135539174079895,1.0470163822174072,-0.7436984181404114,-0.08792859315872192,-0.4603309469476646,-1.1192464578956056,-1.9168434526634492,-0.8061107397079468,0.4442446231842041,-0.3909379243850708,1.6431063663596095
1727345765814,9i,9.546932981066655,4.7s : 4.7s,3.204527218206326,1.3119300508331873,1.072409749031067,0.6526999473571777,-0.9968856573104858,0.9773156046867371,-0.862465500831604,-0.1488889753818512,-0.4459476807807657,-1.1091496449552967,-1.9109373990734233,-0.8077600002288818,0.43131306767463684,-0.40186166763305664,1.6637402065630096
1727345765824,9i,9.546932981066655,4.7s : 4.7s,3.142078751983887,1.3056174775470484,0.948258101940155,0.5831154584884644,-0.8920381665229797,0.8855587244033813,-0.9484027624130249,-0.1447582244873047,-0.43301487312024506,-1.1008317768152447,-1.905580822309391,-0.8092954158782959,0.41960930824279785,-0.41105836629867554,1.6840339674510016
1727345765834,9i,9.546932981066655,4.7s : 4.7s,3.0810934262195357,1.2555582188872934,0.7318397760391235,0.6904794573783875,-0.7830357551574707,0.8000522255897522,-0.9629170894622803,-0.09556964039802551,-0.42175099413058437,-1.0928233701353796,-1.901460627638539,-0.8101230263710022,0.4093586504459381,-0.4196738004684448,1.7041989160332223
1727345765844,9i,9.546932981066655,4.7s : 4.7s,3.0219011319097295,1.1651651680466322,0.438381165266037,0.8634056448936462,-0.7134893536567688,0.7490933537483215,-0.8916417360305786,-0.038000404834747314,-0.4124198658003413,-1.0842902274906336,-1.8996327290369954,-0.8098539710044861,0.40082746744155884,-0.4283386766910553,1.723588405906478
1727345765854,9i,9.546932981066655,4.7s : 4.7s,2.963361336102983,1.0832927261479064,0.2747480273246765,0.9738911390304565,-0.5305554866790771,0.7396512627601624,-0.7913371920585632,0.014986276626586914,-0.40525994803489174,-1.0750767460292772,-1.8995244065230137,-0.8083769083023071,0.39425766468048096,-0.4371359050273895,1.7423278621709315
1727345765864,9i,9.546932981066655,4.7s : 4.7s,2.9033558407407183,1.0560984172574572,0.1626027226448059,0.9820418357849121,-0.257943332195282,0.784425675868988,-0.7062520980834961,0.03504568338394165,-0.4006961079636954,-1.065105980465922,-1.8994573645671413,-0.8055438995361328,0.3900594115257263,-0.4460411071777344,1.7605212760931597
1727345765874,9i,9.546932981066655,4.7s : 4.7s,2.839780515930402,1.0691684327328725,0.012697909958660603,0.841283917427063,0.014768093824386597,0.8531325459480286,-0.6421061754226685,0.054641157388687134,-0.3992403802376488,-1.055858936447216,-1.8993000554107309,-0.8018782734870911,0.3887185752391815,-0.45374998450279236,1.7782708264801812
1727345765884,9i,9.546932981066655,4.7s : 4.7s,2.7726432009046946,1.116693092347826,-0.07185652107000351,0.5975358486175537,0.28697532415390015,0.9150065183639526,-0.6359419822692871,0.07310491800308228,-0.4007318345869923,-1.0484405429949115,-1.8988051909721517,-0.7979869246482849,0.39009231328964233,-0.4593963921070099,1.7956534599526155
1727345765894,9i,9.546932981066655,4.7s : 4.7s,2.702866481577135,1.1772771537604527,-0.118853859603405,0.3184801936149597,0.5588493943214417,0.9515426754951477,-0.6898016929626465,0.06871432065963745,-0.4048576458923427,-1.043315775061965,-1.897426569269821,-0.7942246198654175,0.3938879072666168,-0.46266570687294006,1.8130635015473726
1727345765904,9i,9.546932981066655,4.7s : 4.7s,2.6316585721609753,1.2236201530400133,-0.11765396595001221,0.05271759256720543,0.8332017064094543,0.9569979310035706,-0.7619503736495972,0.028859436511993408,-0.41149644436839705,-1.0404039382269197,-1.8947288325363507,-0.7906008958816528,0.399981290102005,-0.463643342256546,1.8300853218206643
1727345765914,9i,9.546932981066655,4.7s : 4.7s,2.5609666891852787,1.2426400684446903,-0.11702599376440048,-0.13406719267368317,1.0987963676452637,0.9293800592422485,-0.8244408369064331,-0.026539623737335205,-0.42039380853651503,-1.0391915310943938,-1.8904517619321353,-0.7869393229484558,0.4081200063228607,-0.46277916431427,1.8466715424630709
1727345765924,9i,9.546932981066655,4.7s : 4.7s,2.493328719687748,1.2194694254371596,-0.19463564455509186,-0.17897804081439972,1.304050326347351,0.8721293807029724,-0.8505818843841553,-0.05483138561248779,-0.4315396098573909,-1.0386678025516498,-1.885213369939535,-0.7827281951904297,0.4182697534561157,-0.46085458993911743,1.8627987735857445
1727345765934,9i,9.546932981066655,4.7s : 4.7s,2.43107635922276,1.1743568827339943,-0.25120091438293457,-0.16216149926185608,1.4565424919128418,0.825747549533844,-0.8335350751876831,-0.04974284768104553,-0.444629148394228,-1.0379985792953814,-1.8796460123104899,-0.7776366472244263,0.43012312054634094,-0.4585578739643097,1.8788016533576228
1727345765944,9i,9.546932981066655,4.7s : 4.7s,2.3765886282962905,1.1443719213980643,-0.22483794391155243,-0.0590546540915966,1.5868613719940186,0.8146479725837708,-0.8034261465072632,-0.021028608083724976,-0.4589061355082307,-1.0362728983751313,-1.873306561083675,-0.771480917930603,0.4429676830768585,-0.45672404766082764,1.894814859141649
1727345765954,9i,9.546932981066655,4.7s : 4.7s,2.328950553641249,1.1484909110074495,-0.212241992354393,0.018068891018629074,1.747031807899475,0.858721911907196,-0.7626432180404663,0.0018364787101745605,-0.4742872108837885,-1.0331708341007497,-1.8658941926458137,-0.7641174793243408,0.4567044675350189,-0.45557183027267456,1.9108564398541725
1727345765964,9i,9.546932981066655,4.7s : 4.7s,2.3185003037890786,1.1845235572291641,-0.28227806091308594,0.0775841474533081,1.9395420551300049,0.9408241510391235,-0.7183644771575928,0.04357123374938965,-0.4913111802860748,-1.0287449411923804,-1.8575494644132995,-0.7553231716156006,0.471782386302948,-0.45487186312675476,1.9266669559092533
1727345765974,9i,9.546932981066655,4.7s : 4.7s,2.275654796564221,1.2489768221656232,-0.4230074882507324,0.02923392876982689,2.174078941345215,1.0313410758972168,-0.6966928839683533,0.10439211130142212,-0.5106868364288232,-1.0239688469693449,-1.8488398821581629,-0.7451930642127991,0.4887765645980835,-0.45363524556159973,1.942377106991617
1727345765984,9i,9.546932981066655,4.7s : 4.7s,2.236549104160847,1.3304019317697635,-0.5369666218757629,-0.10825388878583908,2.419403076171875,1.1143851280212402,-0.710376501083374,0.1532328724861145,-0.5327716771014208,-1.0197765142790922,-1.8397645310819466,-0.7339072823524475,0.5079228281974792,-0.4509928226470947,1.958090061848321
1727345765994,9i,9.546932981066655,4.7s : 4.7s,2.201299758907464,1.4228362302881004,-0.6008571982383728,-0.3628600835800171,2.6699204444885254,1.1870667934417725,-0.7629027366638184,0.18252336978912354,-0.5573865814528041,-1.0168937683317145,-1.8298555418334568,-0.7217501997947693,0.5289701819419861,-0.44639357924461365,1.9738746629692994
1727345766004,9i,9.546932981066655,4.7s : 4.7s,2.1706249524056846,1.519756996402458,-0.5901711583137512,-0.707141101360321,2.942714214324951,1.2507245540618896,-0.8444523215293884,0.17958199977874756,-0.5843793947502807,-1.0160537325919317,-1.818393417527365,-0.7089765667915344,0.5516818761825562,-0.4393170475959778,1.9897597164903973
1727345766014,9i,9.546932981066655,4.7s : 4.7s,2.146903619445532,1.6144089882023585,-0.5469376444816589,-0.9743086099624634,3.181180000305176,1.2981302738189697,-0.948180079460144,0.1487572193145752,-0.6133452201650453,-1.0168111803383366,-1.804687352394099,-0.6954235434532166,0.5756061673164368,-0.4301902651786804,2.0057383716615793
1727345766024,9i,9.546932981066655,4.7s : 4.7s,2.1325866731080154,1.6807659383506843,-0.49582961201667786,-1.0637636184692383,3.430635929107666,1.3121001720428467,-1.040272831916809,0.14560121297836304,-0.6441634748351522,-1.0177072887138445,-1.7887765114665888,-0.6803864240646362,0.6005297899246216,-0.42004573345184326,2.0218168940266406
1727345766034,9i,9.546932981066655,4.7s : 4.7s,2.129570880290527,1.7013505335126953,-0.38439124822616577,-0.992546558380127,3.6365835666656494,1.2979556322097778,-1.0772072076797485,0.2225521206855774,-0.6764975941586794,-1.016515033441462,-1.7699902987189353,-0.6630222201347351,0.6260657906532288,-0.410418301820755,2.0380695268263076
1727345766044,9i,9.546932981066655,4.7s : 4.7s,2.1377416684014916,1.7027595950696781,-0.35163164138793945,-0.807657778263092,3.8396100997924805,1.2941389083862305,-1.0605354309082031,0.31600525975227356,-0.7100738636193956,-1.0117356531302326,-1.748380372368169,-0.6428632736206055,0.6518898010253906,-0.4022020995616913,2.054596404463902
1727345766054,9i,9.546932981066655,4.7s : 4.7s,2.1563565065252166,1.7397043238447143,-0.38843414187431335,-0.627223551273346,4.094047546386719,1.3442388772964478,-1.0203876495361328,0.4223766326904297,-0.7454684355124102,-1.002732003070274,-1.7241888465748199,-0.6193702220916748,0.678316056728363,-0.3953074812889099,2.071537109443167
1727345766064,9i,9.546932981066655,4.7s : 4.7s,2.183478251357058,1.8532651007095753,-0.8449511528015137,-0.655086874961853,4.515711307525635,1.4571073055267334,-1.003096580505371,0.5524736046791077,-0.784535105263194,-0.9913106611494932,-1.6986462594203573,-0.592178225517273,0.7064962387084961,-0.3875413239002228,2.0890765331080208
1727345766074,9i,9.546932981066655,4.7s : 4.7s,2.2208044428743863,2.046532343480311,-1.5600918531417847,-0.8950350284576416,5.123046398162842,1.6411936283111572,-1.0279350280761719,0.6619121432304382,-0.8313277050413455,-0.9817031165968835,-1.6749026695905485,-0.560306966304779,0.7388267517089844,-0.37442126870155334,2.1074088349820235
1727345766084,9i,9.546932981066655,4.7s : 4.7s,2.271810233826162,2.3373803163759717,-2.110126495361328,-1.3051215410232544,5.698622226715088,1.8689961433410645,-1.1919727325439453,0.7412160038948059,-0.8864188761477869,-0.975249905821746,-1.6519236188675175,-0.5233542323112488,0.7748127579689026,-0.354634553194046,2.1267024770730694
1727345766094,9i,9.546932981066655,4.7s : 4.7s,2.339495229030267,2.663821688217399,-2.774441957473755,-1.7649602890014648,6.235448360443115,2.045140504837036,-1.4590175151824951,0.8857845067977905,-0.9494016007172851,-0.9731787591354865,-1.6300115010630027,-0.4812673330307007,0.8130672574043274,-0.32757219672203064,2.147138680316902
1727345766104,9i,9.546932981066655,4.7s : 4.7s,2.4271435493856255,2.9272434291587044,-3.1515469551086426,-2.059541940689087,6.747729301452637,2.168391704559326,-1.651665210723877,1.0671614408493042,-1.0197603757706324,-0.9747429548047072,-1.608844890283119,-0.4332844913005829,0.851982593536377,-0.2939222455024719,2.1689101738331606
1727345766114,9i,9.546932981066655,4.7s : 4.7s,2.537201903585192,3.1100846385799343,-3.2865371704101562,-2.1924190521240234,7.373316287994385,2.2672979831695557,-1.734260082244873,1.234636902809143,-1.0960222149946957,-0.9728954100401663,-1.582335131449913,-0.3778327405452728,0.8893960118293762,-0.2573266327381134,2.192193453037233
1727345766124,9i,9.546932981066655,4.7s : 4.7s,2.6737678374086125,3.211030095100474,-3.4963738918304443,-2.395879030227661,8.243515014648438,2.4327552318573,-1.6236965656280518,1.3251512050628662,-1.1791436013076901,-0.9608377566309648,-1.543809409564639,-0.31288233399391174,0.9242794513702393,-0.21866007149219513,2.217156399806877
1727345766134,9i,9.546932981066655,4.7s : 4.7s,2.844836039350309,3.358867377218547,-3.823984384536743,-2.729872226715088,9.47740650177002,2.7510600090026855,-1.3628123998641968,1.362498164176941,-1.2721079484040898,-0.9236211415641359,-1.4772071303164103,-0.23476377129554749,0.9557232856750488,-0.17742426693439484,2.2440235778645135
1727345766144,9i,9.546932981066655,4.7s : 4.7s,3.0541967973165907,3.664596337096526,-4.464493274688721,-3.1514265537261963,10.735671043395996,3.20206880569458,-1.154411792755127,1.3577021360397339,-1.3760792838541054,-0.8200580541181582,-1.3402417081811757,-0.1414763182401657,0.981102466583252,-0.1319940686225891,2.2730503085738367
1727345766154,9i,9.546932981066655,4.7s : 4.7s,3.3026051180068414,4.15305084847003,-5.586174488067627,-3.4591383934020996,11.845726013183594,3.7200608253479004,-1.2379873991012573,1.369805097579956,-1.484255894969388,-0.3958007178286499,-0.8788999371787193,-0.033323973417282104,0.9962577223777771,-0.07975064963102341,2.3045173494305993
1727345766164,9i,9.546932981066655,4.7s : 4.7s,3.5859415040983555,4.916962415619305,-7.1424336433410645,-3.741826057434082,12.591264724731445,4.344627857208252,-1.59674072265625,1.6586582660675049,-1.4818630599162623,1.3740533709686544,0.9303373211626206,0.08710416406393051,0.9960480332374573,-0.017361722886562347,2.3389904364695497
1727345766174,9i,9.546932981066655,4.7s : 4.7s,3.901640702348144,6.092100312678723,-8.623916625976562,-4.862025260925293,13.039447784423828,5.304800987243652,-1.8970341682434082,2.3181962966918945,-1.3483358199566462,1.8163326640048147,1.4200210613914717,0.21401308476924896,0.9753575325012207,0.05363009497523308,2.377568179522547
1727345766184,9i,9.546932981066655,4.7s : 4.7s,4.267356681392961,7.541788360288624,-10.67043685913086,-6.361776351928711,13.809030532836914,6.6631999015808105,-1.6824452877044678,3.1063992977142334,-1.1910341783570904,1.928018427610671,1.5955223231138076,0.34729820489883423,0.9287528395652771,0.12962374091148376,2.4217214046035442
1727345766194,9i,9.546932981066655,4.7s : 4.7s,4.642840438779956,8.904884018739244,-11.631245613098145,-7.369495868682861,13.366825103759766,8.015936851501465,-1.0948295593261719,3.7206268310546875,-1.0216056175279606,1.9675978599256603,1.7162696934318926,0.48143890500068665,0.8529472351074219,0.2017364203929901,2.472730415702393
1727345766204,9i,9.546932981066655,4.7s : 4.7s,4.998418524735479,9.98663690395034,-11.166499137878418,-9.426212310791016,12.08344841003418,8.90846061706543,-0.7688201069831848,4.447601795196533,-0.8620238114247503,1.9608741876531823,1.811271570560685,0.6020064353942871,0.7591614127159119,0.24751250445842743,2.5315765110753734
1727345766214,9i,9.546932981066655,4.7s : 4.7s,5.383393285420505,11.492540978561761,-12.379971504211426,-10.582776069641113,12.180150985717773,10.052285194396973,0.7892630100250244,5.514265537261963,-0.7073328165298084,1.9251182810669694,1.90284408933641,0.7128821611404419,0.6498087644577026,0.26371943950653076,2.599651536833379
1727345766224,9i,9.546932981066655,4.7s : 4.7s,5.759615677328413,12.14323473607469,-14.050542831420898,-9.789177894592285,11.103043556213379,10.122795104980469,3.736207962036133,5.570271015167236,-0.5538894195761997,1.8836716026784543,2.009027506624604,0.8091962933540344,0.5259990692138672,0.2617756128311157,2.6766757616683092
1727345766234,9i,9.546932981066655,4.7s : 4.7s,6.032996669396083,10.135162927299143,-13.758909225463867,-7.9210591316223145,7.5951008796691895,8.957796096801758,3.5620594024658203,3.1290812492370605,-0.4216196652422508,1.8516550584259277,2.1309147339116166,0.8766763806343079,0.4092388153076172,0.2529073655605316,2.759463733049605
1727345766244,9i,9.546932981066655,4.7s : 4.7s,6.157885754651541,8.938472772315885,-11.801898002624512,-5.79042387008667,3.0655531883239746,8.748971939086914,1.466458797454834,1.0960310697555542,-0.3367283487144171,1.8273293058240878,2.2460479389696233,0.9129539728164673,0.3304009437561035,0.23947930335998535,2.8460671822492576
1727345766254,9i,9.546932981066655,4.7s : 4.7s,6.235815194714485,8.900576571908854,-12.385645866394043,-7.285940647125244,-1.0800504684448242,8.645787239074707,0.8227311968803406,1.9477524757385254,-0.29866305817827815,1.8007763634279412,2.3670838606555034,0.9305673241615295,0.2942427098751068,0.21786656975746155,2.936997234858227
1727345766264,9i,9.546932981066655,4.7s : 4.7s,6.270587744781519,10.697728115799103,-9.63736343383789,-9.23476791381836,-3.1374075412750244,9.489237785339355,1.8352041244506836,4.585605621337891,-0.2979856761679614,1.7529538368819328,2.486794684611074,0.9401140809059143,0.29359525442123413,0.17316842079162598,3.034751371725818
1727345766273,9i,9.546932981066655,4.7s : 4.7s,6.304720754577253,11.863207832861862,-5.823462963104248,-11.837804794311523,-2.5137131214141846,9.358302116394043,4.331108570098877,5.865098476409912,-0.31540680021639417,1.6734257452775292,2.5714100605242782,0.9456679821014404,0.3102032244205475,0.09739554673433304,3.1398679127836813
1727345766283,9i,9.546932981066655,4.7s : 4.7s,6.324384750472901,12.446347662507359,-2.2703535556793213,-13.447996139526367,-2.5007340908050537,8.354114532470703,6.555967330932617,6.491504669189453,-0.33751988525689436,1.559957650964109,2.614292493280725,0.9435233473777771,0.3311479389667511,-0.010226944461464882,3.251658835548851
1727345766293,9i,9.546932981066655,4.7s : 4.7s,6.325063983858374,11.35752864068444,-0.802874743938446,-12.1923189163208,-2.7756314277648926,7.213963031768799,6.047162055969238,6.354842662811279,-0.3647411782755986,1.437136131170762,2.6256251586114683,0.9258835911750793,0.35670751333236694,-0.12449604272842407,3.3687985091848187
1727345766303,9i,9.546932981066655,4.7s : 4.7s,6.377155620483529,9.507895522809244,-0.625474214553833,-13.878875732421875,-2.9186506271362305,6.197124481201172,4.302219390869141,5.786763668060303,-0.3935613450903077,1.3089262646213362,2.628667647243539,0.8920630812644958,0.38347992300987244,-0.23909516632556915,3.48980153204142
1727345766313,9i,9.546932981066655,4.7s : 4.7s,6.455672398352842,9.39551226140644,0.054613467305898666,-14.45946979522705,-3.035599708557129,6.3081183433532715,2.907274007797241,6.327009677886963,-0.4220380502928146,1.163935083533578,2.62065292556748,0.8377862572669983,0.4096205234527588,-0.361005961894989,3.614916345577291
1727345766323,9i,9.546932981066655,4.7s : 4.7s,6.550683345973797,8.348114883531984,-0.01345965825021267,-14.680109024047852,-4.430413722991943,5.4391560554504395,1.947428822517395,6.026120185852051,-0.45187164227810117,1.0102157373618095,2.602440009764437,0.7619397640228271,0.4366500973701477,-0.47831425070762634,3.742984283003727
1727345766333,9i,9.546932981066655,4.7s : 4.7s,6.654922154654216,7.7590088914341555,0.1504131555557251,-14.44176959991455,-5.420982360839844,4.801701545715332,1.573533058166504,5.888113021850586,-0.4859230666198974,0.8523074123945523,2.569931065173783,0.6656601428985596,0.4670247733592987,-0.5820518732070923,3.873197546639215
1727345766343,9i,9.546932981066655,4.7s : 4.7s,6.7585696579151735,7.589206993369718,1.1500095129013062,-13.899106979370117,-5.438310623168945,4.2053961753845215,1.9600253105163574,6.0057477951049805,-0.5169475334370798,0.6888174656992221,2.521374449310857,0.552568793296814,0.4942288398742676,-0.6711226105690002,4.005015615805505
1727345766353,9i,9.546932981066655,4.7s : 4.7s,6.851884858833634,7.67619760978881,3.106985330581665,-13.439115524291992,-5.3510284423828125,3.692295551300049,3.0080347061157227,6.020190238952637,-0.5312881110500552,0.5187341092560896,2.455487509988525,0.4274402856826782,0.5066443085670471,-0.7487364411354065,4.137954467053849
1727345766363,9i,9.546932981066655,4.7s : 4.7s,6.957146056243168,7.8439966481972325,4.765237808227539,-13.725184440612793,-5.407609462738037,3.5517828464508057,3.7724554538726807,5.889117240905762,-0.5173615302031579,0.3449809263760377,2.380148586139102,0.2939203083515167,0.494588702917099,-0.8179198503494263,4.271775545807468
1727345766373,9i,9.546932981066655,4.7s : 4.7s,7.074450928734982,7.50895043682509,5.752312660217285,-13.719721794128418,-6.033062934875488,3.5408713817596436,3.406460762023926,5.678256034851074,-0.48067161926825497,0.17059921701246386,2.3028193470443927,0.15053501725196838,0.46237480640411377,-0.8738127946853638,4.406279160479978
1727345766383,9i,9.546932981066655,4.7s : 4.7s,7.193859463555894,6.472143206771766,7.014116287231445,-13.307271003723145,-6.791591644287109,3.3265841007232666,2.151404619216919,5.1180009841918945,-0.4229022788299199,0.0016063118303974396,2.226043251022433,0.0014647977659478784,0.41040876507759094,-0.9119004607200623,4.540825361770809
1727345766393,9i,9.546932981066655,4.7s : 4.7s,7.318546403246953,5.545065299844691,8.366631507873535,-12.880017280578613,-7.177830696105957,3.0408389568328857,1.6346220970153809,4.3392462730407715,-0.34087415866839954,-0.15436236103287762,2.157570112474152,-0.14490371942520142,0.3343110680580139,-0.9312567114830017,4.67461855090782
1727345766403,9i,9.546932981066655,4.7s : 4.7s,7.453643450857969,5.400890870765099,9.634771347045898,-12.523628234863281,-7.299458026885986,3.185415029525757,1.849818229675293,3.949800729751587,-0.23714570276485128,-0.29634068858939433,2.104885011880998,-0.2838493883609772,0.2349291741847992,-0.9296439290046692,4.8075577638098865
1727345766413,9i,9.546932981066655,4.7s : 4.7s,7.595960881775816,5.705072874617484,10.490471839904785,-11.919783592224121,-7.482725143432617,3.4973204135894775,2.123163938522339,3.9760258197784424,-0.11780040897254364,-0.42470987723900483,2.071013408354128,-0.4092007279396057,0.11752814799547195,-0.9048435688018799,4.939977157394818
1727345766423,9i,9.546932981066655,4.7s : 4.7s,7.74775300691025,6.081753544690181,10.725174903869629,-11.42644214630127,-7.068934440612793,3.476897954940796,2.554790496826172,4.286251544952393,0.007030410903140084,-0.543658055772585,2.0606374312472715,-0.5172573328018188,-0.00703035295009613,-0.8558010458946228,5.072133495052813
1727345766433,9i,9.546932981066655,4.7s : 4.7s,7.906050167464083,6.533120620883278,10.576839447021484,-11.019632339477539,-6.261511325836182,3.5221118927001953,2.9579198360443115,4.639730930328369,0.13046979785780022,-0.6577499105684372,2.0695051516761276,-0.6061419248580933,-0.13009996712207794,-0.7846438884735107,5.204360909230323
1727345766443,9i,9.546932981066655,4.7s : 4.7s,8.060242787460671,6.397254172266687,10.338337898254395,-10.38642406463623,-5.550382614135742,3.3473997116088867,2.8080029487609863,4.6727824211120605,0.24758197431846568,-0.7703370266818471,2.0947838729871195,-0.6751431226730347,-0.24506038427352905,-0.695792555809021,5.336542756115108
1727345766453,9i,9.546932981066655,4.7s : 4.7s,8.203460642903286,5.831507816579729,9.426918983459473,-9.668869972229004,-5.223351001739502,3.053086042404175,2.2825236320495605,4.4130754470825195,0.35411779286299455,-0.8820701133737155,2.132786888223511,-0.7241522669792175,-0.3467630445957184,-0.5961198806762695,5.468235848583111
1727345766463,9i,9.546932981066655,4.7s : 4.7s,8.328959689952415,5.335171386897785,8.3930025100708,-8.83182144165039,-5.002260684967041,2.843271493911743,1.8673498630523682,4.110093116760254,0.4478784378940402,-0.9921284000715663,2.177685947172626,-0.7546179890632629,-0.43305420875549316,-0.4929664433002472,5.5990581211045045
1727345766473,9i,9.546932981066655,4.7s : 4.7s,8.43253146771104,4.749883285597429,7.644988059997559,-7.8608880043029785,-4.760148048400879,2.557253837585449,1.558580756187439,3.686823844909668,0.5300444946177476,-1.09922988308134,2.228090438374671,-0.7686184644699097,-0.505571722984314,-0.39194783568382263,5.7285048807631105
1727345766483,9i,9.546932981066655,4.7s : 4.7s,8.514633576931844,4.193754521934386,6.9799065589904785,-6.9025702476501465,-4.610024452209473,2.2726831436157227,1.3019778728485107,3.2752621173858643,0.6023685109081756,-1.2029834625820308,2.284657277179684,-0.7688838243484497,-0.566595733165741,-0.29628869891166687,5.856105008136048
1727345766493,9i,9.546932981066655,4.7s : 4.7s,8.574446376034016,3.8573241500246485,5.8988237380981445,-6.030633449554443,-4.359463691711426,2.0660665035247803,1.0541316270828247,3.0820651054382324,0.6653098746751022,-1.3015839703407528,2.343296985841668,-0.758388102054596,-0.6173029541969299,-0.20924712717533112,5.9816191449891285
1727345766503,9i,9.546932981066655,4.7s : 4.7s,8.62208890736973,3.710789893996667,5.072915077209473,-5.679879188537598,-3.561126947402954,1.9465556144714355,0.8702164888381958,3.037039041519165,0.7207120551312285,-1.3902790339601632,2.3996413782212214,-0.739127516746521,-0.6599198579788208,-0.1348937302827835,6.10499527803267
1727345766513,9i,9.546932981066655,4.7s : 4.7s,8.646441027385977,3.5245930176674185,4.489322662353516,-4.466812610626221,-3.8948380947113037,1.731076955795288,0.6520681977272034,3.0001559257507324,0.7710211259839548,-1.4700092093707722,2.4550508767325327,-0.7135597467422485,-0.6968679428100586,-0.07216213643550873,6.226106453062282
1727345766523,9i,9.546932981066655,4.7s : 4.7s,8.647895352243886,3.2561932592395335,4.817546367645264,-2.8516018390655518,-4.2559990882873535,1.425701379776001,0.5092930197715759,2.8828442096710205,0.8167770222732101,-1.5472101951311443,2.5169591651965506,-0.6843835711479187,-0.7289432287216187,-0.016144955530762672,6.344712048216029
1727345766533,9i,9.546932981066655,4.7s : 4.7s,8.639018823849959,3.0069023433575466,5.022281169891357,-1.9332058429718018,-3.8903536796569824,1.248889446258545,0.5285126566886902,2.6837308406829834,0.856956410288556,-1.6262210213921395,2.591817081985807,-0.6537355780601501,-0.7558532953262329,0.03627024218440056,6.460650813180097
1727345766543,9i,9.546932981066655,4.7s : 4.7s,8.616463016947156,2.8062310833343997,4.855967998504639,-1.0240135192871094,-3.0759425163269043,1.1896405220031738,0.6801740527153015,2.448887825012207,0.8868716991186862,-1.7029340945748654,2.67303321331892,-0.6263317465782166,-0.775098979473114,0.08324715495109558,6.573857331310358
1727345766553,9i,9.546932981066655,4.7s : 4.7s,8.584850554435025,2.554246834271611,4.745998859405518,-0.1636420488357544,-2.5698702335357666,1.089043378829956,0.5478226542472839,2.244560480117798,0.9062347104515553,-1.77422738656145,2.7566333094086843,-0.6039969325065613,-0.7871872186660767,0.12459525465965271,6.684222746754848
1727345766563,9i,9.546932981066655,4.7s : 4.7s,8.545291404546152,2.035900616486594,4.391313552856445,0.6902679800987244,-2.3299338817596436,0.8315630555152893,0.05084729194641113,1.857635259628296,0.9193649309405126,-1.836441833153493,2.8385580796812073,-0.585057258605957,-0.7952167391777039,0.15917988121509552,6.791343295995936
1727345766573,9i,9.546932981066655,4.7s : 4.7s,8.496866352151349,1.6418821253535556,3.680607557296753,1.4194916486740112,-1.8404014110565186,0.5534920692443848,-0.3125372529029846,1.5138506889343262,0.9278997737472101,-1.8852239559155857,2.912956736538876,-0.5701241493225098,-0.8003625869750977,0.18541374802589417,6.894860893224889
1727345766583,9i,9.546932981066655,4.7s : 4.7s,8.437536697171131,1.3980885265880896,2.50297474861145,2.026463747024536,-1.081534504890442,0.4060320258140564,-0.3434642553329468,1.2929894924163818,0.9317571481734783,-1.9134715617441804,2.9699091705442346,-0.5617479085922241,-0.8026691675186157,0.20040342211723328,6.994666354431713
1727345766593,9i,9.546932981066655,4.7s : 4.7s,8.374813470443486,1.2251800017220638,1.4322689771652222,2.292391300201416,-0.3501671552658081,0.38396477699279785,-0.21732723712921143,1.1429811716079712,0.9317960222746343,-1.9196074794343683,3.0045875539730824,-0.5604784488677979,-0.8026923537254333,0.20383583009243011,7.090826944740668
1727345766603,9i,9.546932981066655,4.7s : 4.7s,8.315337690705265,1.1551479399043798,0.6382522583007812,2.3486244678497314,0.22928422689437866,0.42486488819122314,-0.2984272241592407,1.0318903923034668,0.9288095584570686,-1.9094800786710815,3.02093752854316,-0.5647727847099304,-0.8009076714515686,0.19894494116306305,7.183456714506999
1727345766613,9i,9.546932981066655,4.7s : 4.7s,8.263936443337425,1.1981993661699724,0.15702545642852783,2.2324018478393555,0.769546389579773,0.45076024532318115,-0.5244056582450867,0.9785170555114746,0.9229275464152528,-1.8888984509763895,3.0239465638849445,-0.5732120275497437,-0.7973717451095581,0.1887497901916504,7.2726718917493285
1727345766623,9i,9.546932981066655,4.7s : 4.7s,8.225134809411239,1.1924566963346939,0.2408209592103958,2.0284900665283203,1.2704451084136963,0.4101012349128723,-0.6368144750595093,0.9209979772567749,0.9127349563381357,-1.8656239973373943,3.0215050855252206,-0.5851958394050598,-0.791179358959198,0.1777110993862152,7.358542588814356
1727345766633,9i,9.546932981066655,4.7s : 4.7s,8.200139715185637,1.0338107170099484,0.6841022372245789,1.7566975355148315,1.8781912326812744,0.2824409604072571,-0.6509388089179993,0.7518446445465088,0.896252202067084,-1.8466012874978217,3.0216894984728793,-0.6009376049041748,-0.7809917330741882,0.17007605731487274,7.441003028953145
1727345766643,9i,9.546932981066655,4.7s : 4.7s,8.186829802865418,0.8710048604444866,0.7987112402915955,1.4657924175262451,2.0959596633911133,0.10179007053375244,-0.6232755780220032,0.5998464822769165,0.8750780820365632,-1.8329877639587433,3.024371526529423,-0.6190325021743774,-0.7675935626029968,0.16612939536571503,7.51996709149708
1727345766653,9i,9.546932981066655,4.7s : 4.7s,8.180436397912253,0.8697805648089703,0.894904375076294,1.5149911642074585,2.2398898601531982,-0.03987991809844971,-0.5987569093704224,0.6296173334121704,0.8518504918970282,-1.821754903619913,3.029154191494716,-0.6379611492156982,-0.7525004148483276,0.1635497808456421,7.5955109969306065
1727345766663,9i,9.546932981066655,4.7s : 4.7s,8.178020126700952,0.761245093588818,0.3401870131492615,1.3848835229873657,2.3531951904296875,-0.08813035488128662,-0.5125108361244202,0.5559314489364624,0.8280129664549698,-1.8079261666543427,3.030127949879742,-0.6574140191078186,-0.7365888953208923,0.15888170897960663,7.667719001211172
1727345766673,9i,9.546932981066655,4.7s : 4.7s,8.178094838301792,0.6373501751293117,-0.43043750524520874,1.2519981861114502,2.4491169452667236,-0.04295879602432251,-0.2637559771537781,0.5786212682723999,0.804738901489198,-1.7886988901095424,3.0218319999396988,-0.6769051551818848,-0.7206496596336365,0.1498790830373764,7.736836394206134
1727345766683,9i,9.546932981066655,4.7s : 4.7s,8.1812715526866,0.4786421034443227,-1.3032268285751343,0.9747236371040344,2.552187442779541,0.010301530361175537,-0.019941270351409912,0.4781155586242676,0.7820628692137228,-1.7636699734753003,3.002292260824189,-0.6963061690330505,-0.7047444581985474,0.13598959147930145,7.803016664362568
1727345766693,9i,9.546932981066655,4.7s : 4.7s,8.188849805149886,0.41290887627027073,-1.7429308891296387,0.8211237192153931,2.5963661670684814,0.019048988819122314,0.1576492190361023,0.3811529874801636,0.759506362868449,-1.7354473030746622,2.9746554125007125,-0.7153685688972473,-0.6885635256767273,0.11886219680309296,7.866363772946663
1727345766703,9i,9.546932981066655,4.7s : 4.7s,8.202762308041095,0.33055410008109404,-1.7865214347839355,0.5893393158912659,2.5301873683929443,-0.043165385723114014,0.18237274885177612,0.27229201793670654,0.7367988834944644,-1.7084870817130375,2.945302718111119,-0.7336137294769287,-0.6719205379486084,0.10165505856275558,7.926890361062586
1727345766713,9i,9.546932981066655,4.7s : 4.7s,8.22242134138228,0.2662754836660673,-1.495667815208435,0.46701580286026,2.3622474670410156,-0.13093340396881104,0.15065062046051025,0.17624831199645996,0.7146061351173996,-1.6859002826333542,2.919242726720706,-0.7503533959388733,-0.6553199887275696,0.08675210177898407,7.98458914503312
1727345766723,9i,9.546932981066655,4.7s : 4.7s,8.247171232690969,0.24902823701628382,-1.0791958570480347,0.30150359869003296,2.1199896335601807,-0.1810358166694641,0.09185564517974854,0.14423465728759766,0.6936807590745424,-1.6692163451660809,2.8993530240044807,-0.7651770710945129,-0.6393716335296631,0.07555284351110458,8.039523939297727
1727345766733,9i,9.546932981066655,4.7s : 4.7s,8.275184707169686,0.2680843624499742,-0.7041412591934204,0.192592591047287,1.9147943258285522,-0.20255786180496216,0.0809134840965271,0.15586066246032715,0.6744426441261188,-1.6581265962561489,2.885593964060177,-0.7780787944793701,-0.6244620680809021,0.06812310218811035,8.09181574224226
1727345766743,9i,9.546932981066655,4.7s : 4.7s,8.304636944981342,0.3136010625425246,-0.48908764123916626,0.15911142528057098,1.6425697803497314,-0.20792007446289062,0.13428771495819092,0.19256603717803955,0.6571725485804585,-1.6507095260383227,2.876333420974546,-0.7891959547996521,-0.6108807325363159,0.06320177018642426,8.141619718815312
1727345766753,9i,9.546932981066655,4.7s : 4.7s,8.333692959053328,0.33804830500996136,-0.5917026996612549,0.18976706266403198,1.3518223762512207,-0.21869605779647827,0.178458571434021,0.1860140562057495,0.6426596103413285,-1.644217950754682,2.868576180056748,-0.7983481884002686,-0.5993266105651855,0.058721575886011124,8.189047716247101
1727345766763,9i,9.546932981066655,4.7s : 4.7s,8.361768777433074,0.30879922437730145,-0.9679558277130127,0.16823247075080872,1.150180697441101,-0.18619787693023682,0.1880750060081482,0.15910720825195312,0.6308217333597185,-1.6361023208413128,2.857845309293041,-0.8058218955993652,-0.5898085236549377,0.052699942141771317,8.23422072490844
1727345766773,9i,9.546932981066655,4.7s : 4.7s,8.389543929678853,0.25132835161202105,-1.2271826267242432,0.10726073384284973,1.0844017267227173,-0.09080886840820312,0.16486436128616333,0.1665515899658203,0.6203905843043965,-1.6261636989283081,2.843304359589593,-0.8124045729637146,-0.5813530087471008,0.04502672702074051,8.277322495033765
1727345766783,9i,9.546932981066655,4.7s : 4.7s,8.417705170423464,0.22103393892864,-1.2527610063552856,0.0059689972549676895,0.9640585780143738,-0.01064211130142212,0.15143638849258423,0.1606541872024536,0.610746624103025,-1.6164154235226345,2.8274010642171445,-0.8183678984642029,-0.5734792947769165,0.037359125912189484,8.318507870010588
1727345766793,9i,9.546932981066655,4.7s : 4.7s,8.446186756615027,0.22827407471492858,-1.1298210620880127,-0.07887478917837143,0.8225328922271729,-0.026890873908996582,0.1717734932899475,0.1479182243347168,0.6023117146825672,-1.6082291392881478,2.8123896196397618,-0.8234509229660034,-0.5665488839149475,0.030838489532470703,8.357849035153416
1727345766803,9i,9.546932981066655,4.7s : 4.7s,8.474666277235759,0.22435929503398722,-0.9486963152885437,-0.14227764308452606,0.6911094188690186,-0.06845611333847046,0.17426830530166626,0.12361800670623779,0.5951169006243897,-1.6021003097568685,2.799542496153994,-0.8276772499084473,-0.5606055855751038,0.025918060913681984,8.39538422333277
1727345766813,9i,9.546932981066655,4.7s : 4.7s,8.503030952133097,0.2078090996384834,-0.7535539865493774,-0.22940801084041595,0.5830380916595459,-0.061485230922698975,0.1551639437675476,0.12380766868591309,0.5890298158501813,-1.59814571981294,2.7890899270018825,-0.8311691880226135,-0.5555545687675476,0.022737642750144005,8.431201941216692
1727345766822,9i,9.546932981066655,4.7s : 4.7s,8.530850819732814,0.21612338538762366,-0.6055207848548889,-0.2603122293949127,0.4916057884693146,-0.04309403896331787,0.15286046266555786,0.14658069610595703,0.5838644178243261,-1.5960496244036024,2.7808583201511956,-0.8340728878974915,-0.5512523055076599,0.02106756903231144,8.465413941424309
1727345766832,9i,9.546932981066655,4.7s : 4.7s,8.557880314809779,0.24927748542295758,-0.5382351875305176,-0.26344436407089233,0.43266069889068604,-0.04248678684234619,0.17797917127609253,0.16928541660308838,0.5794116721873223,-1.5949182973336111,2.7739785537520025,-0.8365413546562195,-0.5475317239761353,0.020182941108942032,8.498116916427144
1727345766842,9i,9.546932981066655,4.7s : 4.7s,8.583915538492455,0.2796040072263015,-0.6401228308677673,-0.26155343651771545,0.37427762150764465,-0.04496210813522339,0.21198636293411255,0.1766878366470337,0.5754906949950699,-1.5937264885905773,2.767025061590709,-0.8387048244476318,-0.54424649477005,0.01923500932753086,8.529391095120763
1727345766852,9i,9.546932981066655,4.7s : 4.7s,8.608904870186562,0.27942088757376593,-0.8555546998977661,-0.24966935813426971,0.3490372598171234,-0.04474985599517822,0.21464931964874268,0.17320263385772705,0.5720845292487634,-1.5914143075152303,2.758042484346802,-0.8405957221984863,-0.5413858294487,0.01733384281396866,8.559302583271148
1727345766862,9i,9.546932981066655,4.7s : 4.7s,8.63303003815409,0.2495821895251695,-1.043589472770691,-0.23337292671203613,0.3857380747795105,-0.025900185108184814,0.1654464602470398,0.18506193161010742,0.5685938361953975,-1.5877059232631603,2.7467172613504407,-0.8425387144088745,-0.5384476780891418,0.014248346909880638,8.587931948366707
1727345766872,9i,9.546932981066655,4.7s : 4.7s,8.658971516863227,0.21953451871601498,-1.2034693956375122,-0.2219540923833847,0.4224708080291748,-0.007009983062744141,0.11019623279571533,0.1897447109222412,0.5647256239788089,-1.5828067802202954,2.7333090270980023,-0.8446745872497559,-0.5351840853691101,0.010145412757992744,8.615349834815799
1727345766882,9i,9.546932981066655,4.7s : 4.7s,8.681358263512564,0.2197971663597853,-1.3301011323928833,-0.20510302484035492,0.4630580246448517,-0.007201254367828369,0.07245057821273804,0.20738816261291504,0.5604197778656334,-1.5769141029385552,2.7183030407299764,-0.8470163345336914,-0.5315418243408203,0.00518192071467638,8.641620560054607
1727345766892,9i,9.546932981066655,4.7s : 4.7s,8.703190595468817,0.24105001860532885,-1.4135781526565552,-0.17340554296970367,0.5127377510070801,-0.010198473930358887,0.04917430877685547,0.23576045036315918,0.5555914406679692,-1.5702072150129585,2.7020907499458167,-0.8495886921882629,-0.5274458527565002,-0.0005005027633160353,8.666813078139398
1727345766902,9i,9.546932981066655,4.7s : 4.7s,8.724534248154665,0.2724185604631144,-1.5320072174072266,-0.13922947645187378,0.572320818901062,-0.010250270366668701,0.03387451171875,0.2701098322868347,0.5501462167979317,-1.5627605467127665,2.6848734722414918,-0.8524205684661865,-0.5228118896484375,-0.006850011646747589,8.6910008770663
1727345766912,9i,9.546932981066655,4.7s : 4.7s,8.745404554058007,0.2894151884078328,-1.5756415128707886,-0.07804147899150848,0.6521400213241577,-0.0064397454261779785,0.031644463539123535,0.28760790824890137,0.5438549927768187,-1.5544142203679903,2.666717383602588,-0.8556056618690491,-0.5174386501312256,-0.014017877168953419,8.714246912716646
1727345766922,9i,9.546932981066655,4.7s : 4.7s,8.765852284294914,0.2702969071749974,-1.5774894952774048,-0.0359230600297451,0.7217926979064941,0.004572093486785889,0.02104794979095459,0.26943737268447876,0.5366762305702404,-1.5456198534437549,2.6485491203296543,-0.8591406345367432,-0.5112823247909546,-0.021634701639413834,8.736589894986475
1727345766932,9i,9.546932981066655,4.7s : 4.7s,8.786004450180998,0.23881087553648098,-1.6074391603469849,-0.04440336301922798,0.8033632040023804,0.012330889701843262,0.008912742137908936,0.23832571506500244,0.5286118616100317,-1.5367751279849884,2.6303984859488656,-0.8630083799362183,-0.5043351650238037,-0.02937191352248192,8.758054604475953
1727345766942,9i,9.546932981066655,4.7s : 4.7s,8.80577646916999,0.23043581747499406,-1.7096843719482422,-0.0006596103776246309,0.8762110471725464,0.010687649250030518,0.005496293306350708,0.23012220859527588,0.5196075266094958,-1.5277269684598072,2.6117333401310643,-0.8672093749046326,-0.49653950333595276,-0.03737326338887215,8.778675094296961
1727345766952,9i,9.546932981066655,4.7s : 4.7s,8.825380421496344,0.25495035785584325,-1.9898455142974854,0.02980721741914749,0.919654130935669,-0.0016878247261047363,-0.005969017744064331,0.2548748850822449,0.5097313379593849,-1.5174453331248676,2.591201722512274,-0.8716336488723755,-0.48794275522232056,-0.04654669389128685,8.798497949033715
1727345766962,9i,9.546932981066655,4.7s : 4.7s,8.84492419561208,0.3217496715776052,-2.34841251373291,0.14733801782131195,0.9756258130073547,-0.009512066841125488,-0.030952423810958862,0.3201161026954651,0.4990764289933178,-1.5049687271723053,2.5671425567503063,-0.8761231899261475,-0.47861483693122864,-0.057756535708904266,8.817598129683015
1727345766972,9i,9.546932981066655,4.7s : 4.7s,8.864634724363635,0.383946500401535,-2.6120777130126953,0.26505959033966064,1.0964446067810059,-0.00903332233428955,-0.05813610553741455,0.37941205501556396,0.48690792794278315,-1.490059797445545,2.53985068153744,-0.880905032157898,-0.46789541840553284,-0.07127615064382553,8.83604892986196
1727345766982,9i,9.546932981066655,4.7s : 4.7s,8.884092609124462,0.4008724430111742,-2.6471683979034424,0.5139341354370117,1.1776233911514282,0.010418832302093506,-0.04437744617462158,0.3982722759246826,0.47322578180188585,-1.4729580212134166,2.511305072362541,-0.8858461380004883,-0.4557599425315857,-0.08694729208946228,8.853912079450806
1727345766992,9i,9.546932981066655,4.7s : 4.7s,8.903305318971636,0.3297694069807784,-2.5016262531280518,0.5258690714836121,1.1860946416854858,0.03813666105270386,-0.014003336429595947,0.32725733518600464,0.4586840052258098,-1.455429653163284,2.484130327006062,-0.8906757235527039,-0.44276851415634155,-0.10321260243654251,8.871190605795967
1727345767002,9i,9.546932981066655,4.7s : 4.7s,8.922139009087115,0.20726559755781399,-2.3858237266540527,0.5253446102142334,1.1924962997436523,0.06765347719192505,-0.016458630561828613,0.19522076845169067,0.44395013726425014,-1.4392481427568797,2.458928735737229,-0.8952596783638,-0.4295100271701813,-0.11845385283231735,8.88783959314277
1727345767012,9i,9.546932981066655,4.7s : 4.7s,8.94085409086598,0.19978285414748517,-2.4443607330322266,0.5625015497207642,1.21986985206604,0.08363115787506104,-0.021436631679534912,0.18016517162322998,0.4287091681971858,-1.4235102312009131,2.4345273668152765,-0.8996559381484985,-0.4156971275806427,-0.13347336649894714,8.90388952413784
1727345767022,9i,9.546932981066655,4.7s : 4.7s,8.959555526284893,0.24112812038343479,-2.4989137649536133,0.6136502027511597,1.3052313327789307,0.08283102512359619,-0.021913886070251465,0.22539204359054565,0.4124568860554447,-1.4076099029872038,2.4099098512149557,-0.903967559337616,-0.40086138248443604,-0.14883875846862793,8.919400677749467
1727345767032,9i,9.546932981066655,4.7s : 4.7s,8.978257983925483,0.30308072776514927,-2.548417568206787,0.7036789059638977,1.384019136428833,0.09293997287750244,0.003663092851638794,0.28845566511154175,0.3949383879806489,-1.39145923781505,2.38548154734187,-0.9082170724868774,-0.3847513198852539,-0.16464591026306152,8.93445583971883
1727345767042,9i,9.546932981066655,4.7s : 4.7s,8.997178140435125,0.3719344401263498,-2.6576387882232666,0.8085471987724304,1.4498040676116943,0.09939974546432495,0.05889660120010376,0.3535337448120117,0.37619423811186714,-1.3746501460656435,2.3608007528604817,-0.9122354388237,-0.36738350987434387,-0.1812620759010315,8.94913720962269
1727345767052,9i,9.546932981066655,4.7s : 4.7s,9.016575787732659,0.461277933452231,-2.848104476928711,0.9791247844696045,1.4874228239059448,0.10200881958007812,0.12724646925926208,0.431485652923584,0.35626219871234766,-1.3566815190130626,2.3352231891026314,-0.9158058762550354,-0.3487735986709595,-0.19914014637470245,8.96353157365673
1727345767062,9i,9.546932981066655,4.7s : 4.7s,9.036262612995722,0.5512728380483237,-2.954533100128174,1.3345916271209717,1.5176459550857544,0.10483288764953613,0.16762712597846985,0.5145998001098633,0.33513562488100157,-1.3361755370644424,2.308603360281287,-0.9184924960136414,-0.32889723777770996,-0.21954064071178436,8.977721289419279
1727345767072,9i,9.546932981066655,4.7s : 4.7s,9.055801144211342,0.5164266884076407,-2.8830957412719727,1.5301251411437988,1.515514612197876,0.10060077905654907,0.16020143032073975,0.48053252696990967,0.31329651787910917,-1.313463112654618,2.282666166769085,-0.9199976921081543,-0.30819636583328247,-0.24211400747299194,8.99168735181683
1727345767082,9i,9.546932981066655,4.7s : 4.7s,9.07545809495658,0.376726741893944,-2.928520679473877,1.5895531177520752,1.4837532043457031,0.10920298099517822,0.1409836709499359,0.33184537291526794,0.2912317621165758,-1.2904610646981733,2.2576593509108447,-0.920497477054596,-0.2871323227882385,-0.2650271952152252,9.00533665923246
1727345767092,9i,9.546932981066655,4.7s : 4.7s,9.095595100674334,0.3515385601986697,-3.056640148162842,1.67586350440979,1.4974863529205322,0.1453685760498047,0.16805189847946167,0.272407591342926,0.26838448551690475,-1.2671394242557659,2.2323383439759223,-0.9200878143310547,-0.26517409086227417,-0.2883073389530182,9.018673212159612
1727345767102,9i,9.546932981066655,4.7s : 4.7s,9.116210190499418,0.37899128738983817,-3.156158447265625,1.7516908645629883,1.5364893674850464,0.17531108856201172,0.20668834447860718,0.26491573452949524,0.2444236222035055,-1.2435336850549403,2.2066575373798374,-0.9187802672386169,-0.2419971227645874,-0.3118976056575775,9.031735365489101
1727345767112,9i,9.546932981066655,4.7s : 4.7s,9.137428379844447,0.4147063631242464,-3.2437634468078613,1.8020071983337402,1.6455165147781372,0.1767621636390686,0.26121753454208374,0.26926177740097046,0.21884709619083015,-1.2199277176172774,2.1811635404698086,-0.9166761040687561,-0.21710436046123505,-0.3355155289173126,9.044548893232541
1727345767122,9i,9.546932981066655,4.7s : 4.7s,9.15906542694179,0.5014542790272802,-3.294060468673706,1.8849396705627441,1.7108571529388428,0.17833292484283447,0.3483743667602539,0.31351086497306824,0.19150750078019646,-1.1964469347351414,2.15599986646799,-0.9137302041053772,-0.19033905863761902,-0.3589820861816406,9.057172520598266
1727345767132,9i,9.546932981066655,4.7s : 4.7s,9.180297949497723,0.5697853817876329,-3.1734702587127686,2.0652825832366943,1.6697182655334473,0.16382509469985962,0.4081633687019348,0.3622421622276306,0.16363817383436116,-1.1725937039159482,2.1320286512728255,-0.9094458222389221,-0.16290885210037231,-0.3825821876525879,9.069693601662394
1727345767142,9i,9.546932981066655,4.7s : 4.7s,9.201047187229687,0.5651339566874132,-3.076019525527954,2.230015277862549,1.5716980695724487,0.12770020961761475,0.41405028104782104,0.3628104329109192,0.13636579133150997,-1.1477202522095435,2.109739427436313,-0.9033654928207397,-0.13594354689121246,-0.40675580501556396,9.082091378873045
1727345767152,9i,9.546932981066655,4.7s : 4.7s,9.221942688045068,0.5461762584058675,-3.1328346729278564,2.3726322650909424,1.4862343072891235,0.09662997722625732,0.410186231136322,0.347445547580719,0.10951699188994232,-1.1221243606764157,2.0879449399349013,-0.8956260085105896,-0.10929819941520691,-0.43117067217826843,9.09429148576114
1727345767162,9i,9.546932981066655,4.7s : 4.7s,9.24347997184022,0.5487592875026464,-3.214536428451538,2.5614445209503174,1.5008821487426758,0.09548115730285645,0.39096564054489136,0.3730495572090149,0.08202129739620502,-1.095317561291965,2.066257149510001,-0.886084794998169,-0.08192936331033707,-0.4562252461910248,9.106328583773557
1727345767172,9i,9.546932981066655,4.7s : 4.7s,9.26634533173541,0.5161859925412315,-3.470118522644043,2.735778331756592,1.4471722841262817,0.11689645051956177,0.34918755292892456,0.36173367500305176,0.053344908969249864,-1.0673168434610356,2.043682821212622,-0.8746631741523743,-0.05331961065530777,-0.48178985714912415,9.118202072930712
