timestamp,club,max_speed,tempo,speed,l.speed,t.spped,acc,rotation.x,rotation.y,rotation.z,userAcceleration.x,userAcceleration.y,userAcceleration.z,pitch,roll,yaw,gravity.x,gravity.y,gravity.z
1727683699406,9i,16.285499529297386,3.3s : 4.8s,0.19708007031628735,0.0014030072543565438,0.19707507626921522,0.20906644111398365,0.5214411020278931,-0.3880211412906647,-0.7319622039794922,0.09047842025756836,0.18816184997558594,0.01084206998348236,-0.8628263844837328,1.964115548748056,2.552209396881007,0.6006379127502441,0.7596835494041443,0.2492288500070572
1727683699416,9i,16.285499529297386,3.3s : 4.8s,0.35716998372880115,0.003743924977842053,0.3571503609162286,0.2025951881030622,0.6539267301559448,-0.36924293637275696,-0.7907599806785583,0.08638244867324829,0.183243989944458,0.002126723527908325,-0.8720819034395819,1.9573310025651636,2.5482674405810113,0.5957770943641663,0.7656697630882263,0.2424871176481247
1727683699426,9i,16.285499529297386,3.3s : 4.8s,0.4941591802403476,0.006676103281523869,0.4941140810185303,0.1941329089521306,0.7596296668052673,-0.39197105169296265,-0.8619866967201233,0.1058458685874939,0.16241532564163208,0.010271340608596802,-0.8823699032547919,1.9493748383040264,2.5428178176421974,0.5903365015983582,0.7722467184066772,0.23481543362140656
1727683699436,9i,16.285499529297386,3.3s : 4.8s,0.6130138086286593,0.009962147897907865,0.6129328553591126,0.19590140564204445,0.8271996378898621,-0.42759883403778076,-0.9452530741691589,0.14345306158065796,0.1291954517364502,0.03327333927154541,-0.8936659570211382,1.940239645603967,2.5363167961293063,0.5842844247817993,0.7793739438056946,0.22624829411506653
1727683699446,9i,16.285499529297386,3.3s : 4.8s,0.7106889791286725,0.013547143940073026,0.7105598496580156,0.22164661982701828,0.8589714765548706,-0.4290206730365753,-1.0169779062271118,0.18645238876342773,0.10060524940490723,0.06512537598609924,-0.905830124509891,1.9304458181660233,2.5292932492081652,0.5775552988052368,0.7869376540184021,0.2171623706817627
1727683699456,9i,16.285499529297386,3.3s : 4.8s,0.7939366452476455,0.017523542033802998,0.7937432343911192,0.2646666722585819,0.9152522683143616,-0.4235265851020813,-1.0731453895568848,0.22808730602264404,0.07941532135009766,0.10824894905090332,-0.918688734956366,1.9202150467518129,2.521727402113875,0.5701915621757507,0.7948065400123596,0.20776063203811646
1727683699466,9i,16.285499529297386,3.3s : 4.8s,0.8783670860023708,0.022037908861333413,0.8780905809455627,0.3115408865256728,1.0516777038574219,-0.42927810549736023,-1.131974220275879,0.27101171016693115,0.05777394771575928,0.1423816978931427,-0.9323460202132438,1.9086815007646247,2.5125882220369107,0.5622556209564209,0.8030202388763428,0.19755367934703827
1727683699476,9i,16.285499529297386,3.3s : 4.8s,0.9714128025505365,0.027163385469355324,0.9710329466341144,0.34001728033834666,1.2131280899047852,-0.4473758935928345,-1.2136656045913696,0.30737143754959106,0.03503972291946411,0.14109134674072266,-0.9470587200189692,1.8948867788108883,2.500909412915871,0.5536667704582214,0.8117011189460754,0.1859961897134781
1727683699486,9i,16.285499529297386,3.3s : 4.8s,1.0472144698868529,0.03290901805808693,1.046697254448895,0.36098439547382727,1.3151508569717407,-0.48626354336738586,-1.1730780601501465,0.3344191312789917,0.01642429828643799,0.13492153584957123,-0.9629347930429544,1.8789425023461173,2.4868294381306715,0.5442124605178833,0.8208711743354797,0.17321448028087616
1727683699496,9i,16.285499529297386,3.3s : 4.8s,1.1328693467108961,0.039315710159449825,1.1321869243423677,0.3829733502033994,1.3371599912643433,0.23589864373207092,-1.588546633720398,0.35106825828552246,0.016449332237243652,0.15214823186397552,-0.981028031052357,1.862489602488521,2.471657364251566,0.53267502784729,0.8310695886611938,0.15993981063365936
1727683699506,9i,16.285499529297386,3.3s : 4.8s,1.2756914504675305,0.04672948090440607,1.274835296189416,0.4520183078067931,1.4043172597885132,0.4384407699108124,-2.002358913421631,0.4128577709197998,0.0404127836227417,0.1795433610677719,-0.9997983758929325,1.8431326235398902,2.454343648434896,0.5205528140068054,0.8413620591163635,0.14537739753723145
1727683699516,9i,16.285499529297386,3.3s : 4.8s,1.3906513906889637,0.05465294458756366,1.3895770385527595,0.413952879986309,1.54629647731781,-0.15995796024799347,-1.9218037128448486,0.3745576739311218,0.04175835847854614,0.17123018205165863,-1.0197834010393003,1.822646381018622,2.4346937268364184,0.5070341229438782,0.8519946336746216,0.13046672940254211
1727683699526,9i,16.285499529297386,3.3s : 4.8s,1.463590408459658,0.06329634708949573,1.4622210695309499,0.47575079263168935,1.5519756078720093,-0.44871270656585693,-1.842071533203125,0.43717244267463684,0.02254962921142578,0.18630777299404144,-1.0414684997298576,1.8012858127886882,2.4137071417907383,0.49159950017929077,0.8631466627120972,0.1153586134314537
1727683699546,9i,16.285499529297386,3.3s : 4.8s,1.5513831231363766,0.07328313618916454,1.549651308102135,0.6089282877204353,1.5375217199325562,-0.5447131395339966,-2.061793565750122,0.5385730266571045,0.01349782943725586,0.28381431102752686,-1.0861679383375158,1.7516234413960148,2.3680534511563893,0.4582836925983429,0.8848481178283691,0.08378533273935318
1727683699536,9i,16.285499529297386,3.3s : 4.8s,1.599716555803066,0.0839933788262925,1.597509990962112,0.5670404960685711,1.5457441806793213,-0.49509936571121216,-1.9681535959243774,0.5173311233520508,0.006187260150909424,0.23208867013454437,-1.063438209672737,1.7774922723885915,2.3916111449304682,0.4755277633666992,0.8740311861038208,0.0997137576341629
1727683699556,9i,16.285499529297386,3.3s : 4.8s,1.6717441235995643,0.09574906102729787,1.6689998598268563,0.6473504810176283,1.5823384523391724,-0.5895535945892334,-2.1594653129577637,0.5617337226867676,0.022949934005737305,0.3209223747253418,-1.1095692369900454,1.722822908178523,0.9277825204476099,0.43991416692733765,0.8955070376396179,0.06739868968725204
1727683699566,9i,16.285499529297386,3.3s : 4.8s,1.7365308631028507,0.10810502467528751,1.733162641574266,0.6290880312214099,1.6213576793670654,-0.5791609287261963,-2.2178955078125,0.5356597304344177,0.009737253189086914,0.3297356367111206,-1.1334570984755543,1.6901668232996832,0.8979903217777847,0.42051708698272705,0.9058817625045776,0.05043712630867958
1727683699576,9i,16.285499529297386,3.3s : 4.8s,1.781446541553711,0.12071877541118518,1.7773516134059972,0.6103040965078869,1.5810195207595825,-0.5722012519836426,-2.2437522411346436,0.5187669992446899,-0.031000196933746338,0.3199857473373413,-1.1572584114668334,1.6542559327148765,0.8648449553875841,0.40045294165611267,0.9157048463821411,0.03349946066737175
1727683699586,9i,16.285499529297386,3.3s : 4.8s,1.8005674138293475,0.13339687650553345,1.7956191926693899,0.6067335984915626,1.479570984840393,-0.5543012619018555,-2.2412352561950684,0.5029046535491943,-0.08781814575195312,0.32787275314331055,-1.180612291212025,1.6160851729236454,0.8294460402680672,0.3799687922000885,0.9248390793800354,0.01722012273967266
1727683699596,9i,16.285499529297386,3.3s : 4.8s,1.7992592356117567,0.14615519451340664,1.793313262107586,0.6291949952009341,1.3535161018371582,-0.5457764863967896,-2.216226816177368,0.4967837929725647,-0.13729619979858398,0.3608905076980591,-1.20324485748848,1.5766005649884258,0.7928433462481836,0.3593258559703827,0.9332099556922913,0.002085636369884014
1727683699606,9i,16.285499529297386,3.3s : 4.8s,1.7812710898631383,0.1590625267079322,1.77415495607895,0.6543308519954874,1.2756439447402954,-0.5457534790039062,-2.1792449951171875,0.4989912509918213,-0.1827738881111145,0.38177257776260376,-1.2249832415865518,1.5351431306293688,0.7544081404762853,0.3387467861175537,0.940800130367279,-0.012082526460289955
1727683699616,9i,16.285499529297386,3.3s : 4.8s,1.754725145506603,0.1721378784941942,1.7462614028434253,0.6707367387822422,1.1895345449447632,-0.5699427127838135,-2.137136459350586,0.5020701885223389,-0.2251262068748474,0.38357722759246826,-1.2457789603343103,1.4907621236853268,0.7133005826616967,0.3183033764362335,0.9476451873779297,-0.025529690086841583
1727683699636,9i,16.285499529297386,3.3s : 4.8s,1.6901447184241472,0.18529150527968252,1.6799572099575122,0.6694959410988005,1.1294251680374146,-0.611982524394989,-1.8795133829116821,0.4855988919734955,-0.2555012106895447,0.38358527421951294,-1.2840726900212147,1.390168436662881,0.6199815801215589,0.27821028232574463,0.9591755867004395,-0.050806283950805664
1727683699646,9i,16.285499529297386,3.3s : 4.8s,1.6166162933583574,0.19846990308136112,1.604387090923693,0.6241010851356379,1.1120222806930542,-0.18743254244327545,-1.8225071430206299,0.43388596177101135,-0.2525475025177002,0.37076258659362793,-1.3019007158568916,1.3303404816648428,0.5635864488252612,0.25802379846572876,0.96406489610672,-0.06326740980148315
1727683699626,9i,16.285499529297386,3.3s : 4.8s,1.6302960766910541,0.21186812097678268,1.616470598862847,0.675569097073552,1.1402493715286255,-0.5851041078567505,-2.0947322845458984,0.49713334441185,-0.25333184003829956,0.38088715076446533,-1.2655954328096921,1.4429477308427416,0.6690622597539931,0.29803264141082764,0.9537866115570068,-0.038312021642923355
1727683699656,9i,16.285499529297386,3.3s : 4.8s,1.5750559348503175,0.22439963692665013,1.5589887750892868,0.5605525411463906,1.1374058723449707,-0.1754017174243927,-1.7987102270126343,0.33177873492240906,-0.2847416400909424,0.3508051037788391,-1.3184743572821378,1.2612316360632396,0.4980677037624457,0.23778605461120605,0.9683353304862976,-0.07605529576539993
1727683699666,9i,16.285499529297386,3.3s : 4.8s,1.5650855047824008,0.23701876007962458,1.5470341769496558,0.6266778394482306,1.1562305688858032,-0.39778631925582886,-1.9051038026809692,0.41539332270622253,-0.2949918508529663,0.3649017810821533,-1.332211580209607,1.1852010893196616,0.4256500810055288,0.21897554397583008,0.9716734290122986,-0.08888550102710724
1727683699676,9i,16.285499529297386,3.3s : 4.8s,1.5402634433958027,0.24998946505091518,1.5198410253789876,0.6803207815427819,1.1184345483779907,-0.552810788154602,-1.782643437385559,0.46519947052001953,-0.3169851303100586,0.38202911615371704,-1.3442173463209124,1.1039097720402626,0.3473615044832164,0.2006024867296219,0.9744406342506409,-0.10111473500728607
1727683699686,9i,16.285499529297386,3.3s : 4.8s,1.5015778901686503,0.26300040600253377,1.478366310048304,0.6698414930701085,1.0359485149383545,-0.5386748313903809,-1.6996904611587524,0.40956223011016846,-0.3576962947845459,0.3911518454551697,-1.3541477894780252,1.0190326546757231,0.2657979450313436,0.18305860459804535,0.9766233563423157,-0.1126788780093193
1727683699696,9i,16.285499529297386,3.3s : 4.8s,1.4477072136992437,0.27626087167357627,1.4211038341299989,0.7049360600415302,0.9486232399940491,-0.5169754028320312,-1.588236689567566,0.4293876588344574,-0.384229838848114,0.4061139225959778,-1.362166852685622,0.9332868594229338,0.18343754369437051,0.1664375513792038,0.9783157110214233,-0.12327694147825241
1727683699706,9i,16.285499529297386,3.3s : 4.8s,1.3925602409539624,0.28962239029716264,1.3621097223514396,0.6984687130985147,0.8449029326438904,-0.40631189942359924,-1.5673322677612305,0.4075671434402466,-0.40427684783935547,0.39787912368774414,-1.368357132815146,0.8488857424217754,0.10241010073490923,0.15090449154376984,0.9795790910720825,-0.13286444544792175
1727683699716,9i,16.285499529297386,3.3s : 4.8s,1.3421229122925384,0.3030926792709466,1.307451237894922,0.6893715441551657,0.7549690008163452,-0.3097835183143616,-1.564145803451538,0.3970257639884949,-0.41396695375442505,0.38240689039230347,-1.3730435384725965,0.7673349886825456,0.02407867698953165,0.13639098405838013,0.9805105328559875,-0.1414094865322113
1727683699726,9i,16.285499529297386,3.3s : 4.8s,1.2912630174698303,0.3166481564451544,1.2518363013210538,0.6819576936277919,0.6626557111740112,-0.2888290286064148,-1.515108346939087,0.3963259160518646,-0.4161067008972168,0.3672155737876892,-1.3765089235963672,0.6898317897323951,-0.0504172824629546,0.12286963313817978,0.9811854958534241,-0.14892326295375824
1727683699736,9i,16.285499529297386,3.3s : 4.8s,1.2309914247729261,0.3302846988186254,1.1858549260304856,0.679233450938627,0.5733644366264343,-0.3716394901275635,-1.3834220170974731,0.4008384943008423,-0.41330939531326294,0.36036360263824463,-1.379028184381971,0.6175467859800733,-0.11988712554177663,0.11036143451929092,0.9816687703132629,-0.15539224445819855
1727683699746,9i,16.285499529297386,3.3s : 4.8s,1.1530546692723949,0.34400866554901516,1.1005421883590185,0.6805871982417985,0.5233787298202515,-0.5410254597663879,-1.1361466646194458,0.4093211591243744,-0.4101276397705078,0.35700201988220215,-1.3806749862105074,0.5510710187423689,-0.18369917422379373,0.09894905984401703,0.9819813370704651,-0.16100278496742249
1727683699756,9i,16.285499529297386,3.3s : 4.8s,1.056318272685045,0.3578147866861819,0.9938696451934927,0.6839801379005102,0.5034018158912659,-0.7470577359199524,-0.7815336585044861,0.4086110591888428,-0.4177493453025818,0.3554593026638031,-1.3812806752705342,0.490824407946084,-0.24149868666707092,0.08879494667053223,0.9820955991744995,-0.16614341735839844
1727683699766,9i,16.285499529297386,3.3s : 4.8s,0.9538614545460035,0.3716927238989706,0.8784624029912612,0.6889576053427149,0.470431387424469,-0.94929438829422,-0.3704695701599121,0.403828889131546,-0.43367713689804077,0.35143840312957764,-1.3809443653136546,0.4378432726706853,-0.2922804546847693,0.0800119936466217,0.9820321798324585,-0.17091158032417297
1727683699776,9i,16.285499529297386,3.3s : 4.8s,0.8727496882448174,0.3856005500340304,0.7829458692303569,0.6768158671031643,0.4429078698158264,-1.088010549545288,0.02185400016605854,0.386480450630188,-0.43715786933898926,0.3429366946220398,-1.379905297114642,0.3921056698881656,-0.3359839592562002,0.07250388711690903,0.9818355441093445,-0.17533408105373383
1727683699786,9i,16.285499529297386,3.3s : 4.8s,0.8235226718003289,0.3994941597257646,0.7201347146986858,0.6630353212835381,0.3826884627342224,-1.0889679193496704,0.34569263458251953,0.3613779842853546,-0.4392961859703064,0.3406473994255066,-1.3783941291393504,0.3532868483089437,-0.37291269419589973,0.0661579966545105,0.9815477132797241,-0.1794077306985855
1727683699796,9i,16.285499529297386,3.3s : 4.8s,0.797689197737202,0.41332987281976324,0.682251033287176,0.6524302999215253,0.274225115776062,-0.9154863953590393,0.5442084074020386,0.3325238525867462,-0.4400792121887207,0.3484587073326111,-1.3769099062784262,0.3223907665405669,-0.4021423956273838,0.06104609742760658,0.9812628626823425,-0.1827482134103775
1727683699806,9i,16.285499529297386,3.3s : 4.8s,0.7138401125403252,0.4270704321792794,0.5719952379432783,0.6485506388319648,0.15055078268051147,-0.5181999802589417,0.4843561053276062,0.3063291311264038,-0.44785457849502563,0.35525578260421753,-1.3758483578644356,0.29980906969842674,-0.4233243423731735,0.05721151828765869,0.9810577630996704,-0.18507443368434906
1727683699816,9i,16.285499529297386,3.3s : 4.8s,0.6108433068446726,0.4407532427850557,0.42292567253761343,0.6527006690592658,0.054191749542951584,-0.08025780320167542,0.30149707198143005,0.2988114356994629,-0.4595082402229309,0.35437560081481934,-1.3752770366865694,0.2856028629989292,-0.4363949271212607,0.05473468825221062,0.9809468984603882,-0.18640679121017456
1727683699826,9i,16.285499529297386,3.3s : 4.8s,0.513396922822417,0.4544059728845944,0.23893851127503915,0.6590882015888923,-0.03185185417532921,0.3207114636898041,0.057525910437107086,0.30861926078796387,-0.46708863973617554,0.3478212356567383,-1.3751035499039252,0.2789105396565396,-0.4422435333673022,0.053532831370830536,0.9809132218360901,-0.1869325339794159
1727683699836,9i,16.285499529297386,3.3s : 4.8s,0.4730231638056106,0.4680590737408833,0.06834922812655535,0.6616776021014736,-0.09253490716218948,0.6250255703926086,-0.1833101361989975,0.32578691840171814,-0.4633956551551819,0.34197163581848145,-1.3752590940224663,0.2791269482034762,-0.4414435989250433,0.05353129655122757,0.9809434413909912,-0.18677443265914917
1727683699846,9i,16.285499529297386,3.3s : 4.8s,0.5107951405340548,0.481743096881974,0.16980949384463123,0.6625365331340491,-0.12671518325805664,0.7964645028114319,-0.3643517792224884,0.3513689935207367,-0.4528113007545471,0.33234983682632446,-1.3755993483664086,0.28547509660556636,-0.4346553159095217,0.05462157353758812,0.9810094833374023,-0.1861095279455185
1727683699856,9i,16.285499529297386,3.3s : 4.8s,0.5844458642732181,0.4955085738459392,0.3099164750561548,0.676453142616415,-0.15200403332710266,0.8423931002616882,-0.4428918659687042,0.3806905150413513,-0.447731614112854,0.3349626660346985,-1.376000756908791,0.2975449191550606,-0.4222839105139505,0.056748420000076294,0.9810872673988342,-0.1850602924823761
1727683699866,9i,16.285499529297386,3.3s : 4.8s,0.6423376896865648,0.5094346604141617,0.39124676913756273,0.689405707509329,-0.20276933908462524,0.7574210166931152,-0.3859122693538666,0.4086073040962219,-0.4353935122489929,0.3446052670478821,-1.3765068676933274,0.3161142844667387,-0.4036313765992192,0.06002059578895569,0.9811850786209106,-0.1835029274225235
1727683699876,9i,16.285499529297386,3.3s : 4.8s,0.6608034405990059,0.5234839086637293,0.4032688736781309,0.6869863698448577,-0.2504660189151764,0.5763532519340515,-0.20460107922554016,0.4282737076282501,-0.415674090385437,0.3402160406112671,-1.377193639615297,0.3415789996800505,-0.37834443242312515,0.06444782763719559,0.9813174605369568,-0.1812804639339447
1727683699885,9i,16.285499529297386,3.3s : 4.8s,0.643401251583417,0.53763881268199,0.35342563239953,0.6799614594885175,-0.2918204367160797,0.3297938108444214,0.06862922757863998,0.43870821595191956,-0.39823609590530396,0.3336026072502136,-1.3779228056486403,0.37369357174386975,-0.3466409708089294,0.06997402012348175,0.9814574718475342,-0.17845119535923004
1727683699895,9i,16.285499529297386,3.3s : 4.8s,0.6396734851376326,0.5518747787908703,0.3234445796773427,0.6736364495824302,-0.33377641439437866,0.061952508985996246,0.4078451097011566,0.43824610114097595,-0.3927977681159973,0.3277748227119446,-1.378528934789472,0.4122061410293238,-0.3086872610969502,0.07655492424964905,0.9815735220909119,-0.1750800907611847
1727683699905,9i,16.285499529297386,3.3s : 4.8s,0.6234259173561028,0.5661647763051401,0.2609929510593132,0.6655830303523088,-0.37925487756729126,-0.17302626371383667,0.7685835361480713,0.42979875206947327,-0.38801515102386475,0.32820427417755127,-1.3788935214298754,0.45692920157840455,-0.26453966037948884,0.08414775878190994,0.9816430807113647,-0.1711607575416565
1727683699915,9i,16.285499529297386,3.3s : 4.8s,0.6854673907120694,0.5804574013840609,0.3646021789678117,0.6477908008029434,-0.4292123317718506,-0.32645097374916077,1.0989664793014526,0.4117705225944519,-0.37874698638916016,0.326540470123291,-1.3788615481313073,0.5074565251732448,-0.21467403337879143,0.09270026534795761,0.9816370010375977,-0.16671983897686005
1727683699925,9i,16.285499529297386,3.3s : 4.8s,0.8024905271018029,0.5945077127617227,0.5390284088570422,0.6182750498431139,-0.4605793058872223,-0.38564375042915344,1.3638259172439575,0.3853946328163147,-0.36416095495224,0.3179965615272522,-1.3782298434578666,0.5628765762401934,-0.16003254477867507,0.10212362557649612,0.9815163016319275,-0.16185331344604492
1727683699935,9i,16.285499529297386,3.3s : 4.8s,0.9337420229380816,0.6082045762851976,0.7084923138512118,0.590952409804086,-0.5022273659706116,-0.3496556580066681,1.5444114208221436,0.3601447343826294,-0.35053175687789917,0.3108826279640198,-1.376784183539368,0.6222448436117008,-0.1016061525554551,0.11237416416406631,0.981238603591919,-0.1566619575023651
1727683699945,9i,16.285499529297386,3.3s : 4.8s,1.0490690475158007,0.6215305784327664,0.8451305263264011,0.5722084335257936,-0.5696412920951843,-0.22506168484687805,1.6241614818572998,0.3416459560394287,-0.3389279842376709,0.309561550617218,-1.374544168844899,0.6848816206513261,-0.04000264815407301,0.12335038185119629,0.9808042645454407,-0.15102267265319824
1727683699955,9i,16.285499529297386,3.3s : 4.8s,1.1354295693890972,0.634533288969993,0.9415773001894399,0.5607970180430981,-0.6550770998001099,-0.03573756292462349,1.6179929971694946,0.331129789352417,-0.3235711455345154,0.31646180152893066,-1.371636793133528,0.7507306860204404,0.024664460589173435,0.13496516644954681,0.9802331924438477,-0.14466306567192078
1727683699965,9i,16.285499529297386,3.3s : 4.8s,1.1927009878263235,0.6473169529826773,1.0017566614418445,0.5596468133839785,-0.7435516715049744,0.17524534463882446,1.548302412033081,0.3302990794181824,-0.3174753785133362,0.3214287757873535,-1.3680064307387556,0.8193351795273134,0.09193858462965289,0.14716361463069916,0.9795085191726685,-0.13749930262565613
1727683699975,9i,16.285499529297386,3.3s : 4.8s,1.2280551295132758,0.6600431364546765,1.0355976338052062,0.5623832183882636,-0.8078462481498718,0.3740372657775879,1.4511308670043945,0.33722662925720215,-0.314394474029541,0.3220391273498535,-1.3634420756246979,0.8897965849628826,0.1609166640505295,0.15995047986507416,0.978579044342041,-0.12961046397686005
1727683699985,9i,16.285499529297386,3.3s : 4.8s,1.2500447636928753,0.6727496720558663,1.0535747671545201,0.5635245436806967,-0.8614198565483093,0.5194793343544006,1.3465431928634644,0.3523511290550232,-0.30729031562805176,0.31461286544799805,-1.3577689249939409,0.9606175935517887,0.2302044305270404,0.17326833307743073,0.9773953557014465,-0.12114660441875458
1727683699995,9i,16.285499529297386,3.3s : 4.8s,1.2656387896921184,0.6854439945505992,1.0639586816732352,0.563644414702377,-0.9020540714263916,0.6016026735305786,1.2616384029388428,0.365840882062912,-0.29706311225891113,0.309207022190094,-1.350930013498644,1.0303504562200299,0.29846140094378104,0.18701551854610443,0.9759266376495361,-0.11221601814031601
1727683700005,9i,16.285499529297386,3.3s : 4.8s,1.2784348121631814,0.6981229554544831,1.070990153091151,0.5599349123218641,-0.927664041519165,0.6182627081871033,1.212307095527649,0.3754470944404602,-0.2828753590583801,0.30421721935272217,-1.3429022701234534,1.0977958555570846,0.36454059515105885,0.2011215090751648,0.9741443395614624,-0.1029231995344162
1727683700015,9i,16.285499529297386,3.3s : 4.8s,1.2876984191264742,0.7107432920375955,1.0737835868760437,0.5509120597878843,-0.9259007573127747,0.5726448893547058,1.2088545560836792,0.3798432946205139,-0.26949185132980347,0.2942742109298706,-1.3336903258003243,1.1615449954170223,0.4270487571913959,0.21549361944198608,0.9720218181610107,-0.09346850216388702
1727683700025,9i,16.285499529297386,3.3s : 4.8s,1.2962377080086045,0.7232794597170272,1.0756853716653607,0.5438375305383872,-0.9104577302932739,0.49591124057769775,1.2492728233337402,0.3816016912460327,-0.25639432668685913,0.290519118309021,-1.3233640743932649,1.2205528961663985,0.484897372899955,0.2300468385219574,0.9695444703102112,-0.08403711766004562
1727683700035,9i,16.285499529297386,3.3s : 4.8s,1.3092820660541056,0.7356683158835111,1.0830566270957518,0.5325922401636118,-0.8779338598251343,0.4116314947605133,1.3247947692871094,0.377055823802948,-0.23681658506393433,0.29223501682281494,-1.311967145355378,1.274358578125861,0.5375281365640573,0.2447856217622757,0.9666903018951416,-0.07476668804883957
1727683700045,9i,16.285499529297386,3.3s : 4.8s,1.3248928454691993,0.7477880265633577,1.0936883099420742,0.513485851565639,-0.8411399722099304,0.33897364139556885,1.403491735458374,0.3685777187347412,-0.21258509159088135,0.2874469757080078,-1.2996715388380091,1.3228662855530642,0.5846992532691037,0.2596266567707062,0.9634702801704407,-0.06572141498327255
1727683700055,9i,16.285499529297386,3.3s : 4.8s,1.3439326224082682,0.7595817083721406,1.1086886496576147,0.49335592421727015,-0.816226601600647,0.27400368452072144,1.479853868484497,0.36046940088272095,-0.1941806674003601,0.2752376198768616,-1.286690117074145,1.3663805615151403,0.6267543368717821,0.27446407079696655,0.9599125385284424,-0.056899528950452805
1727683700065,9i,16.285499529297386,3.3s : 4.8s,1.3652209551279315,0.7710526108559245,1.1266348688074073,0.47987328599206946,-0.8161793947219849,0.21792000532150269,1.5320814847946167,0.3594895303249359,-0.1808963418006897,0.26138508319854736,-1.2731961011841746,1.4056539492348503,0.6646587058996272,0.2892378866672516,0.9560429453849792,-0.0482044443488121
1727683700075,9i,16.285499529297386,3.3s : 4.8s,1.3879071572046657,0.7823184184278511,1.1464136117512227,0.4775268849439821,-0.8437708020210266,0.18197132647037506,1.5601937770843506,0.3595832288265228,-0.17997503280639648,0.2575671076774597,-1.2593346059717772,1.441679929234108,0.6996210439808132,0.3038994073867798,0.9518866539001465,-0.039457909762859344
1727683700085,9i,16.285499529297386,3.3s : 4.8s,1.4111101079733481,0.7935227758693293,1.166856178370406,0.4815724949405163,-0.9116367697715759,0.17923519015312195,1.556475043296814,0.35967251658439636,-0.1820385456085205,0.2634572386741638,-1.2451682414803702,1.475689694768382,0.7329528214606359,0.31845855712890625,0.9474499821662903,-0.030379172414541245
1727683700095,9i,16.285499529297386,3.3s : 4.8s,1.4313563283697388,0.8046926531354176,1.183744344338752,0.4863292620840418,-0.995693564414978,0.2000563144683838,1.51691734790802,0.3611280620098114,-0.17936933040618896,0.2718994617462158,-1.2307864915160942,1.5088426755198352,0.7657666717274106,0.3328569531440735,0.942751407623291,-0.020648127421736717
1727683700105,9i,16.285499529297386,3.3s : 4.8s,1.4523197006777446,0.8158071225425881,1.2015370372092056,0.4783483471513586,-1.0569161176681519,0.20753341913223267,1.5110602378845215,0.35641399025917053,-0.1674078106880188,0.271589457988739,-1.2161324697559248,1.5411386651408263,0.79794601874708,0.34712299704551697,0.9377632737159729,-0.010297875851392746
1727683700115,9i,16.285499529297386,3.3s : 4.8s,1.4696622050471528,0.826772746193292,1.2150530124632677,0.46665586125201,-1.0844446420669556,0.20768548548221588,1.497253656387329,0.351798415184021,-0.15135139226913452,0.266642689704895,-1.2012592822589185,1.572076833303617,0.8287943947212322,0.361183762550354,0.9324946403503418,0.0004624984285328537
1727683700125,9i,16.285499529297386,3.3s : 4.8s,1.4764772996742164,0.8374055786062079,1.216033352080636,0.4448730992788171,-1.0736751556396484,0.1995808631181717,1.4651460647583008,0.34520646929740906,-0.13164114952087402,0.24782085418701172,-1.1863079289115221,1.6007753017906594,0.8574699642115374,0.3749168813228607,0.9269904494285583,0.011242992244660854
1727683700135,9i,16.285499529297386,3.3s : 4.8s,1.4750389819763592,0.8476451615403066,1.2071609993978274,0.4235368927419496,-1.0343290567398071,0.18602244555950165,1.423211693763733,0.33892345428466797,-0.11066341400146484,0.2286219596862793,-1.1714547041941221,1.6267504781572717,0.8834872266808412,0.38820359110832214,0.9213171601295471,0.021744301542639732
1727683700145,9i,16.285499529297386,3.3s : 4.8s,1.4637225603165755,0.8574911353819432,1.1862515274262442,0.40871940248434785,-0.9718942046165466,0.1752651333808899,1.3778280019760132,0.33391886949539185,-0.09244519472122192,0.2168031930923462,-1.1568354417756916,1.6496147174820528,0.906424581238794,0.4009900987148285,0.9155347943305969,0.031671006232500076
1727683700155,9i,16.285499529297386,3.3s : 4.8s,1.4454954191748122,0.8669752851318168,1.1566377401010097,0.39901042488493926,-0.9112350940704346,0.16680774092674255,1.3297693729400635,0.32762107253074646,-0.0737035870552063,0.21550297737121582,-1.142529405806981,1.669602090165629,0.92646978287796,0.4132693409919739,0.9096868634223938,0.04096679389476776
1727683700165,9i,16.285499529297386,3.3s : 4.8s,1.4238367711234492,0.8761131929476873,1.122379981978589,0.39022603195761424,-0.8424738049507141,0.16969983279705048,1.294446349143982,0.3213408589363098,-0.04674410820007324,0.21640563011169434,-1.128566667551315,1.68692336727434,0.9437471029340624,0.4250732660293579,0.9037997126579285,0.04958559572696686
1727683700175,9i,16.285499529297386,3.3s : 4.8s,1.3951672323112814,0.8849493583413305,1.078589931014743,0.3820182805717611,-0.7453683018684387,0.17854206264019012,1.2386384010314941,0.3144020438194275,-0.017152130603790283,0.21632181107997894,-1.1150205887649984,1.7017290741968596,0.9582786586305563,0.43639132380485535,0.8979198336601257,0.05746668204665184
1727683700185,9i,16.285499529297386,3.3s : 4.8s,1.3632392906948823,0.8933902354078757,1.0296966791109632,0.3684791052622535,-0.6896042227745056,0.2013079971075058,1.1618295907974243,0.30565351247787476,0.006626009941101074,0.20569121837615967,-1.1021777311678784,1.7144615892261648,0.9703812525952665,0.44700148701667786,0.892193078994751,0.0646640807390213
1727683700195,9i,16.285499529297386,3.3s : 4.8s,1.3316499401066717,0.9014388639203326,0.9801528133919336,0.3561937355414098,-0.6570606827735901,0.21635086834430695,1.0883618593215942,0.2971991300582886,0.022747516632080078,0.19501078128814697,-1.0900743148179863,1.7262395080386006,0.9812760395186798,0.4568445086479187,0.8866612911224365,0.07159090042114258
1727683700205,9i,16.285499529297386,3.3s : 4.8s,1.2996642696913476,0.9090551335680063,0.9288412017379496,0.34059275571809,-0.6182190179824829,0.2113969475030899,1.0143249034881592,0.29303327202796936,0.03194701671600342,0.17062917351722717,-1.078685666019236,1.737092652718813,0.9911322330009487,0.4659695327281952,0.881337583065033,0.07821132242679596
1727683700215,9i,16.285499529297386,3.3s : 4.8s,1.2671166861045684,0.9162758446380962,0.8752275548320942,0.3215775821680043,-0.6035047769546509,0.19133642315864563,0.9217828512191772,0.2883589565753937,0.018935561180114746,0.141076922416687,-1.0681227112637768,1.7470579777451556,1.0001748919189977,0.4743058681488037,0.876297652721405,0.08447861671447754
1727683700225,9i,16.285499529297386,3.3s : 4.8s,1.2360382413767161,0.9231636664899991,0.821924192987642,0.30795105138272244,-0.6044812202453613,0.1638868749141693,0.8315701484680176,0.27903497219085693,0.00883263349533081,0.12998199462890625,-1.0584247045523527,1.7566999186023442,1.0091938131935259,0.4817987382411957,0.8715842962265015,0.09061441570520401
1727683700235,9i,16.285499529297386,3.3s : 4.8s,1.2036671122278373,0.9296895960960281,0.7645206157911668,0.29038926675648236,-0.5722526907920837,0.15004242956638336,0.7330747246742249,0.2643826901912689,0.016087651252746582,0.11903321743011475,-1.049639353828681,1.7658766524636018,1.0179409004582058,0.48844021558761597,0.8672437071800232,0.09651249647140503
1727683700245,9i,16.285499529297386,3.3s : 4.8s,1.169111099853054,0.9357609540991785,0.7008367859801689,0.26459987136800606,-0.49940747022628784,0.15335610508918762,0.6378145217895508,0.24379783868789673,0.027137398719787598,0.09919308125972748,-1.0418715972121027,1.7741398427336121,1.0257474012157761,0.4942086637020111,0.8633501529693604,0.10190252214670181
1727683700255,9i,16.285499529297386,3.3s : 4.8s,1.1326893692419624,0.9413069290888165,0.6300210095251877,0.23791430098662736,-0.40548497438430786,0.14834056794643402,0.5427079796791077,0.22219321131706238,0.035561442375183105,0.07725784927606583,-1.0351644007053455,1.7811372201934434,1.0321193659664596,0.49913543462753296,0.8599462509155273,0.10656484216451645
1727683700265,9i,16.285499529297386,3.3s : 4.8s,1.0965724569182114,0.9463559524734119,0.553968920147858,0.21667541385999292,-0.30017271637916565,0.1556926667690277,0.4511145353317261,0.20532286167144775,0.03176194429397583,0.06149744987487793,-1.0295705236304469,1.78662693394204,1.0367395000377198,0.5032342672348022,0.8570778369903564,0.11033189296722412
1727683700275,9i,16.285499529297386,3.3s : 4.8s,1.065445666727689,0.9510228107535749,0.48034371253840685,0.2041869028058074,-0.23636232316493988,0.14277474582195282,0.3713299334049225,0.1939687728881836,0.021903157234191895,0.059905409812927246,-1.0249709322648948,1.7909645735064985,1.0400711619769667,0.5065927505493164,0.8546990752220154,0.11337348073720932
1727683700285,9i,16.285499529297386,3.3s : 4.8s,1.0391665437318032,0.9553827577889794,0.40879199078629896,0.1985408488890156,-0.17285124957561493,0.1353326290845871,0.2914995849132538,0.18691468238830566,0.026519596576690674,0.061466097831726074,-1.0212919258458115,1.7944919022083115,1.0425685214967497,0.5092523097991943,0.8527834415435791,0.11585643887519836
1727683700295,9i,16.285499529297386,3.3s : 4.8s,1.017113331087045,0.9595183505004228,0.33740785901921844,0.19399467984965804,-0.06857571005821228,0.1376943141222,0.2244400978088379,0.1821383833885193,0.028658568859100342,0.0603177547454834,-1.018517397828106,1.7968454455032605,1.0437236781987709,0.5112820863723755,0.8513311147689819,0.11758450418710709
1727683700305,9i,16.285499529297386,3.3s : 4.8s,1.0014161115941167,0.963558637534206,0.2727434336395746,0.19309350088171542,0.013440392911434174,0.12748092412948608,0.17769193649291992,0.17947787046432495,0.02659517526626587,0.06607186049222946,-1.0164912125099888,1.7978445281113937,1.0433508400355391,0.5128438472747803,0.8502663969993591,0.1184832751750946
1727683700315,9i,16.285499529297386,3.3s : 4.8s,0.9912884830957855,0.96754411790477,0.21566463925786206,0.1944786893717911,0.08920066803693771,0.11728713661432266,0.1289030909538269,0.17607039213180542,0.03825569152832031,0.0731961727142334,-1.0151250188708887,1.7976951431114487,1.0417243080942187,0.5139930844306946,0.849546492099762,0.11866791546344757
1727683700325,9i,16.285499529297386,3.3s : 4.8s,0.9858003617277302,0.9714123869087943,0.1678103922368425,0.187538121598803,0.1696580946445465,0.09327830374240875,0.08094309270381927,0.16704005002975464,0.05032151937484741,0.06881797313690186,-1.014380781846949,1.7963494519613805,1.0389067300297254,0.5147684216499329,0.8491536974906921,0.11811749637126923
1727683700335,9i,16.285499529297386,3.3s : 4.8s,0.9873128174534793,0.9749844480499423,0.15553753749071805,0.16541470099914826,0.22757065296173096,0.08237478882074356,0.03250764310359955,0.15124773979187012,0.03944361209869385,0.054132670164108276,-1.0142907344366152,1.7938695345083333,1.03496131961687,0.5151340365409851,0.8491061329841614,0.11685739457607269
1727683700345,9i,16.285499529297386,3.3s : 4.8s,0.9886912739662593,0.978316194770038,0.14285607536152667,0.14495510211846416,0.2287750095129013,0.05967240035533905,-0.011393334716558456,0.13812261819839478,0.0099448561668396,0.04283951222896576,-1.0147019781071085,1.7909114374694293,1.0306389485407939,0.5151365995407104,0.8493232727050781,0.11525680869817734
1727683700355,9i,16.285499529297386,3.3s : 4.8s,0.9900349067776119,0.9814823764515014,0.12985168983601292,0.13568728558407747,0.2125997692346573,0.04822400212287903,-0.060671672224998474,0.129014790058136,-0.014750361442565918,0.0393528938293457,-1.0155244161715151,1.7881686404440187,1.0267801263946295,0.5147687792778015,0.8497571349143982,0.11369283497333527
1727683700365,9i,16.285499529297386,3.3s : 4.8s,0.9899892021941074,0.9845922651909729,0.10323125392551494,0.13525976910958737,0.23415732383728027,0.02861381694674492,-0.10513164848089218,0.12388616800308228,-0.033843994140625,0.04245004802942276,-1.0168083583619059,1.7853313902261978,1.022987754068275,0.5140225887298584,0.8504332900047302,0.11199943721294403
1727683700375,9i,16.285499529297386,3.3s : 4.8s,0.9943173987364172,0.987674995282039,0.11473967545962298,0.13459963633960362,0.28930366039276123,0.0058821397833526134,-0.16106946766376495,0.12168359756469727,-0.034251630306243896,0.0462275892496109,-1.0186305091097572,1.7819405594928939,1.0187912940064827,0.512883722782135,0.8513904809951782,0.10993096232414246
1727683700385,9i,16.285499529297386,3.3s : 4.8s,1.0048453241390638,0.9907348227743662,0.16780535267501337,0.13599678098366605,0.4163355231285095,0.017769869416952133,-0.2265072762966156,0.1237173080444336,-0.007843375205993652,0.05592525005340576,-1.0212630391821538,1.7770805891155956,1.0129798181970442,0.5112161636352539,0.8527683615684509,0.10697758942842484
1727683700395,9i,16.285499529297386,3.3s : 4.8s,1.020063554042254,0.9913362254429717,0.24037916384286748,0.2965606131692628,0.5438780188560486,0.018204763531684875,-0.3038281798362732,-0.08197933435440063,0.24644184112548828,-0.14315727353096008,-0.6774047441239286,1.9791669444991487,1.1646080046872669,0.7151274681091309,0.6267728805541992,0.30943238735198975
1727683700405,9i,16.285499529297386,3.3s : 4.8s,1.0422980084449316,0.9901335068093129,0.32560831853895067,0.3293501927112691,0.6891922950744629,0.008672777563333511,-0.37737593054771423,-0.11031627655029297,0.29507607221603394,-0.09608319401741028,-0.656309683935734,1.89880843698937,1.111242732832372,0.7500103712081909,0.6101973652839661,0.25523248314857483
1727683700415,9i,16.285499529297386,3.3s : 4.8s,1.0710316157717394,0.9876486958881664,0.41431724015906823,0.33965481788055224,0.8073650002479553,-0.024399954825639725,-0.45906785130500793,-0.09170365333557129,0.3024865984916687,-0.12432897090911865,-0.662591090647593,1.9203011225758544,1.1199374899437031,0.7407362461090088,0.6151617169380188,0.2699742317199707
1727683700425,9i,16.285499529297386,3.3s : 4.8s,1.0982776561708523,0.9843884636809688,0.48702480698211115,0.31097397001715177,0.8286671042442322,-0.06890084594488144,-0.5246152877807617,-0.07819938659667969,0.269750714302063,-0.1335073709487915,-0.6703637121181032,1.9205363340533421,1.1156159605269955,0.7361584305763245,0.621271014213562,0.2685019075870514
1727683700435,9i,16.285499529297386,3.3s : 4.8s,1.117790088274837,0.9808730024400565,0.5360436871465768,0.26329367667137243,0.7782079577445984,-0.10582450777292252,-0.5811163783073425,-0.06882578134536743,0.22113126516342163,-0.12524989247322083,-0.6787713769695599,1.917548934935275,1.109869248538445,0.7320185303688049,0.6278371810913086,0.2645168900489807
1727683700445,9i,16.285499529297386,3.3s : 4.8s,1.1291731771308002,0.9773390851703725,0.5655443188203777,0.21229103303741442,0.7122485637664795,-0.12750573456287384,-0.6240987777709961,-0.059878408908843994,0.1687069535255432,-0.11410531401634216,-0.6874411065237317,1.9136997067826251,1.1043194481174263,0.7278777360916138,0.6345615386962891,0.2598574161529541
1727683700454,9i,16.285499529297386,3.3s : 4.8s,1.1344262190265075,0.9739347966199425,0.5816991132429625,0.1718170412344586,0.6464115381240845,-0.13512903451919556,-0.6617934107780457,-0.05448603630065918,0.12989360094070435,-0.09838709235191345,-0.6962721269782177,1.9097541964772895,1.0993686603465163,0.7235840559005737,0.6413620114326477,0.2551102340221405
1727683700464,9i,16.285499529297386,3.3s : 4.8s,1.1395194193020666,0.9707377204939011,0.5968021321818677,0.15422961709928187,0.6377689838409424,-0.136104553937912,-0.6906413435935974,-0.04986846446990967,0.12422746419906616,-0.07659927010536194,-0.7052621094703732,1.905835058569746,1.0948593502803072,0.7191036343574524,0.6482334136962891,0.2503663897514343
1727683700474,9i,16.285499529297386,3.3s : 4.8s,1.1598990044613549,0.9676424974006338,0.6395574233598625,0.16588870756215043,0.8068719506263733,-0.1348736435174942,-0.7381327152252197,-0.0467379093170166,0.14458483457565308,-0.06655716896057129,-0.7148170893815459,1.9011129107815319,1.0893579277134429,0.7143862843513489,0.6554793119430542,0.24494777619838715
1727683700484,9i,16.285499529297386,3.3s : 4.8s,1.1953946310332673,0.9645734983586156,0.7060922674604101,0.1849020765424075,0.999731719493866,-0.12898112833499908,-0.7966918349266052,-0.04550635814666748,0.16331857442855835,-0.07379019260406494,-0.7254590532735677,1.8947425658848795,1.0814325229718547,0.70927894115448,0.6634789705276489,0.2381579875946045
1727683700494,9i,16.285499529297386,3.3s : 4.8s,1.241730484699256,0.9615376784843911,0.7857097997901624,0.19997186346374546,1.1524765491485596,-0.11159894615411758,-0.872471272945404,-0.03879600763320923,0.18598663806915283,-0.06239059567451477,-0.7371944188925473,1.8868699489228042,1.0713052531796305,0.7036824226379395,0.6722134351730347,0.23013052344322205
1727683700504,9i,16.285499529297386,3.3s : 4.8s,1.3058811633471112,0.9586556329706654,0.8867384000698386,0.2308206699399562,1.3624918460845947,-0.08729440718889236,-0.972071647644043,-0.025845110416412354,0.22672760486602783,-0.03471030294895172,-0.7501731913024828,1.8776435927590778,1.0590703920103013,0.6973996162414551,0.6817654967308044,0.220974400639534
1727683700514,9i,16.285499529297386,3.3s : 4.8s,1.3800230368234807,0.9559617975471669,0.9952892161547273,0.24174261974028663,1.5227701663970947,-0.08364854007959366,-1.069383978843689,-0.008444726467132568,0.23951709270477295,-0.031618714332580566,-0.7645962009018801,1.8666952048739753,1.0442776028813476,0.6902990341186523,0.6922456622123718,0.21043652296066284
1727683700524,9i,16.285499529297386,3.3s : 4.8s,1.4493414581850224,0.9533838611550464,1.091627168818632,0.22804528884828854,1.5830135345458984,-0.08326194435358047,-1.156279444694519,0.01637214422225952,0.22588294744491577,-0.02671143412590027,-0.7800305998031966,1.854470491749524,1.0278926719915853,0.68248051404953,0.703301191329956,0.19896799325942993
1727683700534,9i,16.285499529297386,3.3s : 4.8s,1.5052181598175889,0.9509981060373134,1.1667408928112921,0.21694424075629717,1.591037392616272,-0.11937254667282104,-1.2056925296783447,0.04803532361984253,0.2112973928451538,-0.010527253150939941,-0.7960389041962702,1.8413973364598986,1.0108474775768375,0.6740869283676147,0.7145907282829285,0.186995267868042
1727683700544,9i,16.285499529297386,3.3s : 4.8s,1.5436652607737638,0.9490679889170534,1.2174450253431042,0.18164027298763644,1.5448087453842163,-0.18334662914276123,-1.244303822517395,0.07678192853927612,0.16373616456985474,-0.016976237297058105,-0.8122268665523136,1.827494003797382,0.9936362330295461,0.6653445363044739,0.725820779800415,0.17464536428451538
1727683700554,9i,16.285499529297386,3.3s : 4.8s,1.5597589170048158,0.947967639613082,1.238630386121073,0.13351153709935168,1.4303494691848755,-0.2532498240470886,-1.2633576393127441,0.09508895874023438,0.09205621480941772,-0.017580494284629822,-0.8282819395314156,1.8131005672418385,0.9769368740580529,0.6563912034034729,0.7367708086967468,0.1622338593006134
1727683700564,9i,16.285499529297386,3.3s : 4.8s,1.5546909430740814,0.9476757400060302,1.2324668840502773,0.1037574552762026,1.2568899393081665,-0.2972092032432556,-1.275307059288025,0.10025542974472046,0.02672898769378662,0.00013981759548187256,-0.8439489852449235,1.7991097017309507,0.9618378524069255,0.6472726464271545,0.7472730875015259,0.1504034847021103
1727683700574,9i,16.285499529297386,3.3s : 4.8s,1.5402024774956025,0.9479951026101816,1.213890010301882,0.09904889206843928,1.1482113599777222,-0.30034640431404114,-1.3002878427505493,0.09463781118392944,0.0005807280540466309,0.02922379970550537,-0.8593215101427949,1.7859940798670442,0.9484247723374869,0.6378908753395081,0.7573997378349304,0.13943171501159668
1727683700584,9i,16.285499529297386,3.3s : 4.8s,1.5390748984772986,0.9484621902315226,1.2120936501872,0.09158087625790254,1.1498774290084839,-0.2655870020389557,-1.3522002696990967,0.0786292552947998,0.021188735961914062,0.041899099946022034,-0.8748013909557972,1.7731605976381182,0.9353340401158684,0.6280664205551147,0.7674161791801453,0.12886205315589905
1727683700594,9i,16.285499529297386,3.3s : 4.8s,1.549004317002742,0.9490089651778385,1.2242533880309339,0.11897761125120858,1.1977897882461548,-0.20685605704784393,-1.4286692142486572,0.06169062852859497,0.08393901586532593,0.05748199671506882,-0.8908440920598181,1.7600973484661688,0.9215384187602246,0.6175237894058228,0.7776027321815491,0.11831453442573547
1727683700604,9i,16.285499529297386,3.3s : 4.8s,1.5832849944448826,0.9495726664600301,1.266926645369147,0.18230970538077812,1.358380675315857,-0.17033514380455017,-1.5108230113983154,0.05578291416168213,0.1635836362838745,0.058012835681438446,-0.9077524709928029,1.745841442432611,0.9057110882424388,0.6061127781867981,0.7881223559379578,0.10719416290521622
1727683700614,9i,16.285499529297386,3.3s : 4.8s,1.6381582199338167,0.9499843958611682,1.3345755884014294,0.20341169018224328,1.5658636093139648,-0.1956985592842102,-1.5679256916046143,0.06123775243759155,0.19296449422836304,0.019772641360759735,-0.9254937604652107,1.7285223208969465,0.8861807174784093,0.5939745903015137,0.798917829990387,0.09446992725133896
1727683700624,9i,16.285499529297386,3.3s : 4.8s,1.6894418525736201,0.9504111065329378,1.3967578536762277,0.16532027915601075,1.6644995212554932,-0.2541658580303192,-1.5655204057693481,0.08022463321685791,0.14455002546310425,-0.00030506402254104614,-0.9435177991191909,1.7076291644082027,0.8630167598667419,0.5814574360847473,0.8096278309822083,0.08006277680397034
1727683700634,9i,16.285499529297386,3.3s : 4.8s,1.7324306354650663,0.9511134680735601,1.447998300256937,0.11937868314809069,1.7399444580078125,-0.30950796604156494,-1.5329885482788086,0.10303294658660889,0.055084288120269775,0.02451944351196289,-0.9611040181990386,1.6837850164744406,0.8372555033141182,0.5689641833305359,0.81982421875,0.06456148624420166
1727683700644,9i,16.285499529297386,3.3s : 4.8s,1.7614967230126297,0.9520487520681433,1.4820505655576413,0.13301566382896754,1.744825839996338,-0.34775829315185547,-1.504576563835144,0.11439263820648193,-0.0267488956451416,0.06238579750061035,-0.9780453527203306,1.6573938513745718,0.8092667783300822,0.5565516352653503,0.8294069766998291,0.0483168289065361
1727683700654,9i,16.285499529297386,3.3s : 4.8s,1.7805830270644536,0.9532327679415151,1.5039359050147616,0.15054750925330326,1.725964069366455,-0.3379373550415039,-1.5102025270462036,0.1038007140159607,-0.057205379009246826,0.09283053874969482,-0.9944150492964283,1.6294373978043966,0.7799381275305837,0.5440569519996643,0.8384402990341187,0.031940706074237823
1727683700664,9i,16.285499529297386,3.3s : 4.8s,1.8030894491344553,0.9545948516318435,1.5296667057950801,0.1375902077158142,1.783718466758728,-0.2648327946662903,-1.5375785827636719,0.08470869064331055,-0.01752328872680664,0.10699737071990967,-1.0104433638705201,1.6000507259597248,0.7486735539254321,0.5312581658363342,0.8470675945281982,0.015546073205769062
1727683700674,9i,16.285499529297386,3.3s : 4.8s,1.835552506714389,0.9560301034213554,1.5669267520396828,0.11697001669825212,1.8556400537490845,-0.22914910316467285,-1.6072604656219482,0.07261663675308228,0.039279162883758545,0.08286106586456299,-1.0264203034015142,1.568516455682643,0.7144864948204608,0.51788330078125,0.8554506301879883,-0.0011807091068476439
1727683700684,9i,16.285499529297386,3.3s : 4.8s,1.8711189436223739,0.9574869831120407,1.6075773008952046,0.13193385546575323,1.8806602954864502,-0.2421206533908844,-1.6858024597167969,0.08312451839447021,0.08629387617111206,0.0552288293838501,-1.0426017206323397,1.5341690686047684,0.6772455176876083,0.50363689661026,0.8637183308601379,-0.01845509186387062
1727683700694,9i,16.285499529297386,3.3s : 4.8s,1.895859298863363,0.9591733296286826,1.6353192363620348,0.16617922341303673,1.8495844602584839,-0.29438838362693787,-1.7063599824905396,0.1187429428100586,0.10000818967819214,0.05927908420562744,-1.0586028053931198,1.4973800899159384,0.6378943696068242,0.4887704849243164,0.8716715574264526,-0.03594829887151718
1727683700704,9i,16.285499529297386,3.3s : 4.8s,1.9122292396286154,0.9613778933161136,1.6529891745361505,0.19304722896581059,1.8698183298110962,-0.4051820933818817,-1.6506129503250122,0.1656089723110199,0.06811773777008057,0.07211709022521973,-1.0736552018750136,1.457765750798216,0.5966118625566712,0.4738716185092926,0.8789495825767517,-0.05379125475883484
1727683700714,9i,16.285499529297386,3.3s : 4.8s,1.9245952328990465,0.9642771769534334,1.665603895439865,0.21347112222346176,1.908820629119873,-0.5179810523986816,-1.5817770957946777,0.19515183568000793,0.001929163932800293,0.08649832010269165,-1.0871569366677425,1.413966479532864,0.5522020810958665,0.4592975974082947,0.8853084444999695,-0.07262799143791199
1727683700724,9i,16.285499529297386,3.3s : 4.8s,1.9491365655233999,0.9677919675116439,1.6918959952314727,0.2217560327865542,2.044337511062622,-0.5720945000648499,-1.538131594657898,0.18694347143173218,-0.048374176025390625,0.10903126001358032,-1.0989612612111417,1.3657380374103758,0.5041345319594134,0.44499924778938293,0.8907356858253479,-0.09255167096853256
1727683700734,9i,16.285499529297386,3.3s : 4.8s,1.9751352854598865,0.9716644202388719,1.719601014860879,0.21467141485528535,2.10764479637146,-0.5313238501548767,-1.538933277130127,0.148799329996109,-0.03812307119369507,0.14996401965618134,-1.1091406876374774,1.313156495512816,0.4515016058982257,0.43072953820228577,0.8953162431716919,-0.11349547654390335
1727683700744,9i,16.285499529297386,3.3s : 4.8s,2.008760728457742,0.9755112819828741,1.7559890099081505,0.19166591000491046,2.2032430171966553,-0.42007139325141907,-1.5848678350448608,0.10573837161064148,0.03165924549102783,0.15669368207454681,-1.1180150261392379,1.2574961042282078,0.3947657169889875,0.4161733090877533,0.899233877658844,-0.13482776284217834
1727683700754,9i,16.285499529297386,3.3s : 4.8s,2.0575824822821347,0.9791877900416287,1.8096510556534657,0.18709054121883548,2.3352091312408447,-0.3438578248023987,-1.663260817527771,0.07297945022583008,0.11816036701202393,0.12535947561264038,-1.1256813273355393,1.1981060165190849,0.3330083588221123,0.40100428462028503,0.9025611281394958,-0.15677721798419952
1727683700764,9i,16.285499529297386,3.3s : 4.8s,2.1172510116258696,0.9826215899248449,1.8754217278373253,0.17937153035503473,2.4513444900512695,-0.36207130551338196,-1.7359404563903809,0.07347112894058228,0.14980965852737427,0.06582708656787872,-1.131881847878747,1.1339834052387188,0.2658567974417501,0.38505545258522034,0.905213475227356,-0.17977966368198395
1727683700774,9i,16.285499529297386,3.3s : 4.8s,2.1493449650443552,0.9859137350969981,1.90988425976775,0.16909335853279348,2.3633999824523926,-0.4821583032608032,-1.7263435125350952,0.12158313393592834,0.11088383197784424,0.038921475410461426,-1.1364298659259988,1.066898616129208,0.1964490062136257,0.36852917075157166,0.907136857509613,-0.20319750905036926
1727683700784,9i,16.285499529297386,3.3s : 4.8s,2.137717675269091,0.9894551228039248,1.8949447008065852,0.2064026810840379,2.1703500747680664,-0.6129574775695801,-1.620295763015747,0.18696963787078857,0.028964996337890625,0.08249515295028687,-1.1392534441880147,1.0008381704072014,0.12967374223408465,0.3521539270877838,0.9083214998245239,-0.2256987988948822
1727683700794,9i,16.285499529297386,3.3s : 4.8s,2.0874103412763003,0.9936759313068558,1.8357260352265783,0.2609457445459744,1.935367465019226,-0.7254970669746399,-1.4807437658309937,0.22365641593933105,-0.04962480068206787,0.1249314546585083,-1.1404390177013402,0.9383727667418149,0.06828189535617288,0.33650898933410645,0.9088167548179626,-0.24660497903823853
1727683700804,9i,16.285499529297386,3.3s : 4.8s,2.006695454396329,0.9983628612753965,1.7407177381531136,0.26052487614166986,1.6330883502960205,-0.7844973206520081,-1.3920624256134033,0.20450586080551147,-0.09978514909744263,0.126860111951828,-1.140779849315772,0.8809839715529686,0.013472871525628498,0.3215714395046234,0.9089588522911072,-0.2653031051158905
1727683700814,9i,16.285499529297386,3.3s : 4.8s,1.9158414456688035,1.0030716742377868,1.6322670312433976,0.22694143441807407,1.3873322010040283,-0.7798323035240173,-1.3378374576568604,0.1438193917274475,-0.10072064399719238,0.14378368854522705,-1.1412670480768734,0.8292409617090405,-0.03484725526467844,0.30709308385849,0.9091618657112122,-0.2812805771827698
1727683700824,9i,16.285499529297386,3.3s : 4.8s,1.842241116673953,1.0073460057983181,1.542435203360669,0.1652045529449878,1.2868624925613403,-0.744240939617157,-1.3432234525680542,0.06915506720542908,-0.06468158960342407,0.13537508249282837,-1.1417121431845425,0.7806499829565903,-0.07991908257353639,0.2927834093570709,0.9093471169471741,-0.2955770790576935
1727683700834,9i,16.285499529297386,3.3s : 4.8s,1.7958981789014352,1.0108206980490828,1.4844163113416182,0.10395232674695173,1.306451678276062,-0.6845962405204773,-1.3764495849609375,0.013285160064697266,-0.026313602924346924,0.0996854305267334,-1.141584533468964,0.7326477428728146,-0.12492113576181703,0.27834081649780273,0.909294068813324,-0.309371680021286
1727683700844,9i,16.285499529297386,3.3s : 4.8s,1.7650313113728773,1.013494910944312,1.445047956164999,0.08708966477714764,1.3240275382995605,-0.5971918106079102,-1.4040560722351074,-0.010050296783447266,0.01172870397567749,0.08570903539657593,-1.1407001062566076,0.6846866448930731,-0.1706151797503538,0.2636971175670624,0.9089256525039673,-0.32298317551612854
1727683700854,9i,16.285499529297386,3.3s : 4.8s,1.7422668558188215,1.0158590469452022,1.415459004572152,0.0996655454923709,1.3477120399475098,-0.5305233001708984,-1.3919885158538818,0.0006139278411865234,0.02660059928894043,0.09604817628860474,-1.1387775778414493,0.6374385913749689,-0.21651010744693036,0.2491876631975174,0.9081223607063293,-0.33648088574409485
1727683700864,9i,16.285499529297386,3.3s : 4.8s,1.7241664957226204,1.0180406702810536,1.3915255292757385,0.08485235676292076,1.3343027830123901,-0.5383402109146118,-1.3766382932662964,0.04050751030445099,0.005338132381439209,0.07436779141426086,-1.1358157895446548,0.5911598625747648,-0.261676574385272,0.2348526269197464,0.9068782329559326,-0.3498804271221161
1727683700874,9i,16.285499529297386,3.3s : 4.8s,1.7053966532126303,1.0202876347121868,1.366525114018126,0.12713140419264773,1.2925186157226562,-0.5879056453704834,-1.3361872434616089,0.09119562804698944,-0.039341092109680176,0.07936012744903564,-1.1320682237937225,0.5461005543627669,-0.3052717476423471,0.22061771154403687,0.9052926898002625,-0.36300569772720337
1727683700884,9i,16.285499529297386,3.3s : 4.8s,1.6995322426563382,1.0230655498489098,1.3571096951023636,0.18081411059979122,1.372965693473816,-0.6545094847679138,-1.28532874584198,0.13539652526378632,-0.06659406423568726,0.0996330976486206,-1.127138884647652,0.5019818585200644,-0.34724856558707157,0.2065376341342926,0.9031877517700195,-0.3762901723384857
1727683700894,9i,16.285499529297386,3.3s : 4.8s,1.7009673990892946,1.0262283151356923,1.3565196415748495,0.18301014808207938,1.4235886335372925,-0.7034011483192444,-1.2459241151809692,0.15478341281414032,-0.054579317569732666,0.08096855878829956,-1.1206634795358252,0.45845416609097606,-0.38795271725474484,0.192552387714386,0.9003893136978149,-0.3901573419570923
1727683700904,9i,16.285499529297386,3.3s : 4.8s,1.6999272895588071,1.0296824304713246,1.3525926519708062,0.18762522681456395,1.4534339904785156,-0.6657244563102722,-1.1916167736053467,0.14233940839767456,-0.020650088787078857,0.12048357725143433,-1.1128156812886156,0.41665362577336595,-0.4268633400485962,0.17893438041210175,0.8969471454620361,-0.40431228280067444
1727683700914,9i,16.285499529297386,3.3s : 4.8s,1.688940457736661,1.0332793874133164,1.33598412315659,0.1919477708343952,1.4521300792694092,-0.6045029163360596,-1.1330832242965698,0.11302576959133148,-0.013511061668395996,0.15455281734466553,-1.1039615514012753,0.37774990882454434,-0.4632847834972013,0.1659964621067047,0.8929973244667053,-0.418331503868103
1727683700924,9i,16.285499529297386,3.3s : 4.8s,1.665756882702057,1.036869816399575,1.3037050955291942,0.17062040977041307,1.3513121604919434,-0.5691898465156555,-1.0978977680206299,0.0861855298280716,-0.04892122745513916,0.13888877630233765,-1.0948102765231524,0.3420234664250286,-0.4968790455108104,0.1536826193332672,0.8888413310050964,-0.43167436122894287
1727683700934,9i,16.285499529297386,3.3s : 4.8s,1.6252869953638076,1.0404624359501864,1.2485975078764646,0.18975406776963724,1.157133936882019,-0.5577006936073303,-1.0668025016784668,0.07111503183841705,-0.10678821802139282,0.13980534672737122,-1.0864321866919984,0.3092108532055026,-0.5275747876051907,0.14169925451278687,0.8849712014198303,-0.44356200098991394
1727683700944,9i,16.285499529297386,3.3s : 4.8s,1.5738159798845686,1.0441735048902991,1.1775391416955674,0.22586151362508122,0.9673746824264526,-0.5427510738372803,-1.028841495513916,0.07143083214759827,-0.15487384796142578,0.14807143807411194,-1.0794119640616293,0.27925887999038773,-0.5553005918633808,0.13006144762039185,0.8816804885864258,-0.4535675644874573
1727683700954,9i,16.285499529297386,3.3s : 4.8s,1.5250284513654018,1.0479611658553214,1.1079211038395789,0.23026640462579104,0.8623968958854675,-0.5105907320976257,-0.999244213104248,0.07466823607683182,-0.17245274782180786,0.13306885957717896,-1.073400012268032,0.2516596586618381,-0.580709081932245,0.1188131645321846,0.8788278698921204,-0.4621092677116394
1727683700964,9i,16.285499529297386,3.3s : 4.8s,1.4865432059286623,1.0517407593643633,1.0505484654142987,0.20788848420137404,0.8258031010627747,-0.4811890721321106,-0.9817630052566528,0.07737526297569275,-0.15614312887191772,0.11335790157318115,-1.0676781697807647,0.2257543973884591,-0.6046538972403208,0.10792746394872665,0.8760833740234375,-0.46992525458335876
1727683700974,9i,16.285499529297386,3.3s : 4.8s,1.4672508770958752,1.0554487708431581,1.0192413985235693,0.1647008925166537,0.908630907535553,-0.47470027208328247,-0.9681856632232666,0.08217432349920273,-0.09969949722290039,0.10214585065841675,-1.061475880596838,0.2008072746561241,-0.6278179566126382,0.09725376963615417,0.8730760216712952,-0.477786660194397
1727683700984,9i,16.285499529297386,3.3s : 4.8s,1.463353063216271,1.058991516271155,1.0099203711630758,0.1429574773167766,1.0438264608383179,-0.45810478925704956,-0.9369163513183594,0.09675402194261551,-0.03681379556655884,0.09859129786491394,-1.053790064129966,0.17660593893821813,-0.6503300422449698,0.0868397057056427,0.8693028092384338,-0.48659172654151917
1727683700994,9i,16.285499529297386,3.3s : 4.8s,1.4675610204488772,1.0624874672879745,1.012351584478898,0.14770659844613182,1.15781831741333,-0.4382336139678955,-0.9053293466567993,0.11134228110313416,-4.6253204345703125e-05,0.09705737233161926,-1.0445240111396876,0.1534609215842643,-0.6719539827968172,0.07678329199552536,0.8646855354309082,-0.4964103400707245
1727683701004,9i,16.285499529297386,3.3s : 4.8s,1.469878827643766,1.0659877720173245,1.012034504285774,0.164284418451353,1.170016884803772,-0.4316309988498688,-0.8598628044128418,0.12032359093427658,-0.001967012882232666,0.11183798313140869,-1.034312167847567,0.13172147017529875,-0.6922108251881234,0.06713061034679413,0.8595110177993774,-0.5066896677017212
1727683701014,9i,16.285499529297386,3.3s : 4.8s,1.4559385924892716,1.0695282367707282,0.9878595729402729,0.17578177266453832,1.0530391931533813,-0.43926817178726196,-0.798055112361908,0.12344667315483093,-0.042031049728393555,0.11787086725234985,-1.0243832168969493,0.11175458400449055,-0.7105479242432554,0.05794980376958847,0.8543938398361206,-0.5163846611976624
1727683701024,9i,16.285499529297386,3.3s : 4.8s,1.423714231627214,1.0733234688219184,0.9353817106475585,0.2044169985944613,0.8585225343704224,-0.4633391499519348,-0.721817135810852,0.12505686283111572,-0.09714311361312866,0.1292683482170105,-1.0157180576832998,0.09366461294640167,-0.7265921580302772,0.04929003491997719,0.8498591780662537,-0.524699866771698
1727683701033,9i,16.285499529297386,3.3s : 4.8s,1.3761838978342498,1.077409810449936,0.8561952002928434,0.2380491624889039,0.6389821767807007,-0.4317047894001007,-0.6466805934906006,0.11824077367782593,-0.1468871831893921,0.1452951431274414,-1.0090089783574197,0.07755961727977043,-0.7403740496449838,0.04127458110451698,0.8463043570518494,-0.5310983657836914
1727683701043,9i,16.285499529297386,3.3s : 4.8s,1.3275308691161483,1.0817468244615647,0.7695206405442265,0.2655646921920061,0.4855782985687256,-0.3937452435493469,-0.5837174654006958,0.09738896787166595,-0.17724090814590454,0.1721210479736328,-1.0040236750159348,0.06351813523203931,-0.7522365305402889,0.03408074006438255,0.8436381816864014,-0.5358296036720276
1727683701053,9i,16.285499529297386,3.3s : 4.8s,1.286185873999456,1.0860847256142507,0.6889804578238506,0.2512203568643604,0.37711891531944275,-0.3439313471317291,-0.5630712509155273,0.07377754896879196,-0.18359822034835815,0.1547909379005432,-1.0002726892115523,0.05090351914058271,-0.7629582208945854,0.02747974544763565,0.8416182994842529,-0.5393734574317932
1727683701063,9i,16.285499529297386,3.3s : 4.8s,1.2547833093969631,1.090348193440064,0.6209846782354483,0.21627211174363148,0.33041366934776306,-0.2936559319496155,-0.5419008731842041,0.05130910873413086,-0.16273504495620728,0.13288456201553345,-0.9972766605070049,0.03939241062023084,-0.7730438438203785,0.02136847749352455,0.8399964570999146,-0.5421710014343262
1727683701073,9i,16.285499529297386,3.3s : 4.8s,1.2346542193083003,1.0943357130942692,0.5716645767425556,0.18591897032585897,0.35452860593795776,-0.2767893373966217,-0.51395583152771,0.04543038830161095,-0.13042020797729492,0.12446892261505127,-0.9943365814715184,0.028801413844678946,-0.7824754098451077,0.01569630764424801,0.8383975625038147,-0.544833242893219
1727683701083,9i,16.285499529297386,3.3s : 4.8s,1.2219571365430106,1.0980148990679328,0.536229918013935,0.15455487689295358,0.4013131558895111,-0.2520640194416046,-0.48231241106987,0.058111876249313354,-0.0941619873046875,0.10790616273880005,-0.9909797731853861,0.019039535842267873,-0.7912041906440318,0.01043057069182396,0.8365631699562073,-0.5477712154388428
1727683701093,9i,16.285499529297386,3.3s : 4.8s,1.2131205141795056,1.1015098728821326,0.5082690054157701,0.14751202582078113,0.4398680031299591,-0.24059510231018066,-0.43344739079475403,0.0719737634062767,-0.06507492065429688,0.11110728979110718,-0.9871958944634296,0.0102771407147761,-0.7990152069116416,0.005662933457642794,0.8344841003417969,-0.5510028600692749
1727683701103,9i,16.285499529297386,3.3s : 4.8s,1.2046794256429172,1.104946169340855,0.4799442482479804,0.14930580750622333,0.443574994802475,-0.2293696254491806,-0.3704107105731964,0.08303264528512955,-0.05596226453781128,0.11075210571289062,-0.9831872036341766,0.002680087149488133,-0.8056251705140388,0.001485765795223415,0.832268476486206,-0.5543708205223083
1727683701113,9i,16.285499529297386,3.3s : 4.8s,1.1931552589281478,1.1083881263951234,0.4416958604902281,0.16513654589527177,0.3797835111618042,-0.2139781415462494,-0.2994585335254669,0.08773868530988693,-0.08086109161376953,0.11416429281234741,-0.9795027317814154,-0.003559734737984068,-0.8108258212225379,-0.001984318718314171,0.8302202820777893,-0.5574321150779724
1727683701123,9i,16.285499529297386,3.3s : 4.8s,1.1765046823143535,1.1118638588409193,0.38460632718531584,0.19024141603338612,0.21872085332870483,-0.2013249397277832,-0.23463129997253418,0.08490834385156631,-0.11844313144683838,0.1222848892211914,-0.9770703367285807,-0.008333958957623826,-0.8145393228191565,-0.004662407096475363,0.8288618922233582,-0.5594338774681091
1727683701133,9i,16.285499529297386,3.3s : 4.8s,1.1583708984561076,1.1154530441629693,0.31239021216672996,0.2119636312468318,0.013044646941125393,-0.18929436802864075,-0.18349409103393555,0.07563619315624237,-0.15200048685073853,0.12689995765686035,-0.9768579805229651,-0.011340007656287792,-0.8165708371217555,-0.0063460650853812695,0.8287431001663208,-0.5595933794975281
1727683701143,9i,16.285499529297386,3.3s : 4.8s,1.1439208922330295,1.1191639042473327,0.2367005769259491,0.23208480583000238,-0.2222829908132553,-0.1718895435333252,-0.13445508480072021,0.06854177266359329,-0.17725127935409546,0.13321924209594727,-0.9789561501277523,-0.013182314409619996,-0.8174948269401697,-0.007354057859629393,0.829915463924408,-0.5578407049179077
1727683701153,9i,16.285499529297386,3.3s : 4.8s,1.1391836425680035,1.1229202934656315,0.19180559433333608,0.23547882353914293,-0.3473498225212097,-0.16632193326950073,-0.08371441066265106,0.0580882765352726,-0.1857379674911499,0.13257992267608643,-0.9825539079807225,-0.015121211765841814,-0.8183439728921122,-0.008390437811613083,0.8319172263145447,-0.5548363327980042
1727683701163,9i,16.285499529297386,3.3s : 4.8s,1.1404444635962108,1.1266556034021966,0.17680703003466994,0.21883757647376406,-0.31577157974243164,-0.15131086111068726,-0.031887657940387726,0.049555979669094086,-0.17713874578475952,0.11855781078338623,-0.9862333573697464,-0.01705328762560273,-0.8189383946792045,-0.00941014476120472,0.833953320980072,-0.5517547130584717
1727683701173,9i,16.285499529297386,3.3s : 4.8s,1.1401150198624637,1.130356186020664,0.1488527837858762,0.20154309468334708,-0.17453457415103912,-0.07599452883005142,0.032693199813365936,0.04933713749051094,-0.1577162742614746,0.11537349224090576,-0.9889245891097699,-0.017835467080013715,-0.8186857854479929,-0.009801650419831276,0.8354354500770569,-0.5495012402534485
1727683701183,9i,16.285499529297386,3.3s : 4.8s,1.1382433915132824,1.1340147360809967,0.0980234496169475,0.1848991448374262,0.04665746912360191,-0.04196953773498535,0.10070141404867172,0.05180015414953232,-0.1231226921081543,0.12784850597381592,-0.9897267809103946,-0.01706252620726145,-0.8172076646294076,-0.009365479461848736,0.8358760476112366,-0.5488384366035461
1727683701193,9i,16.285499529297386,3.3s : 4.8s,1.138887945537556,1.1374218756827104,0.05776875634094821,0.14326665106646552,0.21446776390075684,-0.0019579404033720493,0.15404585003852844,0.05477699264883995,-0.07989758253097534,0.1055518388748169,-0.988510359919128,-0.015035515173411203,-0.8146164137187415,-0.008268238976597786,0.8352077007293701,-0.5498724579811096
1727683701203,9i,16.285499529297386,3.3s : 4.8s,1.14410046504051,1.1406213724115402,0.08915581250779667,0.13615605777346035,0.2916439175605774,0.02635643258690834,0.21574777364730835,0.052763257175683975,-0.05186814069747925,0.1142987608909607,-0.9860474498943429,-0.011856324381826357,-0.8110337920362097,-0.006544420961290598,0.8338507413864136,-0.5519513487815857
1727683701213,9i,16.285499529297386,3.3s : 4.8s,1.1511184906442034,1.143767631772188,0.12988219282576466,0.14355687222410912,0.22290506958961487,0.046187132596969604,0.2798657715320587,0.052720192819833755,-0.0617671012878418,0.11838066577911377,-0.9835017316362382,-0.007519784709348857,-0.8063474069361952,-0.0041667562909424305,0.8324428200721741,-0.5540953278541565
1727683701223,9i,16.285499529297386,3.3s : 4.8s,1.1569433615086424,1.1469109576457943,0.15203025018371902,0.16683221529278341,0.029101910069584846,0.053800396621227264,0.35058021545410156,0.05169464647769928,-0.10666406154632568,0.11740285158157349,-0.982273759194608,-0.0020852000700455576,-0.800483541270669,-0.0011575622484087944,0.8317617774009705,-0.5551316738128662
1727683701233,9i,16.285499529297386,3.3s : 4.8s,1.1650683993725772,1.1502373295901134,0.1853063971750139,0.22213896920921822,-0.23754975199699402,0.08339583873748779,0.4444316029548645,0.050744593143463135,-0.1652061939239502,0.13956224918365479,-0.9833635920696474,0.004718945623694617,-0.7931865061524704,0.002615352626889944,0.8323662877082825,-0.5542198419570923
1727683701243,9i,16.285499529297386,3.3s : 4.8s,1.1829527944591818,1.15379974461157,0.26100471883294135,0.2642418778273476,-0.542332649230957,0.12320441752672195,0.521848201751709,0.04397591948509216,-0.21186059713363647,0.15167391300201416,-0.9872720538374348,0.013265853128825743,-0.7842190993287322,0.0073088533245027065,0.8345260620117188,-0.5509200692176819
1727683701253,9i,16.285499529297386,3.3s : 4.8s,1.2183330207930851,1.1574930665252976,0.3801909395299513,0.2780079210400429,-0.8661642670631409,0.15456128120422363,0.5766174793243408,0.03210999816656113,-0.2348892092704773,0.14520472288131714,-0.99426593962294,0.023365022016754545,-0.7738607228298147,0.012735546566545963,0.8383590579032898,-0.5449696779251099
1727683701263,9i,16.285499529297386,3.3s : 4.8s,1.2739753845529211,1.1611630255025738,0.5241313849145776,0.2670067874387734,-1.1548312902450562,0.1689620465040207,0.6186417937278748,0.02221049554646015,-0.23350274562835693,0.12757658958435059,-1.004255906521982,0.03487382809774786,-0.7621592895117285,0.018713559955358505,0.8437628149986267,-0.5363900065422058
1727683701273,9i,16.285499529297386,3.3s : 4.8s,1.3451600107625166,1.1648020852217442,0.6728235703493827,0.24433615433428282,-1.3802300691604614,0.1841023862361908,0.657475471496582,0.022086098790168762,-0.21800237894058228,0.10810792446136475,-1.016721838807647,0.0477111984747159,-0.7491332415987249,0.025094041600823402,0.8503877520561218,-0.5255578756332397
1727683701283,9i,16.285499529297386,3.3s : 4.8s,1.4239235939019521,1.168402160963547,0.8138763981873199,0.2243478998913973,-1.5542045831680298,0.19191859662532806,0.6954181790351868,0.034058827906847,-0.2022673487663269,0.09088397026062012,-1.0310338704600126,0.062090127823895315,-0.7345464481489484,0.03188962861895561,0.8578307628631592,-0.5129420161247253
1727683701293,9i,16.285499529297386,3.3s : 4.8s,1.5089249853576248,1.1719884331580412,0.9504197619895474,0.21736653345677295,-1.7257888317108154,0.1888418346643448,0.7613516449928284,0.0572957843542099,-0.193464457988739,0.08085113763809204,-1.0468939237314618,0.07834893890001354,-0.7179211377382165,0.039154984056949615,0.8658735752105713,-0.49872830510139465
1727683701303,9i,16.285499529297386,3.3s : 4.8s,1.5990323318345472,1.175601597730752,1.083912026718558,0.2244479298177362,-1.8957082033157349,0.1731702834367752,0.8420701622962952,0.08110923320055008,-0.1935381293296814,0.07963138818740845,-1.0642305704326251,0.09712606156867078,-0.6984557473975626,0.047049302607774734,0.8744158744812012,-0.48289060592651367
1727683701313,9i,16.285499529297386,3.3s : 4.8s,1.692507661287957,1.1792873515211324,1.2140278110738252,0.24455517805587723,-2.0454933643341064,0.1629783660173416,0.9524288773536682,0.09816750884056091,-0.20617324113845825,0.08753839135169983,-1.0828495069713697,0.11926035072691117,-0.6752190871036363,0.055778395384550095,0.8832972645759583,-0.46548324823379517
1727683701323,9i,16.285499529297386,3.3s : 4.8s,1.784558993423768,1.1833009299842494,1.3358329648979554,0.27494908051937383,-2.163707971572876,0.16250397264957428,1.0593894720077515,0.10667765140533447,-0.23223906755447388,0.10139966011047363,-1.1023892320787787,0.14556836281793867,-0.647457488377706,0.06548725813627243,0.8922885656356812,-0.44669073820114136
1727683701333,9i,16.285499529297386,3.3s : 4.8s,1.8750825863573641,1.1876263482794307,1.4510266581055937,0.30138134603433003,-2.2759287357330322,0.17277631163597107,1.166917324066162,0.10429023206233978,-0.2610083222389221,0.10876083374023438,-1.1225092770604155,0.1768497507190165,-0.6144690064437286,0.07625174522399902,0.9011908769607544,-0.4266623854637146
1727683701343,9i,16.285499529297386,3.3s : 4.8s,1.9616151554219448,1.1922050243910052,1.557748759523789,0.31967207060873787,-2.363436460494995,0.19407877326011658,1.277544617652893,0.09925676882266998,-0.28306329250335693,0.11051470041275024,-1.1428823772217587,0.21394507930759493,-0.5755652346838596,0.08810586482286453,0.9098333716392517,-0.40551280975341797
1727683701353,9i,16.285499529297386,3.3s : 4.8s,2.0434831233566264,1.1969854056101092,1.6562153284521175,0.33552694532426747,-2.4299373626708984,0.20323392748832703,1.4023730754852295,0.09395646303892136,-0.3023880124092102,0.11095947027206421,-1.163055620872754,0.2579146073489197,-0.5296427936545762,0.10114237666130066,0.9180190563201904,-0.38342031836509705
1727683701363,9i,16.285499529297386,3.3s : 4.8s,2.120077944054928,1.2019321668917469,1.7464505590079213,0.34650262800977105,-2.468289613723755,0.21347270905971527,1.547506332397461,0.09421678632497787,-0.31565308570861816,0.10747277736663818,-1.1824372986691385,0.3100384738195464,-0.47538382006128754,0.11553052812814713,0.9255316853523254,-0.3606160283088684
1727683701373,9i,16.285499529297386,3.3s : 4.8s,2.187465408517294,1.2070089273915126,1.8243175059887258,0.35061519006617287,-2.456958293914795,0.2221173346042633,1.7034457921981812,0.09391778707504272,-0.32066792249679565,0.1062193214893341,-1.20021867075104,0.37137286300724087,-0.4117364820048227,0.13142399489879608,0.93211829662323,-0.33746621012687683
1727683701383,9i,16.285499529297386,3.3s : 4.8s,2.2463957359342923,1.2121190180492436,1.891312054767036,0.34115034236131536,-2.425201654434204,0.2283959984779358,1.8581069707870483,0.09362785518169403,-0.312294065952301,0.10044798254966736,-1.2155731613029692,0.4422020385947189,-0.338392094884366,0.14883431792259216,0.9375689029693604,-0.31434568762779236
1727683701393,9i,16.285499529297386,3.3s : 4.8s,2.3053210604875205,1.2172248687570886,1.957771388800693,0.3131317624482167,-2.441927909851074,0.23612715303897858,1.9917867183685303,0.0908462256193161,-0.28529638051986694,0.09167572855949402,-1.2281439131290737,0.522429396108969,-0.255522978801336,0.16765287518501282,0.9418668150901794,-0.29116907715797424
1727683701403,9i,16.285499529297386,3.3s : 4.8s,2.371914410979045,1.2222067742757046,2.032778535385654,0.2776620871218036,-2.5159966945648193,0.2218722403049469,2.1212120056152344,0.09007996320724487,-0.24349987506866455,0.09843599796295166,-1.237944264720015,0.6119713283320207,-0.1630807371851055,0.18770629167556763,0.9451143145561218,-0.2674422562122345
1727683701413,9i,16.285499529297386,3.3s : 4.8s,2.4482725690613516,1.2270519706177738,2.1185801929172534,0.24767992604434663,-2.625352382659912,0.21559277176856995,2.243891716003418,0.09457692503929138,-0.20461279153823853,0.10263603925704956,-1.2448072129605174,0.7106497480453757,-0.06111992035378881,0.20890513062477112,0.9473344087600708,-0.24272693693637848
1727683701423,9i,16.285499529297386,3.3s : 4.8s,2.532749134619852,1.2317588907497907,2.2130495281345275,0.23706417056632845,-2.7424368858337402,0.19990231096744537,2.368818759918213,0.09616535902023315,-0.19447284936904907,0.09556126594543457,-1.2481815540860617,0.8175295753592822,0.04942033809925483,0.23127296566963196,0.9484096765518188,-0.2168685793876648
1727683701433,9i,16.285499529297386,3.3s : 4.8s,2.62124437578281,1.236440863090516,2.3113061393188477,0.25083565646851624,-2.846365451812744,0.19265158474445343,2.4919912815093994,0.09106889367103577,-0.212815523147583,0.09661540389060974,-1.2474660108709124,0.9301574306034681,0.16610816912929927,0.25472578406333923,0.9481825232505798,-0.18990759551525116
1727683701443,9i,16.285499529297386,3.3s : 4.8s,2.709742316156284,1.2411416072631625,2.408790345938857,0.27583386973079543,-2.9475221633911133,0.21182836592197418,2.5899691581726074,0.08158421516418457,-0.23477703332901,0.11961640417575836,-1.2421417248775133,1.045141263062936,0.28532877755760905,0.27919459342956543,0.946477472782135,-0.1619594544172287
1727683701453,9i,16.285499529297386,3.3s : 4.8s,2.7938696368739,1.2458610791226752,2.500707443779296,0.27241166343814616,-3.0506412982940674,0.23200048506259918,2.6479275226593018,0.0667462944984436,-0.2173420786857605,0.150051549077034,-1.2322802447066465,1.1588136857254836,0.4032747702499419,0.3043016493320465,0.9432485103607178,-0.13297690451145172
1727683701463,9i,16.285499529297386,3.3s : 4.8s,2.859480338900545,1.2504826998137828,2.571559998527199,0.23516832288150943,-3.0421864986419678,0.2737427055835724,2.703420877456665,0.05406850576400757,-0.1566842794418335,0.1668255776166916,-1.2179038373711406,1.2667964342472624,0.5153376581647978,0.3297663629055023,0.9383769631385803,-0.10345573723316193
1727683701473,9i,16.285499529297386,3.3s : 4.8s,2.897847469275472,1.254876681356207,2.612049859741328,0.20086604131272892,-2.9002277851104736,0.30275145173072815,2.7923808097839355,0.05491223931312561,-0.11200195550918579,0.15744006633758545,-1.1988252144475624,1.3639018738162563,0.6160637777130883,0.3557018041610718,0.9316127300262451,-0.07466107606887817
1727683701483,9i,16.285499529297386,3.3s : 4.8s,2.9167956159659916,1.2590962928159157,2.631040324802272,0.18733214114659966,-2.7243075370788574,0.3225349187850952,2.9080145359039307,0.07163536548614502,-0.10962599515914917,0.13395464420318604,-1.1753186652840795,1.4472692572725259,0.7025834672428731,0.3823135793209076,0.9228126406669617,-0.047467757016420364
1727683701493,9i,16.285499529297386,3.3s : 4.8s,2.9205976947119674,1.2632777975651552,2.6332527604724523,0.19213245443828295,-2.5374045372009277,0.3270585834980011,3.0152647495269775,0.08979740738868713,-0.12208664417266846,0.11809384822845459,-1.148105562222043,1.517006085812137,0.7750282501448836,0.40962275862693787,0.9119884371757507,-0.02205498144030571
1727683701503,9i,16.285499529297386,3.3s : 4.8s,2.9195644193132915,1.267457000711224,2.6300967947716805,0.1943107043022583,-2.3645691871643066,0.31240397691726685,3.0966107845306396,0.10399162769317627,-0.12159073352813721,0.11026370525360107,-1.1181333577197345,1.5741374468572202,0.834540729953834,0.4373597502708435,0.899285614490509,0.0014612769009545445
1727683701513,9i,16.285499529297386,3.3s : 4.8s,2.906570099467325,1.271599672985563,2.613653384590333,0.18295097836797447,-2.2090885639190674,0.291655033826828,3.169309616088867,0.10865756869316101,-0.10418683290481567,0.10396969318389893,-1.0861870327318055,1.620545423034565,0.8831598762968411,0.465286523103714,0.8848570585250854,0.023166699334979057
1727683701523,9i,16.285499529297386,3.3s : 4.8s,2.901032183554344,1.2755247860939602,2.6055756082059953,0.15301290923004165,-2.1029295921325684,0.2535051703453064,3.2336859703063965,0.10656195878982544,-0.06857401132583618,0.0857619047164917,-1.052755208451157,1.6584998039308358,0.923284977551691,0.49327635765075684,0.868790864944458,0.043373316526412964
1727683701533,9i,16.285499529297386,3.3s : 4.8s,2.900204830449464,1.279066891732607,2.6029168148513486,0.1205835764276296,-2.0527422428131104,0.19550764560699463,3.283032178878784,0.10041528940200806,-0.027168869972229004,0.06098377704620361,-1.0181890048816755,1.6897781176543778,0.9570282155062825,0.5211972594261169,0.8511587977409363,0.06230728328227997
1727683701543,9i,16.285499529297386,3.3s : 4.8s,2.9064910774496147,1.2821895614567107,2.6083865341980412,0.11220419389591826,-2.0931389331817627,0.13882535696029663,3.320171594619751,0.09039300680160522,0.018020272254943848,0.06398558616638184,-0.9827050694875074,1.7165811876222996,0.9868817822374897,0.5488892197608948,0.8320010900497437,0.08059149235486984
1727683701553,9i,16.285499529297386,3.3s : 4.8s,2.919314619649812,1.2851596180491607,2.621213956287594,0.12055670873912794,-2.1541943550109863,0.10801418870687485,3.31978178024292,0.07099694013595581,0.06245476007461548,0.07478474080562592,-0.9465447909111558,1.740461366243289,1.0144815175789634,0.5760977268218994,0.811400830745697,0.09869246184825897
1727683701563,9i,16.285499529297386,3.3s : 4.8s,2.9392111413146265,1.287957790491366,2.6419929718189312,0.13123585045568772,-2.2479257583618164,0.1276935189962387,3.3192529678344727,0.04424560070037842,0.08080172538757324,0.09346794337034225,-0.9099418404324304,1.762532153067974,1.0405972996434927,0.6025438904762268,0.7894680500030518,0.11696610599756241
1727683701573,9i,16.285499529297386,3.3s : 4.8s,2.9633893130012776,1.2906018779280393,2.6675874893054217,0.143568542841195,-2.3102219104766846,0.19593916833400726,3.338015079498291,0.021601855754852295,0.07664018869400024,0.11946366727352142,-0.8727553777893712,1.783570695378876,1.0655626137397827,0.6282241344451904,0.7661027908325195,0.13572441041469574
1727683701583,9i,16.285499529297386,3.3s : 4.8s,2.973171928830177,1.2931023398873198,2.6772444148716965,0.13590547255617552,-2.2530150413513184,0.26613742113113403,3.3235130310058594,0.01735711097717285,0.06904929876327515,0.11576364934444427,-0.8351859357682143,1.8030502669550317,1.0883059179097458,0.6530224680900574,0.7414212822914124,0.15445426106452942
1727683701593,9i,16.285499529297386,3.3s : 4.8s,2.9685839686986397,1.2953642910806022,2.6710526263268974,0.1526374539434146,-2.129222869873047,0.3194161057472229,3.31758451461792,0.02859419584274292,0.0764702558517456,0.12896846234798431,-0.7976986451688763,1.8202299433024085,1.1078179546048879,0.6767432689666748,0.7157508134841919,0.17239269614219666
1727683701602,9i,16.285499529297386,3.3s : 4.8s,2.948966829699551,1.2974696803523824,2.6482027473806657,0.2069124400047117,-1.971901774406433,0.33835461735725403,3.3162992000579834,0.05423164367675781,0.13158804178237915,0.15018746256828308,-0.7604019342812011,1.8348502451707298,1.1238836354752322,0.6994456648826599,0.6892127394676208,0.18910707533359528
1727683701612,9i,16.285499529297386,3.3s : 4.8s,2.907999197309369,1.29927174460847,2.6016057090216416,0.26721505237793086,-1.7157179117202759,0.26292991638183594,3.299426317214966,0.08284783363342285,0.22296178340911865,0.1217709481716156,-0.7235887872509168,1.8461688631512503,1.1360829404989643,0.7211986780166626,0.6620784997940063,0.2037753015756607
1727683701622,9i,16.285499529297386,3.3s : 4.8s,2.842912812622215,1.3006149399856854,2.527954516611718,0.3172489572178529,-1.377034306526184,0.13505274057388306,3.259688138961792,0.11129438877105713,0.29021501541137695,0.0635271966457367,-0.6877736766100416,1.8531361097002628,1.1437125349546586,0.7420686483383179,0.6348185539245605,0.215266153216362
1727683701632,9i,16.285499529297386,3.3s : 4.8s,2.771455542637386,1.30161940058655,2.446784167194197,0.34512672997449867,-1.1273664236068726,0.024181606248021126,3.2107388973236084,0.13022863864898682,0.3159293532371521,0.048390135169029236,-0.6532194564580455,1.8562388143716795,1.1473989111035297,0.7619984745979309,0.6077462434768677,0.22361312806606293
1727683701642,9i,16.285499529297386,3.3s : 4.8s,2.7071635844336233,1.3025694558595458,2.3731935204583023,0.35104883294078926,-1.0115904808044434,-0.0190497525036335,3.152123212814331,0.12881749868392944,0.3135066628456116,0.09140518307685852,-0.6197059647773902,1.857106250981779,1.148908470878461,0.7809116840362549,0.5807958245277405,0.22989922761917114
1727683701652,9i,16.285499529297386,3.3s : 4.8s,2.6525554744663986,1.3036515787774876,2.310095908457617,0.36239593835588546,-0.9870639443397522,0.041988834738731384,3.0826804637908936,0.10896188020706177,0.3098541498184204,0.15312913060188293,-0.5869315265313759,1.8576736926353805,1.1498384727306143,0.7986157536506653,0.5538086891174316,0.23560382425785065
1727683701662,9i,16.285499529297386,3.3s : 4.8s,2.589845737901625,1.3047807809731315,2.2371517739595492,0.3902271870307778,-0.9404029846191406,0.17499341070652008,2.935978651046753,0.07867372035980225,0.33249276876449585,0.18851064145565033,-0.5552692273407172,1.8592443120398778,1.1506689474611749,0.8146520853042603,0.5271720886230469,0.24172629415988922
1727683701672,9i,16.285499529297386,3.3s : 4.8s,2.505524007143694,1.3055886848102431,2.138478135606921,0.4306427953328365,-0.814931333065033,0.25533804297447205,2.7217867374420166,0.04937863349914551,0.3941270709037781,0.16636952757835388,-0.5255994765101681,1.8616640804246962,1.1510753583027014,0.8286882638931274,0.5017316341400146,0.2480745166540146
1727683701682,9i,16.285499529297386,3.3s : 4.8s,2.3955850819367734,1.305713875343487,2.008466868169229,0.5003642257215721,-0.5599494576454163,0.2687103748321533,2.481881618499756,0.027213871479034424,0.4840705394744873,0.12369105219841003,-0.4986498958362851,1.8639277897142732,1.1501310451377655,0.8407670259475708,0.4782402813434601,0.25376561284065247
1727683701692,9i,16.285499529297386,3.3s : 4.8s,2.2624356058402273,1.3049574231166496,1.8481615174076078,0.575477305926205,-0.25959283113479614,0.22087734937667847,2.2041213512420654,0.016648054122924805,0.5702810287475586,0.07534268498420715,-0.47499888270641005,1.8648606563400858,1.1468629635135335,0.8511194586753845,0.4573374390602112,0.2577567994594574
1727683701702,9i,16.285499529297386,3.3s : 4.8s,2.122552360272575,1.3032523910831595,1.6753392871996728,0.6243010291355136,-0.07800324261188507,0.21162721514701843,1.9211153984069824,0.0011693239212036133,0.6235660910606384,0.03026115894317627,-0.45476852704742154,1.8648284934892088,1.1419296514386388,0.8598078489303589,0.43925437331199646,0.2603578567504883
1727683701712,9i,16.285499529297386,3.3s : 4.8s,1.9842484169429506,1.3005895498624678,1.4985688515811175,0.6547522061815972,0.06125372275710106,0.2687264680862427,1.640067219734192,-0.025673270225524902,0.6542282700538635,-0.005167722702026367,-0.4376929103780155,1.864773956096577,1.1363222871687995,0.8668751120567322,0.42385098338127136,0.26244625449180603
1727683701722,9i,16.285499529297386,3.3s : 4.8s,1.8628611123305376,1.2970276272285046,1.3371502750399311,0.6232256164037743,0.1237230896949768,0.4074467122554779,1.4207228422164917,-0.05734127759933472,0.6183243989944458,-0.05288746953010559,-0.4233531843039495,1.8656959346307684,1.130399005017396,0.8723588585853577,0.4108199179172516,0.26498472690582275
1727683701732,9i,16.285499529297386,3.3s : 4.8s,1.7595035518847724,1.2933787726129824,1.192905737956384,0.5509026946215504,0.030406193807721138,0.49890604615211487,1.21725594997406,-0.06823492050170898,0.5444038510322571,-0.04962077736854553,-0.4109600180561807,1.8682588227109307,1.1253379695474124,0.8764777183532715,0.3994896113872528,0.26869136095046997
1727683701742,9i,16.285499529297386,3.3s : 4.8s,1.6711194635150202,1.2895802503367033,1.0628372590760327,0.5201018007729724,-0.14935365319252014,0.5680660009384155,1.0197173357009888,-0.05284547805786133,0.517242431640625,-0.013172149658203125,-0.4000842352213642,1.872435629154714,1.1223710223816412,0.8794445991516113,0.38949593901634216,0.2736245393753052
1727683701752,9i,16.285499529297386,3.3s : 4.8s,1.598923865642924,1.2858856384504136,0.9502924039207534,0.5287939181733763,-0.26631513237953186,0.6272254586219788,0.8518458008766174,-0.03694164752960205,0.5272358655929565,0.016753047704696655,-0.39049570943316203,1.8781769295877635,1.1216177015521946,0.8813782334327698,0.38064685463905334,0.27978625893592834
1727683701762,9i,16.285499529297386,3.3s : 4.8s,1.5395172985859389,1.282281658658513,0.8519784389955647,0.5544485438248177,-0.19472119212150574,0.656728982925415,0.7122758030891418,-0.03687608242034912,0.5529172420501709,0.018326640129089355,-0.3823240070361868,1.884616430280877,1.121562677934671,0.8824877142906189,0.3730776906013489,0.2864067554473877
1727683701772,9i,16.285499529297386,3.3s : 4.8s,1.4910445671774464,1.2785814092513952,0.7671006982307436,0.5810243705442888,0.03414793312549591,0.6944332122802734,0.6032832264900208,-0.061627209186553955,0.5776848793029785,0.0084608793258667,-0.37581690465900514,1.890932297654574,1.1202692247819066,0.882946789264679,0.367032527923584,0.29273247718811035
1727683701782,9i,16.285499529297386,3.3s : 4.8s,1.4521693831846352,1.2745078395985203,0.6960069570491063,0.6177098640318026,0.33282437920570374,0.7348615527153015,0.4730741083621979,-0.10443991422653198,0.6088157892227173,0.0010560452938079834,-0.371306694182298,1.896791989129744,1.1166140841067667,0.8827754855155945,0.3628333806991577,0.2984282970428467
1727683701792,9i,16.285499529297386,3.3s : 4.8s,1.4390304865696266,1.2698627037036936,0.6769471582178048,0.6680705277796132,0.6081933975219727,0.7876579165458679,0.3011894226074219,-0.15974926948547363,0.6486889719963074,-0.0010092556476593018,-0.36916041532140326,1.9022381731192812,1.1104984576388162,0.8818714022636414,0.360832542181015,0.3034842908382416
1727683701802,9i,16.285499529297386,3.3s : 4.8s,1.419862278652673,1.2645731925038175,0.6456496969266412,0.7277981772225962,0.8654779195785522,0.8483402132987976,0.11420410126447678,-0.2114495038986206,0.6963417530059814,0.009351849555969238,-0.36965173889537895,1.9075171986349442,1.1023317934397157,0.8800897002220154,0.36129072308540344,0.3080768883228302
1727683701812,9i,16.285499529297386,3.3s : 4.8s,1.430233050031167,1.258723371162222,0.6791038597235812,0.7618051960544315,1.0692158937454224,0.8970726132392883,-0.044839076697826385,-0.24886232614517212,0.7196347713470459,0.02324855327606201,-0.37262305099691195,1.912757115375194,1.0924437771220368,0.8774481415748596,0.364059716463089,0.3123228847980499
1727683701822,9i,16.285499529297386,3.3s : 4.8s,1.457161708338909,1.2525895453647429,0.7445399083273607,0.7564639775597461,1.186491847038269,0.8964073061943054,-0.17430466413497925,-0.2526457905769348,0.712094247341156,0.036464184522628784,-0.3775948197434896,1.9177436618110542,1.08141753310379,0.8741666674613953,0.368685781955719,0.31607499718666077
1727683701832,9i,16.285499529297386,3.3s : 4.8s,1.4874220218422338,1.246663579392705,0.8113286577442013,0.7303358096066853,1.1974337100982666,0.9040274024009705,-0.25553399324417114,-0.2304336428642273,0.6875405311584473,0.08705601096153259,-0.3838428684118784,1.922580151159523,1.0701385500657135,0.8704482913017273,0.37448644638061523,0.3194991946220398
1727683701842,9i,16.285499529297386,3.3s : 4.8s,1.5170327293438988,1.2410932128510375,0.8723966637463075,0.7072798306937911,1.1655725240707397,0.9737948179244995,-0.2943468987941742,-0.19976431131362915,0.6589604616165161,0.16158616542816162,-0.39063265810795467,1.9278674752478822,1.0592742433872753,0.8663445711135864,0.38077348470687866,0.32320085167884827
1727683701852,9i,16.285499529297386,3.3s : 4.8s,1.554606741606411,1.2359828206405838,0.9429467578444973,0.6966227947889694,1.181725263595581,1.1268514394760132,-0.34073254466056824,-0.19190621376037598,0.6298211812973022,0.22755351662635803,-0.39783281899732614,1.9343075252680708,1.0486904052113868,0.8616604208946228,0.38742130994796753,0.32779014110565186
1727683701862,9i,16.285499529297386,3.3s : 4.8s,1.6036646582934266,1.231373504293,1.027355648830798,0.7001490005267446,1.2084733247756958,1.3180488348007202,-0.4414578378200531,-0.20246046781539917,0.6086397171020508,0.28067076206207275,-0.40592620992514356,1.9425064319776701,1.0381565996610556,0.855994462966919,0.394869863986969,0.33369389176368713
1727683701872,9i,16.285499529297386,3.3s : 4.8s,1.664559678596042,1.227956544357149,1.1237800713565833,0.7455263418907908,1.2883702516555786,1.4457178115844727,-0.6049444675445557,-0.19886130094528198,0.6448003053665161,0.3170114755630493,-0.41554886511317524,1.9523140548931062,1.027697287554814,0.8491145968437195,0.4036921560764313,0.34064239263534546
1727683701882,9i,16.285499529297386,3.3s : 4.8s,1.7484961108048993,1.2256028690676217,1.247051024149803,0.8372047448469714,1.514695167541504,1.5388298034667969,-0.80449378490448,-0.16095572710037231,0.7512316107749939,0.3326501250267029,-0.42755450895949365,1.9627786563200513,1.016591557800816,0.8409635424613953,0.4146466851234436,0.3476325273513794
1727683701892,9i,16.285499529297386,3.3s : 4.8s,1.871946403084378,1.2243369789374214,1.4160445960586583,0.9189750933530048,1.8634604215621948,1.6923474073410034,-1.0117583274841309,-0.10772526264190674,0.8441460728645325,0.3468831181526184,-0.4427621431608995,1.9735241033016873,1.0034329076298183,0.8312817215919495,0.42843690514564514,0.35413625836372375
1727683701902,9i,16.285499529297386,3.3s : 4.8s,2.0236173440853986,1.2241138961726044,1.611388322062801,0.9131953485637724,2.173602342605591,1.8320389986038208,-1.222429633140564,-0.07429677248001099,0.8415975570678711,0.346582293510437,-0.4615754994451012,1.9846064862935087,0.9878536003452395,0.8197802305221558,0.4453592896461487,0.36002177000045776
1727683701912,9i,16.285499529297386,3.3s : 4.8s,2.1784424764125547,1.2250600331051233,1.801343814580364,0.8773740366540121,2.339709520339966,1.909082293510437,-1.4748303890228271,-0.032965660095214844,0.7959045171737671,0.3677423894405365,-0.4841407381088328,1.9961608877853965,0.9710723679105544,0.8062047362327576,0.4654480218887329,0.3652288317680359
1727683701922,9i,16.285499529297386,3.3s : 4.8s,2.3175679000662504,1.2266445166411806,1.966332678162984,0.8571405332008647,2.391653060913086,1.9012467861175537,-1.7629432678222656,0.026987075805664062,0.761417031288147,0.3926903307437897,-0.5122497747170552,2.0091378857170317,0.955248475386289,0.7892362475395203,0.4901394844055176,0.36995929479599
1727683701932,9i,16.285499529297386,3.3s : 4.8s,2.4344897670969607,1.228960522787814,2.1015224147100873,0.8473849770663713,2.351665496826172,1.8934767246246338,-2.0151941776275635,0.09200775623321533,0.7382246255874634,0.40573424100875854,-0.5404677649773248,2.0207746550597596,0.9400905194308463,0.7721126675605774,0.5145371556282043,0.37295231223106384
1727683701942,9i,16.285499529297386,3.3s : 4.8s,2.529561133749415,1.2321391820353473,2.209188214134072,0.8450458770662359,2.246936798095703,1.9362205266952515,-2.2018775939941406,0.16059094667434692,0.6984612345695496,0.44773316383361816,-0.5699514739783521,2.0330598114385277,0.9268340551614597,0.7535631656646729,0.5395911931991577,0.37547868490219116
1727683701952,9i,16.285499529297386,3.3s : 4.8s,2.612582918402175,1.2362641079188375,2.3015734967622623,0.8346021006222206,2.099116563796997,2.0104548931121826,-2.424531936645508,0.22800832986831665,0.6497012972831726,0.47165781259536743,-0.6006245173818149,2.046981096151439,0.9162105195910631,0.7332038879394531,0.5651577711105347,0.37816542387008667
1727683701962,9i,16.285499529297386,3.3s : 4.8s,2.6854690746917904,1.2429686839670018,2.3804984775889526,0.8755017923601036,1.9216371774673462,2.104267120361328,-2.604506254196167,0.2898402810096741,0.6441993713378906,0.5172070860862732,-0.6324487041216528,2.0634128870189485,0.9088997684975347,0.7106783986091614,0.5911216139793396,0.3814593553543091
1727683701972,9i,16.285499529297386,3.3s : 4.8s,2.767938577245978,1.252242669202876,2.468475696626188,0.9963286367446921,1.8830008506774902,2.2014636993408203,-2.779468297958374,0.3559505343437195,0.7074249982833862,0.6045823693275452,-0.6652058248469557,2.0822230176025487,0.904429339891917,0.6861180663108826,0.6172210574150085,0.3850723206996918
1727683701982,9i,16.285499529297386,3.3s : 4.8s,2.899500281898489,1.2637292270709586,2.609614976462247,1.1163585463785533,2.0819826126098633,2.38844633102417,-3.0432939529418945,0.39213114976882935,0.8238133788108826,0.6432892680168152,-0.7002815844027571,2.103057610237487,0.9010931680297655,0.6588788628578186,0.6444330215454102,0.38805240392684937
1727683701992,9i,16.285499529297386,3.3s : 4.8s,3.0941877928868946,1.2767269188670003,2.8185042970147567,1.1652317813883888,2.405745029449463,2.6193511486053467,-3.4162354469299316,0.37018704414367676,0.9019636511802673,0.6381130218505859,-0.7395615801784693,2.1258771638914937,0.8978433794120939,0.627844512462616,0.6739640831947327,0.38933756947517395
1727683702002,9i,16.285499529297386,3.3s : 4.8s,3.358135224036063,1.2912301816204066,3.0999672257919553,1.2397517321675366,2.812238931655884,2.9787533283233643,-3.8163204193115234,0.36776697635650635,0.9452764987945557,0.7128703594207764,-0.7840053719426868,2.151441309772045,0.8944381883471033,0.5920413732528687,0.7061212658882141,0.3884328305721283
1727683702012,9i,16.285499529297386,3.3s : 4.8s,3.6951993283481395,1.3078107380263382,3.4560279440027024,1.3761592556705953,3.2378804683685303,3.448009490966797,-4.293400764465332,0.43453896045684814,1.0031285285949707,0.8358967304229736,-0.8344856011729944,2.18110232841413,0.8911331530527017,0.5503243207931519,0.7409511804580688,0.38488277792930603
1727683702022,9i,16.285499529297386,3.3s : 4.8s,4.108363818291631,1.3270051984417475,3.8881500056911857,1.5445005714221371,3.7120931148529053,3.948460102081299,-4.885368347167969,0.5549436211585999,1.1036992073059082,0.9270208477973938,-0.8919856829739158,2.2167297814144264,0.8893363220683884,0.5013766288757324,0.7783200144767761,0.37794145941734314
1727683702032,9i,16.285499529297386,3.3s : 4.8s,4.548256772330119,1.3492468978563001,4.343520746545589,1.7192183988005743,4.052004337310791,4.312630653381348,-5.466382026672363,0.7262564897537231,1.2171461582183838,0.973046064376831,-0.9567502883141511,2.260195884898227,0.8918906821477778,0.44459614157676697,0.8173234462738037,0.3664926588535309
1727683702042,9i,16.285499529297386,3.3s : 4.8s,4.925413679225123,1.374852053037292,4.729638648327915,1.8530808089696973,4.197271823883057,4.3107709884643555,-5.852448463439941,0.9434112310409546,1.2577930688858032,0.9807345867156982,-1.0266108705695136,2.312769619796244,0.9028905453444986,0.3816315233707428,0.8555492758750916,0.3498471677303314
1727683702052,9i,16.285499529297386,3.3s : 4.8s,5.192344519325661,1.4036590961251671,4.999018178526289,1.8836490710590643,4.219903945922852,4.000214576721191,-6.059390068054199,1.175026535987854,1.151564121246338,0.9172494411468506,-1.098620620636752,2.3750235609034887,0.9264942129825265,0.31549781560897827,0.8905808329582214,0.3276083171367645
1727683702062,9i,16.285499529297386,3.3s : 4.8s,5.350822981994157,1.4347750169393712,5.15487412410851,1.7846149897948687,4.076560974121094,3.520347833633423,-6.255317211151123,1.3333178758621216,0.8732126951217651,0.8028783798217773,-1.1706192853465407,2.4518028497591824,0.969569782917683,0.2479199469089508,0.9209920167922974,0.3005152940750122
1727683702072,9i,16.285499529297386,3.3s : 4.8s,5.427425140149764,1.467434282163273,5.225282794209481,1.7184015693462567,3.6896417140960693,3.0132603645324707,-6.546069145202637,1.4102396965026855,0.6329572796821594,0.7506617307662964,-1.2397468296832859,2.55823435004101,1.048684323580759,0.1790393739938736,0.9457017183303833,0.2712804675102234
1727683702082,9i,16.285499529297386,3.3s : 4.8s,5.52227741822217,1.5014494262438587,5.3142447727065125,1.7620663624267752,3.4270927906036377,2.8131754398345947,-7.026412487030029,1.4309661388397217,0.6659892201423645,0.7833722829818726,-1.3034429953696167,2.72490984464487,1.1927265034836054,0.10692139714956284,0.9644734859466553,0.24157585203647614
1727683702092,9i,16.285499529297386,3.3s : 4.8s,5.674207941781336,1.5362801088779177,5.462277839293826,1.794768235727234,3.3558857440948486,2.857783317565918,-7.52075719833374,1.3772677183151245,0.8602361083030701,0.7644085884094238,-1.3562577575881747,3.000476831098688,1.4472558766618628,0.029943514615297318,0.9770747423171997,0.21078068017959595
1727683702102,9i,16.285499529297386,3.3s : 4.8s,5.855478363766045,1.5716731746235921,5.640609036327626,1.8394307603411157,3.4047834873199463,2.918492078781128,-7.876303195953369,1.3249062299728394,1.0178227424621582,0.7695231437683105,-1.385072456930718,-2.861019028558558,1.8477401564438194,-0.051133111119270325,0.9828028678894043,0.1774374097585678
1727683702112,9i,16.285499529297386,3.3s : 4.8s,6.042106184003804,1.6077552354381863,5.824274224459054,1.8943034958390927,3.6565537452697754,2.831143617630005,-8.112969398498535,1.3384325504302979,1.08408522605896,0.7885069847106934,-1.37543923381045,-2.3780896663523317,2.3099523149683314,-0.13422425091266632,0.9809784293174744,0.1402345448732376
1727683702122,9i,16.285499529297386,3.3s : 4.8s,6.19255540532523,1.644323926715314,5.970254707468874,1.863546116326209,3.8620707988739014,2.584770917892456,-8.19804573059082,1.3852609395980835,0.9981064200401306,0.7467528581619263,-1.3299949716001493,-1.997384704298276,2.671794697183,-0.21710911393165588,0.9711471796035767,0.09867571294307709
1727683702132,9i,16.285499529297386,3.3s : 4.8s,6.266792059755374,1.6811125369529312,6.037097262618242,1.7896230560735618,3.8354709148406982,2.2321865558624268,-8.119086265563965,1.4437121152877808,0.7745464444160461,0.7200859785079956,-1.2633671994471174,-1.7550502442843738,2.8983529093041644,-0.29748716950416565,0.9531146883964539,0.05544200912117958
1727683702142,9i,16.285499529297386,3.3s : 4.8s,6.262071642428612,1.71818003143211,6.021743820065458,1.7478514068609736,3.5983083248138428,1.8950196504592896,-7.969154357910156,1.5084716081619263,0.4727877974510193,0.7456337213516235,-1.1874539756038325,-1.6066295867334022,3.033996723893998,-0.37378230690956116,0.9274197220802307,0.013399573974311352
1727683702152,9i,16.285499529297386,3.3s : 4.8s,6.170828361613472,1.7553910045118863,5.915887514969496,1.7470268586595488,3.117361545562744,1.5019773244857788,-7.748803615570068,1.552916169166565,0.1658412218093872,0.7829756736755371,-1.1085924802326117,-1.5165302954558588,3.1141720276712777,-0.4452655017375946,0.8950719237327576,-0.02418653666973114
1727683702162,9i,16.285499529297386,3.3s : 4.8s,6.007966852252994,1.7926736745195126,5.73428171565153,1.7637221258591067,2.4612669944763184,1.2510836124420166,-7.4736433029174805,1.5565853118896484,-0.04580050706863403,0.8280460238456726,-1.0306118237921496,-1.4633401120641036,-3.1239965673007783,-0.5113277435302734,0.8576138019561768,-0.05515780672430992
1727683702171,9i,16.285499529297386,3.3s : 4.8s,5.814550723280407,1.8298480975013696,5.5191173255939505,1.7245026926097649,1.8611341714859009,1.0802236795425415,-7.233123302459717,1.5199801921844482,-0.16777938604354858,0.7971322536468506,-0.955149635460641,-1.432805860276354,-3.1013862038832842,-0.5719975829124451,0.8164001703262329,-0.07943503558635712
1727683702181,9i,16.285499529297386,3.3s : 4.8s,5.620788530206873,1.8659665356482193,5.302021556835291,1.6460636769441492,1.3990092277526855,1.1199244260787964,-6.987449645996094,1.4471405744552612,-0.22496849298477173,0.7514645457267761,-0.8825519068097561,-1.4146401228362553,-3.0921777864845286,-0.6274537444114685,0.7723622918128967,-0.09878505021333694
1727683702191,9i,16.285499529297386,3.3s : 4.8s,5.435987444122406,1.900911356384709,5.092788578747805,1.576094533693975,1.1245810985565186,1.3535314798355103,-6.6843485832214355,1.368337631225586,-0.24323946237564087,0.743344247341156,-0.8131490996553464,-1.4009699929060078,-3.090321802502693,-0.6773282885551453,0.7264548540115356,-0.11614692956209183
1727683702201,9i,16.285499529297386,3.3s : 4.8s,5.2546537732337235,1.9347975775237691,4.885483047823169,1.5294975737163639,0.958101749420166,1.613173007965088,-6.327987194061279,1.3312994241714478,-0.2232224941253662,0.7191497683525085,-0.7474012656272154,-1.3873142215428678,-3.091965057602839,-0.721146285533905,0.679735004901886,-0.13382256031036377
1727683702211,9i,16.285499529297386,3.3s : 4.8s,5.073017875173746,1.9677758433587005,4.6758281183258115,1.4980173712917384,0.7924680113792419,1.821765422821045,-5.95806884765625,1.3433151245117188,-0.16325896978378296,0.6425784230232239,-0.6855415255069586,-1.372776060303995,-3.09604619219887,-0.7589492797851562,0.6330922842025757,-0.15228299796581268
1727683702221,9i,16.285499529297386,3.3s : 4.8s,4.880913580390582,2.000293333564223,4.4522066392902,1.5191220798897669,0.6764719486236572,1.8766363859176636,-5.543560981750488,1.4093446731567383,-0.10863369703292847,0.5564873814582825,-0.6278531479259514,-1.3577739065912362,-3.10184213126311,-0.7909975051879883,0.5874086618423462,-0.1710961014032364
1727683702231,9i,16.285499529297386,3.3s : 4.8s,4.661675862566765,2.0327571398906485,4.195130541218138,1.6179777850468833,0.5888845920562744,1.7760323286056519,-5.043753147125244,1.5292634963989258,-0.13975852727890015,0.5095810294151306,-0.5748992156130011,-1.3432244417619068,-3.1084305796374747,-0.8176089525222778,0.5437502264976501,-0.18934480845928192
1727683702241,9i,16.285499529297386,3.3s : 4.8s,4.409490708798878,2.06552304203328,3.895795537988771,1.7437625890958044,0.6143131852149963,1.5234291553497314,-4.4787163734436035,1.6570402383804321,-0.2761913537979126,0.467593789100647,-0.5272582473190169,-1.3299454481914612,-3.1146972710006744,-0.8392454981803894,0.5031658411026001,-0.20613440871238708
1727683702251,9i,16.285499529297386,3.3s : 4.8s,4.120771289827309,2.0986170582182453,3.5463449445901936,1.8679725164681644,0.7367352247238159,1.1095789670944214,-3.8468101024627686,1.7533453702926636,-0.48548513650894165,0.4235628843307495,-0.48535056241615004,-1.3187792258304296,-3.1188421034273457,-0.8565711379051208,0.46651846170425415,-0.22055990993976593
1727683702261,9i,16.285499529297386,3.3s : 4.8s,3.822586960624356,2.1317637916948096,3.1729724562237096,1.9560345749682722,0.8351011276245117,0.7011486887931824,-3.2703280448913574,1.7913939952850342,-0.6931101679801941,0.36956340074539185,-0.44909812004059363,-1.310509981844937,-3.1203539823464,-0.870495617389679,0.4341532588005066,-0.23183751106262207
1727683702271,9i,16.285499529297386,3.3s : 4.8s,3.543564653883683,2.164353587343903,2.805784026828396,1.9485533150179353,0.8092972040176392,0.4503737688064575,-2.77949595451355,1.7401221990585327,-0.825541079044342,0.2954939603805542,-0.4178899026264981,-1.304843806191826,-3.1201764470135265,-0.8818153738975525,0.40583282709121704,-0.2402113527059555
1727683702281,9i,16.285499529297386,3.3s : 4.8s,3.291637629847708,2.195869975793271,2.4521487180917667,1.8456073161318838,0.5620921850204468,0.3829943537712097,-2.3354954719543457,1.624495267868042,-0.8408229351043701,0.24555708467960358,-0.39150410421218257,-1.3008141670770148,-3.120172288896129,-0.890852689743042,0.38157913088798523,-0.2465336173772812
1727683702291,9i,16.285499529297386,3.3s : 4.8s,3.0661648880677084,2.226285377064332,2.1083217355728197,1.7022074531206564,0.071199432015419,0.459219366312027,-1.9139833450317383,1.5003318786621094,-0.7580034732818604,0.2682260274887085,-0.3703221778382594,-1.2977900647478315,-3.122966645426821,-0.8976861238479614,0.36191579699516296,-0.2513497471809387
1727683702301,9i,16.285499529297386,3.3s : 4.8s,2.877590362662078,2.2559961339399113,1.7863392004134717,1.599845977843426,-0.4299023747444153,0.6712665557861328,-1.4939790964126587,1.4156357049942017,-0.6583749055862427,0.34932103753089905,-0.3546188057898631,-1.2947261464641067,-3.1298441117022424,-0.9022690057754517,0.3472329080104828,-0.2556167244911194
1727683702311,9i,16.285499529297386,3.3s : 4.8s,2.7323158606383164,2.285137334164024,1.4978976354562556,1.5542706558056272,-0.750995934009552,0.8573554754257202,-1.0459303855895996,1.373960256576538,-0.628537118434906,0.3645978271961212,-0.34436370460945465,-1.290554458914012,-3.1397959068039016,-0.9045695662498474,0.3375978171825409,-0.2603497803211212
1727683702321,9i,16.285499529297386,3.3s : 4.8s,2.6230833016818336,2.3136804513027083,1.2358999865772982,1.5820978785556548,-0.8720300793647766,0.8571631908416748,-0.5666329860687256,1.382615566253662,-0.7051373720169067,0.30690255761146545,-0.341626579774992,-1.287077878778195,3.1321496461147884,-0.9045424461364746,0.33502012491226196,-0.2637506127357483
1727683702331,9i,16.285499529297386,3.3s : 4.8s,2.5434034948880013,2.3420024674654134,0.9919303303127761,1.6770745278260135,-0.9933645129203796,0.6860944628715515,-0.06292164325714111,1.427356243133545,-0.8343750238418579,0.2811608910560608,-0.3415087055984079,-1.2829211683649842,3.1217511005485354,-0.9034762382507324,0.334909051656723,-0.267519474029541
1727683702341,9i,16.285499529297386,3.3s : 4.8s,2.5028416351468614,2.3703672120101174,0.8034771501741659,1.7554440289341988,-1.1968626976013184,0.480074405670166,0.42424869537353516,1.4607772827148438,-0.9247317314147949,0.30427733063697815,-0.3464784506151052,-1.2807354381986593,3.1111612763670506,-0.9012832641601562,0.33958762884140015,-0.2690142095088959
1727683702351,9i,16.285499529297386,3.3s : 4.8s,2.5102966491285867,2.3989308925763724,0.7394050576436043,1.7652732956758503,-1.4282677173614502,0.28641223907470703,0.8935732841491699,1.4549405574798584,-0.942413330078125,0.3334589898586273,-0.35661665437708595,-1.280890338261224,3.0997768649892956,-0.8979795575141907,0.3491057753562927,-0.26787665486335754
1727683702361,9i,16.285499529297386,3.3s : 4.8s,2.565188553981947,2.427669541413857,0.8286210926421229,1.7145142094812824,-1.6003683805465698,0.14424942433834076,1.3413331508636475,1.4085931777954102,-0.9181478023529053,0.3353041112422943,-0.37165197533908434,-1.283124350193763,3.0876462954206194,-0.8934411406517029,0.3631551265716553,-0.26435065269470215
1727683702371,9i,16.285499529297386,3.3s : 4.8s,2.665115515465226,2.456183223780439,1.0344103064031258,1.6594899531158545,-1.7726484537124634,0.07686585932970047,1.8211405277252197,1.3547908067703247,-0.8946561813354492,0.34356817603111267,-0.39155387298149147,-1.286799571689025,3.0750184004598475,-0.8872920274734497,0.38162514567375183,-0.258988618850708
1727683702381,9i,16.285499529297386,3.3s : 4.8s,2.805360570366519,2.484554755295437,1.3027031886450549,1.6366935763308423,-1.9273439645767212,0.05576172471046448,2.32433819770813,1.3114886283874512,-0.897602915763855,0.3912447392940521,-0.4165821216944544,-1.2913120857094305,3.0619332214772985,-0.8789937496185303,0.40463724732398987,-0.2522676885128021
1727683702391,9i,16.285499529297386,3.3s : 4.8s,2.981236938147477,2.5129028635438186,1.6040863068327154,1.6320631782660853,-2.08693528175354,0.09088855236768723,2.8262970447540283,1.285463571548462,-0.9075798392295837,0.43302708864212036,-0.4468039439921968,-1.2962576393207315,3.0484900772510137,-0.8680593371391296,0.43208542466163635,-0.24448947608470917
1727683702401,9i,16.285499529297386,3.3s : 4.8s,3.193559900550992,2.541469994139725,1.9338446440432306,1.6335948200352355,-2.386411666870117,0.17093802988529205,3.276970148086548,1.2828595638275146,-0.8903576731681824,0.47975680232048035,-0.48217435371806805,-1.30156819911514,3.0336761335051845,-0.8540725111961365,0.46370673179626465,-0.23566192388534546
1727683702411,9i,16.285499529297386,3.3s : 4.8s,3.4390653999452945,2.5703631037894477,2.2848204174023756,1.6502659637849906,-2.764491558074951,0.16285692155361176,3.7163472175598145,1.3156094551086426,-0.8499621152877808,0.5197248458862305,-0.5226145442525801,-1.308434427734368,3.0158132237854764,-0.8368651270866394,0.4991473853588104,-0.22474195063114166
1727683702421,9i,16.285499529297386,3.3s : 4.8s,3.705341261345252,2.5996328724735998,2.6403527778276676,1.6698194841244234,-3.0662190914154053,0.03448022902011871,4.172792434692383,1.374537467956543,-0.8122367858886719,0.48909637331962585,-0.5681059103317663,-1.3184153578958793,2.9945974606420473,-0.8162184953689575,0.5380364656448364,-0.21048615872859955
1727683702431,9i,16.285499529297386,3.3s : 4.8s,3.98351623726522,2.629717693824819,2.992154150998965,1.7071213087460646,-3.3451874256134033,-0.22674019634723663,4.602306365966797,1.4556363821029663,-0.7915061116218567,0.4109792709350586,-0.6183965118090068,-1.3330750313888684,2.96999392755622,-0.7918943762779236,0.5797293782234192,-0.1918782889842987
1727683702441,9i,16.285499529297386,3.3s : 4.8s,4.267060329348968,2.6608009239609243,3.3358570558931957,1.7676640033605637,-3.609713315963745,-0.5967507362365723,4.990103721618652,1.538891077041626,-0.7781251072883606,0.38855063915252686,-0.6728896753168289,-1.3545211064092724,2.9410835126272685,-0.7638055086135864,0.6232483983039856,-0.16781695187091827
1727683702451,9i,16.285499529297386,3.3s : 4.8s,4.5603142695913625,2.6929589681412116,3.6802769234592154,1.8128496572468584,-3.8237509727478027,-1.0381568670272827,5.422100067138672,1.603771448135376,-0.7555963397026062,0.37870198488235474,-0.7312251558225582,-1.384684714896891,2.907040964302094,-0.731502890586853,0.6677820682525635,-0.13773512840270996
1727683702461,9i,16.285499529297386,3.3s : 4.8s,4.863245152803331,2.725784510665027,4.0275615721778495,1.8118321298203428,-3.9593539237976074,-1.4472206830978394,5.896310329437256,1.6430385112762451,-0.7094000577926636,0.2826865315437317,-0.7933776876175966,-1.4248758632535712,2.866935941903339,-0.6939876675605774,0.7127265930175781,-0.1019919291138649
1727683702471,9i,16.285499529297386,3.3s : 4.8s,5.175189641651624,2.7589912897099187,4.378419222774706,1.8184101500653929,-4.041442394256592,-1.7682865858078003,6.408919811248779,1.672728419303894,-0.6844505071640015,0.20030629634857178,-0.8591627190593589,-1.4760917917591705,2.81924403985798,-0.6501454710960388,0.7572960257530212,-0.06175646185874939
1727683702481,9i,16.285499529297386,3.3s : 4.8s,5.494195389517093,2.7926065876999546,4.731546409423212,1.868073244527586,-4.097382545471191,-2.028611660003662,6.9382195472717285,1.7188262939453125,-0.7154889106750488,0.15300142765045166,-0.9281981715777605,-1.5403111354713444,2.761212842567199,-0.5989990830421448,0.8005414605140686,-0.018266260623931885
1727683702491,9i,16.285499529297386,3.3s : 4.8s,5.8264361149958015,2.826996347639221,5.0946491000423055,1.9885809326012243,-4.145538806915283,-2.3039181232452393,7.51067590713501,1.8316254615783691,-0.7686848044395447,0.09341287612915039,-0.9998839120510082,-1.622465757892158,2.687606482079329,-0.5396790504455566,0.8414082527160645,0.02790975198149681
1727683702501,9i,16.285499529297386,3.3s : 4.8s,6.192909590870118,2.863089670815815,5.491342890182589,2.207447220175967,-4.27512264251709,-2.553410530090332,8.190305709838867,2.052323341369629,-0.8116517663002014,0.04487251490354538,-1.073385565865567,-1.731225766156502,2.5895335148087626,-0.4710245728492737,0.8788209557533264,0.07622124999761581
1727683702511,9i,16.285499529297386,3.3s : 4.8s,6.6201074337081,2.902437527392527,5.949930994004956,2.5661518649429587,-4.754934787750244,-2.93033504486084,8.858480453491211,2.426861524581909,-0.8339414596557617,-0.0044918060302734375,-1.1456614626934496,-1.8870053503120159,2.4459912051927617,-0.39199522137641907,0.910983145236969,0.12825588881969452
1727683702521,9i,16.285499529297386,3.3s : 4.8s,7.212635874817553,2.9476191758574894,6.582830504944083,3.1373465628211648,-4.6012372970581055,-4.391478061676025,10.28711223602295,3.0313711166381836,-0.8084247708320618,-0.013490676879882812,-1.2122281896562506,-2.128000771347795,2.2288526267450255,-0.2978505790233612,0.936400294303894,0.1855793595314026
1727683702531,9i,16.285499529297386,3.3s : 4.8s,7.462745156203738,2.9980770442587974,6.834039749893966,3.3213864515467932,-4.901424407958984,-0.5933769941329956,10.147688865661621,3.2078986167907715,-0.8607079982757568,-0.013272777199745178,-1.2590616557048113,-2.4457025830482793,1.9154971213450436,-0.19662229716777802,0.9518029689788818,0.2353949397802353
1727683702541,9i,16.285499529297386,3.3s : 4.8s,7.728160446162891,3.046972884734814,7.102141938973582,2.9172710874704046,-5.740451812744141,-1.0044065713882446,10.018325805664062,2.644645929336548,-1.0332136154174805,-0.6699165105819702,-1.2620270277288699,-2.8086174470815863,1.5421686054589743,-0.09932731837034225,0.9527083039283752,0.2871955633163452
1727683702551,9i,16.285499529297386,3.3s : 4.8s,8.231744440662464,3.101196532058177,7.625234200070692,4.112446561239877,-5.922863483428955,-1.5922311544418335,11.682674407958984,3.8726956844329834,-0.9870105981826782,-0.9696674346923828,-1.2210632534865973,3.126405645559414,1.1858958425063322,0.005203582812100649,0.9394642114639282,0.3426074981689453
1727683702561,9i,16.285499529297386,3.3s : 4.8s,8.98267756521838,3.18113235857931,8.400529337957057,7.101257269930835,-7.3325042724609375,-7.581042289733887,11.796127319335938,7.05712366104126,-0.7869598269462585,-0.07452970743179321,-1.1342627452224119,2.8182027029949515,0.9013632826293696,0.13435892760753632,0.9062227010726929,0.40088486671447754
1727683702571,9i,16.285499529297386,3.3s : 4.8s,9.448502416867594,3.3032818446105496,8.852261122256794,10.00223941744204,-7.07487154006958,-11.11581039428711,9.1476411819458,9.623533248901367,-0.5101231932640076,2.6780917644500732,-1.0253786821815625,2.6012389300375784,0.7647854590131493,0.26687827706336975,0.8549107313156128,0.4448634684085846
1727683702581,9i,16.285499529297386,3.3s : 4.8s,9.831672859315209,3.4541309237380915,9.204931872331892,9.722802305842727,-6.713181018829346,-10.9553804397583,8.730838775634766,8.890469551086426,0.33041512966156006,3.922150135040283,-0.9183741315724395,2.443491211621597,0.7081827638218477,0.3902307450771332,0.7946155667304993,0.4650874733924866
1727683702591,9i,16.285499529297386,3.3s : 4.8s,10.463640104160847,3.616661819828519,9.81873319274935,8.892877642064116,-8.235361099243164,-11.251405715942383,9.661242485046387,8.14724063873291,2.12146258354187,2.8644614219665527,-0.8028553002616472,2.314513001912149,0.6837136020097945,0.5112370252609253,0.7193424701690674,0.4703013598918915
1727683702601,9i,16.285499529297386,3.3s : 4.8s,11.35403377327776,3.786778961473077,10.703942639124932,8.808623277155151,-11.67300033569336,-12.953240394592285,8.651115417480469,8.026989936828613,2.2222394943237305,2.867216110229492,-0.666915913432001,2.2081177907159737,0.7062524859176821,0.631488025188446,0.6185656785964966,0.46754661202430725
1727683702611,9i,16.285499529297386,3.3s : 4.8s,12.133079254906441,3.971429998681692,11.464700430949437,9.9709542835884,-14.143514633178711,-14.66298770904541,4.520950794219971,9.101107597351074,1.7234889268875122,3.690441131591797,-0.5414420536945338,2.1177500070437327,0.7919477649696319,0.7319463491439819,0.5153723359107971,0.4456979036331177
1727683702621,9i,16.285499529297386,3.3s : 4.8s,12.475525641866152,4.174721575892204,11.75629362531576,11.037984964488112,-14.607767105102539,-13.754481315612793,0.1649525761604309,10.106383323669434,0.5728856325149536,4.40112829208374,-0.4517880820392355,2.0326934828416854,0.9288797179404812,0.8053907155990601,0.43657490611076355,0.4009346663951874
1727683702631,9i,16.285499529297386,3.3s : 4.8s,12.624166951767448,4.382792214959177,11.838949430865505,9.89028853024742,-11.226434707641602,-15.429811477661133,-1.7493987083435059,8.741692543029785,1.240570306777954,4.45663595199585,-0.4081327496541383,1.944590076878311,1.063400058337507,0.8544838428497314,0.3968961536884308,0.33515769243240356
1727683702641,9i,16.285499529297386,3.3s : 4.8s,12.691124825693322,4.5897682515702805,11.832103648050369,9.386792369341054,-7.029710292816162,-17.226917266845703,-0.584513783454895,7.674668788909912,3.242685079574585,4.323924541473389,-0.3904515560946053,1.8167403775636048,1.1608522006844753,0.8969100713729858,0.3806060254573822,0.22514772415161133
1727683702651,9i,16.285499529297386,3.3s : 4.8s,12.495339225894371,4.804177216844766,11.534876836764415,11.201911303723778,-2.986030340194702,-16.954944610595703,1.8063838481903076,9.473027229309082,4.245758056640625,4.209288597106934,-0.37752576029779117,1.6623715504591337,1.2141217232913646,0.9256845116615295,0.3686215877532959,0.08500751852989197
1727683702661,9i,16.285499529297386,3.3s : 4.8s,12.371000945019613,5.021669272568904,11.305949853887265,10.631713125528277,0.47229158878326416,-15.986055374145508,9.433505058288574,9.528491020202637,3.496870517730713,3.1643450260162354,-0.32266417296178307,1.503630073068167,1.227936251219483,0.9462556838989258,0.3170943558216095,-0.06365219503641129
1727683702671,9i,16.285499529297386,3.3s : 4.8s,12.98358423132518,5.235257760140753,11.88131035184259,9.438381236609516,0.2706458270549774,-15.775605201721191,15.773853302001953,8.718184471130371,2.424950361251831,2.6825203895568848,-0.19480976418823462,1.3492616364997219,1.2405026557460093,0.9571082592010498,0.19357989728450775,-0.2155708372592926
1727683702681,9i,16.285499529297386,3.3s : 4.8s,14.714864004673535,5.453000602891163,13.667187241744566,10.29479922964001,-0.2602102756500244,-22.39219093322754,15.170034408569336,9.669879913330078,1.7473994493484497,3.0696756839752197,-0.04118646639781858,1.1688891197607392,1.2886433954987235,0.9195362329483032,0.04117482155561447,-0.39084258675575256
1727683702691,9i,16.285499529297386,3.3s : 4.8s,16.00078402076712,5.695997012069263,14.952615400582417,13.51640779170044,-3.50339674949646,-24.007614135742188,11.375726699829102,12.48885726928711,-0.7220702767372131,5.118626594543457,0.061721300825682356,0.930928822755628,1.3683047796426115,0.8006474375724792,-0.061682119965553284,-0.5959522128105164
1727683702701,9i,16.285499529297386,3.3s : 4.8s,16.285499529297386,5.959270405258067,15.156008417646142,14.511916353372136,-5.93464994430542,-18.769882202148438,12.853861808776855,12.903459548950195,-3.797197103500366,5.447728157043457,0.11593484433773509,0.7068853105774561,1.4857004007040646,0.6451087594032288,-0.11567530781030655,-0.7552840709686279
1727683702711,9i,16.285499529297386,3.3s : 4.8s,14.65547780349222,6.214311561433388,13.27272999296258,10.994831045097737,-4.005343914031982,-12.375761032104492,3.8601598739624023,10.071062088012695,-2.7100422382354736,3.480759859085083,0.13079974657729518,0.5407947008772955,1.5878040920845142,0.5104198455810547,-0.13042709231376648,-0.8499767184257507
1727683702721,9i,16.285499529297386,3.3s : 4.8s,14.111758754588811,6.478391178737414,12.536833048380727,12.962459729013034,-6.744992256164551,-15.108955383300781,3.0971639156341553,12.1810884475708,-1.8116307258605957,4.0452985763549805,0.09799568715632612,0.39562176433892693,1.6385041449169884,0.3835330307483673,-0.09783891588449478,-0.9183300137519836
1727683702731,9i,16.285499529297386,3.3s : 4.8s,13.231358532239662,6.754231381739628,11.377574743792936,13.621482825597544,-9.03565502166748,-10.774258613586426,1.7707685232162476,11.793877601623535,0.03544771671295166,6.815276145935059,0.03124136783289289,0.2603257518342276,1.6875799592336584,0.2572697401046753,-0.031236285343766212,-0.9658346772193909
