timestamp,club,max_speed,tempo,speed,acc,rotation.x,rotation.y,rotation.z,userAcceleration.x,userAcceleration.y,userAcceleration.z,pitch,roll,yaw,gravity.x,gravity.y,gravity.z
1727340421882,9i,8.0062920993268,2.8s : 4.3s,0.020984656942587412,0.1423029695586617,0.37952008843421936,-0.47702234983444214,-0.24418537318706512,-0.023409083485603333,-0.03617667406797409,0.13562226295471191,-0.03326855260563521,-0.06645963335902152,-0.0011060168928762883,-0.06637397408485413,0.03326241672039032,-0.9972402453422546
1727340421892,9i,8.0062920993268,2.8s : 4.3s,0.038606180679209116,0.14122747422405654,0.34984228014945984,-0.3935033977031708,-0.2519772946834564,-0.04657024145126343,-0.03698977082967758,0.1280943751335144,-0.029471626821692142,-0.07093674332095108,-0.0033567100562789808,-0.07084648311138153,0.02946736104786396,-0.9970518946647644
1727340421902,9i,8.0062920993268,2.8s : 4.3s,0.05285574485949742,0.13035578459713817,0.30021026730537415,-0.3414289951324463,-0.21681956946849823,-0.0659380778670311,-0.026095421984791756,0.10937929153442383,-0.026083291843248764,-0.07464460706187509,-0.005454796140937135,-0.07454994320869446,0.026080334559082985,-0.9968761801719666
1727340421912,9i,8.0062920993268,2.8s : 4.3s,0.06512032869141886,0.11699071146914797,0.3043059706687927,-0.2919180989265442,-0.19379520416259766,-0.06924901157617569,-0.0123586505651474,0.09348082542419434,-0.022950437036481426,-0.07783830960620401,-0.007255331812161942,-0.07773925364017487,0.02294842153787613,-0.9967095851898193
1727340421922,9i,8.0062920993268,2.8s : 4.3s,0.07698265820161647,0.11631498897441835,0.32583707571029663,-0.28837209939956665,-0.17949695885181427,-0.062002308666706085,-0.006784062832593918,0.09817773103713989,-0.019618136133450027,-0.08069448239000558,-0.008842642142141867,-0.08059142529964447,0.019616877660155296,-0.9965541362762451
1727340421932,9i,8.0062920993268,2.8s : 4.3s,0.08816617012561946,0.09980239165664605,0.3285633623600006,-0.2890695035457611,-0.16305752098560333,-0.055098988115787506,-0.005982998758554459,0.08299893140792847,-0.01622252664472701,-0.08362060052926754,-0.010295628594059041,-0.08351219445466995,0.01622181572020054,-0.9963747262954712
1727340421942,9i,8.0062920993268,2.8s : 4.3s,0.09838599514555155,0.08928207179516097,0.3309367895126343,-0.297003835439682,-0.10827550292015076,-0.0474693700671196,0.004622451029717922,0.07547569274902344,-0.012818868033883286,-0.08654193804619816,-0.01136280012798188,-0.08642685413360596,0.012818517163395882,-0.9961757063865662
1727340421952,9i,8.0062920993268,2.8s : 4.3s,0.10833702968932742,0.09097649935475732,0.31102311611175537,-0.3311273753643036,-0.09581756591796875,-0.041399531066417694,0.019153576344251633,0.07871431112289429,-0.009518004097781377,-0.08969126708770507,-0.012072283141890442,-0.08956700563430786,0.009517860598862171,-0.995935320854187
1727340421962,9i,8.0062920993268,2.8s : 4.3s,0.11762887902961604,0.08220150494519925,0.28219202160835266,-0.34575024247169495,-0.10071352124214172,-0.036675646901130676,0.025553997606039047,0.06898534297943115,-0.006443897855503102,-0.09306907915040634,-0.01276280461525971,-0.09293285012245178,0.006443853490054607,-0.9956515431404114
1727340421972,9i,8.0062920993268,2.8s : 4.3s,0.12607922043354955,0.08912685033470391,0.2393856942653656,-0.35579198598861694,-0.12198193371295929,-0.0403524711728096,0.017170248553156853,0.07759159803390503,-0.0037497275253198874,-0.0965937428876395,-0.013629279315633897,-0.09644292294979095,0.0037497186567634344,-0.9953314661979675
1727340421982,9i,8.0062920993268,2.8s : 4.3s,0.13254662654822305,0.08443990640971066,0.15429610013961792,-0.36146026849746704,-0.11665454506874084,-0.046635039150714874,0.00020609924104064703,0.0703933835029602,-0.0016098653821674308,-0.10018516924366448,-0.014606904416008436,-0.10001753270626068,0.0016098646447062492,-0.9949843883514404
1727340421992,9i,8.0062920993268,2.8s : 4.3s,0.1370152033167644,0.08990044556839535,0.09160561114549637,-0.333751380443573,-0.12006095796823502,-0.05093716084957123,-0.022942308336496353,0.07043540477752686,-0.00031369385214402454,-0.10368306552326795,-0.01568198756314488,-0.10349739342927933,0.00031369386124424636,-0.9946296811103821
1727340422002,9i,8.0062920993268,2.8s : 4.3s,0.13947228023153493,0.09759767488877694,0.040261998772621155,-0.3077024817466736,-0.08313330262899399,-0.05347131937742233,-0.04335462301969528,0.06918454170227051,0.00048371196256916766,-0.10687337075992517,-0.016625707867725256,-0.10667002201080322,-0.0004837119486182928,-0.9942943453788757
1727340422012,9i,8.0062920993268,2.8s : 4.3s,0.14034579116681042,0.10575623587566424,0.029721006751060486,-0.2679278254508972,-0.03796432539820671,-0.06101001054048538,-0.061467286199331284,0.06069540977478027,0.0008494391401129462,-0.10974275256452778,-0.017184395123730437,-0.10952256619930267,-0.0008494390640407801,-0.9939839243888855
1727340422022,9i,8.0062920993268,2.8s : 4.3s,0.14166965738783383,0.11419694757533624,0.10690075159072876,-0.24016383290290833,-0.01491040550172329,-0.06189090013504028,-0.06865141540765762,0.06706297397613525,0.0014930716801508615,-0.11231098290059026,-0.017363562258439075,-0.11207489669322968,-0.0014930710894986987,-0.9936986565589905
1727340422032,9i,8.0062920993268,2.8s : 4.3s,0.1433208071713107,0.10720672900767465,0.1958790272474289,-0.1899154782295227,-0.025599833577871323,-0.06587705761194229,-0.0630720779299736,0.056350767612457275,0.0030440943640591997,-0.11444243292076951,-0.017364024716203005,-0.11419225484132767,-0.0030440897680819035,-0.9934539794921875
1727340422042,9i,8.0062920993268,2.8s : 4.3s,0.14441127694323475,0.10435185806198771,0.2085559368133545,-0.153187558054924,-0.0440446212887764,-0.07383044809103012,-0.04532046243548393,0.058175861835479736,0.005140208643349494,-0.11614489729565707,-0.01744793638341581,-0.11588241904973984,-0.005140185821801424,-0.9932496547698975
1727340422052,9i,8.0062920993268,2.8s : 4.3s,0.14401897146103398,0.09401218341247902,0.14916443824768066,-0.10908916592597961,-0.05622435733675957,-0.07850108295679092,-0.021214066073298454,0.04717874526977539,0.006999325006473031,-0.11745069109754627,-0.017743158752978716,-0.11717797815799713,-0.006999267730861902,-0.9930862784385681
1727340422062,9i,8.0062920993268,2.8s : 4.3s,0.14197718480864158,0.08997761865226045,0.08154705166816711,-0.11634920537471771,-0.05100376158952713,-0.07276850938796997,-0.029785148799419403,0.04374426603317261,0.008163384070060457,-0.11855333860130693,-0.018145190629073885,-0.11827188730239868,-0.008163293823599815,-0.9929476976394653
1727340422072,9i,8.0062920993268,2.8s : 4.3s,0.1396147598384239,0.09589282248756956,0.05648930370807648,-0.12006538361310959,-0.044319525361061096,-0.06143541634082794,-0.059679798781871796,0.043121278285980225,0.008877888120289758,-0.11976394392608092,-0.018528135134506213,-0.11947313696146011,-0.008877771906554699,-0.9927977323532104
1727340422082,9i,8.0062920993268,2.8s : 4.3s,0.13646182811472293,0.103545315726378,0.011874964460730553,-0.11751753836870193,-0.037943385541439056,-0.0519537553191185,-0.08019286394119263,0.039894163608551025,0.009299899656915918,-0.12093857281891446,-0.018885310345205852,-0.12063875794410706,-0.009299765340983868,-0.9926528930664062
1727340422092,9i,8.0062920993268,2.8s : 4.3s,0.1318313434026962,0.0929582208670044,-0.056316740810871124,-0.10314782708883286,-0.023816848173737526,-0.04899591952562332,-0.06978173553943634,0.03702890872955322,0.009106158217932488,-0.12205817669917014,-0.019219682707452324,-0.12175028026103973,-0.00910603255033493,-0.9925190210342407
1727340422102,9i,8.0062920993268,2.8s : 4.3s,0.1261955145576786,0.07737212995923583,-0.08626105636358261,-0.0802270695567131,0.0013851780677214265,-0.04850047081708908,-0.04364993795752525,0.041579246520996094,0.008397720842187583,-0.12295636004267879,-0.019441637543610998,-0.12264245748519897,-0.008397622033953667,-0.9924153685569763
1727340422112,9i,8.0062920993268,2.8s : 4.3s,0.121126861983211,0.06308606725572055,-0.04288102313876152,-0.07234641909599304,0.031165875494480133,-0.044405266642570496,-0.03205576911568642,0.03131216764450073,0.007678027133179055,-0.12373034687772887,-0.019368150846324098,-0.12341124564409256,-0.007677951827645302,-0.9923259019851685
1727340422122,9i,8.0062920993268,2.8s : 4.3s,0.11740335064516717,0.05815147687495181,0.04724700376391411,-0.05992916598916054,0.03225431218743324,-0.04058409482240677,-0.0323997400701046,0.026168346405029297,0.007807081246852264,-0.1245981340253994,-0.019044435467209082,-0.12427220493555069,-0.0078070019371807575,-0.9922174215316772
1727340422132,9i,8.0062920993268,2.8s : 4.3s,0.11419879549158425,0.05098999038154601,0.08792619407176971,-0.04641974717378616,0.029072865843772888,-0.04205089807510376,-0.023708898574113846,0.016419172286987305,0.008548119526655523,-0.1253966440859042,-0.018644867739270345,-0.1250637024641037,-0.008548015728592873,-0.99211186170578
1727340422142,9i,8.0062920993268,2.8s : 4.3s,0.1107227208535707,0.045119360699185505,0.06483098864555359,-0.0432034507393837,0.029661424458026886,-0.04124148190021515,0.000638965517282486,0.018289029598236084,0.009412740817652306,-0.12612122288043026,-0.018261621759313,-0.12578155100345612,-0.009412601590156555,-0.9920133352279663
1727340422152,9i,8.0062920993268,2.8s : 4.3s,0.10707007967893468,0.04348002236818069,0.012345146387815475,-0.06362785398960114,0.03561824932694435,-0.03558950126171112,0.012221160344779491,0.02178400754928589,0.01005441187401559,-0.12691281812252272,-0.017889225882202618,-0.12656600773334503,-0.010054242797195911,-0.9919072389602661
1727340422162,9i,8.0062920993268,2.8s : 4.3s,0.0937869995046895,0.0404109525514784,-0.012593492865562439,0.4538653790950775,-0.3715585768222809,-0.02500121295452118,-0.002030046656727791,0.03168380260467529,0.010466924404440846,-0.12726585525228706,-0.018170286506122808,-0.12691563367843628,-0.010466733016073704,-0.9918583035469055
1727340422172,9i,8.0062920993268,2.8s : 4.3s,0.09005320648984971,0.09914445214803759,-0.001699433196336031,1.1081756353378296,-1.1115620136260986,-0.08733075857162476,-0.03713107854127884,0.02870965003967285,0.010674745412904264,-0.12879194455457246,-0.017164301525948118,-0.1284288614988327,-0.010674542747437954,-0.9916612505912781
1727340422182,9i,8.0062920993268,2.8s : 4.3s,0.09533398781779646,0.08203328646412207,-0.028241563588380814,0.26904019713401794,-0.48313429951667786,0.06164935231208801,-0.02798050455749035,0.046323955059051514,0.010441148085007996,-0.13018521724923787,-0.015926022109417584,-0.12981072068214417,-0.01044095866382122,-0.9914838075637817
1727340422192,9i,8.0062920993268,2.8s : 4.3s,0.09153290771672673,0.0877365825486888,-0.018020883202552795,-0.22040973603725433,0.030835678800940514,0.062488406896591187,-0.003978632390499115,0.061457931995391846,0.010105233188274857,-0.1305847334267439,-0.015732571095075074,-0.13020727038383484,-0.01010506134480238,-0.9914352893829346
1727340422202,9i,8.0062920993268,2.8s : 4.3s,0.08677311953835334,0.05510565640955718,-0.048935387283563614,-0.06093992292881012,0.010604175738990307,-0.05209578573703766,0.0031898729503154755,0.01767730712890625,0.00965957928423599,-0.1309936905418064,-0.015555611945369934,-0.1306132972240448,-0.00965942908078432,-0.991386353969574
1727340422211,9i,8.0062920993268,2.8s : 4.3s,0.08143860522012729,0.03991844760569089,-0.03882096707820892,-0.030416278168559074,0.03640328347682953,-0.03148125112056732,0.023951826617121696,0.0053594112396240234,0.00918127823159827,-0.13140858707985825,-0.015336057577144596,-0.13102519512176514,-0.009181149303913116,-0.9913365244865417
1727340422221,9i,8.0062920993268,2.8s : 4.3s,0.07661151471496837,0.03757705042261043,-0.01048999559134245,-0.05522948130965233,0.054128482937812805,-0.02334354817867279,0.02759777009487152,0.010270178318023682,0.008875182471949815,-0.13179785709997544,-0.014976707707435194,-0.13141144812107086,-0.008875066414475441,-0.9912881851196289
1727340422231,9i,8.0062920993268,2.8s : 4.3s,0.07523340719207856,0.01648747578992057,-0.019297268241643906,-0.10849758237600327,0.058112069964408875,0.004288762807846069,0.013810358010232449,0.00791943073272705,0.008683343788912936,-0.13262752372733672,-0.014410098069658374,-0.13223405182361603,-0.008683234453201294,-0.9911804795265198
1727340422241,9i,8.0062920993268,2.8s : 4.3s,0.07120481223199546,0.015400601650059348,-0.07187898457050323,-0.14904369413852692,0.05644013732671738,0.010709047317504883,-0.0003718668594956398,0.011061489582061768,0.008172975223341466,-0.13393188898948838,-0.013922234962692105,-0.13352738320827484,-0.008172884583473206,-0.9910114407539368
1727340422251,9i,8.0062920993268,2.8s : 4.3s,0.06749071645660175,0.024567227568937196,-0.1259235143661499,-0.17756986618041992,0.06332191824913025,0.006982848048210144,-0.017850108444690704,0.015367567539215088,0.0070979024925448345,-0.13555998139235836,-0.013488938258287387,-0.1351417750120163,-0.00709784310311079,-0.9908008575439453
1727340422261,9i,8.0062920993268,2.8s : 4.3s,0.06426231673524538,0.041156475225955745,-0.1289139837026596,-0.16798648238182068,0.07484567910432816,-0.001055106520652771,-0.03571976348757744,0.020416676998138428,0.005722970510365409,-0.1373180745867086,-0.012979047664203155,-0.1368846893310547,-0.0057229395024478436,-0.9905704855918884
1727340422271,9i,8.0062920993268,2.8s : 4.3s,0.06114044841902532,0.05424001114930029,-0.11599737405776978,-0.13892588019371033,0.08916523307561874,-0.010940030217170715,-0.044241905212402344,0.02941000461578369,0.004387698948075603,-0.13887591148939255,-0.012339865778504074,-0.13842859864234924,-0.004387685097754002,-0.9903627038002014
1727340422281,9i,8.0062920993268,2.8s : 4.3s,0.05750229982930227,0.04877423420273035,-0.10141630470752716,-0.08156859129667282,0.09185955673456192,-0.02000647783279419,-0.03309798240661621,0.029718518257141113,0.0032025120597482856,-0.13998193765345865,-0.011580725290216053,-0.13952451944351196,-0.003202506573870778,-0.9902134537696838
1727340422291,9i,8.0062920993268,2.8s : 4.3s,0.0534513398484861,0.0431159731460608,-0.08396627753973007,-0.021503744646906853,0.08778794854879379,-0.026811808347702026,-0.016862615942955017,0.029253482818603516,0.0021649239411503317,-0.14049016820299162,-0.01084133265984101,-0.14002814888954163,-0.0021649221889674664,-0.9901451468467712
1727340422301,9i,8.0062920993268,2.8s : 4.3s,0.04927027387965891,0.0373524831144192,-0.076127789914608,0.011571118608117104,0.08660203963518143,-0.03042830526828766,-0.008714321069419384,0.01983398199081421,0.0012494986163100559,-0.1405360005709333,-0.010087381207759365,-0.1400737464427948,-0.0012494983384385705,-0.9901402592658997
1727340422311,9i,8.0062920993268,2.8s : 4.3s,0.042504774981856966,0.028934902004833996,-0.07249431312084198,0.584879457950592,-0.3301047086715698,-0.022380828857421875,-0.009016214869916439,0.015969812870025635,0.0004440599229775483,-0.1398023887829067,-0.009893762380706352,-0.13934741914272308,-0.0004440599004738033,-0.9902434349060059
1727340422321,9i,8.0062920993268,2.8s : 4.3s,0.0704063199005764,0.08523492075100997,-0.09758715331554413,1.3076598644256592,-0.948077380657196,-0.0804615318775177,-0.02642904594540596,0.009614527225494385,-0.0005350542074152003,-0.1399660924672076,-0.008583263907634218,-0.13950951397418976,0.0005350541905499995,-0.9902206063270569
1727340422331,9i,8.0062920993268,2.8s : 4.3s,0.08510002091423628,0.04129723503551135,-0.11073809862136841,0.5364726185798645,-0.37659764289855957,0.03216587007045746,-0.016490716487169266,0.019971847534179688,-0.0017051234244964452,-0.1401997289949103,-0.007726066211797109,-0.1397406905889511,0.001705122645944357,-0.9901866912841797
1727340422341,9i,8.0062920993268,2.8s : 4.3s,0.07687703700230573,0.07680614685859932,-0.15588054060935974,-0.13298268616199493,0.09403858333826065,0.06725502014160156,-0.009313588961958885,0.03590548038482666,-0.003256023676041452,-0.14014791982063204,-0.007181873030226705,-0.13968884944915771,0.0032560178078711033,-0.9901900887489319
1727340422351,9i,8.0062920993268,2.8s : 4.3s,0.07102942448813464,0.041699948185750006,-0.1864902526140213,-0.08948732167482376,0.0680263563990593,0.003014490008354187,-0.03009720891714096,0.02870464324951172,-0.005195062658438124,-0.14062576163707605,-0.006677985067768738,-0.14016082882881165,0.005195039324462414,-0.9901151061058044
1727340422361,9i,8.0062920993268,2.8s : 4.3s,0.06640771264153097,0.05525420170370382,-0.19651013612747192,-0.0314948633313179,0.08650576323270798,-0.008911371231079102,-0.05027984455227852,0.02110809087753296,-0.007204520693890434,-0.14117351300241465,-0.0061414531195588444,-0.14070139825344086,0.007204458583146334,-0.9900258779525757
1727340422371,9i,8.0062920993268,2.8s : 4.3s,0.06276259652767743,0.05557286872239419,-0.15532034635543823,0.014025310054421425,0.0877314880490303,-0.015165060758590698,-0.04991556704044342,0.019152045249938965,-0.009113862171878496,-0.14130146834408214,-0.005535599611344174,-0.14082588255405426,0.00911373645067215,-0.9899924397468567
1727340422381,9i,8.0062920993268,2.8s : 4.3s,0.06049804841732525,0.04584720444965384,-0.09795133769512177,0.06760624796152115,0.059083327651023865,-0.013599440455436707,-0.035469625145196915,0.025669574737548828,-0.010521873219973376,-0.1410815416410836,-0.004431464204935942,-0.14060620963573456,0.010521679185330868,-0.9900096654891968
1727340422391,9i,8.0062920993268,2.8s : 4.3s,0.059261204816282304,0.021144849096292925,-0.06672963500022888,0.02278710901737213,0.08358274400234222,-0.0019018948078155518,-0.002731563523411751,0.020881235599517822,-0.011444752299625506,-0.14044509632085567,-0.003110851856629201,-0.1399746686220169,0.011444502510130405,-0.990088939666748
1727340422401,9i,8.0062920993268,2.8s : 4.3s,0.05142118177097374,0.037080235629020034,-0.06284674257040024,-0.1319524049758911,0.17199677228927612,0.005335226655006409,0.02653265744447708,0.025347530841827393,-0.01219462733332827,-0.13964947884442636,-0.0018901947762391472,-0.13918566703796387,0.012194325216114521,-0.9901912212371826
1727340422411,9i,8.0062920993268,2.8s : 4.3s,0.0393432347573678,0.03438308279771766,-0.08496842533349991,-0.34076988697052,0.34383437037467957,0.00705564022064209,0.02597440406680107,0.021394968032836914,-0.013012343589942963,-0.13903067083624449,-0.0009094243374749936,-0.13857147097587585,0.013011976145207882,-0.9902669787406921
1727340422421,9i,8.0062920993268,2.8s : 4.3s,0.03256553131746717,0.022524302056423386,-0.11971841752529144,-0.5155243873596191,0.5669673085212708,0.0035969316959381104,-0.0004734145477414131,0.022230207920074463,-0.014161195138084871,-0.1388376394550771,8.068721979285867e-07,-0.13837815821170807,0.014160721562802792,-0.9902782440185547
1727340422431,9i,8.0062920993268,2.8s : 4.3s,0.04655234682197869,0.038316908157578884,-0.1479632407426834,-0.5690323114395142,0.7582620978355408,-0.009282499551773071,-0.028582872822880745,0.023770570755004883,-0.015659490079523875,-0.138793520824682,0.000933735188199226,-0.1383313685655594,0.015658849850296974,-0.9902622103691101
1727340422441,9i,8.0062920993268,2.8s : 4.3s,0.07086764071866988,0.0666947407762567,-0.15233482420444489,-0.4719580113887787,0.8721884489059448,-0.03796672821044922,-0.052437957376241684,0.016030490398406982,-0.017404832389521528,-0.1386149444311868,0.0019005347296334723,-0.13815054297447205,0.01740395277738571,-0.9902583360671997
1727340422451,9i,8.0062920993268,2.8s : 4.3s,0.09274752842834649,0.0863677185582889,-0.14486724138259888,-0.21283109486103058,0.8614925742149353,-0.06688059866428375,-0.05418809503316879,0.007072389125823975,-0.019231569706758832,-0.13805104756742562,0.0030190923120117304,-0.1375875174999237,0.01923038437962532,-0.9903029203414917
1727340422461,9i,8.0062920993268,2.8s : 4.3s,0.1061038408761839,0.09443182509270207,-0.12055923789739609,0.14200608432292938,0.698783814907074,-0.08643347024917603,-0.03758374601602554,0.0058383941650390625,-0.02101442295252621,-0.13710973485627626,0.004450237687935488,-0.13665036857128143,0.02101287618279457,-0.9903964400291443
1727340422471,9i,8.0062920993268,2.8s : 4.3s,0.10797036838966668,0.09482358927834465,-0.09877977520227432,0.5406799912452698,0.3643559217453003,-0.09298612177371979,-0.016585251316428185,0.00836801528930664,-0.022614575198628188,-0.13598320201831132,0.006153701363087491,-0.13552983105182648,0.022612648084759712,-0.9905151724815369
1727340422481,9i,8.0062920993268,2.8s : 4.3s,0.10141005668757871,0.08143114135126409,-0.11217813938856125,0.8147456049919128,-0.060217998921871185,-0.0807519257068634,-0.004298293963074684,0.009575068950653076,-0.024121974880012564,-0.13492174232045648,0.0077981444064898825,-0.13447363674640656,0.024119636043906212,-0.9906235933303833
1727340422491,9i,8.0062920993268,2.8s : 4.3s,0.09435754584359089,0.04887722814099308,-0.1359691470861435,0.9269226789474487,-0.42545586824417114,-0.04770202934741974,-0.00038909539580345154,0.010646522045135498,-0.025752223076656082,-0.13414106898704004,0.009243692827228612,-0.13369479775428772,0.02574937604367733,-0.9906879663467407
1727340422501,9i,8.0062920993268,2.8s : 4.3s,0.09471908516196709,0.02451563678311175,-0.14792408049106598,0.9047023057937622,-0.6531875729560852,-0.016192033886909485,-0.007266024127602577,0.01691269874572754,-0.027411234653417604,-0.13362393161378042,0.010576740407175517,-0.13317659497261047,0.027407802641391754,-0.9907132983207703
1727340422511,9i,8.0062920993268,2.8s : 4.3s,0.10302181740468741,0.027302125721352013,-0.16213205456733704,0.7598729729652405,-0.7424823045730591,0.013524696230888367,-0.008979763835668564,0.021951138973236084,-0.029064600062316828,-0.13325310433108795,0.011936893866858535,-0.13280299305915833,0.02906050905585289,-0.9907163381576538
1727340422521,9i,8.0062920993268,2.8s : 4.3s,0.11329486920947685,0.041104470374002625,-0.1830144226551056,0.5274439454078674,-0.6841185688972473,0.03311587870121002,-0.009281950071454048,0.02251136302947998,-0.030771359419203923,-0.1329045733671268,0.01328085276924296,-0.1324509233236313,0.030766503885388374,-0.9907119274139404
1727340422531,9i,8.0062920993268,2.8s : 4.3s,0.1197154971811982,0.046626992719129554,-0.2161737084388733,0.2600063979625702,-0.5025176405906677,0.03956475853919983,-0.005283847451210022,0.024099528789520264,-0.032694638664708266,-0.13232182967537895,0.014554189469847162,-0.1318655163049698,0.03268881514668465,-0.990728497505188
1727340422541,9i,8.0062920993268,2.8s : 4.3s,0.11871408217268656,0.04410953637414572,-0.23980313539505005,-0.020948829129338264,-0.23048104345798492,0.0366530567407608,-0.012308947741985321,0.021229565143585205,-0.03488394771391882,-0.1314257104200912,0.01577306308917112,-0.13096795976161957,0.03487687185406685,-0.9907729029655457
1727340422551,9i,8.0062920993268,2.8s : 4.3s,0.11030779801688141,0.04086808338219321,-0.24220530688762665,-0.2669146656990051,0.10143324732780457,0.03057873249053955,-0.02176036685705185,0.016174912452697754,-0.03724156094723875,-0.13034213055186902,0.017088113717285164,-0.12988325953483582,0.03723295405507088,-0.9908300042152405
1727340422561,9i,8.0062920993268,2.8s : 4.3s,0.09832103272785452,0.04016026223312275,-0.2173715978860855,-0.43997272849082947,0.4024692475795746,0.019786253571510315,-0.025666195899248123,0.02371913194656372,-0.03957746221154653,-0.12913273130189407,0.018546139760791697,-0.12867330014705658,0.03956713154911995,-0.9908973574638367
1727340422571,9i,8.0062920993268,2.8s : 4.3s,0.08983883631949174,0.03223633729581204,-0.19238315522670746,-0.5238974690437317,0.639184832572937,0.003442704677581787,-0.01840316131711006,0.026242196559906006,-0.041715602731689394,-0.1279414884406589,0.020092133442518978,-0.12748172879219055,0.04170350357890129,-0.9909638166427612
1727340422581,9i,8.0062920993268,2.8s : 4.3s,0.09120832049824032,0.023536997929635883,-0.16330118477344513,-0.4910603165626526,0.7709717750549316,-0.019620895385742188,-8.566677570343018e-05,0.013000130653381348,-0.04370938173847088,-0.12677457574248863,0.02167265995498263,-0.12631450593471527,0.043695464730262756,-0.9910274147987366
1727340422591,9i,8.0062920993268,2.8s : 4.3s,0.10126787586728457,0.04560493400052267,-0.1309870481491089,-0.3818381428718567,0.7995699048042297,-0.04196333885192871,0.00890851765871048,0.015476644039154053,-0.045489675184140585,-0.12562631963139748,0.02321737141525547,-0.12516652047634125,0.045473989099264145,-0.9910930395126343
1727340422601,9i,8.0062920993268,2.8s : 4.3s,0.11410752786819366,0.055208616118068876,-0.12521065771579742,-0.20948581397533417,0.7107865214347839,-0.052799567580223083,0.001795593649148941,0.01603037118911743,-0.04709589924857797,-0.12463244915955292,0.02469225851970098,-0.12417220324277878,0.047078490257263184,-0.9911432266235352
1727340422611,9i,8.0062920993268,2.8s : 4.3s,0.12528985910854323,0.063991863017459,-0.1447952687740326,-0.009372690692543983,0.5661083459854126,-0.060200825333595276,-0.015031561255455017,0.015648365020751953,-0.04880355417956206,-0.12373363466509422,0.0260471171178777,-0.12327119708061218,0.04878418147563934,-0.9911732077598572
1727340422621,9i,8.0062920993268,2.8s : 4.3s,0.13325749310760787,0.07160598973586663,-0.19588401913642883,0.2051697075366974,0.3838713765144348,-0.05976826697587967,-0.03455594554543495,0.019001543521881104,-0.050859179958740154,-0.1228126211933198,0.02744099252644254,-0.12234572321176529,0.050837256014347076,-0.9911847114562988
1727340422631,9i,8.0062920993268,2.8s : 4.3s,0.13803157127299565,0.0759879660875918,-0.2544327974319458,0.3789525032043457,0.18026354908943176,-0.05378369241952896,-0.049524419009685516,0.020707905292510986,-0.053471587908084955,-0.12172413205068836,0.02882371382955606,-0.1212502121925354,0.05344611033797264,-0.9911820888519287
1727340422641,9i,8.0062920993268,2.8s : 4.3s,0.14124326302946558,0.07819570995726541,-0.28945231437683105,0.4972381293773651,0.014087623916566372,-0.04375101625919342,-0.06088218837976456,0.022221088409423828,-0.05653321010815253,-0.12044381836800912,0.03019614479121741,-0.11996086686849594,0.05650310218334198,-0.9911693930625916
1727340422651,9i,8.0062920993268,2.8s : 4.3s,0.14391311063102172,0.0665179742633421,-0.2665668725967407,0.5319452881813049,-0.07885050028562546,-0.030673854053020477,-0.05594306439161301,0.018818318843841553,-0.059610141668072394,-0.11895703656762145,0.03178480416200144,-0.11846589297056198,0.05957484617829323,-0.9911693334579468
1727340422661,9i,8.0062920993268,2.8s : 4.3s,0.1457359819032461,0.04856130472509992,-0.2105368673801422,0.5043624043464661,-0.13080266118049622,-0.017166875302791595,-0.03444956615567207,0.0296095609664917,-0.062215094576987456,-0.11733165551481,0.03369945473790252,-0.11683614552021027,0.0621749646961689,-0.9912031292915344
1727340422671,9i,8.0062920993268,2.8s : 4.3s,0.14679003694107595,0.03886094817865813,-0.1855800598859787,0.42376959323883057,-0.1550094336271286,-0.006458766758441925,-0.006812356412410736,0.03771007061004639,-0.06430619077276166,-0.11555789357384227,0.03555227348378864,-0.11506255716085434,0.06426187604665756,-0.9912774562835693
1727340422681,9i,8.0062920993268,2.8s : 4.3s,0.14813627291113715,0.043700061009682746,-0.22489389777183533,0.29980796575546265,-0.11414214968681335,-0.0025852397084236145,0.007648259401321411,0.04294782876968384,-0.06642114299756528,-0.11378608336920848,0.03713093956693396,-0.11329033970832825,0.06637231260538101,-0.9913425445556641
1727340422691,9i,8.0062920993268,2.8s : 4.3s,0.15067560401126381,0.055484627904843736,-0.2940736413002014,0.16638430953025818,0.005736783146858215,0.0023962780833244324,-0.0036651119589805603,0.05531156063079834,-0.06904301028628296,-0.11218193139879298,0.03868070859897486,-0.11168006807565689,0.06898816674947739,-0.9913466572761536
1727340422701,9i,8.0062920993268,2.8s : 4.3s,0.15508187288020808,0.08261184227307004,-0.3870411217212677,0.04646376520395279,0.13828043639659882,0.010543592274188995,-0.040706269443035126,0.07110941410064697,-0.07249295687194213,-0.11077689794260263,0.04041994966533622,-0.11026011407375336,0.07242947816848755,-0.9912601709365845
1727340422711,9i,8.0062920993268,2.8s : 4.3s,0.16326690798514007,0.12424806649225359,-0.5164628624916077,-0.01934676058590412,0.25663113594055176,0.0076990798115730286,-0.08084136992692947,0.09403711557388306,-0.07708793001389877,-0.10953076908048189,0.04231945376349608,-0.10898725688457489,0.0770116001367569,-0.9910554885864258
1727340422721,9i,8.0062920993268,2.8s : 4.3s,0.17759407091693152,0.15837405125777373,-0.6980187892913818,-0.015821002423763275,0.35124847292900085,-0.008039616048336029,-0.10335171222686768,0.11973357200622559,-0.08330662311137073,-0.10819251862862685,0.044305851646485775,-0.10760708898305893,0.0832102969288826,-0.9907051920890808
1727340422731,9i,8.0062920993268,2.8s : 4.3s,0.1988234214748679,0.19244417364076938,-0.9115305542945862,0.040144793689250946,0.39822039008140564,-0.028267011046409607,-0.11349161714315414,0.15282469987869263,-0.09155545604370981,-0.10653536658855117,0.046341872769796864,-0.10588859766721725,0.09142760187387466,-0.9901659488677979
1727340422741,9i,8.0062920993268,2.8s : 4.3s,0.22727189236146994,0.2313595108148623,-1.153990387916565,0.13757707178592682,0.4076889753341675,-0.04513859003782272,-0.12940768897533417,0.1863957643508911,-0.10211944658485883,-0.10439787313437725,0.048309976892929,-0.10366544872522354,0.1019420474767685,-0.9893742203712463
1727340422751,9i,8.0062920993268,2.8s : 4.3s,0.26262867321748934,0.2728204304351632,-1.3914803266525269,0.27328628301620483,0.4083060622215271,-0.058928683400154114,-0.1626112461090088,0.2109881043434143,-0.11510542839450119,-0.10149267973409709,0.05022689873175087,-0.10064806789159775,0.11485142260789871,-0.9882707595825195
1727340422761,9i,8.0062920993268,2.8s : 4.3s,0.3055825014949527,0.3087353300488085,-1.6395237445831299,0.39442282915115356,0.4831275939941406,-0.06500224024057388,-0.20114047825336456,0.2250216007232666,-0.1304501549025587,-0.09758657894433298,0.05273932239767788,-0.09660392999649048,0.13008049130439758,-0.9867860674858093
1727340422770,9i,8.0062920993268,2.8s : 4.3s,0.35141487253588466,0.3387062696913635,-1.733904480934143,0.5547894835472107,0.5367235541343689,-0.05252604931592941,-0.22475235164165497,0.24788975715637207,-0.14782143048779242,-0.0924109601453879,0.056053884905958806,-0.09127311408519745,0.147283673286438,-0.9848739504814148
1727340422780,9i,8.0062920993268,2.8s : 4.3s,0.3978639203774141,0.34552848418829957,-1.7395623922348022,0.7239130139350891,0.6232832670211792,-0.05457785725593567,-0.23669874668121338,0.245733380317688,-0.1656320956960488,-0.08542695394461754,0.060308879044597384,-0.0841553807258606,0.1648758053779602,-0.9827175736427307
1727340422790,9i,8.0062920993268,2.8s : 4.3s,0.4444979478298552,0.30780320705346764,-1.7124525308609009,0.9198439121246338,0.7233175039291382,-0.0685030147433281,-0.20708659291267395,0.21717572212219238,-0.183362805580369,-0.07631255444126903,0.0657108420193387,-0.07496044784784317,0.18233703076839447,-0.9803745150566101
1727340422800,9i,8.0062920993268,2.8s : 4.3s,0.49181548080184995,0.28055468279326534,-1.68831467628479,1.1429325342178345,0.805818498134613,-0.07767471671104431,-0.1414499431848526,0.22949832677841187,-0.20082652836731,-0.06472293285904791,0.07227683790134506,-0.06337786465883255,0.19947931170463562,-0.9778503179550171
1727340422810,9i,8.0062920993268,2.8s : 4.3s,0.5397621161831798,0.27058971562537265,-1.692789912223816,1.2958968877792358,0.8511572480201721,-0.0813584104180336,-0.08110462129116058,0.2449931502342224,-0.2181458134675736,-0.05092812582199517,0.07974335195377193,-0.04969966039061546,0.2164197564125061,-0.9750345945358276
1727340422820,9i,8.0062920993268,2.8s : 4.3s,0.5865713621413101,0.2971976705797792,-1.679037094116211,1.3547638654708862,0.8744590878486633,-0.07396994531154633,-0.06232881546020508,0.2810160517692566,-0.23526982189323992,-0.03583547688018768,0.08784547696179848,-0.03484080359339714,0.2331053763628006,-0.9718271493911743
1727340422830,9i,8.0062920993268,2.8s : 4.3s,0.6339678765739151,0.3190341937387146,-1.7601431608200073,1.3501567840576172,0.9009961485862732,-0.05770019441843033,-0.0905981957912445,0.30040884017944336,-0.25264016449346294,-0.020260929247363498,0.09645959739824492,-0.019616421312093735,0.24996118247509003,-0.9680571556091309
1727340422840,9i,8.0062920993268,2.8s : 4.3s,0.6840585996289437,0.3727861744344318,-1.9326633214950562,1.3195775747299194,0.9527799487113953,-0.041152533143758774,-0.1504155695438385,0.3386017680168152,-0.27111059109599905,-0.004482734667854038,0.10580341557522199,-0.004318984225392342,0.2678016126155853,-0.9634643793106079
1727340422850,9i,8.0062920993268,2.8s : 4.3s,0.7392131854066791,0.4230392094195392,-2.1880505084991455,1.3052678108215332,1.0286813974380493,-0.02890307828783989,-0.21347764134407043,0.3640797734260559,-0.2915978356835701,0.011457580678782902,0.11617378994065816,0.010973667725920677,0.28748297691345215,-0.9577229022979736
1727340422860,9i,8.0062920993268,2.8s : 4.3s,0.7991467261028774,0.4760837171880302,-2.38065505027771,1.4108877182006836,1.1020286083221436,-0.028486426919698715,-0.271756112575531,0.389862596988678,-0.3142729367438477,0.028384607501514083,0.12779611280007117,0.026990743353962898,0.3091250956058502,-0.9506382942199707
1727340422870,9i,8.0062920993268,2.8s : 4.3s,0.86412924648092,0.4936672250393777,-2.5372395515441895,1.6266899108886719,1.1624470949172974,-0.0420716367661953,-0.31462106108665466,0.37808847427368164,-0.3382947425278994,0.04764195044841711,0.1407234409257259,0.044924698770046234,0.3318789601325989,-0.9422516226768494
1727340422880,9i,8.0062920993268,2.8s : 4.3s,0.9387008564320101,0.45833430334767894,-2.85888671875,1.9050347805023193,1.181978702545166,-0.0598648265004158,-0.3117115795612335,0.33063942193984985,-0.36438445013132437,0.07008939837541465,0.15483879368957437,0.06543395668268204,0.35637423396110535,-0.9320492744445801
1727340422890,9i,8.0062920993268,2.8s : 4.3s,1.0245616758810092,0.4453815094853556,-3.2238378524780273,2.224146604537964,1.2295408248901367,-0.06748288869857788,-0.25364309549331665,0.3598276376724243,-0.3937105024456996,0.09645397810804882,0.1704292125855131,0.08893642574548721,0.38361766934394836,-0.919199526309967
1727340422900,9i,8.0062920993268,2.8s : 4.3s,1.1167685574245838,0.4377857091758357,-3.4243698120117188,2.494333505630493,1.3169699907302856,-0.052396371960639954,-0.19054576754570007,0.3906446695327759,-0.42534783622177946,0.12718145107700313,0.18823012322090912,0.11553692072629929,0.4126376509666443,-0.9035382866859436
1727340422910,9i,8.0062920993268,2.8s : 4.3s,1.2123593789206972,0.4019016577154699,-3.6060595512390137,2.625788927078247,1.39748215675354,-0.01868598163127899,-0.1569966971874237,0.3694967031478882,-0.4580828968238776,0.16151599740163178,0.2086494256094968,0.14423498511314392,0.4422294795513153,-0.8852284550666809
1727340422920,9i,8.0062920993268,2.8s : 4.3s,1.3117753532299234,0.3880746561486311,-3.9023499488830566,2.6513442993164062,1.423633098602295,0.01918727159500122,-0.13336846232414246,0.36393219232559204,-0.49234496086904633,0.19853301967798673,0.23174422740708508,0.1738055944442749,0.47269362211227417,-0.8639168739318848
1727340422930,9i,8.0062920993268,2.8s : 4.3s,1.412934724777643,0.4103227717784783,-4.255107402801514,2.479358196258545,1.436765432357788,0.057831257581710815,-0.10705196857452393,0.39186757802963257,-0.5290300855507687,0.23700667750591514,0.25781329487171445,0.2026969939470291,0.504696249961853,-0.8391636610031128
1727340422940,9i,8.0062920993268,2.8s : 4.3s,1.514045202082714,0.43154257050693806,-4.633843898773193,2.167085647583008,1.4206587076187134,0.10614697635173798,-0.10017091035842896,0.40611279010772705,-0.5683242362928024,0.27550618436022556,0.28714386783567514,0.22927142679691315,0.5382204651832581,-0.8110199570655823
1727340422950,9i,8.0062920993268,2.8s : 4.3s,1.614493509917765,0.4435316664251676,-4.922928810119629,1.8822402954101562,1.4856226444244385,0.13888809084892273,-0.11353331804275513,0.4056360721588135,-0.6099272470986992,0.31417235913728314,0.3205120627772802,0.2533082664012909,0.5728078484535217,-0.7795678973197937
1727340422960,9i,8.0062920993268,2.8s : 4.3s,1.7079221510426994,0.4431771629494557,-4.805918216705322,1.8116188049316406,1.6269598007202148,0.15238237380981445,-0.13126623630523682,0.39491111040115356,-0.6508470279302796,0.3548689693329084,0.3584698902901566,0.2764350473880768,0.6058604717254639,-0.7460004687309265
1727340422970,9i,8.0062920993268,2.8s : 4.3s,1.800193532920734,0.34955819859119147,-4.848630428314209,1.874161720275879,1.716967225074768,0.13980871438980103,-0.12484461069107056,0.29505640268325806,-0.6892628480411929,0.3995405798395202,0.400887918884598,0.3001933991909027,0.6359685063362122,-0.7109346389770508
1727340422980,9i,8.0062920993268,2.8s : 4.3s,1.8987129594934888,0.30600877870474763,-5.134805679321289,2.051608085632324,1.7384743690490723,0.09979906678199768,-0.04656332731246948,0.285505473613739,-0.7274969113823039,0.45011716812086616,0.4486008172733356,0.32492902874946594,0.6650022864341736,-0.6724530458450317
1727340422990,9i,8.0062920993268,2.8s : 4.3s,2.001975295621583,0.34284902138599727,-5.3901495933532715,2.1920127868652344,1.780064582824707,0.07499206066131592,0.030952811241149902,0.3331119418144226,-0.7661087061408651,0.5082432354118163,0.5028796559151382,0.3506820499897003,0.6933363676071167,-0.6295291185379028
1727340423000,9i,8.0062920993268,2.8s : 4.3s,2.10331068004611,0.3339917257750527,-5.4667439460754395,2.230717420578003,1.8045909404754639,0.09914132952690125,0.043815433979034424,0.3159140348434448,-0.803485888042156,0.5736850406575512,0.5640870607316479,0.37676477432250977,0.7197803854942322,-0.5830647945404053
1727340423010,9i,8.0062920993268,2.8s : 4.3s,2.1957505012554637,0.33583124717641083,-5.399740695953369,2.0581328868865967,1.8004878759384155,0.16461670398712158,-0.018261492252349854,0.29214805364608765,-0.8377366693522551,0.6444634699441311,0.6313697890681669,0.4020029306411743,0.7431305050849915,-0.5349306464195251
1727340423020,9i,8.0062920993268,2.8s : 4.3s,2.2754327219511405,0.36074019899434073,-5.1973185539245605,1.8855077028274536,1.732100009918213,0.2588394582271576,-0.0793921947479248,0.23839569091796875,-0.8677315444800986,0.7179818940240253,0.7029580103776568,0.4253491461277008,0.7628642320632935,-0.4869460463523865
1727340423030,9i,8.0062920993268,2.8s : 4.3s,2.345746779070219,0.3951733338589085,-5.067928791046143,1.7855168581008911,1.6447741985321045,0.35554423928260803,-0.0828636884689331,0.15127414464950562,-0.8933862818937843,0.7936119014147898,0.7772607162234967,0.4468235671520233,0.7791986465454102,-0.4395430088043213
1727340423040,9i,8.0062920993268,2.8s : 4.3s,2.410094794429062,0.4247882797212149,-5.046051025390625,1.6632295846939087,1.584343433380127,0.41507017612457275,0.022497057914733887,0.08749693632125854,-0.915507214459091,0.8721004248211772,0.8552661657062185,0.46659761667251587,0.7928717732429504,-0.391970694065094
1727340423050,9i,8.0062920993268,2.8s : 4.3s,2.464761932908628,0.49709459043874443,-4.679171562194824,1.7831923961639404,1.7781214714050293,0.4428304135799408,0.2187485694885254,0.05615442991256714,-0.9321250943149859,0.9538030659222188,0.9360640651098535,0.4862159192562103,0.8028885722160339,-0.3449116349220276
1727340423060,9i,8.0062920993268,2.8s : 4.3s,2.504990668976984,0.6598904959772217,-4.3150858879089355,1.5842894315719604,1.8458781242370605,0.5088411569595337,0.4187568426132202,-0.034334391355514526,-0.9412233436860794,1.0354854570350016,1.0163517177797248,0.5064326524734497,0.8082790374755859,-0.3003517687320709
1727340423070,9i,8.0062920993268,2.8s : 4.3s,2.5248663205298243,0.8283760155723213,-3.791053533554077,1.3335819244384766,1.7547225952148438,0.5807462334632874,0.580615758895874,-0.10874730348587036,-0.9447669490005477,1.1110960913257129,1.0918417963447267,0.5251036882400513,0.8103604316711426,-0.2599659562110901
1727340423080,9i,8.0062920993268,2.8s : 4.3s,2.5217181766833816,0.9104623551442257,-3.141439914703369,1.1057257652282715,1.6171791553497314,0.6006376147270203,0.6710425615310669,-0.13370877504348755,-0.9437726474844297,1.1763472059209668,1.1573549796143399,0.5416808128356934,0.8097774386405945,-0.22548294067382812
1727340423090,9i,8.0062920993268,2.8s : 4.3s,2.500202969167535,0.9829403464446329,-2.5763678550720215,0.9111583828926086,1.5551456212997437,0.6147254705429077,0.7355785965919495,-0.21727505326271057,-0.9393022042866426,1.2307063961230842,1.2122070722141827,0.556538999080658,0.8071463704109192,-0.19692467153072357
1727340423100,9i,8.0062920993268,2.8s : 4.3s,2.459627728064239,1.0175696238469005,-1.9647425413131714,0.6729098558425903,1.5080344676971436,0.5872281193733215,0.7975476980209351,-0.23351390659809113,-0.9318136886167526,1.2744307700030681,1.256613817015768,0.5703796744346619,0.8027029037475586,-0.17417027056217194
1727340423110,9i,8.0062920993268,2.8s : 4.3s,2.404877228765568,1.0139252037785744,-1.5183664560317993,0.41809555888175964,1.4145201444625854,0.5413413643836975,0.8270041942596436,-0.22595997154712677,-0.9225716586560875,1.3071567568139002,1.290837270261996,0.5829106569290161,0.7971569299697876,-0.15734069049358368
1727340423120,9i,8.0062920993268,2.8s : 4.3s,2.3444818473449285,0.96267703772029,-1.2789040803909302,0.29433608055114746,1.3690913915634155,0.475988507270813,0.8065234422683716,-0.2229393571615219,-0.9125592837016496,1.3327741028384192,1.3186618918654045,0.5944762229919434,0.791071891784668,-0.14423272013664246
1727340423130,9i,8.0062920993268,2.8s : 4.3s,2.282999557122,0.8360071413474188,-1.2533414363861084,0.12935757637023926,1.2263940572738647,0.4006764888763428,0.7050848007202148,-0.20303131639957428,-0.9026425944628466,1.3541878587424143,1.3431111260007287,0.6050605773925781,0.7849668264389038,-0.13315023481845856
1727340423140,9i,8.0062920993268,2.8s : 4.3s,2.222621922966585,0.6171447607219712,-1.325415015220642,0.017007872462272644,0.9926659464836121,0.30449378490448,0.5077360272407532,-0.174227774143219,-0.8944206980295428,1.3736143903546056,1.3670268453118541,0.6138409376144409,0.7798466086387634,-0.12263181805610657
1727340423150,9i,8.0062920993268,2.8s : 4.3s,2.1649913152699094,0.39365515262578404,-1.458206057548523,-0.024841219186782837,0.7021762728691101,0.20703983306884766,0.3008045554161072,-0.14702212810516357,-0.8886995549825121,1.3923686461822726,1.3911444908332082,0.6204135417938232,0.7762525677680969,-0.11188885569572449
1727340423160,9i,8.0062920993268,2.8s : 4.3s,2.109655797016869,0.2779817837853993,-1.5723811388015747,-0.13754965364933014,0.49012526869773865,0.15025675296783447,0.16594856977462769,-0.1647963970899582,-0.8854606189744085,1.4112019760725414,1.4164742826791923,0.6248893737792969,0.7742066383361816,-0.1005842387676239
1727340423170,9i,8.0062920993268,2.8s : 4.3s,2.0546593560591115,0.25677401204434847,-1.5526387691497803,-0.23356540501117706,0.4066457152366638,0.11843621730804443,0.11857938766479492,-0.19453710317611694,-0.8834473115851058,1.4290880098546503,1.4419957634737732,0.6281302571296692,0.7729307413101196,-0.08961192518472672
1727340423180,9i,8.0062920993268,2.8s : 4.3s,1.9949976355117358,0.2838731948523699,-1.3427587747573853,-0.36304721236228943,0.3699375092983246,0.0934872031211853,0.13460731506347656,-0.2317865490913391,-0.8815642040004836,1.4442842917101353,1.4654959383903514,0.6308625340461731,0.7717345952987671,-0.08024024963378906
1727340423190,9i,8.0062920993268,2.8s : 4.3s,1.9346085501909767,0.33223718051084544,-1.2405424118041992,-0.42429593205451965,0.3324631452560425,0.046465158462524414,0.18847382068634033,-0.26962965726852417,-0.8795940623326282,1.4559942807941766,1.4858926767041243,0.6332678198814392,0.7704801559448242,-0.07302152365446091
1727340423200,9i,8.0062920993268,2.8s : 4.3s,1.8742947084849493,0.3896057524863511,-1.1329567432403564,-0.4414738714694977,0.3363494873046875,-0.03240787982940674,0.2757223844528198,-0.27334874868392944,-0.877635733929615,1.4664461353053126,1.5050867635374443,0.6354960203170776,0.769230306148529,-0.06655588001012802
1727340423210,9i,8.0062920993268,2.8s : 4.3s,1.8086260084406087,0.427768701905326,-0.8104904890060425,-0.484929621219635,0.4174056053161621,-0.118868887424469,0.32453954219818115,-0.2520522475242615,-0.8749109301850695,1.4739964001865296,1.5209008051989863,0.6380640864372253,0.7674863934516907,-0.061958201229572296
1727340423220,9i,8.0062920993268,2.8s : 4.3s,1.7370776669765415,0.44049884114978205,-0.4934840798377991,-0.5805565714836121,0.4581109583377838,-0.16778934001922607,0.301300585269928,-0.2740509510040283,-0.8711109253733009,1.4767610991635123,1.531421091778297,0.6411319971084595,0.7650448083877563,-0.06046732887625694
1727340423230,9i,8.0062920993268,2.8s : 4.3s,1.6688609171103936,0.43637414301766475,-0.47632133960723877,-0.5322242975234985,0.43239617347717285,-0.22044432163238525,0.2673743963241577,-0.26521241664886475,-0.8671252012170773,1.4770569853467173,1.5392962927049076,0.6441805958747864,0.7624720335006714,-0.060562558472156525
1727340423240,9i,8.0062920993268,2.8s : 4.3s,1.6103164922307682,0.4464943829374088,-0.6135327219963074,-0.28867900371551514,0.4627426266670227,-0.2857385277748108,0.2618010640144348,-0.22174519300460815,-0.8632253307583065,1.4797102449069433,1.5482348062866162,0.6472952365875244,0.7599429488182068,-0.05912318825721741
1727340423250,9i,8.0062920993268,2.8s : 4.3s,1.5613453165082567,0.4609124615919696,-0.766853928565979,-0.12016933411359787,0.544558048248291,-0.3272077441215515,0.25429654121398926,-0.20176386833190918,-0.8588192045911799,1.4862616677095863,1.5594351930204975,0.6509990692138672,0.7570716142654419,-0.05516344681382179
1727340423260,9i,8.0062920993268,2.8s : 4.3s,1.518105676282117,0.43602684793397883,-0.8507803082466125,-0.06863024085760117,0.5875886082649231,-0.35377079248428345,0.1963931918144226,-0.16246646642684937,-0.8538294709008037,1.4951715712682934,1.5724894731993584,0.6552231311798096,0.7538022994995117,-0.04964577034115791
1727340423270,9i,8.0062920993268,2.8s : 4.3s,1.4803393145154946,0.3893513354893429,-0.942550539970398,-0.0011391732841730118,0.6069273948669434,-0.362155556678772,0.1043480634689331,-0.09772050380706787,-0.8485110103170841,1.5053666682263025,1.5865761042463427,0.6596863865852356,0.7502968907356262,-0.0432247556746006
1727340423280,9i,8.0062920993268,2.8s : 4.3s,1.4464856161304287,0.3654706441541397,-0.9633761644363403,0.13752123713493347,0.6459125876426697,-0.3623204231262207,0.03682667016983032,-0.03060227259993553,-0.8428990547125705,1.517390875962237,1.6016514936828465,0.6643525958061218,0.7465749979019165,-0.03551381826400757
1727340423290,9i,8.0062920993268,2.8s : 4.3s,1.41043219279164,0.35948238324378723,-0.8026483058929443,0.15936563909053802,0.6882476210594177,-0.35819804668426514,0.030299901962280273,-0.0019128918647766113,-0.8366536754729496,1.5291584538762513,1.6153498985931503,0.6693702936172485,0.7424054145812988,-0.02788727357983589
1727340423300,9i,8.0062920993268,2.8s : 4.3s,1.3694883231051358,0.34494577032203694,-0.5636096596717834,0.14878623187541962,0.6989039778709412,-0.34075528383255005,0.05224364995956421,-0.0120009183883667,-0.8299570818419054,1.5385394787767654,1.625944151946443,0.674556314945221,0.7379024028778076,-0.02176661044359207
1727340423310,9i,8.0062920993268,2.8s : 4.3s,1.3229114036491973,0.33059939374754005,-0.290632039308548,0.15749529004096985,0.6911054253578186,-0.32097089290618896,0.07877123355865479,-0.00829082727432251,-0.8231879703523917,1.5449021738825965,1.6325353901973367,0.6796590089797974,0.7333170175552368,-0.017603127285838127
1727340423319,9i,8.0062920993268,2.8s : 4.3s,1.272741598649765,0.31316266840593016,-0.06741440296173096,0.17765702307224274,0.695547342300415,-0.3022746443748474,0.08122742176055908,-0.010149000212550163,-0.8163016393347665,1.5485638668873938,1.6352324204297175,0.6847510933876038,0.7286177277565002,-0.015226210467517376
1727340423329,9i,8.0062920993268,2.8s : 4.3s,1.2233058530962901,0.2842825742556081,0.01262883935123682,0.1600870043039322,0.7215436100959778,-0.2801024913787842,0.0463792085647583,-0.01442724373191595,-0.8092615024500039,1.5505949597772881,1.6357404459137987,0.6898921728134155,0.7237777709960938,-0.01393866166472435
1727340423339,9i,8.0062920993268,2.8s : 4.3s,1.178349035530029,0.27017778513846114,0.01565658673644066,0.22600050270557404,0.8124133348464966,-0.2698105573654175,-0.006480038166046143,0.012502312660217285,-0.8016669027024906,1.552468887531592,1.6357150458994412,0.6953932046890259,0.7185164093971252,-0.012746203690767288
1727340423349,9i,8.0062920993268,2.8s : 4.3s,1.1360609830404127,0.26198415434170896,0.07758160680532455,0.2553146183490753,0.9076735973358154,-0.2566941976547241,-0.04848527908325195,0.019823312759399414,-0.7930145248960981,1.5546794376592088,1.6353319264439394,0.7016097903251648,0.7124717831611633,-0.011308746412396431
1727340423359,9i,8.0062920993268,2.8s : 4.3s,1.095935667681011,0.2617144707584128,0.12165000289678574,0.26097676157951355,0.9455621242523193,-0.24751263856887817,-0.08390665054321289,0.013843119144439697,-0.7837588996949812,1.5562922542365711,1.6340481927025354,0.7081905603408813,0.705946683883667,-0.010272366926074028
1727340423369,9i,8.0062920993268,2.8s : 4.3s,1.0612339327529732,0.2818181264114631,0.06831866502761841,0.3695414066314697,0.9784289598464966,-0.2596994638442993,-0.10497778654098511,0.03094041347503662,-0.7741299696452875,1.558510519930521,1.6327929433465935,0.7149757146835327,0.6990942358970642,-0.008784495294094086
1727340423379,9i,8.0062920993268,2.8s : 4.3s,1.0340486973997163,0.3002411449006826,-0.09377729147672653,0.4864744246006012,0.981459379196167,-0.2741958498954773,-0.10542649030685425,0.06202125549316406,-0.7643475943505635,1.5629830654045915,1.6331016071634303,0.7218122482299805,0.6920661926269531,-0.005639822222292423
1727340423389,9i,8.0062920993268,2.8s : 4.3s,1.0156489339094448,0.3419267706437312,-0.3098161816596985,0.6198343634605408,1.0001459121704102,-0.30267882347106934,-0.10675710439682007,0.1179082989692688,-0.754546931970901,1.5704355707665918,1.6358633118996375,0.728581964969635,0.6849586367607117,-0.00026284033083356917
1727340423399,9i,8.0062920993268,2.8s : 4.3s,1.0091177441423198,0.36789267415844273,-0.6194909811019897,0.7498612999916077,1.0932137966156006,-0.31513410806655884,-0.12157028913497925,0.14579498767852783,-0.7440389732528845,1.581543495221056,1.6421195332786147,0.7356966137886047,0.6772650480270386,0.007906959392130375
1727340423409,9i,8.0062920993268,2.8s : 4.3s,1.0124958820195034,0.35106181864298985,-0.9201734662055969,0.7851258516311646,1.1779186725616455,-0.2916219234466553,-0.13526594638824463,0.14108216762542725,-0.7326413048039178,1.5959640816461036,1.652140306400911,0.7431750297546387,0.6688355207443237,0.018707996234297752
1727340423419,9i,8.0062920993268,2.8s : 4.3s,1.0273847488069272,0.3400465557404178,-1.2385190725326538,0.928394615650177,1.3071181774139404,-0.27647149562835693,-0.1650061011314392,0.10939908027648926,-0.7198462457049748,1.613617096615825,1.6660028048327198,0.7512179613113403,0.6592690944671631,0.03218740597367287
1727340423429,9i,8.0062920993268,2.8s : 4.3s,1.0489143441057465,0.32850768307216005,-1.4774811267852783,0.961256742477417,1.3682950735092163,-0.26728349924087524,-0.17358094453811646,0.07966482639312744,-0.7057669203624696,1.6343530689929409,1.6830185130200208,0.7595775127410889,0.6486177444458008,0.048341382294893265
1727340423439,9i,8.0062920993268,2.8s : 4.3s,1.0745011452504394,0.3386133100161712,-1.6821303367614746,0.9114798307418823,1.4015989303588867,-0.27805423736572266,-0.1681978702545166,0.0951540395617485,-0.6908297962390213,1.6559918588731075,1.7022131236541262,0.7679221034049988,0.6371769309043884,0.0655822828412056
1727340423449,9i,8.0062920993268,2.8s : 4.3s,1.105043071939679,0.33504204075567645,-1.8594775199890137,0.942026674747467,1.487965703010559,-0.27828484773635864,-0.15473335981369019,0.10425113886594772,-0.6747722945376305,1.6784186831296788,1.7231251380950463,0.77633136510849,0.624719500541687,0.08387469500303268
1727340423459,9i,8.0062920993268,2.8s : 4.3s,1.1392561770273935,0.2823043147163572,-1.9967137575149536,0.9593390822410583,1.5770639181137085,-0.24746811389923096,-0.12018465995788574,0.0633317157626152,-0.6572641706418526,1.7015105086286348,1.7451482206827864,0.7849128842353821,0.6109532713890076,0.10318761318922043
1727340423469,9i,8.0062920993268,2.8s : 4.3s,1.1731286520584614,0.24097753932143315,-1.9672739505767822,0.9775893092155457,1.6713581085205078,-0.22685092687606812,-0.07634639739990234,0.027929536998271942,-0.638377363918852,1.724405378195171,1.767061947192795,0.7936078310012817,0.595893144607544,0.12287329882383347
1727340423479,9i,8.0062920993268,2.8s : 4.3s,1.2009929010254614,0.23367422753979109,-1.7432664632797241,0.9561039805412292,1.727494716644287,-0.22966456413269043,-0.039017438888549805,0.01831589639186859,-0.6185635252295519,1.74538755524607,1.7862454743403935,0.8023266196250916,0.5798654556274414,0.14152006804943085
1727340423489,9i,8.0062920993268,2.8s : 4.3s,1.2235313639119048,0.23829485054768318,-1.559552550315857,0.9198383092880249,1.7579491138458252,-0.23746997117996216,0.001738429069519043,0.019733890891075134,-0.598441858480362,1.7637617415204412,1.802077319429888,0.810879647731781,0.5633558034896851,0.15844321250915527
1727340423499,9i,8.0062920993268,2.8s : 4.3s,1.241326720555268,0.23810825979378974,-1.3924174308776855,0.925512433052063,1.7574050426483154,-0.22669869661331177,0.07178455591201782,0.012256503105163574,-0.5782907163869753,1.7802849389344715,1.8152326474441838,0.8190904259681702,0.5465933680534363,0.17414508759975433
1727340423509,9i,8.0062920993268,2.8s : 4.3s,1.2547422729003987,0.24171314022232354,-1.2098556756973267,0.9707251191139221,1.7542173862457275,-0.18158936500549316,0.15722626447677612,-0.027026772499084473,-0.5584018865064618,1.7953664274528858,1.8257396850707193,0.8268070816993713,0.5298315286636353,0.18886174261569977
1727340423519,9i,8.0062920993268,2.8s : 4.3s,1.268048967076048,0.2788251884155768,-1.161510705947876,1.0865733623504639,1.7577756643295288,-0.14828699827194214,0.22828155755996704,-0.060348838567733765,-0.5386297082962899,1.8101489344608668,1.834495411086271,0.8339405655860901,0.5129601955413818,0.20350705087184906
1727340423529,9i,8.0062920993268,2.8s : 4.3s,1.2781650264722546,0.3153330644559713,-1.0400161743164062,1.2259197235107422,1.6701440811157227,-0.14829021692276,0.27439409494400024,-0.04639863967895508,-0.5193106952934287,1.8256342945138544,1.84201255148257,0.8401234745979309,0.49628183245658875,0.21885362267494202
1727340423539,9i,8.0062920993268,2.8s : 4.3s,1.2844694368422809,0.3347605957952958,-0.9480834603309631,1.3294469118118286,1.5255634784698486,-0.18191099166870117,0.2803221344947815,-0.01981283724308014,-0.5012730416157738,1.8414022444214166,1.8482561261764212,0.8450576663017273,0.4805423617362976,0.23442792892456055
1727340423549,9i,8.0062920993268,2.8s : 4.3s,1.289440137187152,0.3295446217697473,-1.0926636457443237,1.3516325950622559,1.2921892404556274,-0.20326155424118042,0.25939223170280457,-0.00026160478591918945,-0.485000835271888,1.8579574515522788,1.8547094160612463,0.8484485149383545,0.4662090837955475,0.2505669593811035
1727340423559,9i,8.0062920993268,2.8s : 4.3s,1.295637358574521,0.34009285050509375,-1.1917325258255005,1.4664627313613892,1.1746983528137207,-0.2330493927001953,0.23737898468971252,0.07072725892066956,-0.4699280594950851,1.8757984236030196,1.863227930038595,0.8504503965377808,0.45282214879989624,0.2677434980869293
1727340423569,9i,8.0062920993268,2.8s : 4.3s,1.2973541458346272,0.34516304864116115,-0.9763578176498413,1.5770015716552734,1.098281741142273,-0.22880345582962036,0.22908449172973633,0.11961105465888977,-0.455715895581712,1.8944798653067627,1.8709046840311,0.8513161540031433,0.44010525941848755,0.2856016457080841
1727340423579,9i,8.0062920993268,2.8s : 4.3s,1.2948876025506528,0.36764108097717113,-0.829274594783783,1.6034702062606812,0.9985740780830383,-0.20259898900985718,0.27749431133270264,0.13080719113349915,-0.44294983108306585,1.9127722063667025,1.8764034234390152,0.8511737585067749,0.42860648036003113,0.30298513174057007
1727340423589,9i,8.0062920993268,2.8s : 4.3s,1.2922905198641954,0.49693108925292356,-0.8377031683921814,1.5900378227233887,0.9561464786529541,-0.2106492519378662,0.4002315402030945,0.2058691680431366,-0.43091332349015105,1.9308860606272567,1.8813424903987088,0.8503126502037048,0.41770079731941223,0.32014721632003784
1727340423599,9i,8.0062920993268,2.8s : 4.3s,1.287241250509266,0.6375200425712235,-0.6679399609565735,1.5126104354858398,0.9248144030570984,-0.2205638885498047,0.5131675601005554,0.3073148727416992,-0.41939979062296556,1.9480619423364451,1.8854485533212284,0.8491037487983704,0.40721234679222107,0.3364535868167877
1727340423609,9i,8.0062920993268,2.8s : 4.3s,1.2739062575534508,0.6616798720677272,-0.3695094585418701,1.4874706268310547,0.8932522535324097,-0.2121313214302063,0.5338133573532104,0.328426331281662,-0.4090478217099248,1.9635815801266523,1.8870369104320894,0.8476290106773376,0.3977358937263489,0.35118502378463745
1727340423619,9i,8.0062920993268,2.8s : 4.3s,1.2551726632741933,0.6192772557890118,0.023458583280444145,1.504111647605896,0.9151051044464111,-0.196882963180542,0.5003527998924255,0.30722710490226746,-0.4000989601876904,1.9777357960164446,1.8850017932671046,0.8458085060119629,0.38950949907302856,0.3645412027835846
1727340423629,9i,8.0062920993268,2.8s : 4.3s,1.2454214247309225,0.5978006648183911,0.4976712763309479,1.5066955089569092,0.9486936330795288,-0.15048271417617798,0.5015144944190979,0.288450688123703,-0.39258711232823834,1.9902563222137,1.8784142153882113,0.8438265323638916,0.3825799822807312,0.37628334760665894
1727340423639,9i,8.0062920993268,2.8s : 4.3s,1.2127943613104801,0.6037022416232241,1.036610722541809,1.4952274560928345,0.964734673500061,-0.07527077198028564,0.5572541952133179,0.2196781039237976,-0.38704511557074606,2.0007790173167654,1.866611493057815,0.8417349457740784,0.3774537742137909,0.3860197067260742
1727340423649,9i,8.0062920993268,2.8s : 4.3s,1.1760728122015511,0.671003909014229,1.4215826988220215,1.4086889028549194,0.9183099269866943,-0.016328930854797363,0.6486326456069946,0.1710418164730072,-0.38369285106122875,2.0090681229623275,1.850136643776722,0.8396471738815308,0.37434735894203186,0.39351826906204224
1727340423659,9i,8.0062920993268,2.8s : 4.3s,1.138844869492604,0.7748218110230828,1.519353985786438,1.3326350450515747,0.7643269896507263,0.013224422931671143,0.7517931461334229,0.18703213334083557,-0.38243047606363995,2.0158710343187116,1.8317994946603313,0.8373764157295227,0.3731764554977417,0.3994242548942566
1727340423669,9i,8.0062920993268,2.8s : 4.3s,1.10371722922683,0.8232479704842809,1.48112154006958,1.3081152439117432,0.5982999205589294,0.027728915214538574,0.7973599433898926,0.20294198393821716,-0.38280469141718576,2.022447395281368,1.8140880520453138,0.8346062302589417,0.37352362275123596,0.4048616588115692
1727340423679,9i,8.0062920993268,2.8s : 4.3s,1.0675096767518428,0.7679518210533282,1.4621058702468872,1.1936837434768677,0.40346068143844604,0.04695063829421997,0.7428882122039795,0.18884581327438354,-0.38477702246700485,2.028786807161829,1.7975089591363975,0.831360399723053,0.3753524720668793,0.4098178446292877
1727340423689,9i,8.0062920993268,2.8s : 4.3s,1.0304798985593346,0.6408737318163671,1.4564162492752075,1.0723836421966553,0.2499840259552002,0.06841152906417847,0.6169072389602661,0.15957587957382202,-0.388340296506535,2.034145485288332,1.7818699146101278,0.8279507160186768,0.37865281105041504,0.4136665463447571
1727340423699,9i,8.0062920993268,2.8s : 4.3s,0.9926649685120672,0.5231325383580081,1.4686102867126465,0.9683195352554321,0.09701766073703766,0.09421062469482422,0.4983031153678894,0.1283978819847107,-0.39332160923409953,2.038617055620326,1.766908409727396,0.8243988752365112,0.38325849175453186,0.41650885343551636
1727340423709,9i,8.0062920993268,2.8s : 4.3s,0.9527234300770474,0.43650650102459243,1.3840762376785278,0.8650886416435242,-0.1476556360721588,0.09813034534454346,0.40556514263153076,0.12816113233566284,-0.3999997548224453,2.042458692221723,1.7531245992347884,0.8204944133758545,0.3894181251525879,0.41850054264068604
1727340423719,9i,8.0062920993268,2.8s : 4.3s,0.9114758993917651,0.3800820720054171,1.1746619939804077,0.8356474041938782,-0.45808592438697815,0.06619131565093994,0.33761799335479736,0.16154003143310547,-0.40854675395672047,2.04656162383095,1.74222761014922,0.8157817125320435,0.3972761034965515,0.42032355070114136
1727340423729,9i,8.0062920993268,2.8s : 4.3s,0.8726735932294438,0.32835466095391086,1.0250647068023682,0.94318687915802,-0.7318926453590393,0.03843331336975098,0.28950178623199463,0.15009456872940063,-0.4188513152168699,2.0523466104668358,1.7347384336830662,0.809665322303772,0.4067113399505615,0.4231172800064087
1727340423739,9i,8.0062920993268,2.8s : 4.3s,0.8394510115599984,0.2757296193795951,1.1352611780166626,1.1264333724975586,-0.9394612908363342,0.03323847055435181,0.2606920301914215,0.0834367573261261,-0.4312133052128215,2.0601747502686747,1.7287037761059099,0.801828920841217,0.4179733395576477,0.4270460605621338
1727340423749,9i,8.0062920993268,2.8s : 4.3s,0.813894169736801,0.2773067575897023,1.2897462844848633,1.301788568496704,-1.1097464561462402,0.0242653489112854,0.2731730341911316,0.041069746017456055,-0.4459953340910679,2.0695487339411267,1.7222324027733749,0.7922780513763428,0.4313560724258423,0.43154090642929077
1727340423759,9i,8.0062920993268,2.8s : 4.3s,0.8003460781541,0.3613407129078472,1.435396671295166,1.5579566955566406,-1.2659677267074585,0.014905929565429688,0.35805201530456543,0.046299874782562256,-0.46295059491637985,2.0807798797427943,1.7154416601856801,0.7808855772018433,0.4465900659561157,0.43677830696105957
1727340423769,9i,8.0062920993268,2.8s : 4.3s,0.7999030788243547,0.4940704348265542,1.6481976509094238,1.7662997245788574,-1.374411702156067,0.027370452880859375,0.4894016683101654,0.06198757886886597,-0.482021263863063,2.0939413982702892,1.7077703163788525,0.7675513625144958,0.46357107162475586,0.44268178939819336
1727340423779,9i,8.0062920993268,2.8s : 4.3s,0.8078946284772813,0.6233593629371051,1.7718678712844849,1.8049347400665283,-1.513075590133667,0.053841233253479004,0.6051617860794067,0.13948917388916016,-0.5030889649382092,2.1078312886779726,1.6992057226181947,0.7527686357498169,0.482134073972702,0.4482032060623169
1727340423799,9i,8.0062920993268,2.8s : 4.3s,0.8205400795959111,0.7873968410898031,2.099905252456665,1.7042129039764404,-1.8878430128097534,0.16460150480270386,0.7302970290184021,0.24406224489212036,-0.5518345219215539,2.1344305975041094,1.6822381906586334,0.719843327999115,0.524250328540802,0.4549582004547119
1727340423809,9i,8.0062920993268,2.8s : 4.3s,0.8435377862413715,0.8181066569248095,2.3460769653320312,1.6831306219100952,-2.109861135482788,0.2186422348022461,0.7486079335212708,0.2471441626548767,-0.5806377913029857,2.1462632871482654,1.672879200649851,0.7014472484588623,0.5485573410987854,0.4550349712371826
1727340423819,9i,8.0062920993268,2.8s : 4.3s,0.8808275435249371,0.8744954100332808,2.641958713531494,1.7352970838546753,-2.2312347888946533,0.2684866786003113,0.8022015690803528,0.22165235877037048,-0.6124872778043037,2.157234345592111,1.6621581450656657,0.6815099716186523,0.5749043822288513,0.4528014063835144
1727340423829,9i,8.0062920993268,2.8s : 4.3s,0.9289802531448714,0.9831931099732173,2.8842928409576416,1.704497218132019,-2.351759195327759,0.3149253726005554,0.8988881707191467,0.24390727281570435,-0.6468983525178268,2.1669867777401386,1.6494194877673745,0.6602941751480103,0.6027143001556396,0.44804835319519043
1727340423839,9i,8.0062920993268,2.8s : 4.3s,0.985427714172712,1.10572336897871,3.129110336303711,1.59250009059906,-2.527026891708374,0.3482210040092468,0.9844976663589478,0.363497793674469,-0.6838601177169852,2.17495751768636,1.635637028850882,0.6379237771034241,0.6317898631095886,0.4403352439403534
1727340423849,9i,8.0062920993268,2.8s : 4.3s,1.0566191394240851,1.174327997321382,3.742126226425171,1.4613208770751953,-2.77052640914917,0.38431674242019653,1.0129902362823486,0.4529874920845032,-0.725049778080818,2.1791061878722604,1.6185297175452849,0.6142029166221619,0.663172721862793,0.4277346432209015
1727340423859,9i,8.0062920993268,2.8s : 4.3s,1.1446417578801953,1.1715364306233194,4.294234752655029,1.3466310501098633,-3.1529645919799805,0.43165165185928345,0.9806635975837708,0.47378620505332947,-0.7729015459941984,2.177914130681152,1.5963513214290863,0.5879555344581604,0.6982153654098511,0.40841588377952576
1727340423869,9i,8.0062920993268,2.8s : 4.3s,1.2486215411349446,1.233210549028297,4.571393013000488,1.3881229162216187,-3.556674003601074,0.47039276361465454,0.999981701374054,0.5473349094390869,-0.8257623953368168,2.1735800994918475,1.5713978354079772,0.558506965637207,0.7350649237632751,0.3843819797039032
1727340423878,9i,8.0062920993268,2.8s : 4.3s,1.3712483234448416,1.360094996458325,4.916253089904785,1.5653752088546753,-3.9327218532562256,0.5447441339492798,1.086889386177063,0.609740674495697,-0.8833712057215299,2.1676216500474723,1.5440017141795652,0.5248507857322693,0.7728824615478516,0.3566289246082306
1727340423888,9i,8.0062920993268,2.8s : 4.3s,1.5095547732556167,1.4702413344304108,5.299017429351807,1.626775860786438,-4.3378801345825195,0.6499614715576172,1.1482343673706055,0.6486274003982544,-0.9460321455588478,2.15872268307752,1.5125041644657091,0.4866958558559418,0.8111010789871216,0.3244103193283081
1727340423898,9i,8.0062920993268,2.8s : 4.3s,1.6671066416016285,1.589567079462743,5.989469051361084,1.4058085680007935,-4.916225910186768,0.7766082286834717,1.1732492446899414,0.7396548986434937,-1.0153873750781843,2.1413861842047592,1.473246113500999,0.4437588155269623,0.8496848940849304,0.2848048806190491
1727340423908,9i,8.0062920993268,2.8s : 4.3s,1.836266842506992,1.7244957214293017,6.515687465667725,0.8127684593200684,-5.564277172088623,0.9537911415100098,1.1930721998214722,0.8004665374755859,-1.0928732387518132,2.1075638463412756,1.421252886183413,0.3952533006668091,0.8879520893096924,0.2351931631565094
1727340423918,9i,8.0062920993268,2.8s : 4.3s,2.0112504714677977,2.0116038053607013,7.0144548416137695,-0.20220428705215454,-6.082777500152588,1.208149790763855,1.3411811590194702,0.887782096862793,-1.1765443087490266,2.0448357457434017,1.3486395684219528,0.3417613208293915,0.923284113407135,0.17534339427947998
1727340423928,9i,8.0062920993268,2.8s : 4.3s,2.190026858315732,2.3863667753627977,7.303191184997559,-0.8969010710716248,-6.322531223297119,1.5458147525787354,1.5768890380859375,0.9047784805297852,-1.26244468384705,1.9282138200119026,1.230670433615303,0.2843087315559387,0.9528351426124573,0.10617717355489731
1727340423938,9i,8.0062920993268,2.8s : 4.3s,2.375172938096204,2.6061045239232006,7.462673187255859,-1.2916274070739746,-6.65101432800293,1.7934648990631104,1.719390630722046,0.7867403030395508,-1.3437474925776565,1.7153568170175224,1.0217063031020492,0.2227548211812973,0.9743349552154541,0.032427750527858734
1727340423948,9i,8.0062920993268,2.8s : 4.3s,2.565489768725664,2.4888404769932593,7.466087341308594,-1.6063021421432495,-7.10557746887207,1.7518105506896973,1.6151981353759766,0.7187640070915222,-1.4088398460864653,1.2960601929491444,0.6096703701910431,0.1552020013332367,0.9869136810302734,-0.043745819479227066
1727340423958,9i,8.0062920993268,2.8s : 4.3s,2.740490665666843,2.182072937404886,6.75301456451416,-1.7221587896347046,-7.370609283447266,1.6235765218734741,1.3070111274719238,0.6458819508552551,-1.4277602375778995,0.6151626543777007,-0.06191336090577477,0.08226411789655685,0.989787757396698,-0.11641731858253479
1727340423968,9i,8.0062920993268,2.8s : 4.3s,2.887043807636341,1.98918751211967,5.592810153961182,-1.6279672384262085,-7.465132713317871,1.6174148321151733,1.015404462814331,0.556587815284729,-1.3916739795476847,0.03641294353934539,-0.6306082285648185,0.006486113648861647,0.9840004444122314,-0.17804786562919617
1727340423978,9i,8.0062920993268,2.8s : 4.3s,3.0121239907518285,1.8522924455463627,4.7693610191345215,-1.2997978925704956,-7.417777061462402,1.6310617923736572,0.7492386698722839,0.45745617151260376,-1.3301735333366378,-0.2941695863669445,-0.9533840132163016,-0.06909621506929398,0.9711897373199463,-0.22807089984416962
1727340423988,9i,8.0062920993268,2.8s : 4.3s,3.120685602450748,1.7254749717454916,4.014664649963379,-1.053166389465332,-7.522839546203613,1.6069692373275757,0.5141022801399231,0.3614036440849304,-1.2610292910644985,-0.49075446406932494,-1.1454335248185923,-0.14366695284843445,0.9524046182632446,-0.2688591778278351
1727340423998,9i,8.0062920993268,2.8s : 4.3s,3.2251868963026826,1.5832504270989192,3.776662826538086,-0.8849599957466125,-7.629622459411621,1.4637550115585327,0.3479633331298828,0.4929753541946411,-1.1882498475953664,-0.6224378923998753,-1.2750981765359741,-0.21763113141059875,0.9277170896530151,-0.3032781481742859
1727340424008,9i,8.0062920993268,2.8s : 4.3s,3.3315603838957797,1.5096740250385916,4.053625583648682,-0.8100561499595642,-7.520184516906738,1.3209350109100342,0.2303040623664856,0.6936904191970825,-1.110696050557204,-0.7100520661376568,-1.3618404106372015,-0.2894563674926758,0.8960079550743103,-0.33672627806663513
1727340424018,9i,8.0062920993268,2.8s : 4.3s,3.4322352398390636,1.5138858293648694,4.2871413230896,-0.8785403966903687,-7.1936564445495605,1.2593846321105957,0.18944436311721802,0.8184812068939209,-1.0304036314188185,-0.7667751989484057,-1.4168135533697759,-0.35694965720176697,0.8575066924095154,-0.3704984784126282
1727340424028,9i,8.0062920993268,2.8s : 4.3s,3.5278920286387323,1.537448485492816,4.713338851928711,-0.9088023900985718,-6.745776176452637,1.1985225677490234,0.19975388050079346,0.9420137405395508,-0.9495520021827883,-0.8026680808041124,-1.4488671812302947,-0.4186156988143921,0.8131548166275024,-0.40440088510513306
1727340424038,9i,8.0062920993268,2.8s : 4.3s,3.624052517952419,1.5309296885765034,5.368171691894531,-0.9580719470977783,-6.346032619476318,1.1334072351455688,0.18844789266586304,1.0117416381835938,-0.8676321467843572,-0.8227578444228131,-1.46259518637695,-0.47399890422821045,0.7627999186515808,-0.43984219431877136
1727340424048,9i,8.0062920993268,2.8s : 4.3s,3.7216532082777127,1.495847885785004,5.9149909019470215,-0.5623663663864136,-6.078208923339844,1.0571115016937256,0.1506478190422058,1.0475597381591797,-0.7836556050339388,-0.8306992297207287,-1.4629853135853237,-0.5230388641357422,0.7058735489845276,-0.4776744544506073
1727340424058,9i,8.0062920993268,2.8s : 4.3s,3.8037328797574648,1.4591899448591643,5.713362216949463,-0.31163692474365234,-5.786515235900879,0.9867806434631348,0.16454720497131348,1.0622727870941162,-0.7004942135340994,-0.8319388193751805,-1.4585704259078431,-0.5651653409004211,0.6445956230163574,-0.5148637294769287
1727340424068,9i,8.0062920993268,2.8s : 4.3s,3.8651880925061324,1.4921756461828186,5.385495185852051,-0.11786570399999619,-5.368689060211182,1.0643150806427002,0.2324168086051941,1.0197077989578247,-0.622074997499965,-0.8315962915280799,-1.4544850422753202,-0.6005702614784241,0.5827227234840393,-0.5474940538406372
1727340424078,9i,8.0062920993268,2.8s : 4.3s,3.908768235403281,1.5196492708177272,5.221931457519531,-0.012013569474220276,-4.879003524780273,1.1731798648834229,0.20932847261428833,0.9429551959037781,-0.5485974046315846,-0.8290762719599198,-1.4489655532045256,-0.6291128396987915,0.5214909911155701,-0.5764237642288208
1727340424088,9i,8.0062920993268,2.8s : 4.3s,3.931595649382751,1.5534061603909481,4.8720479011535645,-0.0078410180285573,-4.402557849884033,1.3427143096923828,0.10122349858283997,0.774559736251831,-0.48029310646698337,-0.8258200146969844,-1.442239671477689,-0.6519339680671692,0.46203914284706116,-0.6012502908706665
1727340424098,9i,8.0062920993268,2.8s : 4.3s,3.9328127535584816,1.641888284290997,4.3463640213012695,-0.3116682767868042,-4.016915321350098,1.4973995685577393,-0.0406666100025177,0.6722632646560669,-0.4181978836258542,-0.8245032826914801,-1.4362465014557366,-0.6709380149841309,0.4061143100261688,-0.6204137802124023
1727340424108,9i,8.0062920993268,2.8s : 4.3s,3.9122842651380063,1.7426956886114202,3.7591004371643066,-0.9829359650611877,-3.640407085418701,1.5419728755950928,-0.21500584483146667,0.7829945087432861,-0.36249504335993654,-0.8291401451086217,-1.432295764723301,-0.6894341111183167,0.3546082377433777,-0.6316120028495789
1727340424118,9i,8.0062920993268,2.8s : 4.3s,3.876783439622324,1.7824131410693953,3.400346040725708,-1.4660710096359253,-3.276493549346924,1.4749786853790283,-0.3855763077735901,0.9234529733657837,-0.3132508337003787,-0.8405549764558823,-1.428835825747659,-0.7087587714195251,0.3081528842449188,-0.6345887780189514
1727340424128,9i,8.0062920993268,2.8s : 4.3s,3.8350311910975465,1.7168989851901084,3.213097333908081,-1.9561264514923096,-3.072444438934326,1.3616551160812378,-0.48653465509414673,0.9257005453109741,-0.26787912163894095,-0.8565590808369108,-1.4247797809566216,-0.7286444306373596,0.26468679308891296,-0.6316788792610168
1727340424138,9i,8.0062920993268,2.8s : 4.3s,3.797555617762619,1.5711917580744876,2.955613374710083,-2.0472614765167236,-3.369199752807617,1.2334599494934082,-0.4916874170303345,0.8399187922477722,-0.22366510531708647,-0.8760816497598208,-1.4217916504036086,-0.7491004467010498,0.2218049168586731,-0.6242204308509827
1727340424148,9i,8.0062920993268,2.8s : 4.3s,3.764427507338319,1.4273901398217679,2.5756494998931885,-1.9275925159454346,-3.802804946899414,1.1072309017181396,-0.4040878415107727,0.8051058053970337,-0.17823841565044718,-0.8961351640354558,-1.4231762777435368,-0.7685469388961792,0.17729617655277252,-0.6147369742393494
1727340424158,9i,8.0062920993268,2.8s : 4.3s,3.72060361091177,1.2933709528199984,2.1357877254486084,-1.618820309638977,-3.6735987663269043,1.012766718864441,-0.26198238134384155,0.7605769038200378,-0.13404142575205527,-0.9147785813042337,-1.4279674165968632,-0.7853193879127502,0.13364039361476898,-0.604494571685791
1727340424168,9i,8.0062920993268,2.8s : 4.3s,3.6517404670256144,1.2043653674617578,1.614988088607788,-1.151075839996338,-3.014099359512329,0.9872457981109619,-0.062274470925331116,0.6869960427284241,-0.09600616139667309,-0.9291059564720329,-1.4333446900373357,-0.7973961234092712,0.09585874527692795,-0.5957940816879272
1727340424178,9i,8.0062920993268,2.8s : 4.3s,3.559911888302416,1.1906583572054417,1.187230110168457,-0.9178776741027832,-2.2993056774139404,0.9978872537612915,0.08128932118415833,0.6444225311279297,-0.0665408238209219,-0.9396770559835799,-1.437937250057813,-0.8055809140205383,0.06649173051118851,-0.5887430310249329
1727340424188,9i,8.0062920993268,2.8s : 4.3s,3.4578631810365077,1.1822592593598822,1.1092814207077026,-0.6971086263656616,-1.7706489562988281,0.9739163517951965,0.07733254134654999,0.6657654047012329,-0.043606856303662275,-0.9478833173666604,-1.4407146656989862,-0.8114103078842163,0.043593037873506546,-0.5828489065170288
1727340424198,9i,8.0062920993268,2.8s : 4.3s,3.3549233066143946,1.1306103069002589,1.188370943069458,-0.6416024565696716,-1.4615371227264404,0.9258705377578735,-0.07259730249643326,0.6448046565055847,-0.023923723900734693,-0.9543721591934442,-1.440649007644192,-0.8157174587249756,0.023921441286802292,-0.5779557228088379
1727340424208,9i,8.0062920993268,2.8s : 4.3s,3.250778118847032,1.0931954416426366,1.0906471014022827,-0.647934079170227,-1.2878971099853516,0.871201753616333,-0.25121888518333435,0.6107150316238403,-0.006147177150018176,-0.9608135752427741,-1.4391207691405958,-0.8196424245834351,0.006147138308733702,-0.5728424787521362
1727340424218,9i,8.0062920993268,2.8s : 4.3s,3.142474191602399,1.0798743575394032,0.8774427175521851,-0.6479151844978333,-1.0904208421707153,0.8056400418281555,-0.3708876371383667,0.6160479784011841,0.009270283129797153,-0.9673071987388024,-1.4377985875418302,-0.8233250975608826,-0.00927015021443367,-0.5674943327903748
1727340424228,9i,8.0062920993268,2.8s : 4.3s,3.0247178555418053,1.0240912700854847,0.5532407164573669,-0.5567167401313782,-0.7726703882217407,0.7514404654502869,-0.3962458372116089,0.5719172954559326,0.02106865452648825,-0.9734020955410642,-1.4371760882569886,-0.8266206383705139,-0.021067095920443535,-0.5623650550842285
1727340424238,9i,8.0062920993268,2.8s : 4.3s,2.8934830731625185,0.9458862257976325,0.20764786005020142,-0.3185614347457886,-0.30822843313217163,0.7192246317863464,-0.3701062500476837,0.4903448224067688,0.02770951929657824,-0.9778257390576911,-1.4371098151135864,-0.8289659023284912,-0.027705973014235497,-0.5586124062538147
1727340424248,9i,8.0062920993268,2.8s : 4.3s,2.7468210859358906,0.9020445545169087,-0.1749376654624939,-0.033739637583494186,0.22324712574481964,0.7092511057853699,-0.35366201400756836,0.4307788610458374,0.02816272119190016,-0.979577947968658,-1.437179719419399,-0.8299329876899719,-0.028158998116850853,-0.5571519732475281
1727340424258,9i,8.0062920993268,2.8s : 4.3s,2.5876728900031765,0.9009539189342701,-0.5769005417823792,0.21587684750556946,0.6495577096939087,0.7047856450080872,-0.36854636669158936,0.42328327894210815,0.022401262362588423,-0.9786319037205103,-1.4377814818151202,-0.8295263648033142,-0.022399388253688812,-0.5580182075500488
1727340424268,9i,8.0062920993268,2.8s : 4.3s,2.4223334027557084,0.9238268944527802,-0.8698868751525879,0.30495914816856384,0.9565449357032776,0.6947154998779297,-0.40923812985420227,0.450944185256958,0.011615128961841184,-0.9758508613632312,-1.439323021890469,-0.8281232118606567,-0.011614867486059666,-0.5604258179664612
1727340424278,9i,8.0062920993268,2.8s : 4.3s,2.2565943372079085,0.9616832847274902,-1.032541036605835,0.24098016321659088,1.1695730686187744,0.6740836501121521,-0.4735366404056549,0.4961945414543152,-0.002558537320726972,-0.9730629678298472,-1.4412603145565555,-0.8266106247901917,0.002558534499257803,-0.5627684593200684
1727340424288,9i,8.0062920993268,2.8s : 4.3s,2.091571620452724,0.9939974632084941,-1.1565420627593994,0.18697036802768707,1.368893027305603,0.6448036432266235,-0.5383733510971069,0.5314257740974426,-0.01916336158524361,-0.9710016800707709,-1.443114226862869,-0.8252999782562256,0.019162189215421677,-0.5643693208694458
1727340424298,9i,8.0062920993268,2.8s : 4.3s,1.9238100961538747,1.0010035711908,-1.354720950126648,0.30721473693847656,1.621950626373291,0.617542028427124,-0.558789849281311,0.5553412437438965,-0.03845905080171071,-0.968745184628525,-1.4450620061520199,-0.8235662579536438,0.038449570536613464,-0.5659153461456299
1727340424308,9i,8.0062920993268,2.8s : 4.3s,1.7489243940999712,0.9893271391655615,-1.6118223667144775,0.6053098440170288,1.9895905256271362,0.6029431819915771,-0.5236079096794128,0.5840055346488953,-0.06165631323462432,-0.9643307940096174,-1.4469845132357475,-0.8201063275337219,0.061617255210876465,-0.5688838362693787
1727340424318,9i,8.0062920993268,2.8s : 4.3s,1.5673501947899393,0.975288056410396,-1.8926876783370972,0.972915530204773,2.3317105770111084,0.6229203343391418,-0.4473353326320648,0.6025347709655762,-0.08939125328567439,-0.9566565005967513,-1.4489664434833938,-0.8140063285827637,0.08927225321531296,-0.5739549398422241
1727340424328,9i,8.0062920993268,2.8s : 4.3s,1.3820129654431696,0.9755317905200678,-2.1456637382507324,1.3766859769821167,2.6086177825927734,0.6676480174064636,-0.35421937704086304,0.6167957782745361,-0.12123948979677523,-0.945135576619037,-1.4510564205089924,-0.8046262860298157,0.12094268947839737,-0.581334114074707
1727340424338,9i,8.0062920993268,2.8s : 4.3s,1.1991588961014212,1.0010069045895733,-2.2801437377929688,1.6789270639419556,2.7906956672668457,0.7309383749961853,-0.3000470995903015,0.6145857572555542,-0.15611842251016742,-0.9300707864549871,-1.4530479759967017,-0.7919126749038696,0.15548501908779144,-0.5905072093009949
1727340424348,9i,8.0062920993268,2.8s : 4.3s,1.0236174830003981,1.0433366663648116,-2.1884257793426514,1.8156174421310425,3.0398380756378174,0.8008811473846436,-0.27952390909194946,0.6074596047401428,-0.1928101575613041,-0.9124717663950149,-1.4532623835524419,-0.7763605713844299,0.19161772727966309,-0.6004557013511658
1727340424358,9i,8.0062920993268,2.8s : 4.3s,0.8585662212409572,1.1013450825270108,-1.9452061653137207,1.8789386749267578,3.37693190574646,0.8726316094398499,-0.23725159466266632,0.6286388039588928,-0.2307329421512855,-0.893274248251191,-1.4496645224645144,-0.7584807872772217,0.22869110107421875,-0.6102518439292908
1727340424368,9i,8.0062920993268,2.8s : 4.3s,0.7056688979398651,1.1632243970294356,-1.733823537826538,2.052032232284546,3.834388494491577,0.9322275519371033,-0.14994093775749207,0.6793824434280396,-0.2700791283746612,-0.8716030593805184,-1.4407271431427575,-0.7376171350479126,0.2668077051639557,-0.6202698349952698
1727340424378,9i,8.0062920993268,2.8s : 4.3s,0.5694139075727931,1.2432310437299692,-1.8546303510665894,2.3442330360412598,4.318122386932373,0.9820569157600403,-0.029574662446975708,0.7617827653884888,-0.3124502103290795,-0.8458799410108157,-1.42703534215702,-0.7123122811317444,0.30739113688468933,-0.6309690475463867
1727340424388,9i,8.0062920993268,2.8s : 4.3s,0.47984270536753465,1.3481816471303962,-1.9116003513336182,2.8445322513580322,4.983719348907471,1.0124348402023315,0.029926657676696777,0.8897605538368225,-0.3593816018036515,-0.814039445664289,-1.4087836645060112,-0.6806175112724304,0.3516954183578491,-0.6427054405212402
1727340424398,9i,8.0062920993268,2.8s : 4.3s,0.4807651210415672,1.4241327758937996,-1.9660550355911255,3.1068766117095947,6.154315948486328,1.0405991077423096,-0.10982254147529602,0.966046929359436,-0.41216475391071344,-0.7737502801071262,-1.3818386609859135,-0.6403003931045532,0.40059372782707214,-0.655393123626709
1727340424408,9i,8.0062920993268,2.8s : 4.3s,0.596684752807441,1.589060736900828,-2.3566806316375732,3.162236452102661,7.517908096313477,1.0604609251022339,-0.4926593601703644,1.0760220289230347,-0.4743099081208259,-0.7252678699654942,-1.342448993716271,-0.5901090502738953,0.4567246437072754,-0.6657131314277649
1727340424418,9i,8.0062920993268,2.8s : 4.3s,0.796618027563601,2.038817496205437,-4.113658905029297,3.548746347427368,8.16506290435791,0.9935203194618225,-1.070874810218811,1.4222943782806396,-0.5497316557960366,-0.6720912580386675,-1.2979545011910831,-0.5308893918991089,0.5224584341049194,-0.6672283411026001
1727340424428,9i,8.0062920993268,2.8s : 4.3s,1.0747414803544337,2.4812964700089397,-4.847069263458252,4.800375938415527,8.797542572021484,0.7039877772331238,-1.508707046508789,1.8398468494415283,-0.635988350072086,-0.6008980935068778,-1.2471632650794564,-0.45484256744384766,0.59397292137146,-0.663561999797821
1727340424437,9i,8.0062920993268,2.8s : 4.3s,1.3971715805675264,2.9317033021544336,-7.588714599609375,6.03582763671875,8.593868255615234,0.6942890286445618,-2.3338422775268555,1.632797360420227,-0.7338707127278324,-0.51420063121029,-1.1939103373491085,-0.36523357033729553,0.6697489619255066,-0.646560788154602
1727340424447,9i,8.0062920993268,2.8s : 4.3s,1.8121585030952012,4.068178269707969,-11.197772026062012,8.014409065246582,9.086169242858887,0.7781139612197876,-3.538543224334717,1.8502229452133179,-0.8564755500917496,-0.40644805372324516,-1.1406929398537395,-0.25899505615234375,0.7555384039878845,-0.6017336845397949
1727340424457,9i,8.0062920993268,2.8s : 4.3s,2.3195578320271943,4.730944025106002,-13.879734992980957,10.850448608398438,9.064370155334473,0.8809586763381958,-3.9420900344848633,2.462857961654663,-1.0061337093711056,-0.24805784880884055,-1.0646941935366194,-0.13138623535633087,0.8447691798210144,-0.5187510251998901
1727340424467,9i,8.0062920993268,2.8s : 4.3s,2.7745324269621863,5.442607612044642,-15.148324966430664,8.356656074523926,7.978581428527832,1.3292303085327148,-4.366131782531738,2.9651336669921875,-1.1593586108049048,-0.03669170064238987,-0.9295101464961164,-0.014670725911855698,0.9165467619895935,-0.3996582627296448
1727340424477,9i,8.0062920993268,2.8s : 4.3s,3.1937653890275897,7.20044202415094,-17.065080642700195,5.8763651847839355,6.63289213180542,3.6148388385772705,-5.263824939727783,3.3273792266845703,-1.3120877736753251,0.3002578491786914,-0.6515672919727173,0.07566672563552856,0.9667211771011353,-0.2443867325782776
1727340424487,9i,8.0062920993268,2.8s : 4.3s,3.61523504618093,8.894887155774224,-17.27458953857422,0.6910243630409241,10.856295585632324,6.651817321777344,-4.1380767822265625,4.212916374206543,-1.3901015041639542,1.1498446406968144,0.1838897466409007,0.16402415931224823,0.9837190508842468,-0.07343599200248718
1727340424497,9i,8.0062920993268,2.8s : 4.3s,4.051699411385584,8.809760520652764,-15.17464828491211,-1.7577775716781616,15.501123428344727,7.427025318145752,-1.5032567977905273,4.493483543395996,-1.2587671100847662,1.8578928365838008,0.9162702644596947,0.2944250702857971,0.9517126083374023,0.08693002164363861
1727340424507,9i,8.0062920993268,2.8s : 4.3s,4.401231242193106,8.468762967883048,-9.386043548583984,-2.5753214359283447,17.684602737426758,7.892595291137695,-0.6425718069076538,3.0023303031921387,-1.0611221864084803,1.9715706333712755,1.0618255325226122,0.44923192262649536,0.8729035258293152,0.19034236669540405
1727340424517,9i,8.0062920993268,2.8s : 4.3s,4.758605407109767,9.145778170274147,-6.638534069061279,-4.8595380783081055,20.93111228942871,8.734307289123535,-1.7125650644302368,2.103391408920288,-0.8527500482956014,1.9365294271589704,1.0646417233599064,0.6144012212753296,0.7530925273895264,0.23529258370399475
1727340424527,9i,8.0062920993268,2.8s : 4.3s,5.113839843837231,10.396123167911217,-4.179903507232666,-4.5422868728637695,21.867589950561523,9.794692993164062,-1.7548727989196777,3.0106124877929688,-0.6316093478836868,1.8699187281793095,1.0381356793684342,0.7712404131889343,0.5904443860054016,0.2378312051296234
1727340424537,9i,8.0062920993268,2.8s : 4.3s,5.450292579549261,11.41793068978032,-3.440420150756836,-3.1481101512908936,20.779340744018555,10.592516899108887,-2.536233425140381,3.4256746768951416,-0.41590307359432743,1.8177901928558011,1.0113547622770147,0.8869906663894653,0.4040161967277527,0.223647803068161
1727340424547,9i,8.0062920993268,2.8s : 4.3s,5.796266919068269,12.618483816093013,-7.383731365203857,-1.6908024549484253,18.277219772338867,11.468400955200195,-3.8909261226654053,3.544376850128174,-0.21432578449247885,1.794222576362544,1.0150440612975151,0.9528327584266663,0.21268868446350098,0.21650244295597076
1727340424557,9i,8.0062920993268,2.8s : 4.3s,6.192643607118589,13.765100828406794,-15.447535514831543,0.07174275070428848,15.161426544189453,12.3524169921875,-4.519136428833008,4.058719158172607,-0.025914571348397704,1.7934356092562929,1.0893183895249707,0.9749905467033386,0.025911670178174973,0.22073037922382355
1727340424567,9i,8.0062920993268,2.8s : 4.3s,6.582607924205167,13.964683299328344,-21.736614227294922,0.5980262756347656,10.796646118164062,12.289190292358398,-5.105967044830322,4.23288106918335,0.14226893338961807,1.7889250366118934,1.2448504809001515,0.9664404988288879,-0.1417894810438156,0.21421673893928528
1727340424577,9i,8.0062920993268,2.8s : 4.3s,6.928452760164127,13.810755418265053,-24.138141632080078,-1.749188780784607,7.1510329246521,11.774497032165527,-5.6243510246276855,4.523810386657715,0.27481617576281375,1.7390930831525426,1.4585898594887647,0.9488769173622131,-0.2713700234889984,0.16121789813041687
1727340424587,9i,8.0062920993268,2.8s : 4.3s,7.220065347921814,14.04663352277392,-23.932300567626953,-5.031379699707031,4.6682538986206055,11.845014572143555,-4.766665458679199,5.85512113571167,0.36096449019515636,1.6274837458255835,1.7042114620515134,0.934053897857666,-0.3531767427921295,0.053005896508693695
1727340424597,9i,8.0062920993268,2.8s : 4.3s,7.4467541257210454,13.80473582404237,-21.4334659576416,-9.00198745727539,3.6634106636047363,11.735551834106445,-3.4413487911224365,6.403489112854004,0.39658686457638564,1.466020944638751,1.9501625217461274,0.9173264503479004,-0.3862723708152771,-0.09646648913621902
1727340424607,9i,8.0062920993268,2.8s : 4.3s,7.608264033527912,13.790441154446075,-17.14244842529297,-11.955549240112305,4.528412818908691,12.109041213989258,-2.7966811656951904,5.9771199226379395,0.3982904388470191,1.2764877396052765,2.1646337172401684,0.8820938467979431,-0.38784316182136536,-0.2673724591732025
1727340424617,9i,8.0062920993268,2.8s : 4.3s,7.6967966433937285,13.559113148681089,-12.543112754821777,-13.037752151489258,5.585361480712891,12.526917457580566,-1.9510128498077393,4.808267593383789,0.3896433601624492,1.0863499566866965,2.333269449942882,0.8186023831367493,-0.37985852360725403,-0.4308103621006012
1727340424627,9i,8.0062920993268,2.8s : 4.3s,7.743187568913291,13.118111550471154,-9.481363296508789,-14.35070514678955,6.170201778411865,12.358811378479004,-2.436436653137207,3.6617493629455566,0.3797706665792889,0.899829422375846,2.466571298127737,0.7274160981178284,-0.3707074820995331,-0.5774441361427307
1727340424637,9i,8.0062920993268,2.8s : 4.3s,7.7798128155015664,13.484426270426763,-7.926347255706787,-15.628263473510742,6.218432426452637,12.370492935180664,-3.5514583587646484,4.023406505584717,0.3660227797914357,0.7087414987078783,2.5806525016508997,0.6077634692192078,-0.3579045236110687,-0.7088920474052429
1727340424647,9i,8.0062920993268,2.8s : 4.3s,7.820944933240105,13.733481805350117,-7.386565208435059,-15.60700511932373,6.005863189697266,12.403114318847656,-3.7330644130706787,4.5645928382873535,0.34342487485596385,0.5192247727858991,2.6854800872910274,0.46723219752311707,-0.3367139399051666,-0.8175070881843567
1727340424657,9i,8.0062920993268,2.8s : 4.3s,7.858133608445799,13.246178037361183,-6.76871395111084,-14.411969184875488,6.16445255279541,12.085671424865723,-3.493328332901001,4.146617412567139,0.31047935910655106,0.3425173222790878,2.7796729451606605,0.31980088353157043,-0.3055151104927063,-0.8968767523765564
1727340424667,9i,8.0062920993268,2.8s : 4.3s,7.87781732134566,12.814515927408188,-5.6606950759887695,-13.857526779174805,6.172340393066406,11.887472152709961,-3.1983420848846436,3.5595550537109375,0.26901757687094585,0.17867750847500832,2.8598666250966507,0.1713358461856842,-0.26578447222709656,-0.9486846923828125
1727340424677,9i,8.0062920993268,2.8s : 4.3s,7.888390431675869,12.743469002170851,-5.1160383224487305,-13.89366340637207,5.633372783660889,11.936666488647461,-2.748192548751831,3.5155985355377197,0.22307439348450148,0.024311528336014503,2.9260379284867377,0.023706799373030663,-0.22122888267040253,-0.9749337434768677
1727340424687,9i,8.0062920993268,2.8s : 4.3s,7.937216813785132,12.786337176579107,-6.625851154327393,-14.603425979614258,4.663577079772949,11.955877304077148,-2.4423861503601074,3.818660259246826,0.1631029688779198,-0.12805733976919056,2.9755426536180196,-0.12601271271705627,-0.16238076984882355,-0.9786487221717834
1727340424697,9i,8.0062920993268,2.8s : 4.3s,7.9897686060187905,12.569385572725386,-8.016122817993164,-13.877189636230469,3.1514410972595215,11.475716590881348,-2.4660842418670654,4.496199607849121,0.08331340403355744,-0.2738573495858251,2.9991734213082277,-0.2695089876651764,-0.08321705460548401,-0.9593955278396606
1727340424707,9i,8.0062920993268,2.8s : 4.3s,8.0062920993268,11.220760123888917,-7.595153331756592,-12.871587753295898,2.0295257568359375,10.085040092468262,-2.5009570121765137,4.235875129699707,0.00014168198891938543,-0.40735496309595365,2.996859443193644,-0.396182119846344,-0.00014168198686093092,-0.9181719422340393
1727340424717,9i,8.0062920993268,2.8s : 4.3s,7.989785972606325,9.812484487888856,-5.961989402770996,-12.335424423217773,2.223928689956665,9.002726554870605,-1.7028350830078125,3.5122811794281006,-0.07000327846799666,-0.5332154064368777,2.9842464257546006,-0.5070600509643555,0.06994611769914627,-0.8590679168701172
1727340424727,9i,8.0062920993268,2.8s : 4.3s,7.9158877831752985,9.238371945047218,-3.2788214683532715,-11.536986351013184,2.5633554458618164,8.7311372756958,-0.5094224810600281,2.9757766723632812,-0.12289065341494385,-0.6541091145369446,2.97659058479345,-0.6038638353347778,0.12258157134056091,-0.7876054048538208
1727340424737,9i,8.0062920993268,2.8s : 4.3s,7.7847936993542515,8.681124924272455,-0.9024217128753662,-11.02208423614502,1.9987889528274536,8.36974811553955,-0.013475105166435242,2.30414080619812,-0.15666265815853703,-0.765632242142729,2.979497162358188,-0.6845062375068665,0.15602260828018188,-0.7121153473854065
1727340424747,9i,8.0062920993268,2.8s : 4.3s,7.634660654380847,8.633262976482706,0.3047986924648285,-10.829936027526855,1.626723051071167,8.432000160217285,-0.09523767232894897,1.85081946849823,-0.1749401424953678,-0.8703855921582259,2.9907265145186632,-0.7529077529907227,0.17404919862747192,-0.6346942782402039
1727340424757,9i,8.0062920993268,2.8s : 4.3s,7.470860713511218,8.017142051299519,1.5672105550765991,-10.613049507141113,1.5332053899765015,7.736303806304932,0.3051418662071228,2.0811195373535156,-0.18318550291516633,-0.9734451918877575,3.0097681382133694,-0.8129942417144775,0.18216270208358765,-0.55304354429245
1727340424767,9i,8.0062920993268,2.8s : 4.3s,7.3010076200521805,7.22062488412609,1.9614379405975342,-10.045228958129883,1.1878165006637573,6.663457870483398,0.9091129302978516,2.6285483837127686,-0.18512799338705338,-1.0730626149922502,3.033043332515002,-0.863652765750885,0.184072345495224,-0.46927735209465027
1727340424777,9i,8.0062920993268,2.8s : 4.3s,7.1282027253340505,6.743126345463912,1.5493884086608887,-9.220719337463379,0.48105233907699585,5.8592529296875,1.395829439163208,3.03159499168396,-0.18510537987824607,-1.1648782192197564,3.0533984130200027,-0.9030452370643616,0.18405011296272278,-0.38811689615249634
1727340424787,9i,8.0062920993268,2.8s : 4.3s,6.968556438429059,6.519678644677293,0.08187775313854218,-8.61263370513916,-0.5635647773742676,5.30971622467041,1.3045283555984497,3.551243305206299,-0.18160606507797686,-1.2533956529660897,3.0609695886817665,-0.9344262480735779,0.18060946464538574,-0.3069656491279602
1727340424797,9i,8.0062920993268,2.8s : 4.3s,6.802133453612391,6.46516205767306,-0.5539567470550537,-7.733824729919434,-1.368515968322754,5.040786266326904,1.0914409160614014,3.8984036445617676,-0.17227297483597456,-1.3362408850028544,3.055037203131594,-0.958220899105072,0.17142212390899658,-0.22897043824195862
1727340424807,9i,8.0062920993268,2.8s : 4.3s,6.626162168689304,5.595423819898496,-0.6768971681594849,-6.5390520095825195,-1.1257505416870117,4.2807183265686035,0.947107195854187,3.47666597366333,-0.16049923046403874,-1.4075086308707137,3.0466496852352574,-0.9740167856216431,0.15981103479862213,-0.16047373414039612
1727340424817,9i,8.0062920993268,2.8s : 4.3s,6.452618588868794,4.758614651226192,-0.23603563010692596,-6.011999130249023,-0.33030474185943604,3.606834888458252,1.063124656677246,2.9163198471069336,-0.1480322761746897,-1.464517488009638,3.041840946853184,-0.9834825992584229,0.1474922150373459,-0.1049187183380127
1727340424827,9i,8.0062920993268,2.8s : 4.3s,6.259767413897323,3.982477811267256,0.3095798194408417,-5.1776227951049805,-0.41065719723701477,2.945427179336548,1.0846211910247803,2.451159954071045,-0.13550426210304606,-1.511082427192166,3.0417954724649983,-0.9890673756599426,0.1350899636745453,-0.05913136899471283
1727340424837,9i,8.0062920993268,2.8s : 4.3s,6.044619121809698,3.446542124442223,0.5386862754821777,-4.064722537994385,-0.624586284160614,2.420719623565674,0.906807541847229,2.279576539993286,-0.1272420248689072,-1.5533456010352644,3.0457241496046614,-0.9917646646499634,0.12689894437789917,-0.01730876974761486
1727340424847,9i,8.0062920993268,2.8s : 4.3s,5.838938670041779,3.1266783643996243,0.4872276186943054,-3.6448020935058594,-0.04801173508167267,2.244105339050293,0.9640454053878784,1.9521079063415527,-0.12407158037181616,-1.5919355968381432,3.0507960147627022,-0.9920912384986877,0.12375350296497345,0.020975209772586823
1727340424857,9i,8.0062920993268,2.8s : 4.3s,5.6400539975262145,2.7892309869664644,0.5190715789794922,-3.2019355297088623,0.5575277209281921,1.9564666748046875,1.0718482732772827,1.6742726564407349,-0.12680966418927953,-1.625366682173087,3.055526463099325,-0.9904938340187073,0.12647007405757904,0.05410531908273697
1727340424867,9i,8.0062920993268,2.8s : 4.3s,5.446266383929288,2.5834522119210592,0.5423809289932251,-2.981987476348877,0.615042507648468,1.6886382102966309,0.9965637922286987,1.6821376085281372,-0.1335168634294645,-1.6553647799702718,3.0606419070930517,-0.9875578880310059,0.13312052190303802,0.08371591567993164
1727340424877,9i,8.0062920993268,2.8s : 4.3s,5.269671557240106,2.6326281824531113,0.8792082071304321,-3.5213747024536133,0.4745147228240967,1.4209309816360474,0.7564774751663208,2.083129405975342,-0.13935879592220085,-1.686709564844591,3.0664218298570622,-0.9836600422859192,0.13890816271305084,0.11453263461589813
1727340424887,9i,8.0062920993268,2.8s : 4.3s,5.097883852688993,2.685084824696323,2.0257582664489746,-3.9073593616485596,0.5719798803329468,1.191580057144165,0.45031312108039856,2.3636910915374756,-0.14640054014985635,-1.7218775207557007,3.0801588633997787,-0.9780333638191223,0.1458781361579895,0.14889706671237946
1727340424897,9i,8.0062920993268,2.8s : 4.3s,4.932385420014792,2.694442911203886,3.1790595054626465,-4.228853702545166,0.7440376877784729,1.015883445739746,0.16166791319847107,2.4903547763824463,-0.15788045989748686,-1.7591754665166386,3.105556823756631,-0.9700919389724731,0.15722538530826569,0.18493789434432983
1727340424907,9i,8.0062920993268,2.8s : 4.3s,4.777420417269433,2.4807259485004125,3.4853930473327637,-4.476015090942383,0.3235222101211548,0.8460944890975952,-0.00701141357421875,2.331968307495117,-0.17023153444806505,-1.797114117375014,3.1380051284850037,-0.9604134559631348,0.16941054165363312,0.2211472988128662
1727340424917,9i,8.0062920993268,2.8s : 4.3s,4.632132727974404,2.0770849058217977,2.991645097732544,-4.241788387298584,0.12122875452041626,0.6540341973304749,0.059560030698776245,1.9705262184143066,-0.18005858231750213,-1.8356772075454282,-3.1134567233882384,-0.9495206475257874,0.17908720672130585,0.25756189227104187
1727340424927,9i,8.0062920993268,2.8s : 4.3s,4.482209671910394,1.8141281708881334,1.8208125829696655,-3.074502468109131,0.47883903980255127,0.5114783644676208,0.3459526598453522,1.7058041095733643,-0.18937192861539098,-1.8682834855850665,-3.0904961319914914,-0.9389840364456177,0.1882420927286148,0.28787848353385925
1727340424937,9i,8.0062920993268,2.8s : 4.3s,4.3208208013260325,1.555213649321142,0.7449966669082642,-1.7744888067245483,0.8975793123245239,0.4733814001083374,0.6812610626220703,1.3154782056808472,-0.19985781861575677,-1.89051298786517,-3.0805031095012585,-0.9304279685020447,0.19852998852729797,0.30804142355918884
1727340424947,9i,8.0062920993268,2.8s : 4.3s,4.1410751916486905,1.326476119617641,0.13191361725330353,-0.5609495639801025,0.9926508665084839,0.40803593397140503,0.9309055209159851,0.852326512336731,-0.21030474270379337,-1.9018904046274168,-3.0796409197673884,-0.9248511791229248,0.2087579369544983,0.31791552901268005
1727340424957,9i,8.0062920993268,2.8s : 4.3s,3.9500563509792936,1.2436978589447267,-0.3728185296058655,0.23576968908309937,0.7398300170898438,0.3000888228416443,1.0108733177185059,0.6594438552856445,-0.21827255107343577,-1.9039710998435417,-3.083839335229771,-0.9225865006446838,0.21654348075389862,0.3192850351333618
1727340424967,9i,8.0062920993268,2.8s : 4.3s,3.7526898038847034,1.2661453441463868,-0.13065780699253082,0.5690752863883972,0.42119547724723816,0.258891224861145,0.968297004699707,0.7736279964447021,-0.2225771738393059,-1.900926610317845,-3.088951950271804,-0.9226639270782471,0.22074395418167114,0.3161696493625641
1727340424977,9i,8.0062920993268,2.8s : 4.3s,3.5465463177701304,1.3501115595892008,0.9811264276504517,0.6966077089309692,0.1548098921775818,0.28276097774505615,0.8547483682632446,1.0061076879501343,-0.22662356019157895,-1.8937407412956857,-3.0860021232034116,-0.9240573644638062,0.22468870878219604,0.30924537777900696
1727340424987,9i,8.0062920993268,2.8s : 4.3s,3.346515969336592,1.495421313454197,1.9595448970794678,0.3050018548965454,-0.2590673267841339,0.33225375413894653,0.7390273213386536,1.2568734884262085,-0.23096163610060982,-1.8849973726487053,-3.0712762574372534,-0.9257901310920715,0.22891372442245483,0.3008502125740051
1727340424996,9i,8.0062920993268,2.8s : 4.3s,3.1631358413994066,1.5614545708138439,2.33154559135437,-0.31029433012008667,-0.8846335411071777,0.3428623080253601,0.6309805512428284,1.3865242004394531,-0.2322151008467082,-1.8798748299557413,-3.048235888787069,-0.9270450472831726,0.23013372719287872,0.2960163950920105
1727340425006,9i,8.0062920993268,2.8s : 4.3s,2.994334734751844,1.4856287132670696,2.276731491088867,-0.6617406606674194,-1.4329909086227417,0.3275448679924011,0.5297321677207947,1.3487738370895386,-0.2281311940695745,-1.878895490307756,-3.021896301362697,-0.9282224774360657,0.2261575311422348,0.29539093375205994
1727340425016,9i,8.0062920993268,2.8s : 4.3s,2.8334544875819434,1.2754696209206935,1.990341067314148,-0.6386105418205261,-1.804853916168213,0.3258850574493408,0.4380386471748352,1.1527115106582642,-0.219074291685498,-1.879883679062916,-2.9959368345088957,-0.9298433661460876,0.21732613444328308,0.29691895842552185
1727340425026,9i,8.0062920993268,2.8s : 4.3s,2.6766867771290745,0.9785810785883445,1.434643268585205,-0.312209814786911,-1.8611692190170288,0.320528507232666,0.35687726736068726,0.8529484272003174,-0.2066788513789973,-1.8800647724447626,-2.9732283599831404,-0.9322841763496399,0.20521056652069092,0.29788443446159363
1727340425036,9i,8.0062920993268,2.8s : 4.3s,2.5190033350941152,0.7237411985766651,0.4835677444934845,0.3876614570617676,-1.484135627746582,0.29630351066589355,0.33084532618522644,0.5714428424835205,-0.19369403371466498,-1.8765610653490603,-2.9584253400057254,-0.9357843399047852,0.19248515367507935,0.2953934073448181
1727340425046,9i,8.0062920993268,2.8s : 4.3s,2.3710818514276144,0.5783571327054284,-0.7166932225227356,0.6538577675819397,-1.3985340595245361,0.2794073820114136,0.38485077023506165,0.3291175663471222,-0.17979099684825198,-1.8706648539130613,-2.9554535030539144,-0.9399758577346802,0.17882394790649414,0.2906332015991211
1727340425056,9i,8.0062920993268,2.8s : 4.3s,2.2254361220285057,0.5290252943153705,-1.0854480266571045,0.939262330532074,-1.420908808708191,0.22804874181747437,0.4276301860809326,0.21211779117584229,-0.16336627437365567,-1.8639122229970722,-2.9607376137778143,-0.9446015954017639,0.16264057159423828,0.28508955240249634
1727340425066,9i,8.0062920993268,2.8s : 4.3s,2.069532157653945,0.5400608396005129,-0.6580019593238831,1.4626156091690063,-1.3633757829666138,0.19870859384536743,0.4531515836715698,0.21641221642494202,-0.14764958514748014,-1.8525142923199147,-2.9652965851287303,-0.950127899646759,0.14711369574069977,0.2749815285205841
1727340425076,9i,8.0062920993268,2.8s : 4.3s,1.9155104721229357,0.6422803470119179,-0.41884925961494446,1.55890691280365,-1.5548436641693115,0.2690708637237549,0.5293986797332764,0.24466702342033386,-0.13234881733370846,-1.8372816749130412,-2.9664337413739226,-0.9562656879425049,0.13196277618408203,0.2610394358634949
1727340425086,9i,8.0062920993268,2.8s : 4.3s,1.7731879917345608,0.7630111337052142,-0.22019848227500916,1.295133113861084,-1.9216035604476929,0.33648544549942017,0.6205354332923889,0.2896537780761719,-0.11479319319214022,-1.8227637216658144,-2.9651328647004505,-0.9620500802993774,0.11454124748706818,0.24766887724399567
1727340425096,9i,8.0062920993268,2.8s : 4.3s,1.644549633377741,0.8164941292543264,-0.03343232721090317,0.9801000356674194,-2.313075304031372,0.3986406922340393,0.6479263305664062,0.2965463399887085,-0.09400257437794682,-1.8110049110270465,-2.9611391677311856,-0.9670001864433289,0.09386419504880905,0.23685488104820251
1727340425106,9i,8.0062920993268,2.8s : 4.3s,1.5310996797465852,0.8205951367484411,-0.011891350150108337,0.7172375321388245,-2.6458303928375244,0.45906347036361694,0.6095542907714844,0.30179575085639954,-0.06982350662288386,-1.8021030432043386,-2.95542836807733,-0.970996081829071,0.06976678222417831,0.22869107127189636
1727340425116,9i,8.0062920993268,2.8s : 4.3s,1.4310213666691516,0.7999333216058346,0.06212721765041351,0.5672158002853394,-2.7351841926574707,0.4926674962043762,0.5379322171211243,0.3283306062221527,-0.04351742430361362,-1.7954648838848084,-2.9492558320474953,-0.9739449620246887,0.043503690510988235,0.22257232666015625
1727340425126,9i,8.0062920993268,2.8s : 4.3s,1.339725403427797,0.753129290052921,0.3015661835670471,0.5286228656768799,-2.771562337875366,0.5041405558586121,0.47205281257629395,0.30035340785980225,-0.01714455478246412,-1.7897209109700176,-2.9414556641486636,-0.9759881496429443,0.017143715173006058,0.217148095369339
1727340425136,9i,8.0062920993268,2.8s : 4.3s,1.2578317548640126,0.6943562177149153,0.2961210012435913,0.5676789879798889,-2.885406494140625,0.4862048029899597,0.43659451603889465,0.23477792739868164,0.009730304623888695,-1.7843017492227933,-2.932222761006691,-0.977247953414917,-0.009730150923132896,0.2118770033121109
1727340425146,9i,8.0062920993268,2.8s : 4.3s,1.183937284882187,0.6626306853358672,-0.1691858321428299,0.8190921545028687,-2.871119260787964,0.43309611082077026,0.4541585147380829,0.21271395683288574,0.037740078702135124,-1.7776383300745975,-2.92530759195606,-0.97798752784729,-0.037731122225522995,0.20522402226924896
1727340425156,9i,8.0062920993268,2.8s : 4.3s,1.1199847490076789,0.6736676533804191,-0.7767634391784668,1.0806009769439697,-2.8433756828308105,0.40177297592163086,0.508163332939148,0.1848691701889038,0.06651648126627427,-1.7681629961690977,-2.924285246731871,-0.9784178733825684,-0.06646744161844254,0.19565418362617493
1727340425166,9i,8.0062920993268,2.8s : 4.3s,1.0705342294549323,0.6699286872718703,-1.2435686588287354,1.2384119033813477,-2.9611575603485107,0.3981196880340576,0.525680422782898,0.11817467212677002,0.09684641070650582,-1.7561028986576088,-2.9288223214634224,-0.9782741665840149,-0.09669508785009384,0.183384507894516
1727340425176,9i,8.0062920993268,2.8s : 4.3s,1.0389034434106588,0.6374191898547662,-1.6163320541381836,1.314836025238037,-3.0444071292877197,0.40266287326812744,0.4922981262207031,0.04252515733242035,0.12890075413493504,-1.742381132632926,-2.9376150633313594,-0.9771410226821899,-0.12854409217834473,0.16932755708694458
1727340425186,9i,8.0062920993268,2.8s : 4.3s,1.024914814109112,0.6565175805020076,-1.9621458053588867,1.3930940628051758,-3.037052869796753,0.4433366060256958,0.4816284775733948,0.05001996457576752,0.161838650284452,-1.7269642200736737,-2.9504963052646622,-0.9749221801757812,-0.16113309562206268,0.1535014659166336
1727340425196,9i,8.0062920993268,2.8s : 4.3s,1.0232390121657764,0.7194675730429877,-1.885514497756958,1.3740311861038208,-2.9791722297668457,0.49300169944763184,0.5102965235710144,0.11908136308193207,0.19441091289777526,-1.7103416032414782,-2.9656596413830774,-0.9716240167617798,-0.19318857789039612,0.13647253811359406
1727340425206,9i,8.0062920993268,2.8s : 4.3s,1.027853903624649,0.7526249708630018,-1.435048222541809,1.2869157791137695,-2.999606132507324,0.5098373293876648,0.5384728908538818,0.12867474555969238,0.22609388683852655,-1.6944143555653055,-2.9785699782297406,-0.96711266040802,-0.22417254745960236,0.12016528099775314
1727340425216,9i,8.0062920993268,2.8s : 4.3s,1.0374930695513438,0.7650136696782996,-0.9211885929107666,1.218460202217102,-3.1511166095733643,0.4823494553565979,0.5816732048988342,0.11933650076389313,0.25784571287349106,-1.6799635960423878,-2.986860360662712,-0.9611856341362,-0.2549980878829956,0.10534884035587311
1727340425226,9i,8.0062920993268,2.8s : 4.3s,1.061021962558055,0.7790181730588925,-0.7163607478141785,1.0564920902252197,-3.447572708129883,0.43010371923446655,0.640438437461853,0.10825300216674805,0.29134770104285596,-1.6672675532539505,-2.99152505405092,-0.9534038305282593,-0.28724339604377747,0.09226243197917938
1727340425236,9i,8.0062920993268,2.8s : 4.3s,1.1050396674025327,0.7506825831968647,-0.9752737879753113,1.010883092880249,-3.8232805728912354,0.372188925743103,0.6488349437713623,0.06334792822599411,0.32828395053970133,-1.655499955568744,-2.9966581345280736,-0.9432032108306885,-0.32241910696029663,0.08008435368537903
1727340425246,9i,8.0062920993268,2.8s : 4.3s,1.1637385796240158,0.6637659460832462,-1.3817085027694702,1.169363260269165,-4.029346942901611,0.3298565149307251,0.5756850242614746,0.019148461520671844,0.3684174635613363,-1.6415483739198093,-3.0059094911965833,-0.9305644035339355,-0.36013954877853394,0.06594941765069962
1727340425256,9i,8.0062920993268,2.8s : 4.3s,1.231298840324114,0.5671356544517938,-1.8846100568771362,1.5589275360107422,-4.069192409515381,0.33262062072753906,0.4578781723976135,-0.03679609298706055,0.4097547072539861,-1.622464753828641,-3.020733590534128,-0.9159945845603943,-0.39838436245918274,0.04737015813589096
1727340425266,9i,8.0062920993268,2.8s : 4.3s,1.3120294001806347,0.548453982314473,-2.2305359840393066,2.140202760696411,-4.373676776885986,0.379980206489563,0.39005163311958313,-0.06539523601531982,0.45251853733199926,-1.5950560301809125,-3.041914073608795,-0.8990840911865234,-0.43723195791244507,0.021815793588757515
1727340425276,9i,8.0062920993268,2.8s : 4.3s,1.40128696646975,0.5648435956462646,-2.1610987186431885,2.354368209838867,-4.632841110229492,0.4042391777038574,0.3675544559955597,-0.1433272361755371,0.4977484805081006,-1.5612287630364883,-3.066356858367833,-0.8786195516586304,-0.477448433637619,-0.008406504988670349
1727340425286,9i,8.0062920993268,2.8s : 4.3s,1.4928727653966416,0.6042262741626547,-2.0392351150512695,2.516392469406128,-4.721761703491211,0.3985787034034729,0.33352071046829224,-0.30820178985595703,0.5439042571503788,-1.5243144317888853,-3.091943910147213,-0.8547705411911011,-0.5174807906150818,-0.03975999355316162
1727340425296,9i,8.0062920993268,2.8s : 4.3s,1.5872746434930636,0.6710072597027442,-2.0477588176727295,2.844033718109131,-4.777899742126465,0.42089688777923584,0.364237904548645,-0.37473630905151367,0.5897986856759767,-1.4827471844184046,-3.1196622557032514,-0.8278334736824036,-0.5561937093734741,-0.07307898253202438
1727340425306,9i,8.0062920993268,2.8s : 4.3s,1.6858630204723477,0.6866137955607534,-2.0651438236236572,3.27313232421875,-4.860984802246094,0.41596150398254395,0.41690880060195923,-0.3529894948005676,0.6352665965737374,-1.4340599443084787,3.1318977246681197,-0.797400712966919,-0.5933921337127686,-0.10971833765506744
1727340425316,9i,8.0062920993268,2.8s : 4.3s,1.7896451446370536,0.6532082493785932,-1.903969407081604,3.722432851791382,-5.044372081756592,0.37900304794311523,0.437519371509552,-0.3026788830757141,0.6807006429669955,-1.377675196100698,3.096760469213797,-0.7626850605010986,-0.6293376684188843,-0.14914944767951965
1727340425326,9i,8.0062920993268,2.8s : 4.3s,1.897942751039754,0.5890443508434203,-1.5689215660095215,4.095422744750977,-5.277572154998779,0.33265453577041626,0.3989167809486389,-0.2778121829032898,0.7271052213726383,-1.3144269535341144,3.059493876157122,-0.7226842641830444,-0.664709746837616,-0.18944279849529266
1727340425336,9i,8.0062920993268,2.8s : 4.3s,2.0074159558037508,0.5161800034839746,-1.2750543355941772,4.18337345123291,-5.429682731628418,0.27782994508743286,0.3531672954559326,-0.25401806831359863,0.7743505538561629,-1.2460203304950979,3.0200801519382194,-0.677503228187561,-0.6992519497871399,-0.22811420261859894
1727340425346,9i,8.0062920993268,2.8s : 4.3s,2.1150101178460816,0.49163352282650324,-1.27894127368927,3.987649440765381,-5.450608253479004,0.23986756801605225,0.34136849641799927,-0.26006656885147095,0.8208180502602258,-1.1733553402754977,2.9758980430913575,-0.6284934282302856,-0.7317036986351013,-0.26382899284362793
1727340425356,9i,8.0062920993268,2.8s : 4.3s,2.2151713867202067,0.5025457903699374,-1.7722156047821045,3.0999674797058105,-5.361910820007324,0.23041993379592896,0.336577832698822,-0.2935545742511749,0.863421169522078,-1.0964956816522082,2.9210461414287447,-0.5781064033508301,-0.7600702047348022,-0.2967929542064667
1727340425366,9i,8.0062920993268,2.8s : 4.3s,2.2852452215827808,0.48438435716171996,-1.950552225112915,1.585659146308899,-4.887036323547363,0.26588118076324463,0.3070846199989319,-0.2638833820819855,0.8989938467593387,-1.0221466259663148,2.8553181384164623,-0.5310481190681458,-0.7827010750770569,-0.32460257411003113
1727340425376,9i,8.0062920993268,2.8s : 4.3s,2.309402277833133,0.47814493183881057,-1.657963514328003,0.07198315113782883,-4.000202655792236,0.35245415568351746,0.2503712773323059,-0.20423728227615356,0.9262921362019446,-0.962903523991957,2.790700314139591,-0.49317046999931335,-0.7993977665901184,-0.3431415557861328
1727340425386,9i,8.0062920993268,2.8s : 4.3s,2.2937033517148,0.5153635042408453,-1.1277769804000854,-1.0337539911270142,-3.1680421829223633,0.4152851998806,0.24102729558944702,-0.18719932436943054,0.9469364609156197,-0.9241526874978063,2.7361445092594128,-0.466234028339386,-0.8116296529769897,-0.35197022557258606
1727340425396,9i,8.0062920993268,2.8s : 4.3s,2.250341355431709,0.5244302127476129,-0.621434211730957,-1.25625479221344,-2.3904361724853516,0.3750724196434021,0.25774049758911133,-0.2606099843978882,0.9636476121615429,-0.9026736540231673,2.695126164958745,-0.4478565752506256,-0.8212780952453613,-0.3534497916698456
1727340425406,9i,8.0062920993268,2.8s : 4.3s,2.197488181925801,0.6058057934302848,-0.6178762316703796,-1.0063793659210205,-1.880195140838623,0.3119305372238159,0.21014076471328735,-0.4749114215373993,0.9764565836724045,-0.8880951637540104,2.6637084866731806,-0.43445834517478943,-0.8285183906555176,-0.3532748818397522
1727340425416,9i,8.0062920993268,2.8s : 4.3s,2.1498527294931766,0.6677799126043774,-0.9248228073120117,-0.8375067710876465,-1.7777812480926514,0.26100316643714905,0.1316443681716919,-0.6003974676132202,0.9854728366043828,-0.8712140729962697,2.6323830109003774,-0.42270031571388245,-0.8335334062576294,-0.35573381185531616
1727340425426,9i,8.0062920993268,2.8s : 4.3s,2.113409333097837,0.6623828267234043,-1.2368314266204834,-0.5901198983192444,-1.880519151687622,0.21888256072998047,0.0004335641860961914,-0.6251729726791382,0.9922177624689156,-0.8480058219265326,2.595979487176256,-0.41010546684265137,-0.8372408151626587,-0.3617200553417206
1727340425436,9i,8.0062920993268,2.8s : 4.3s,2.09155508112323,0.6987359451321926,-1.6231237649917603,-0.31750941276550293,-2.0882205963134766,0.22382497787475586,-0.14032632112503052,-0.6468715667724609,0.9972644672457011,-0.8157657717718197,2.5522475590220397,-0.39515042304992676,-0.8399898409843445,-0.37185126543045044
1727340425446,9i,8.0062920993268,2.8s : 4.3s,2.0833485504083473,0.6711245087865323,-1.9572745561599731,-0.1600887030363083,-2.33130145072937,0.25824692845344543,-0.21642684936523438,-0.5804102420806885,1.0004408231368425,-0.7741713667774679,2.499998161001745,-0.37747886776924133,-0.8417090773582458,-0.386051207780838
1727340425456,9i,8.0062920993268,2.8s : 4.3s,2.0846887740139457,0.5880965552734797,-2.0931925773620605,-0.05816845968365669,-2.5519542694091797,0.2924976646900177,-0.2249796986579895,-0.457915723323822,1.0021523389249518,-0.7256341260564185,2.441121245993746,-0.3573472797870636,-0.8426319360733032,-0.40283289551734924
1727340425466,9i,8.0062920993268,2.8s : 4.3s,2.0912307481002843,0.4982552879267312,-1.8483439683914185,-0.056826669722795486,-2.8373429775238037,0.3027809262275696,-0.18309426307678223,-0.35079699754714966,1.0042243440194012,-0.6738592859881531,2.3790993476242885,-0.334930956363678,-0.8437458872795105,-0.4194212257862091
1727340425476,9i,8.0062920993268,2.8s : 4.3s,2.1036578792232734,0.4866220558416277,-1.484143614768982,-0.03329950571060181,-3.217700958251953,0.2786421775817871,-0.17035388946533203,-0.3607479929924011,1.009246138205187,-0.6205704451111147,2.3154134847298775,-0.309647798538208,-0.8464306592941284,-0.43321287631988525
1727340425486,9i,8.0062920993268,2.8s : 4.3s,2.1229238596815434,0.5783433777888252,-1.4053230285644531,0.06593724340200424,-3.4959723949432373,0.22501996159553528,-0.2563610076904297,-0.46703973412513733,1.016174067916579,-0.5628826605042954,2.247622643654857,-0.2810194492340088,-0.8500994443893433,-0.44537508487701416
1727340425496,9i,8.0062920993268,2.8s : 4.3s,2.140136664837562,0.6735901878809687,-1.3959330320358276,-0.001926226308569312,-3.466165781021118,0.18535804748535156,-0.3398183584213257,-0.551261842250824,1.021866020589004,-0.5018547072444993,2.176536665605832,-0.25100114941596985,-0.8530831336975098,-0.4574359655380249
1727340425506,9i,8.0062920993268,2.8s : 4.3s,2.1457726348167085,0.7160733135647315,-1.3639159202575684,-0.225783109664917,-3.1310791969299316,0.18665899336338043,-0.37024641036987305,-0.5838124752044678,1.0247349614036234,-0.44442858605063296,2.108008365398259,-0.2232798933982849,-0.854576587677002,-0.468876451253891
1727340425516,9i,8.0062920993268,2.8s : 4.3s,2.140997820814011,0.7176297830972819,-1.5020519495010376,-0.4329666793346405,-2.731174945831299,0.21192915737628937,-0.38495302200317383,-0.5673532485961914,1.023653879747216,-0.39436225367948075,2.045500093154,-0.19988973438739777,-0.8540146350860596,-0.4803154766559601
1727340425526,9i,8.0062920993268,2.8s : 4.3s,2.1314288087009374,0.706048763934884,-1.6771275997161865,-0.595975935459137,-2.4788920879364014,0.2355785071849823,-0.3952810764312744,-0.5355002284049988,1.018226961015223,-0.3507046922551465,1.988297596130323,-0.18032622337341309,-0.8511787056922913,-0.4929271936416626
1727340425536,9i,8.0062920993268,2.8s : 4.3s,2.121622773042345,0.677184236062279,-1.7375080585479736,-0.7209678888320923,-2.4196510314941406,0.2358780950307846,-0.39513349533081055,-0.4967992901802063,1.009929646303547,-0.311360902731146,1.9342001431778826,-0.1629561185836792,-0.8467944264411926,-0.5063442587852478
1727340425546,9i,8.0062920993268,2.8s : 4.3s,2.112823229777634,0.6234017028400227,-1.6010311841964722,-0.8257126808166504,-2.493696928024292,0.20502489805221558,-0.38636428117752075,-0.4442039132118225,1.0009206572246894,-0.2745008981333693,1.8813688609517405,-0.14624783396720886,-0.8419680595397949,-0.5193278193473816
1727340425555,9i,8.0062920993268,2.8s : 4.3s,2.104249223232728,0.5718960245990411,-1.4188929796218872,-0.8916182518005371,-2.562013626098633,0.15955792367458344,-0.36578625440597534,-0.40964221954345703,0.992815316635846,-0.23936575275849917,1.8292772867622025,-0.12952840328216553,-0.8375673890113831,-0.5307571887969971
1727340425565,9i,8.0062920993268,2.8s : 4.3s,2.0937805353657737,0.5942146490524103,-1.3294061422348022,-0.8972625136375427,-2.5083529949188232,0.12837055325508118,-0.37971705198287964,-0.4386650323867798,0.9850422772538496,-0.20606054428690063,1.7787429093005347,-0.11311158537864685,-0.833295464515686,-0.5411326885223389
1727340425575,9i,8.0062920993268,2.8s : 4.3s,2.0794492448810304,0.613392009284249,-1.2794462442398071,-0.9212589263916016,-2.364597797393799,0.12308172136545181,-0.40326976776123047,-0.445504367351532,0.9769069341480995,-0.17572465883098354,1.7313439273462488,-0.09782824665307999,-0.8287705183029175,-0.5509711503982544
1727340425585,9i,8.0062920993268,2.8s : 4.3s,2.0618945944803295,0.5992527019494852,-1.2635043859481812,-0.9341679811477661,-2.2198455333709717,0.12001737952232361,-0.4206860661506653,-0.4095398187637329,0.9680377208323125,-0.1488922023874003,1.6876796870385993,-0.08409801870584488,-0.8237748742103577,-0.5606448650360107
1727340425595,9i,8.0062920993268,2.8s : 4.3s,2.0424725099135994,0.5588194528720448,-1.2182825803756714,-0.9592605233192444,-2.1319761276245117,0.11064143478870392,-0.4328651428222656,-0.33565670251846313,0.9587292787444353,-0.12503838244822044,1.6470787251796446,-0.07165504992008209,-0.8184621334075928,-0.5700747966766357
1727340425605,9i,8.0062920993268,2.8s : 4.3s,2.0221208031636,0.537425599394154,-1.1704468727111816,-0.9839155673980713,-2.0750420093536377,0.09451471269130707,-0.44649267196655273,-0.28379136323928833,0.949230309462789,-0.10337790909028652,1.608655002721539,-0.060090720653533936,-0.8129675388336182,-0.5792002081871033
