timestamp,club,max_speed,tempo,speed,acc,rotation.x,rotation.y,rotation.z,userAcceleration.x,userAcceleration.y,userAcceleration.z,pitch,roll,yaw,gravity.x,gravity.y,gravity.z
1727331521877,9i,16.59346405646754,0.5s : 2.6s,5.631957262175858,1.8983264813741134,5.205841064453125,0.8398828506469727,-6.52881383895874,1.451077938079834,0.9812971949577332,0.7314862012863159,-1.4235380549722156,1.9717807596240071,2.103611798655061,0.13508844375610352,0.9891771078109741,0.05727130174636841
1727331521887,9i,16.59346405646754,0.5s : 2.6s,5.883504799598428,1.8872320330964156,5.264497756958008,0.7972579002380371,-6.965134620666504,1.427799940109253,1.0186011791229248,0.6967666149139404,-1.502665480526991,1.6605050535590162,1.7824997614350186,0.06780553609132767,0.9976800084114075,0.006099117919802666
1727331521897,9i,16.59346405646754,0.5s : 2.6s,5.907970438983938,1.9029810347506633,5.084425926208496,0.6437112092971802,-7.158106327056885,1.4000468254089355,1.0718793869018555,0.7157375812530518,-1.5253479692170049,-0.05862598896280523,0.05459211656199777,-0.0026621974539011717,0.9989674091339111,-0.04535781219601631
1727331521907,9i,16.59346405646754,0.5s : 2.6s,5.805528644551146,1.970215165063328,4.825864315032959,0.3799886107444763,-7.169825553894043,1.450921893119812,1.115067958831787,0.7302033305168152,-1.4504393575798618,-0.6597096914403122,-0.5532445271980898,-0.07358729094266891,0.9927658438682556,-0.09487301856279373
1727331521917,9i,16.59346405646754,0.5s : 2.6s,5.7202601758636185,1.9685599824836837,4.536365032196045,0.07270164042711258,-7.216203689575195,1.5321766138076782,1.0275110006332397,0.6869384050369263,-1.367625451165759,-0.7959611082635591,-0.6934292438742516,-0.14417609572410583,0.979431688785553,-0.1411619633436203
1727331521927,9i,16.59346405646754,0.5s : 2.6s,5.681535276478645,1.8479283684185537,4.273168087005615,-0.15828365087509155,-7.306986331939697,1.5601835250854492,0.782351016998291,0.6071190237998962,-1.28446751268679,-0.8626453294442928,-0.7616227934442865,-0.21452614665031433,0.9592872262001038,-0.183702751994133
1727331521937,9i,16.59346405646754,0.5s : 2.6s,5.55877941742543,1.7245238855284566,3.7825424671173096,-0.3680139482021332,-7.360036849975586,1.5422680377960205,0.5239470601081848,0.5664551258087158,-1.2020899461693488,-0.909804175245481,-0.8086153129236548,-0.28450125455856323,0.9327943325042725,-0.22125545144081116
1727331521947,9i,16.59346405646754,0.5s : 2.6s,5.300403559805421,1.6771109334153838,3.388498067855835,-0.5211764574050903,-7.115442276000977,1.5176595449447632,0.39969611167907715,0.5913151502609253,-1.1228288105199318,-0.9488380139692392,-0.8462185683588354,-0.35202541947364807,0.9013292789459229,-0.25235629081726074
1727331521957,9i,16.59346405646754,0.5s : 2.6s,5.173500049721232,1.670643438910217,3.60817551612854,-0.5547477006912231,-6.790063858032227,1.5139153003692627,0.3444356918334961,0.6168257594108582,-1.0461372631150943,-0.9754354095071062,-0.870158027264794,-0.4147332012653351,0.8654947876930237,-0.2809186577796936
1727331521967,9i,16.59346405646754,0.5s : 2.6s,5.223943458727996,1.6288105466308016,3.8791756629943848,-0.5622681975364685,-6.7254815101623535,1.5177298784255981,0.1646270751953125,0.5678184032440186,-0.9693603012777711,-0.9908061963601281,-0.8816513192314934,-0.47329628467559814,0.82452392578125,-0.3100821077823639
1727331521977,9i,16.59346405646754,0.5s : 2.6s,5.190019055083931,1.5717857339976542,3.7694034576416016,-0.6370406746864319,-6.722912788391113,1.4376521110534668,-0.07361650466918945,0.6310684680938721,-0.8920477049234464,-1.0023357076043158,-0.888682439473488,-0.5290828347206116,0.7783589959144592,-0.3379775285720825
1727331521987,9i,16.59346405646754,0.5s : 2.6s,5.009003777388647,1.5810479918097744,3.481868267059326,-0.7545623779296875,-6.558931827545166,1.3239586353302002,-0.20597678422927856,0.8392972350120544,-0.8166182191531396,-1.014923937240891,-0.8960903134209108,-0.5816032886505127,0.7288345098495483,-0.3613002896308899
1727331521997,9i,16.59346405646754,0.5s : 2.6s,4.802512776223955,1.5954236242817257,3.459470510482788,-0.7954522967338562,-6.213934898376465,1.3258291482925415,-0.24512958526611328,0.8529156446456909,-0.7441960240040763,-1.026656803390101,-0.9016957590724444,-0.6293874979019165,0.6773806214332581,-0.38082385063171387
1727331522007,9i,16.59346405646754,0.5s : 2.6s,4.640533532019768,1.5820596478339461,3.6262755393981934,-0.7405934929847717,-5.84113883972168,1.3375754356384277,-0.30904948711395264,0.7863161563873291,-0.6744449814437141,-1.0348261273940635,-0.9024541909242865,-0.671529233455658,0.6244639158248901,-0.39886489510536194
1727331522017,9i,16.59346405646754,0.5s : 2.6s,4.447249299383764,1.5818558035639314,3.5663275718688965,-0.6527547240257263,-5.547263145446777,1.33336341381073,-0.34141862392425537,0.7796429395675659,-0.6071874497653705,-1.0401514997681078,-0.8996059811686445,-0.7083176970481873,0.5705599188804626,-0.41562914848327637
1727331522027,9i,16.59346405646754,0.5s : 2.6s,4.158975720875771,1.5847531093991298,3.141061544418335,-0.5078862309455872,-5.318249225616455,1.335275650024414,-0.3182663321495056,0.7919519543647766,-0.5433566619498934,-1.0447737853405157,-0.8975235853854331,-0.7402592897415161,0.5170121192932129,-0.42978453636169434
1727331522037,9i,16.59346405646754,0.5s : 2.6s,3.7438072046645403,1.607785040592404,2.558690309524536,-0.3894652724266052,-4.942065715789795,1.3826017379760742,-0.26090550422668457,0.7780189514160156,-0.4847115369014171,-1.0498279250586406,-0.8988197985746059,-0.767428457736969,0.46595314145088196,-0.4403876066207886
1727331522046,9i,16.59346405646754,0.5s : 2.6s,3.2759360884641957,1.6650560707979445,2.17629075050354,-0.4236665666103363,-4.349025726318359,1.4876666069030762,-0.2270461916923523,0.7125375866889954,-0.43269862680470406,-1.055139846363213,-0.9016554770575599,-0.789790689945221,0.41932225227355957,-0.4476602077484131
1727331522056,9i,16.59346405646754,0.5s : 2.6s,2.878417050309283,1.734754138606186,1.9101638793945312,-0.5791688561439514,-3.796475887298584,1.626962423324585,-0.2556040287017822,0.5450062155723572,-0.38738226254067687,-1.0609852698900268,-0.9039860925048653,-0.8081606030464172,0.377765953540802,-0.4518512189388275
1727331522066,9i,16.59346405646754,0.5s : 2.6s,2.5286487133027395,1.7954116244894245,1.4422293901443481,-0.705662727355957,-3.4088077545166016,1.7015371322631836,-0.33273905515670776,0.46643221378326416,-0.34777941487297204,-1.0685293802870577,-0.9067700116529037,-0.8240194320678711,0.34081101417541504,-0.4525924026966095
1727331522076,9i,16.59346405646754,0.5s : 2.6s,2.179463964800556,1.7991856057625377,0.8168230652809143,-0.7302942872047424,-3.0572762489318848,1.6804946660995483,-0.4274364709854126,0.479900598526001,-0.3141230174059523,-1.0776290829901711,-0.912655833942291,-0.8377364277839661,0.3089825212955475,-0.4502526521682739
1727331522086,9i,16.59346405646754,0.5s : 2.6s,1.8874283579499587,1.7864932680739753,0.31921568512916565,-0.7113577127456665,-2.7022793292999268,1.6043633222579956,-0.5580918788909912,0.5532720685005188,-0.28619551677178695,-1.0875653018362228,-0.9216289920179626,-0.8494805693626404,0.2823045551776886,-0.44574326276779175
1727331522096,9i,16.59346405646754,0.5s : 2.6s,1.670028760618261,1.7614067337054466,0.0630858913064003,-0.6735890507698059,-2.3948352336883545,1.49528169631958,-0.6922434568405151,0.6224831938743591,-0.26285642455349817,-1.0973165384885044,-0.9321249773588116,-0.8594174385070801,0.2598399221897125,-0.44032368063926697
1727331522106,9i,16.59346405646754,0.5s : 2.6s,1.476018723226442,1.7074835922084532,-0.0969218835234642,-0.5568369626998901,-2.125598192214966,1.3597049713134766,-0.7410640120506287,0.7193933129310608,-0.24283324825363575,-1.1062792252607878,-0.9428354995918306,-0.8678075075149536,0.24045370519161224,-0.434847354888916
1727331522116,9i,16.59346405646754,0.5s : 2.6s,1.21177789431059,1.6221247866896151,-0.2080497443675995,-0.2689892053604126,-1.7733979225158691,1.2410863637924194,-0.6860175728797913,0.7876378297805786,-0.22605439854426224,-1.1128875772052937,-0.9532150740178799,-0.8741582632064819,0.22413405776023865,-0.43082618713378906
1727331522126,9i,16.59346405646754,0.5s : 2.6s,0.8969266218023312,1.5571360848789337,-0.30238714814186096,0.09478359669446945,-1.2984267473220825,1.1666970252990723,-0.5792739987373352,0.8531895875930786,-0.2133192293228321,-1.115851465292525,-0.962499643975986,-0.8779243230819702,0.2117050588130951,-0.4294528663158417
1727331522136,9i,16.59346405646754,0.5s : 2.6s,0.67678217233137,1.5382332154408411,-0.4644239842891693,0.5518240928649902,-0.7048834562301636,1.135636568069458,-0.4878392219543457,0.9156985878944397,-0.20595166243881088,-1.114298834858267,-0.970493142868755,-0.8786328434944153,0.2044987976551056,-0.43149134516716003
1727331522146,9i,16.59346405646754,0.5s : 2.6s,0.7640793425861337,1.565393452345699,-0.6700960993766785,0.9142591953277588,-0.10705924779176712,1.1464431285858154,-0.4599209427833557,0.9615599513053894,-0.2048660447494635,-1.1082968154744135,-0.977456959022645,-0.8762252926826477,0.2034360021352768,-0.43685588240623474
1727331522156,9i,16.59346405646754,0.5s : 2.6s,1.040953537134738,1.6213131831672347,-0.995384931564331,1.1229125261306763,0.3928922414779663,1.203021764755249,-0.5034457445144653,0.9632951021194458,-0.2098782250750768,-1.0994057612815,-0.9842730099918751,-0.8713871836662292,0.20834079384803772,-0.44416043162345886
1727331522166,9i,16.59346405646754,0.5s : 2.6s,1.3087995049890129,1.7040745602439349,-1.285491704940796,1.2048673629760742,0.8363059759140015,1.2961688041687012,-0.5698351263999939,0.9482111930847168,-0.22077908028553708,-1.0893963000355478,-0.9918229414973099,-0.864833414554596,0.21898986399173737,-0.4517817497253418
1727331522176,9i,16.59346405646754,0.5s : 2.6s,1.367013794392101,1.7901420118036941,-1.371166467666626,0.9257025122642517,1.1884722709655762,1.377716302871704,-0.6541422009468079,0.9373388886451721,-0.23765666710139882,-1.0802549999528348,-0.9981737378614582,-0.8572848439216614,0.23542581498622894,-0.45786184072494507
1727331522186,9i,16.59346405646754,0.5s : 2.6s,1.716749259286795,1.8762248772013743,-1.5768826007843018,0.17960935831069946,2.0063579082489014,1.450544834136963,-0.735075831413269,0.9358434677124023,-0.25938270218990206,-1.0715727593566318,-1.0036072401358453,-0.8485856056213379,0.25648394227027893,-0.462729275226593
1727331522196,9i,16.59346405646754,0.5s : 2.6s,2.266932609578108,2.020049097462567,-1.9329581260681152,0.348539799451828,2.7483184337615967,1.6175718307495117,-0.748802661895752,0.950449526309967,-0.28682266446926824,-1.0635928330339948,-1.0086868261479032,-0.8383970260620117,0.28290611505508423,-0.4658913016319275
1727331522206,9i,16.59346405646754,0.5s : 2.6s,2.684707647292967,1.9921648554389815,-2.4084904193878174,1.0009158849716187,3.0334579944610596,1.6039583683013916,-0.7927906513214111,0.8760829567909241,-0.321220276755838,-1.0559213904816307,-1.014287485908521,-0.8258364796638489,0.3157246708869934,-0.4672388732433319
1727331522216,9i,16.59346405646754,0.5s : 2.6s,3.3382688210215283,1.975111679898796,-3.1443917751312256,1.2318342924118042,3.652480125427246,1.5543785095214844,-0.878003716468811,0.8450343608856201,-0.3638702744034321,-1.0476197513068268,-1.0221005686610674,-0.8095208406448364,0.3558937609195709,-0.46692147850990295
1727331522226,9i,16.59346405646754,0.5s : 2.6s,4.145489241246862,2.096077658182315,-4.131694316864014,1.4455888271331787,4.3587470054626465,1.6124316453933716,-1.000495433807373,0.8902890682220459,-0.4165849103327899,-1.0389619429601231,-1.034187012775934,-0.7881671786308289,0.4046398103237152,-0.46374478936195374
1727331522236,9i,16.59346405646754,0.5s : 2.6s,5.036727610748683,2.254736015635506,-5.08357048034668,1.8598986864089966,5.198929309844971,1.6744039058685303,-1.2206741571426392,0.8889098167419434,-0.4811003298266416,-1.0300145169178156,-1.0512486267664725,-0.759990394115448,0.46275487542152405,-0.4563688039779663
1727331522246,9i,16.59346405646754,0.5s : 2.6s,5.98735103579968,2.52126947420363,-5.8519134521484375,2.459735870361328,6.269430637359619,1.8238967657089233,-1.4798636436462402,0.9166263937950134,-0.5583174542550196,-1.0183916740552912,-1.0708618979949363,-0.7219986319541931,0.5297598838806152,-0.4450533986091614
1727331522256,9i,16.59346405646754,0.5s : 2.6s,7.017096435623839,2.828307462384714,-6.432318210601807,3.3175671100616455,7.5468645095825195,2.083310127258301,-1.6516882181167603,0.9649186730384827,-0.6492631722216371,-1.0001733070505958,-1.0893980047864706,-0.6703311204910278,0.60459965467453,-0.4302506148815155
1727331522266,9i,16.59346405646754,0.5s : 2.6s,7.961724946965021,3.196712120658382,-6.828187465667725,3.917447090148926,8.876049041748047,2.504641056060791,-1.6751036643981934,1.0675997734069824,-0.7543825637725806,-0.9720823045986651,-1.1026322356694815,-0.6019462943077087,0.6848388910293579,-0.4106782078742981
1727331522276,9i,16.59346405646754,0.5s : 2.6s,8.580304906591879,3.8223840534423354,-7.212409973144531,3.72672176361084,9.877691268920898,3.156818389892578,-1.6910709142684937,1.3361873626708984,-0.871277803928342,-0.9362360698789761,-1.1065092158554768,-0.5185127258300781,0.7651522755622864,-0.3816889226436615
1727331522286,9i,16.59346405646754,0.5s : 2.6s,9.31286879125925,4.716942818369625,-8.119187355041504,2.9969351291656494,10.848005294799805,4.03218936920166,-1.7631397247314453,1.697744607925415,-0.9996747682486571,-0.8994778469467528,-1.1027183286178774,-0.4232722818851471,0.8412952423095703,-0.3362485468387604
1727331522296,9i,16.59346405646754,0.5s : 2.6s,10.139402815759928,5.611255289928033,-8.907175064086914,1.9925360679626465,12.040557861328125,4.993774890899658,-1.7686772346496582,1.8493726253509521,-1.1419348518793748,-0.8616399129993181,-1.0878738917619095,-0.3155827522277832,0.9094398021697998,-0.27078983187675476
1727331522306,9i,16.59346405646754,0.5s : 2.6s,10.884913624030373,6.328530095519867,-9.575860023498535,1.738591194152832,12.975625038146973,5.82356595993042,-1.777960181236267,1.7248855829238892,-1.296240629182291,-0.799611266142057,-1.0406124582982732,-0.19441565871238708,0.9625457525253296,-0.18896624445915222
1727331522316,9i,16.59346405646754,0.5s : 2.6s,11.422288214449171,6.9642695907271905,-9.786646842956543,1.4464725255966187,13.850401878356934,6.614602088928223,-1.4947376251220703,1.585512399673462,-1.457000336138468,-0.565506418572444,-0.82011275231517,-0.06084555387496948,0.9935322403907776,-0.09587306529283524
1727331522326,9i,16.59346405646754,0.5s : 2.6s,12.194762416126705,8.22167726390828,-8.400540351867676,-1.1192225217819214,16.0745849609375,7.986798286437988,-0.6647107601165771,1.8344453573226929,-1.480411438619522,1.5286564912696872,1.2763253728621278,0.0901821181178093,0.9959180951118469,-0.003802510676905513
1727331522336,9i,16.59346405646754,0.5s : 2.6s,12.346609459158712,9.846261041509461,-3.6676833629608154,-2.9941933155059814,17.778404235839844,9.624563217163086,0.3071819543838501,2.0548183917999268,-1.2986213607500097,1.7599377605232447,1.5258076660978557,0.2640325725078583,0.9631884694099426,0.05054366588592529
1727331522346,9i,16.59346405646754,0.5s : 2.6s,15.111657115507574,10.515051716368173,-1.4047504663467407,-3.3351378440856934,22.225648880004883,10.100282669067383,0.8871030807495117,2.786332845687866,-1.0925741157148745,1.7156638147007224,1.510734753229068,0.45538097620010376,0.887814462184906,0.0664352998137474
1727331522356,9i,16.59346405646754,0.5s : 2.6s,15.495007656166175,11.367029030060667,-1.8688353300094604,-2.415762424468994,22.88669204711914,10.932586669921875,0.7213581204414368,3.027794599533081,-0.8659166500934647,1.664317659512662,1.4835430155756002,0.6451109051704407,0.7616895437240601,0.06050813943147659
1727331522366,9i,16.59346405646754,0.5s : 2.6s,15.561785341730166,12.40341392147839,-7.826732158660889,-2.286883592605591,21.708215713500977,11.791147232055664,-0.895316481590271,3.7432515621185303,-0.6396701434651026,1.6634805898277898,1.5182228104059134,0.7988492250442505,0.5969308614730835,0.07425349205732346
1727331522376,9i,16.59346405646754,0.5s : 2.6s,16.59346405646754,14.551705842574513,-14.59498405456543,-3.5093066692352295,19.648605346679688,13.507614135742188,-2.6884400844573975,4.6977434158325195,-0.42178239845270266,1.687037051361692,1.6232505300152924,0.9062038660049438,0.4093872904777527,0.10581480711698532
1727331522386,9i,16.59346405646754,0.5s : 2.6s,16.40423308349559,16.6577607867442,-18.128591537475586,-6.054181098937988,15.23917293548584,15.295693397521973,-3.263457775115967,5.733463287353516,-0.226980205758478,1.6879344170901718,1.7747924236356203,0.9676733613014221,0.22503621876239777,0.1138727143406868
1727331522396,9i,16.59346405646754,0.5s : 2.6s,16.469454511903546,18.125618720241913,-18.111804962158203,-8.967560768127441,13.92255687713623,16.671146392822266,-1.4970780611038208,6.954832077026367,-0.06790042310018912,1.6365334218063514,1.9440386529726772,0.9955407977104187,0.06784825772047043,0.06553839147090912
1727331522406,9i,16.59346405646754,0.5s : 2.6s,15.37704855267429,17.556540186150052,-14.917970657348633,-10.210555076599121,14.079830169677734,15.911892890930176,1.2335968017578125,7.315873622894287,0.07310898425908478,1.538660323932951,2.108622733944914,0.9968138933181763,-0.07304387539625168,-0.03204464539885521
1727331522416,9i,16.59346405646754,0.5s : 2.6s,13.694054939112595,15.733956308563824,-10.113176345825195,-10.167540550231934,14.517125129699707,14.315410614013672,2.6696064472198486,5.958154201507568,0.20101735728734663,1.4166812119705077,2.2480287635172878,0.9682504534721375,-0.19966630637645721,-0.15041477978229523
1727331522426,9i,16.59346405646754,0.5s : 2.6s,12.524793571065738,14.436761542937822,-6.118203163146973,-9.437995910644531,14.893659591674805,13.389126777648926,2.1957266330718994,4.932560443878174,0.3235337511993315,1.288255462768328,2.361780752345074,0.9105251431465149,-0.31791895627975464,-0.264332115650177
1727331522436,9i,16.59346405646754,0.5s : 2.6s,11.94415277617757,13.333233363487038,-3.982778310775757,-8.661588668823242,15.029825210571289,12.542040824890137,1.1334433555603027,4.380368709564209,0.442446522746262,1.1575892207034348,2.4667187480520343,0.8276488780975342,-0.4281516969203949,-0.36288222670555115
1727331522446,9i,16.59346405646754,0.5s : 2.6s,11.684713090940127,12.949132633303252,-3.490058183670044,-8.318888664245605,14.892436981201172,12.33663558959961,0.025308191776275635,3.9353294372558594,0.5525573271087991,1.0167847334408484,2.583203855371895,0.7238655090332031,-0.5248656868934631,-0.4478110074996948
1727331522456,9i,16.59346405646754,0.5s : 2.6s,11.175607248549277,13.28236795526345,-2.949509859085083,-7.71663761138916,14.459606170654297,12.691287994384766,-0.4130204916000366,3.8963985443115234,0.6470858968039654,0.8588879974492939,2.7207311220462227,0.6040608882904053,-0.6028639674186707,-0.5212153196334839
1727331522466,9i,16.59346405646754,0.5s : 2.6s,10.733924981334967,13.72304729517117,-1.3824902772903442,-7.001201152801514,14.314692497253418,13.205805778503418,-0.07551246881484985,3.731356143951416,0.7289818123560446,0.6866677614942744,2.875921405437738,0.4728437066078186,-0.6661105751991272,-0.5768150091171265
1727331522476,9i,16.59346405646754,0.5s : 2.6s,10.656446417909255,14.029354545677801,0.34854474663734436,-6.558883190155029,14.457457542419434,13.506020545959473,0.6632806062698364,3.737680673599243,0.8053612301281017,0.5004347683891246,3.049388987657811,0.33243468403816223,-0.7210809588432312,-0.6078892946243286
1727331522486,9i,16.59346405646754,0.5s : 2.6s,10.996700719013747,14.343241562493338,1.3342797756195068,-6.459178447723389,15.000561714172363,13.624588012695312,1.8996230363845825,4.060863494873047,0.8726459597973982,0.28242273890335673,-3.025571342485356,0.17913813889026642,-0.7660324573516846,-0.6173361539840698
1727331522496,9i,16.59346405646754,0.5s : 2.6s,10.376274868047018,13.206086864754823,0.6168907284736633,-5.745368957519531,14.341682434082031,12.239456176757812,3.0980958938598633,3.8727567195892334,0.9099725559870316,0.032225893363732626,-2.7804605982520885,0.01977577991783619,-0.7894868850708008,-0.6134487390518188
1727331522506,9i,16.59346405646754,0.5s : 2.6s,8.96515692734574,11.242181962010832,-1.9679371118545532,-4.842756748199463,12.29409122467041,10.185083389282227,3.285719871520996,3.4430766105651855,0.8945160373478598,-0.203121783750977,-2.549233704680287,-0.12626075744628906,-0.7799062728881836,-0.613028883934021
1727331522516,9i,16.59346405646754,0.5s : 2.6s,7.9323100341674575,9.594013893229622,-5.74279260635376,-4.419909954071045,9.338168144226074,8.877042770385742,2.3023264408111572,2.8182454109191895,0.8277239069402726,-0.3699110206748504,-2.3927905742925546,-0.24459612369537354,-0.736393392086029,-0.6307912468910217
1727331522526,9i,16.59346405646754,0.5s : 2.6s,8.439985472788221,8.238217295533302,-9.675555229187012,-4.767662048339844,6.467300891876221,7.7267584800720215,0.9853372573852539,2.6822636127471924,0.7249147957477267,-0.4622061962159443,-2.329019746612258,-0.33379900455474854,-0.6630716919898987,-0.6700106859207153
1727331522536,9i,16.59346405646754,0.5s : 2.6s,8.391248792646731,7.797659194335915,-10.56418228149414,-4.966176509857178,4.481811046600342,7.358790397644043,0.19259393215179443,2.5718865394592285,0.6085932626099492,-0.5125328738993241,-2.326842880943696,-0.4023389220237732,-0.5717138648033142,-0.7150291800498962
1727331522546,9i,16.59346405646754,0.5s : 2.6s,7.514654894279714,8.078972995624627,-7.943567276000977,-5.830961227416992,5.318908214569092,7.733405590057373,0.8504503965377808,2.1773784160614014,0.506208889440824,-0.5609357213021176,-2.3380892701663294,-0.465262770652771,-0.48486506938934326,-0.7405650019645691
1727331522556,9i,16.59346405646754,0.5s : 2.6s,6.210594354931882,8.704113975214394,-2.9678995609283447,-5.77584981918335,6.593839645385742,7.935103893280029,2.8461949825286865,2.16677188873291,0.4302885470674617,-0.6245724120093188,-2.3239035011834948,-0.5314478278160095,-0.41713306307792664,-0.7372674345970154
1727331522566,9i,16.59346405646754,0.5s : 2.6s,6.531249843794503,8.30026829616067,1.1609379053115845,-5.874776363372803,7.671972751617432,7.284040451049805,3.63242506980896,1.6256372928619385,0.38478538221771963,-0.6990225726015404,-2.2753526957047283,-0.5964186787605286,-0.3753602206707001,-0.7094994783401489
1727331522576,9i,16.59346405646754,0.5s : 2.6s,7.220799788688195,7.438189891777062,2.757817268371582,-6.406566143035889,8.193081855773926,6.449912071228027,3.214906692504883,1.8411078453063965,0.350974525313691,-0.7818777953663988,-2.2039916027054183,-0.6616585850715637,-0.34381309151649475,-0.6663336157798767
1727331522586,9i,16.59346405646754,0.5s : 2.6s,7.0239397682325135,6.552097155809871,1.9656070470809937,-6.530276298522949,7.939859867095947,5.6574554443359375,2.529667377471924,2.126959800720215,0.311986824242134,-0.8669730847039091,-2.13224969301386,-0.7255704998970032,-0.3069501519203186,-0.615896999835968
1727331522596,9i,16.59346405646754,0.5s : 2.6s,6.3079649142466705,5.848697540802595,-0.2034234255552292,-6.3352179527282715,6.941027641296387,5.140852928161621,1.9440655708312988,1.999875783920288,0.26204135168349413,-0.9439074321820513,-2.079657328701343,-0.7822105884552002,-0.25905275344848633,-0.5666024684906006
1727331522605,9i,16.59346405646754,0.5s : 2.6s,6.072474522865248,5.303440173575184,-3.6325411796569824,-5.938731670379639,5.78070592880249,4.756882190704346,1.5419291257858276,1.7666363716125488,0.19998254451434228,-1.0107365480251627,-2.0593789025251676,-0.8303382396697998,-0.1986522227525711,-0.5206493139266968
1727331522615,9i,16.59346405646754,0.5s : 2.6s,6.343969407908438,4.73103980578486,-7.089020252227783,-4.667487144470215,4.162460803985596,4.219953536987305,1.2936522960662842,1.7032890319824219,0.12784736960420798,-1.0638139983120811,-2.0791390718028406,-0.8670789003372192,-0.12749937176704407,-0.48157867789268494
1727331522625,9i,16.59346405646754,0.5s : 2.6s,7.355233506277607,4.205850549661006,-9.348913192749023,-5.073980808258057,2.6419405937194824,3.7603373527526855,1.0343759059906006,1.5745184421539307,0.055782509709181305,-1.1115925957719448,-2.1346798360512693,-0.8950114846229553,-0.05575358495116234,-0.4425450563430786
1727331522635,9i,16.59346405646754,0.5s : 2.6s,8.271718114151092,3.8335365375800587,-10.591019630432129,-6.182860374450684,1.2374967336654663,3.3302078247070312,0.8197025060653687,1.712835669517517,-0.008529320055645762,-1.1673245610393839,-2.217781231254678,-0.919670045375824,0.00852921698242426,-0.3925994038581848
1727331522645,9i,16.59346405646754,0.5s : 2.6s,7.997990843834818,4.0034394215040345,-9.575894355773926,-6.909233093261719,1.613918423652649,2.918026924133301,1.3299319744110107,2.396649122238159,-0.06121945327051206,-1.241699746020255,-2.304433941528049,-0.9445618987083435,0.06118122115731239,-0.32258278131484985
1727331522655,9i,16.59346405646754,0.5s : 2.6s,6.573767510607129,4.224866962221613,-7.325136661529541,-6.192789077758789,1.9871894121170044,2.9877769947052,2.221776247024536,1.9965970516204834,-0.106365934872914,-1.3163791405567629,-2.3801396381596747,-0.9623405933380127,0.10616548359394073,-0.25025901198387146
1727331522665,9i,16.59346405646754,0.5s : 2.6s,5.109384456791091,4.042544761595838,-4.487663269042969,-5.741277694702148,2.2059686183929443,2.8589634895324707,2.4764280319213867,1.4268146753311157,-0.14306261890876737,-1.3834156871252563,-2.432643737278154,-0.9724584221839905,0.14257511496543884,-0.18438294529914856
1727331522675,9i,16.59346405646754,0.5s : 2.6s,4.605240940329232,3.706691262408567,-2.1320607662200928,-6.196660041809082,2.0367658138275146,2.445978879928589,2.2195091247558594,1.6824169158935547,-0.17002653994911926,-1.4483860023818904,-2.4621086332858426,-0.9782055020332336,0.16920851171016693,-0.1203441396355629
1727331522685,9i,16.59346405646754,0.5s : 2.6s,4.247485657153021,3.250443060713149,-0.13736970722675323,-5.995776653289795,2.0228569507598877,1.9242252111434937,1.721230387687683,1.9748679399490356,-0.19061196929830326,-1.509966332839215,-2.4716777393241154,-0.9800723791122437,0.18945981562137604,-0.05969144031405449
1727331522695,9i,16.59346405646754,0.5s : 2.6s,4.157483785972225,2.8432109232011804,1.7102634906768799,-5.495830059051514,2.291569471359253,1.614133358001709,1.4725764989852905,1.8193241357803345,-0.20997807023633766,-1.5635380840487376,-2.46273210879772,-0.978009819984436,0.2084384560585022,-0.007098757661879063
1727331522705,9i,16.59346405646754,0.5s : 2.6s,4.111872978525884,2.611841490466227,2.812220335006714,-4.806094646453857,2.5565218925476074,1.4250432252883911,1.3891096115112305,1.6915502548217773,-0.23232904737071267,-1.6073479706417027,-2.439243972074303,-0.9724828600883484,0.23024462163448334,0.035561684519052505
1727331522715,9i,16.59346405646754,0.5s : 2.6s,3.946430635524283,2.47814893632188,3.231667995452881,-4.374508857727051,2.236650228500366,1.2748382091522217,1.3345832824707031,1.6537524461746216,-0.2559555078238399,-1.6436464727609639,-2.409520757517978,-0.9648559093475342,0.2531698942184448,0.07041450589895248
1727331522725,9i,16.59346405646754,0.5s : 2.6s,3.7699130657840567,2.244595782796829,2.789905309677124,-4.432309627532959,2.0320448875427246,1.1641130447387695,1.1491923332214355,1.5370126962661743,-0.2784329838321439,-1.6787366546215594,-2.378205016728992,-0.9558914303779602,0.2748493254184723,0.10358183085918427
1727331522735,9i,16.59346405646754,0.5s : 2.6s,3.063511375254674,2.020873238697471,0.44670945405960083,-4.291416168212891,1.4912152290344238,1.0927000045776367,0.8861340284347534,1.4507590532302856,-0.295995106536114,-1.7172217617859658,-2.3648103152694966,-0.9462767243385315,0.2916918396949768,0.13955780863761902
1727331522745,9i,16.59346405646754,0.5s : 2.6s,2.6242053542934167,2.1304786710253336,-0.27616721391677856,-3.8287949562072754,0.7452264428138733,0.9010192155838013,0.8633480072021484,1.7267698049545288,-0.3060497510769658,-1.7586540769562802,-2.3660133611362264,-0.9367554783821106,0.3012942969799042,0.17807652056217194
1727331522755,9i,16.59346405646754,0.5s : 2.6s,2.071863902651063,1.6695425529798145,-0.32907143235206604,-3.0571415424346924,0.27806004881858826,0.7395549416542053,0.8113141059875488,1.2578554153442383,-0.31019856946518076,-1.794112409927823,-2.370113493102499,-0.9286265969276428,0.3052477240562439,0.21089474856853485
1727331522765,9i,16.59346405646754,0.5s : 2.6s,1.6607069065465379,1.6161504929257724,-0.5092857480049133,-2.4135899543762207,-0.19800560176372528,0.6540655493736267,0.9733405113220215,1.112092137336731,-0.30975694299015577,-1.8229088086126732,-2.374739726487423,-0.9222998023033142,0.30482715368270874,0.23757830262184143
1727331522775,9i,16.59346405646754,0.5s : 2.6s,1.6165984100460415,1.929546225056597,-0.23990567028522491,-2.3085711002349854,-0.6449434161186218,0.5978751182556152,1.2656543254852295,1.328086256980896,-0.3047291110743479,-1.8475142073069357,-2.3775414183308987,-0.9176384806632996,0.3000347912311554,0.2606131434440613
1727331522785,9i,16.59346405646754,0.5s : 2.6s,1.5970732983231954,1.9649291811072656,0.3684086501598358,-2.2339224815368652,-0.7331731915473938,0.6118593811988831,1.3531479835510254,1.2866877317428589,-0.2981777532284608,-1.8694103487740725,-2.3748275550601146,-0.9135714173316956,0.2937788665294647,0.28121399879455566
1727331522795,9i,16.59346405646754,0.5s : 2.6s,1.8244362716207174,1.8667978241694643,0.9131079316139221,-2.418534517288208,-0.8414130806922913,0.661342442035675,1.2456867694854736,1.223039150238037,-0.2927799510550111,-1.88983540980992,-2.365940690934557,-0.9091300964355469,0.28861498832702637,0.30030685663223267
1727331522805,9i,16.59346405646754,0.5s : 2.6s,2.2315588414756298,1.7242262776386574,1.432098388671875,-2.785210609436035,-1.117771863937378,0.6103085875511169,1.0499900579452515,1.2239283323287964,-0.28733676464601204,-1.9116615059990107,-2.351191584203513,-0.9038266539573669,0.28339919447898865,0.32059693336486816
1727331522815,9i,16.59346405646754,0.5s : 2.6s,2.574112532576131,1.5346139983509914,1.9102897644042969,-3.058462142944336,-1.3075518608093262,0.47720927000045776,0.8594048023223877,1.1784459352493286,-0.2805684945415099,-1.9338599187582632,-2.3298701460187514,-0.8982604146003723,0.2769019603729248,0.34125322103500366
1727331522825,9i,16.59346405646754,0.5s : 2.6s,2.4752354562878396,1.3567432992760589,1.6285542249679565,-2.8794476985931396,-1.631278395652771,0.3931660056114197,0.7356688976287842,1.0700299739837646,-0.27192712459363644,-1.9557666989955251,-2.3063549762934836,-0.892754077911377,0.26858824491500854,0.3617328107357025
1727331522835,9i,16.59346405646754,0.5s : 2.6s,2.2833141417526623,1.2865440650929862,1.2706772089004517,-2.3916635513305664,-2.0595877170562744,0.24512511491775513,0.6845049858093262,1.0613963603973389,-0.2594671488774385,-1.9754574596418573,-2.2848888240300713,-0.8884662985801697,0.25656557083129883,0.3805287182331085
1727331522845,9i,16.59346405646754,0.5s : 2.6s,2.1229594626784247,1.199150674892529,1.3662480115890503,-1.6593058109283447,-2.3211469650268555,0.13323408365249634,0.6416719555854797,1.0042251348495483,-0.24358799026626957,-1.9896774997334414,-2.2631509855530627,-0.8865757584571838,0.2411862462759018,0.39473122358322144
1727331522855,9i,16.59346405646754,0.5s : 2.6s,2.0360016610928486,1.0563748875847823,1.4714248180389404,-1.1161987781524658,-2.4069924354553223,0.1433340311050415,0.5966311097145081,0.8598921895027161,-0.22734363458454482,-1.9973882569442574,-2.239425259826549,-0.8869556784629822,0.22539031505584717,0.4031236171722412
1727331522865,9i,16.59346405646754,0.5s : 2.6s,2.1223155547523467,1.0661123655594444,1.4929383993148804,-0.9421446919441223,-2.62394380569458,0.24143171310424805,0.6037335395812988,0.8448740243911743,-0.21026657890069006,-2.0016378024197117,-2.214672465610827,-0.8886027336120605,0.2087206095457077,0.40843725204467773
1727331522875,9i,16.59346405646754,0.5s : 2.6s,2.2026472503775922,1.1180562462085346,1.308739423751831,-1.0301812887191772,-2.828246593475342,0.3301018476486206,0.6144510507583618,0.873803436756134,-0.19104545917026117,-2.0062305892989047,-2.1897120719630006,-0.8901908993721008,0.1898854374885559,0.41412997245788574
1727331522885,9i,16.59346405646754,0.5s : 2.6s,2.1681539354314086,1.115693396781334,0.9595829844474792,-1.0923395156860352,-2.8851823806762695,0.41200971603393555,0.5933879613876343,0.8502414226531982,-0.16977072662629045,-2.012534301194988,-2.1668002489310427,-0.8910136222839355,0.16895636916160583,0.4213651716709137
1727331522895,9i,16.59346405646754,0.5s : 2.6s,2.2123777102220865,1.0631035213922801,0.6480234861373901,-1.168470859527588,-3.0138323307037354,0.4500117897987366,0.5414031744003296,0.796593427658081,-0.14648274432361177,-2.02046814433954,-2.1465439710560643,-0.8909449577331543,0.14595945179462433,0.4300149083137512
1727331522905,9i,16.59346405646754,0.5s : 2.6s,2.2491798630625777,0.9581545643159768,0.3543596863746643,-1.110154151916504,-3.1424551010131836,0.4185095429420471,0.48045477271080017,0.7155928611755371,-0.12088306527679454,-2.0295041024928935,-2.128279120209747,-0.8900823593139648,0.12058887630701065,0.43955859541893005
1727331522915,9i,16.59346405646754,0.5s : 2.6s,2.2350972313875435,0.8552603773066598,0.06704987585544586,-0.8284102082252502,-3.2252213954925537,0.37368661165237427,0.460399329662323,0.6163287162780762,-0.09314098602561004,-2.037388570307266,-2.1121112260788153,-0.8892353177070618,0.09300637245178223,0.4478955864906311
1727331522925,9i,16.59346405646754,0.5s : 2.6s,2.2181398486566186,0.7855847296788165,-0.07241228222846985,-0.7624037265777588,-3.2153737545013428,0.3564755916595459,0.45507335662841797,0.5319555997848511,-0.06421205933400885,-2.04437670909052,-2.097520212451664,-0.8881070017814636,0.06416793912649155,0.45513561367988586
1727331522935,9i,16.59346405646754,0.5s : 2.6s,2.0955202642211344,0.8091471404187974,-0.0406961627304554,-0.7821726202964783,-3.0227763652801514,0.37518244981765747,0.4088312089443207,0.588909387588501,-0.03618397129152461,-2.051328120635974,-2.0837175214128485,-0.8861688375473022,0.03617607429623604,0.4619482457637787
1727331522945,9i,16.59346405646754,0.5s : 2.6s,2.094486683975033,0.8200300384480578,0.33206236362457275,-0.7183472514152527,-3.019059896469116,0.3647770285606384,0.3434751033782959,0.6491624116897583,-0.010071189937440056,-2.0583788001498484,-2.068621116204298,-0.8834232091903687,0.010071019642055035,0.46846768260002136
1727331522955,9i,16.59346405646754,0.5s : 2.6s,2.118208359747609,0.6502109877536026,0.6393133401870728,-0.6327455043792725,-3.0255281925201416,0.2732928395271301,0.25130683183670044,0.5337885618209839,0.014170510753460479,-2.0652603119870703,-2.0498705589210187,-0.8801348805427551,-0.014170036651194096,0.4745122790336609
1727331522965,9i,16.59346405646754,0.5s : 2.6s,2.1640221941651077,0.5445034942553219,0.6058048009872437,-0.3081791400909424,-3.152231454849243,0.18788009881973267,0.19205762445926666,0.47360214591026306,0.038120970543764766,-2.070591190750886,-2.0295558791517245,-0.8770432472229004,-0.03811173886060715,0.4788973331451416
1727331522975,9i,16.59346405646754,0.5s : 2.6s,2.268451137662402,0.499325086868582,0.3317506015300751,0.0844685509800911,-3.3629095554351807,0.1172751784324646,0.16623267531394958,0.4560030400753021,0.06442482941947411,-2.0727128213034267,-2.0097121867851335,-0.8748434782028198,-0.06438027322292328,0.48010846972465515
1727331522985,9i,16.59346405646754,0.5s : 2.6s,2.3243325998073283,0.4635940438851653,-0.05211060494184494,0.491769015789032,-3.428074359893799,0.11240953207015991,0.18037056922912598,0.41200727224349976,0.09356248730804616,-2.0712065219037674,-1.9919989325983756,-0.8735485672950745,-0.09342604130506516,0.47768712043762207
1727331522995,9i,16.59346405646754,0.5s : 2.6s,2.3245321273056745,0.490773077616355,-0.4515807628631592,0.7097373008728027,-3.360156774520874,0.1922268271446228,0.26183557510375977,0.3678983449935913,0.12466129418753141,-2.066518838282078,-1.9780157205827051,-0.872799277305603,-0.12433866411447525,0.471976101398468
1727331523005,9i,16.59346405646754,0.5s : 2.6s,2.31760804277468,0.5777542686198831,-0.5771413445472717,0.7163789868354797,-3.3287599086761475,0.3071223497390747,0.3559721112251282,0.33579713106155396,0.1565065581507791,-2.06087042273988,-1.9668084921283693,-0.8715145587921143,-0.15586842596530914,0.4649384915828705
1727331523015,9i,16.59346405646754,0.5s : 2.6s,2.3023641509443675,0.6198647459056891,-0.5565652251243591,0.4769109785556793,-3.3516180515289307,0.38915252685546875,0.3783164322376251,0.29944831132888794,0.18866844404867228,-2.0565533425933786,-1.95602544831582,-0.8686295747756958,-0.18755114078521729,0.4585932195186615
1727331523025,9i,16.59346405646754,0.5s : 2.6s,2.259367752217709,0.6059974458124278,-0.4677618741989136,0.09449534863233566,-3.332761526107788,0.4187224507331848,0.34145107865333557,0.2744368314743042,0.22053858151176928,-2.056045413654279,-1.9447794031209815,-0.8631346821784973,-0.21875518560409546,0.45513176918029785
1727331523035,9i,16.59346405646754,0.5s : 2.6s,2.341545753301714,0.5756456564672106,-0.4478086531162262,-0.07448035478591919,-3.459552526473999,0.3976060748100281,0.25728052854537964,0.32723701000213623,0.252509146413626,-2.0589635911701563,-1.9326093333759675,-0.8551866412162781,-0.2498343139886856,0.45413511991500854
1727331523045,9i,16.59346405646754,0.5s : 2.6s,2.4277067001568513,0.4909230757895013,-0.4626324474811554,-0.09609395265579224,-3.5866100788116455,0.3069763779640198,0.15322524309158325,0.35113102197647095,0.28580839479549275,-2.063421123240256,-1.9195637305936972,-0.8453521132469177,-0.28193315863609314,0.4537549316883087
1727331523055,9i,16.59346405646754,0.5s : 2.6s,2.3965879231811407,0.3755677291334486,-0.5022873878479004,0.0957561805844307,-3.534433364868164,0.19248449802398682,0.09189587831497192,0.309121310710907,0.3194384210581051,-2.067470946422847,-1.9062537976336837,-0.8346965312957764,-0.3140334486961365,0.45239922404289246
1727331523065,9i,16.59346405646754,0.5s : 2.6s,2.3236852605438894,0.29606194604956654,-0.5669195652008057,0.4173661768436432,-3.3902761936187744,0.1113579273223877,0.08474993705749512,0.26090139150619507,0.35240554614635666,-2.069126518664982,-1.8937123853899398,-0.8244012594223022,-0.3451565206050873,0.448586642742157
1727331523075,9i,16.59346405646754,0.5s : 2.6s,2.297907447231108,0.2713229420789293,-0.7777916193008423,0.827856183052063,-3.2302820682525635,0.0722196102142334,0.09789484739303589,0.24252229928970337,0.38453894060283045,-2.0668046864795886,-1.883045115981385,-0.8152614831924438,-0.3751317858695984,0.4411630928516388
1727331523085,9i,16.59346405646754,0.5s : 2.6s,2.4035860367040547,0.26117275148851854,-1.1165052652359009,1.1731181144714355,-3.1946020126342773,0.08485585451126099,0.15140357613563538,0.19516056776046753,0.41716750031069183,-2.059569250828086,-1.8756489816392756,-0.8071915507316589,-0.4051724970340729,0.42927494645118713
1727331523095,9i,16.59346405646754,0.5s : 2.6s,2.4564385049621955,0.31139258265911085,-1.3983873128890991,1.209387183189392,-3.159198045730591,0.1509658694267273,0.2193574607372284,0.16142165660858154,0.45115117355626977,-2.0491505500770444,-1.8716351168808516,-0.7989303469657898,-0.43600180745124817,0.41426199674606323
1727331523105,9i,16.59346405646754,0.5s : 2.6s,2.3879680748097174,0.4341505390913561,-1.673095464706421,0.9619671702384949,-2.989560842514038,0.24247944355010986,0.2864699959754944,0.21823233366012573,0.4855808794830184,-2.038330645958307,-1.871350620181829,-0.7894918918609619,-0.46672216057777405,0.3985890746116638
1727331523115,9i,16.59346405646754,0.5s : 2.6s,2.3280550765072445,0.5635379436941038,-1.6520814895629883,0.8104048371315002,-2.940845489501953,0.3007173538208008,0.31767889857292175,0.35528045892715454,0.5194176740384758,-2.0285632246609047,-1.873474392661164,-0.7787295579910278,-0.4963746964931488,0.3836571276187897
1727331523125,9i,16.59346405646754,0.5s : 2.6s,2.3561716308170313,0.505423921607578,-1.5608187913894653,0.7782703042030334,-3.047177314758301,0.2559576630592346,0.2453995943069458,0.36016392707824707,0.5532192124796447,-2.0199682629016236,-1.8749632143587833,-0.7664403915405273,-0.5254289507865906,0.36945047974586487
1727331523135,9i,16.59346405646754,0.5s : 2.6s,2.374287999240257,0.35041648603262404,-1.5521748065948486,0.7967286705970764,-3.0778920650482178,0.15495741367340088,0.16982883214950562,0.2644580900669098,0.587600641250023,-2.011629187921822,-1.87588141704687,-0.7527053356170654,-0.5543656945228577,0.35512515902519226
1727331523145,9i,16.59346405646754,0.5s : 2.6s,2.3562656002014113,0.3136173260384805,-1.6366586685180664,0.9827178716659546,-2.94681978225708,0.07821863889694214,0.15202993154525757,0.2629155218601227,0.6216268525967191,-2.0017511573441813,-1.877866616518348,-0.7386037707328796,-0.5823584794998169,0.33959317207336426
1727331523155,9i,16.59346405646754,0.5s : 2.6s,2.367619401130238,0.3219752693847428,-1.8437105417251587,1.2496912479400635,-2.736097574234009,0.03908950090408325,0.16445070505142212,0.27403658628463745,0.6546263485368624,-1.9875766842424945,-1.8829487724719227,-0.7253686189651489,-0.6088628768920898,0.3211325705051422
1727331523164,9i,16.59346405646754,0.5s : 2.6s,2.4407702748466527,0.31381992031019224,-2.1384682655334473,1.4950344562530518,-2.5337882041931152,0.03648686408996582,0.19776195287704468,0.24091878533363342,0.6866103494859064,-1.967655723173278,-1.8929060227638599,-0.7132905125617981,-0.6339192986488342,0.29893726110458374
1727331523174,9i,16.59346405646754,0.5s : 2.6s,2.6267582245624665,0.3439683636833057,-2.552602767944336,1.7033618688583374,-2.4297828674316406,0.07165437936782837,0.255531907081604,0.21882259845733643,0.7182580755429867,-1.9411470781082585,-1.9091365354123373,-0.7019034028053284,-0.6580740809440613,0.27252575755119324
1727331523184,9i,16.59346405646754,0.5s : 2.6s,2.797881513011258,0.4316268827789195,-2.8978431224823,1.8209360837936401,-2.380967378616333,0.12229901552200317,0.3528093099594116,0.21649551391601562,0.7502259797943347,-1.9078720134546547,-1.932495564218306,-0.6903684735298157,-0.6818040609359741,0.24193964898586273
1727331523194,9i,16.59346405646754,0.5s : 2.6s,2.8557960563676135,0.5017477774128125,-2.9694950580596924,1.9070571660995483,-2.377939462661743,0.1643957495689392,0.4470215439796448,0.15778659284114838,0.7819525687478396,-1.8694575321124722,-1.9610161633413312,-0.6781285405158997,-0.7046661972999573,0.20877541601657867
1727331523204,9i,16.59346405646754,0.5s : 2.6s,2.819333382584888,0.5336840612965965,-2.8815319538116455,1.8829808235168457,-2.4085335731506348,0.18886107206344604,0.4978221654891968,0.036376699805259705,0.8129343343957086,-1.8283894531204665,-1.991843755656877,-0.6646910309791565,-0.7263072729110718,0.17511019110679626
1727331523214,9i,16.59346405646754,0.5s : 2.6s,2.861648223193067,0.5449986059414896,-2.831211805343628,1.8653144836425781,-2.5862138271331787,0.20029133558273315,0.5051301121711731,-0.0418381541967392,0.8436946871280723,-1.785796699623194,-2.02421571011576,-0.6494033336639404,-0.7471041083335876,0.14181384444236755
1727331523224,9i,16.59346405646754,0.5s : 2.6s,2.8948102509038973,0.4985230056669377,-2.715463876724243,1.7545121908187866,-2.855781078338623,0.1961018443107605,0.45402538776397705,-0.06269131600856781,0.8756736973794462,-1.7421550523281748,-2.057970625992448,-0.6310994625091553,-0.7679751515388489,0.10921549052000046
1727331523234,9i,16.59346405646754,0.5s : 2.6s,2.912330464972257,0.40461352190185484,-2.544128656387329,1.72339928150177,-3.0644354820251465,0.1671631932258606,0.3556936979293823,-0.09617984294891357,0.9089026209709888,-1.698109856558111,-2.0922817601808874,-0.6096375584602356,-0.7888297438621521,0.07803719490766525
1727331523244,9i,16.59346405646754,0.5s : 2.6s,2.841014016869529,0.3405274752559307,-2.4276485443115234,1.6452083587646484,-3.0532257556915283,0.1471477746963501,0.2640100121498108,-0.15686047077178955,0.94204757465309,-1.6527691634787354,-2.127876955611277,-0.5861583352088928,-0.8087640404701233,0.0481569729745388
1727331523254,9i,16.59346405646754,0.5s : 2.6s,2.6522493722815907,0.3366839170612133,-2.367412805557251,1.4333677291870117,-2.8214690685272217,0.14592570066452026,0.24189966917037964,-0.18315649032592773,0.9727973946063786,-1.6058844410998505,-2.166343352632252,-0.5626431703567505,-0.8264638781547546,0.019750194624066353
1727331523264,9i,16.59346405646754,0.5s : 2.6s,2.4419513728436995,0.3765465114102165,-2.2806050777435303,1.263543725013733,-2.538377523422241,0.14779514074325562,0.28136497735977173,-0.20193469524383545,0.9997708754065672,-1.5578378059328757,-2.207908800073459,-0.5404495000839233,-0.8413471579551697,-0.0070038181729614735
1727331523274,9i,16.59346405646754,0.5s : 2.6s,2.309801098489647,0.42416653629211243,-2.1628637313842773,1.1987519264221191,-2.3941032886505127,0.12561321258544922,0.32465869188308716,-0.2423536777496338,1.0234229953120837,-1.5086857924903894,-2.2514475243752785,-0.5194424986839294,-0.8538945317268372,-0.03230440244078636
1727331523284,9i,16.59346405646754,0.5s : 2.6s,2.2685043638623474,0.43315461848671954,-2.051248073577881,1.1258150339126587,-2.43963360786438,0.08731740713119507,0.33001649379730225,-0.26662278175354004,1.0455251726489587,-1.4583782730812085,-2.296427543175663,-0.4982823133468628,-0.8651880025863647,-0.0562530979514122
1727331523294,9i,16.59346405646754,0.5s : 2.6s,2.320919062361795,0.4231505211256743,-2.0770809650421143,1.0219237804412842,-2.569521903991699,0.056267231702804565,0.30393481254577637,-0.2889878749847412,1.0674461707111207,-1.4055551641770498,-2.344722374647374,-0.4757923185825348,-0.8759714961051941,-0.07934394478797913
1727331523304,9i,16.59346405646754,0.5s : 2.6s,2.399611064989381,0.4247722931704305,-2.2356362342834473,0.8554216027259827,-2.656324863433838,0.045061469078063965,0.27832359075546265,-0.31770575046539307,1.088952903977623,-1.3474838859695273,-2.399931069186191,-0.4519064724445343,-0.8861421346664429,-0.10262800008058548
1727331523314,9i,16.59346405646754,0.5s : 2.6s,2.407293452826907,0.4086357364899773,-2.343899726867676,0.638558566570282,-2.6393661499023438,0.052589237689971924,0.2671006917953491,-0.3047536015510559,1.1088074398287917,-1.2833098298598902,-2.463591325203896,-0.42743661999702454,-0.8951677680015564,-0.12638339400291443
1727331523324,9i,16.59346405646754,0.5s : 2.6s,2.3019977875131654,0.3932582199629275,-2.2448177337646484,0.49965110421180725,-2.5451815128326416,0.05451202392578125,0.26981276273727417,-0.28085857629776,1.12614987082464,-1.2161665530460306,-2.5320315224272703,-0.40337374806404114,-0.902762770652771,-0.14936287701129913
1727331523334,9i,16.59346405646754,0.5s : 2.6s,2.1778894142432192,0.3989288909616952,-2.0791261196136475,0.4262722134590149,-2.4551496505737305,0.040514618158340454,0.2638362646102905,-0.29646795988082886,1.1410452367859885,-1.1485620271171726,-2.601565096540642,-0.38005316257476807,-0.9090694785118103,-0.17074082791805267
1727331523344,9i,16.59346405646754,0.5s : 2.6s,2.0756363831735185,0.3996067947522099,-1.8723180294036865,0.4007830023765564,-2.4290452003479004,0.01763850450515747,0.26142340898513794,-0.30171555280685425,1.1542318202211026,-1.0813496587528324,-2.670781555476013,-0.3571160137653351,-0.9144843816757202,-0.1902277022600174
1727331523354,9i,16.59346405646754,0.5s : 2.6s,2.022591985213373,0.4098587236274802,-1.674142837524414,0.42029866576194763,-2.470698118209839,-0.011052310466766357,0.2493332028388977,-0.3251076340675354,1.1665719668098173,-1.013950694910024,-2.739816991712742,-0.33388784527778625,-0.9194077253341675,-0.20786653459072113
1727331523364,9i,16.59346405646754,0.5s : 2.6s,1.9677774843684623,0.43184596190274305,-1.446333885192871,0.38050004839897156,-2.5221824645996094,-0.03255608677864075,0.19988971948623657,-0.3814120292663574,1.1786402292236244,-0.9462378100941168,-2.8089413499835127,-0.31003421545028687,-0.9240871667861938,-0.22347679734230042
1727331523374,9i,16.59346405646754,0.5s : 2.6s,1.9589406184715024,0.5053131742203967,-1.46780526638031,0.32143324613571167,-2.5026473999023438,-0.03486546874046326,0.1375303864479065,-0.4849857687950134,1.189696501666414,-0.8769061839637307,-2.8799508523457087,-0.28593525290489197,-0.9282561540603638,-0.23786874115467072
1727331523384,9i,16.59346405646754,0.5s : 2.6s,1.9064262367268472,0.5407726676379179,-1.4987648725509644,0.16919969022274017,-2.407355308532715,-0.008225083351135254,0.14975881576538086,-0.5195572376251221,1.1980459131574062,-0.8050027770727779,-2.9546046820418126,-0.2625115215778351,-0.9313292503356934,-0.2524152994155884
1727331523394,9i,16.59346405646754,0.5s : 2.6s,1.8044716078177556,0.564721322613032,-1.3714168071746826,0.009950906038284302,-2.312854051589966,0.027362599968910217,0.1820218563079834,-0.5338815450668335,1.2041010022369774,-0.734689490172665,-3.0290878455636046,-0.24034473299980164,-0.9335172772407532,-0.26604512333869934
1727331523404,9i,16.59346405646754,0.5s : 2.6s,1.7613521163917039,0.5812779689233026,-1.2988353967666626,-0.09286273270845413,-2.2788517475128174,0.04810053110122681,0.1479855179786682,-0.5600631237030029,1.2087852548778826,-0.6669946249818468,-3.102010995047136,-0.21909049153327942,-0.935186505317688,-0.2782546579837799
1727331523414,9i,16.59346405646754,0.5s : 2.6s,1.7914780049442858,0.5694618586850594,-1.3513665199279785,-0.18771761655807495,-2.294558048248291,0.04152148962020874,0.08297425508499146,-0.5618523359298706,1.2116579047383018,-0.598858589010218,3.1068566991541062,-0.19812239706516266,-0.936199963092804,-0.29030516743659973
1727331523424,9i,16.59346405646754,0.5s : 2.6s,1.8306710686837446,0.5367699039388147,-1.4254488945007324,-0.26931437849998474,-2.310242176055908,0.030826419591903687,0.021536707878112793,-0.5354510545730591,1.212163068668666,-0.5294235560487487,3.0303084669037466,-0.1772649735212326,-0.9363774061203003,-0.30294302105903625
1727331523434,9i,16.59346405646754,0.5s : 2.6s,1.8381829930679228,0.5002197772191707,-1.4053875207901,-0.3651735186576843,-2.3225815296173096,0.02367013692855835,-0.0509035587310791,-0.49705973267555237,1.2107123462669023,-0.4605643735761331,2.9533745603323376,-0.15660467743873596,-0.9358672499656677,-0.31563860177993774
1727331523444,9i,16.59346405646754,0.5s : 2.6s,1.853474258177775,0.5540069674988358,-1.4349899291992188,-0.4542520046234131,-2.3157410621643066,0.019202783703804016,-0.1318100094795227,-0.5377556085586548,1.2075087602461798,-0.3934647336300273,2.8772783051836095,-0.13623765110969543,-0.9347336292266846,-0.32819584012031555
1727331523454,9i,16.59346405646754,0.5s : 2.6s,1.8798133981961453,0.609368872293917,-1.5654358863830566,-0.5345152020454407,-2.260585308074951,0.0326802134513855,-0.14342999458312988,-0.5913461446762085,1.2015213796309745,-0.3287778409164614,2.8027397627329065,-0.11654246598482132,-0.9325892925262451,-0.34160658717155457
1727331523464,9i,16.59346405646754,0.5s : 2.6s,1.835610468229891,0.5862970624437042,-1.5476847887039185,-0.6047463417053223,-2.1727445125579834,0.06782148033380508,-0.060736656188964844,-0.5791852474212646,1.193048765235261,-0.2686456404895457,2.732105703644084,-0.0978965014219284,-0.9294977784156799,-0.3555985987186432
1727331523474,9i,16.59346405646754,0.5s : 2.6s,1.7713942292174467,0.5514248600778794,-1.3852570056915283,-0.7170374393463135,-2.1294264793395996,0.10314556956291199,-0.0044228434562683105,-0.5416740775108337,1.1839109370129584,-0.21480450517134572,2.66698116083018,-0.08042518049478531,-0.9260886907577515,-0.3686347007751465
1727331523484,9i,16.59346405646754,0.5s : 2.6s,1.7641843785792202,0.5264227455877041,-1.2343909740447998,-0.8209227919578552,-2.171013355255127,0.11877734214067459,-0.010451912879943848,-0.5127412676811218,1.175143527521555,-0.1655401584077991,2.605375174603848,-0.06350995600223541,-0.9227451682090759,-0.3801419734954834
1727331523494,9i,16.59346405646754,0.5s : 2.6s,1.8026176908348586,0.5105173204579054,-1.052909255027771,-0.9292071461677551,-2.2898218631744385,0.10810291767120361,-0.0396268367767334,-0.49736446142196655,1.1669878841661505,-0.1182777165238842,2.544593171255064,-0.046365804970264435,-0.9195712208747864,-0.39017823338508606
1727331523504,9i,16.59346405646754,0.5s : 2.6s,1.849105826604215,0.5173785161027095,-0.9089659452438354,-1.0246526002883911,-2.3908472061157227,0.07902593910694122,-0.08659100532531738,-0.5039220452308655,1.1595252299170722,-0.07189649931722233,2.4834135602465404,-0.028717659413814545,-0.9166133999824524,-0.39874207973480225
1727331523514,9i,16.59346405646754,0.5s : 2.6s,1.8659161055392381,0.5270148353950501,-0.8603541851043701,-1.121354341506958,-2.394432783126831,0.04720303416252136,-0.12381953001022339,-0.5100835561752319,1.1519642031527753,-0.02729832328914064,2.4229789422381294,-0.011100681498646736,-0.9135645031929016,-0.4065423309803009
1727331523524,9i,16.59346405646754,0.5s : 2.6s,1.8281227142406207,0.5329932239476429,-0.8722860813140869,-1.1908247470855713,-2.2895421981811523,0.03497854992747307,-0.11139881610870361,-0.5200467109680176,1.1434537513056302,0.013388745675739883,2.3657211240855505,0.005548851564526558,-0.9100703597068787,-0.41441673040390015
1727331523534,9i,16.59346405646754,0.5s : 2.6s,1.747246300110089,0.5192513983995438,-0.7741581797599792,-1.2782270908355713,-2.1320602893829346,0.046519096940755844,-0.06740957498550415,-0.5127513408660889,1.1344807187598538,0.04837753518966762,2.3136502600486093,0.02043652907013893,-0.9063148498535156,-0.42210879921913147
1727331523544,9i,16.59346405646754,0.5s : 2.6s,1.6839120328274624,0.5170231836284432,-0.6391497850418091,-1.346710443496704,-2.0184624195098877,0.06640812009572983,-0.06121760606765747,-0.50907301902771,1.1261706120529669,0.07812163990925128,2.2662861963496495,0.033567529171705246,-0.9027717113494873,-0.4288083612918854
1727331523554,9i,16.59346405646754,0.5s : 2.6s,1.6860948394978033,0.5240625238358483,-0.5978454947471619,-1.4054712057113647,-1.994968056678772,0.0834149420261383,-0.08020317554473877,-0.5111271142959595,1.1182457923582307,0.10457664157880574,2.2216911301623083,0.04564395546913147,-0.8993347883224487,-0.4348718822002411
1727331523564,9i,16.59346405646754,0.5s : 2.6s,1.738770913698812,0.5185580342583546,-0.5880399346351624,-1.4995607137680054,-2.029479742050171,0.08772493898868561,-0.09712034463882446,-0.5017712712287903,1.1100211299487923,0.1292839752181062,2.178049872526304,0.057325173169374466,-0.8957080841064453,-0.44093194603919983
1727331523574,9i,16.59346405646754,0.5s : 2.6s,1.8113108677087184,0.5049423796311979,-0.608097493648529,-1.6251682043075562,-2.0673978328704834,0.09205091744661331,-0.11489272117614746,-0.48300424218177795,1.1012538296968206,0.15242103233044,2.1347591345645864,0.06870048493146896,-0.891775369644165,-0.4472324848175049
1727331523584,9i,16.59346405646754,0.5s : 2.6s,1.8729249776641574,0.4969824281477052,-0.6395766139030457,-1.7637834548950195,-2.066192388534546,0.09676311910152435,-0.1298964023590088,-0.46984609961509705,1.091788913199565,0.17326957615969188,2.0922651426847465,0.07946069538593292,-0.8874528408050537,-0.4539971947669983
1727331523594,9i,16.59346405646754,0.5s : 2.6s,1.9054687182186898,0.50775473875955,-0.69649738073349,-1.8833980560302734,-2.0074567794799805,0.10582347959280014,-0.13266676664352417,-0.47855594754219055,1.081542051385169,0.19089072949491118,2.0517958180903473,0.08916864544153214,-0.8826835751533508,-0.4614311456680298
1727331523604,9i,16.59346405646754,0.5s : 2.6s,1.9053661436043563,0.4890133888297497,-0.6839291453361511,-1.9730967283248901,-1.923653244972229,0.1147022545337677,-0.10959744453430176,-0.46256446838378906,1.0708655259531654,0.2047620294203465,2.0141620015158246,0.09747127443552017,-0.877615749835968,-0.46935075521469116
1727331523614,9i,16.59346405646754,0.5s : 2.6s,1.89520667860115,0.46329530487727255,-0.5776431560516357,-2.041123628616333,-1.8643275499343872,0.11691427230834961,-0.09080195426940918,-0.4390086531639099,1.060734498256654,0.21571956661521652,1.9787300610125949,0.10450608283281326,-0.8727143406867981,-0.4769153594970703
1727331523624,9i,16.59346405646754,0.5s : 2.6s,1.9145760469625979,0.46133055052512834,-0.5078017115592957,-2.1013596057891846,-1.8616811037063599,0.12012297660112381,-0.09871143102645874,-0.43434134125709534,1.0514554604258315,0.22502704186468936,1.9442959309187442,0.11074256896972656,-0.8681464791297913,-0.483795166015625
1727331523634,9i,16.59346405646754,0.5s : 2.6s,1.9608976808561207,0.46646416592941603,-0.5399465560913086,-2.1609795093536377,-1.8912099599838257,0.12164939939975739,-0.11442500352859497,-0.43554237484931946,1.0421597822067916,0.23326796441867806,1.9102163999171853,0.11658614128828049,-0.8634955286979675,-0.49069657921791077
1727331523644,9i,16.59346405646754,0.5s : 2.6s,2.0255311786107426,0.4402279853532606,-0.6315466165542603,-2.238123655319214,-1.92409086227417,0.12117666751146317,-0.11763924360275269,-0.4065438508987427,1.032002488342564,0.2403809364552283,1.8764820143558414,0.1221553161740303,-0.8583281636238098,-0.49834805727005005
1727331523654,9i,16.59346405646754,0.5s : 2.6s,2.0860133474908955,0.38209222142318433,-0.7079867720603943,-2.326078414916992,-1.9366127252578735,0.11346282064914703,-0.11066204309463501,-0.34767019748687744,1.0208432373490863,0.24587326770771623,1.8434045382752418,0.12721413373947144,-0.8525490164756775,-0.5069287419319153
1727331523664,9i,16.59346405646754,0.5s : 2.6s,2.1144299269978295,0.33057993473627156,-0.7375652194023132,-2.4120535850524902,-1.888224720954895,0.10070346295833588,-0.1038508415222168,-0.297248899936676,1.0090842699754565,0.2492081192345091,1.8116764660123534,0.1313675194978714,-0.8463444709777832,-0.5161817669868469
1727331523674,9i,16.59346405646754,0.5s : 2.6s,2.1150309885396066,0.2925157581873867,-0.682514488697052,-2.4899227619171143,-1.807623028755188,0.09233853220939636,-0.09856647253036499,-0.259468138217926,0.9975956800287406,0.2500388961705803,1.7816784839531787,0.1341935247182846,-0.8401694893836975,-0.5254591703414917
1727331523684,9i,16.59346405646754,0.5s : 2.6s,2.100389294583115,0.2890173083353111,-0.5841028690338135,-2.5465431213378906,-1.7233495712280273,0.09223778545856476,-0.0954999327659607,-0.25671571493148804,0.9871284495135472,0.24859533427371253,1.7533258839047028,0.13559125363826752,-0.8344469666481018,-0.5341472625732422
1727331523694,9i,16.59346405646754,0.5s : 2.6s,2.0790108103082705,0.3023641627987176,-0.5024293065071106,-2.563457727432251,-1.6654855012893677,0.09646233916282654,-0.09376662969589233,-0.2707894444465637,0.9777420879762462,0.24561734878533675,1.726220757563961,0.13589856028556824,-0.8292375206947327,-0.542122483253479
1727331523704,9i,16.59346405646754,0.5s : 2.6s,2.061068038766841,0.3040276795203914,-0.4549418091773987,-2.560551404953003,-1.6337836980819702,0.10096587240695953,-0.08827471733093262,-0.2728484869003296,0.9691399435579809,0.2418259820473413,1.699891856150275,0.13554544746875763,-0.8243992328643799,-0.5495392084121704
1727331523714,9i,16.59346405646754,0.5s : 2.6s,2.069790243589559,0.2848903725949529,-0.44300952553749084,-2.5787389278411865,-1.6329413652420044,0.10606665909290314,-0.08255815505981445,-0.2511902451515198,0.9609565449600792,0.2375237483036557,1.673902985995961,0.13476286828517914,-0.819739818572998,-0.5566557049751282
1727331523723,9i,16.59346405646754,0.5s : 2.6s,2.0871163058878324,0.26149057242720275,-0.4823465347290039,-2.591413736343384,-1.6506035327911377,0.108515664935112,-0.07817375659942627,-0.22470098733901978,0.9526491585616663,0.2328342572879437,1.6480887159816495,0.13371767103672028,-0.814953625202179,-0.563888430595398
1727331523733,9i,16.59346405646754,0.5s : 2.6s,2.1158787084361075,0.2355597172594897,-0.5233778953552246,-2.617549419403076,-1.6779502630233765,0.10521632432937622,-0.0753442645072937,-0.1968277096748352,0.9439720288172617,0.22780109820544797,1.622299183499543,0.13246990740299225,-0.8098943829536438,-0.57142174243927
1727331523743,9i,16.59346405646754,0.5s : 2.6s,2.1245608559830957,0.21745463344440602,-0.6053888201713562,-2.616258144378662,-1.6767390966415405,0.09214991331100464,-0.07142055034637451,-0.18355929851531982,0.9347733296521026,0.22233097121504103,1.596698569599084,0.13097944855690002,-0.8044644594192505,-0.5793801546096802
1727331523753,9i,16.59346405646754,0.5s : 2.6s,2.121034278965277,0.19983268844894314,-0.7179156541824341,-2.6022984981536865,-1.6438217163085938,0.07489059865474701,-0.05196869373321533,-0.17783069610595703,0.9246899083721504,0.21605589314202828,1.5720591376073891,0.12907370924949646,-0.7984340786933899,-0.5880841612815857
1727331523763,9i,16.59346405646754,0.5s : 2.6s,2.107912382660461,0.17500027906882126,-0.7434046268463135,-2.6025192737579346,-1.5939053297042847,0.06210854649543762,-0.025771737098693848,-0.1615656018257141,0.9140907598518201,0.20877572984079248,1.5485508284895955,0.12653595209121704,-0.7920078039169312,-0.5972539186477661
1727331523773,9i,16.59346405646754,0.5s : 2.6s,2.0721693017083487,0.17240683765801879,-0.7739177942276001,-2.563685894012451,-1.5372364521026611,0.05778227001428604,-0.027492225170135498,-0.16009217500686646,0.9034973281234333,0.20066788350574521,1.5261319341726465,0.12335490435361862,-0.7854961156845093,-0.6064483523368835
1727331523783,9i,16.59346405646754,0.5s : 2.6s,2.0351847362716198,0.159828649967847,-0.7849687337875366,-2.518197536468506,-1.4965705871582031,0.059609554708004,-0.02205657958984375,-0.14664721488952637,0.8928737792121608,0.19200311916170704,1.5047654881741295,0.11968130618333817,-0.778877317905426,-0.6156513690948486
1727331523793,9i,16.59346405646754,0.5s : 2.6s,1.9880914048038452,0.13125481208489995,-0.7270556092262268,-2.461413621902466,-1.4796406030654907,0.0599011555314064,-0.004153907299041748,-0.11671513319015503,0.8826535670336041,0.18329102173037792,1.4839130694385652,0.11575809866189957,-0.7724269032478333,-0.6244652271270752
1727331523803,9i,16.59346405646754,0.5s : 2.6s,1.9433749286377988,0.11623358359692175,-0.6836722493171692,-2.388451337814331,-1.4879618883132935,0.053731463849544525,0.003691375255584717,-0.10300266742706299,0.8731022221851339,0.1751459846342418,1.463054958747326,0.11194854229688644,-0.7663256525993347,-0.632623553276062
1727331523813,9i,16.59346405646754,0.5s : 2.6s,1.9194791500526038,0.09972980063191739,-0.6754454970359802,-2.325958251953125,-1.521468162536621,0.04087474197149277,-0.0007935762405395508,-0.0909651517868042,0.8638681535849759,0.16770904439627235,1.4419603888178778,0.1084173321723938,-0.760360598564148,-0.6403886079788208
1727331523823,9i,16.59346405646754,0.5s : 2.6s,1.8961360837318366,0.10160870433901367,-0.6876657605171204,-2.2539148330688477,-1.558968424797058,0.02701527625322342,-0.022196590900421143,-0.09540343284606934,0.8546690899028009,0.1611843219302727,1.4203766873891306,0.10535479336977005,-0.7543537020683289,-0.6479589343070984
1727331523833,9i,16.59346405646754,0.5s : 2.6s,1.8449711427934807,0.1414442168768665,-0.7573574781417847,-2.147439479827881,-1.5405454635620117,0.021875083446502686,-0.03298836946487427,-0.13579291105270386,0.8450698750229417,0.15541089823892204,1.3988746927598945,0.10272827744483948,-0.7480174899101257,-0.6556804776191711
1727331523843,9i,16.59346405646754,0.5s : 2.6s,1.789587576414669,0.14829253372763565,-0.7240450382232666,-2.0888383388519287,-1.4912769794464111,0.033906400203704834,-0.0006805062294006348,-0.14436262845993042,0.8353591493160124,0.14970771309053849,1.378169438151179,0.10006585717201233,-0.7415375113487244,-0.6634071469306946
1727331523853,9i,16.59346405646754,0.5s : 2.6s,1.719159316032029,0.15492950193544766,-0.5732012391090393,-2.0363667011260986,-1.4447590112686157,0.060658104717731476,0.05100888013839722,-0.13312339782714844,0.8267465645491272,0.14395975020208113,1.358083644120267,0.09716363251209259,-0.7357317805290222,-0.6702671051025391
1727331523863,9i,16.59346405646754,0.5s : 2.6s,1.660388048888054,0.17751134095297663,-0.3784511685371399,-1.982528567314148,-1.4310829639434814,0.086676687002182,0.08461374044418335,-0.12976109981536865,0.8200195048812824,0.1385028768045072,1.3381847798463014,0.09418582916259766,-0.7311591506004333,-0.6756740808486938
1727331523873,9i,16.59346405646754,0.5s : 2.6s,1.6321120937868232,0.1842975343801115,-0.23727379739284515,-1.9393422603607178,-1.448299527168274,0.1048184484243393,0.09038519859313965,-0.12169301509857178,0.8150725655676329,0.13366141539782334,1.31800150033094,0.09139438718557358,-0.7277753949165344,-0.6796985864639282
1727331523883,9i,16.59346405646754,0.5s : 2.6s,1.6322097502825472,0.1680462082614518,-0.2120215743780136,-1.919167160987854,-1.4790101051330566,0.11658217012882233,0.05988585948944092,-0.10517513751983643,0.8110361321087433,0.12942537821001365,1.2973333139331698,0.08889276534318924,-0.7250012159347534,-0.6829870939254761
1727331523893,9i,16.59346405646754,0.5s : 2.6s,1.6377635084115947,0.15343057907848828,-0.3225608766078949,-1.908800721168518,-1.486064076423645,0.12173362821340561,0.015941977500915527,-0.09202021360397339,0.8065734446699222,0.1253811783169327,1.2764995142976987,0.08653365075588226,-0.7219203114509583,-0.6865442395210266
1727331523903,9i,16.59346405646754,0.5s : 2.6s,1.6337121945401045,0.14111283213524567,-0.5100585222244263,-1.886352777481079,-1.4519076347351074,0.11463107913732529,-0.012979745864868164,-0.08126544952392578,0.800629026545207,0.12099560721000968,1.2562584774466066,0.08403843641281128,-0.7177941799163818,-0.6911649703979492
1727331523913,9i,16.59346405646754,0.5s : 2.6s,1.5967042703392418,0.12266900616593529,-0.6200604438781738,-1.8340338468551636,-1.3830782175064087,0.09404797106981277,-0.01373511552810669,-0.07755005359649658,0.7932821081506437,0.11609695150022672,1.2371224134111332,0.08126034587621689,-0.7126595377922058,-0.6967877149581909
1727331523923,9i,16.59346405646754,0.5s : 2.6s,1.5240953201122573,0.12681810867429702,-0.6541779041290283,-1.7428404092788696,-1.3009459972381592,0.08185869455337524,0.01381140947341919,-0.09587091207504272,0.7854238913744005,0.1109165618578157,1.2192193435664136,0.07826711982488632,-0.7071249485015869,-0.7027435302734375
1727331523933,9i,16.59346405646754,0.5s : 2.6s,1.4422014008546495,0.14901219584620706,-0.5976458787918091,-1.6710940599441528,-1.211924433708191,0.0830250233411789,0.07308739423751831,-0.09984844923019409,0.7777860217249645,0.10558541166771732,1.202636141592038,0.07508662343025208,-0.7017037272453308,-0.7085011601448059
1727331523943,9i,16.59346405646754,0.5s : 2.6s,1.3713395442082226,0.17959064677697434,-0.4629056453704834,-1.6175090074539185,-1.1598166227340698,0.09944838285446167,0.12374573945999146,-0.08396315574645996,0.7712947918547369,0.10015817638216908,1.18693494266363,0.0716942846775055,-0.697064220905304,-0.7134153842926025
1727331523953,9i,16.59346405646754,0.5s : 2.6s,1.3240278555665217,0.20802183093486212,-0.328738272190094,-1.580461025238037,-1.1343295574188232,0.11919183284044266,0.1474568247795105,-0.08557379245758057,0.7662195751003035,0.09485930846472497,1.1716321962963077,0.06824720650911331,-0.6934162378311157,-0.7172978520393372
1727331523963,9i,16.59346405646754,0.5s : 2.6s,1.3110179844779115,0.22058771381426764,-0.2377542406320572,-1.5749496221542358,-1.131156086921692,0.129046231508255,0.1581050157546997,-0.08371865749359131,0.7623902557204191,0.0896622105089888,1.1563974087060684,0.06475572288036346,-0.6906520128250122,-0.720282256603241
1727331523973,9i,16.59346405646754,0.5s : 2.6s,1.3036462992282265,0.23155351970215102,-0.18433761596679688,-1.5775730609893799,-1.1184773445129395,0.13556089997291565,0.16275781393051147,-0.09354233741760254,0.7593126779932584,0.08441662451864079,1.141205078280379,0.06115547567605972,-0.6884230971336365,-0.722726583480835
1727331523983,9i,16.59346405646754,0.5s : 2.6s,1.3037446180038437,0.22796527773191327,-0.15682129561901093,-1.5918437242507935,-1.1025962829589844,0.14041590690612793,0.15344023704528809,-0.09331470727920532,0.7567148108333875,0.07894104207482248,1.1261763861358636,0.05733807012438774,-0.6865364909172058,-0.7248310446739197
1727331523993,9i,16.59346405646754,0.5s : 2.6s,1.2786865598980084,0.21696168764814916,-0.19827580451965332,-1.5610514879226685,-1.0744270086288452,0.1427268534898758,0.13385796546936035,-0.09372013807296753,0.7541294691934178,0.07325936278916141,1.1114768941690252,0.053348641842603683,-0.6846544146537781,-0.726912796497345
1727331524003,9i,16.59346405646754,0.5s : 2.6s,1.2488780186367159,0.20505981255534605,-0.24512501060962677,-1.5223782062530518,-1.0419061183929443,0.14082041382789612,0.12632548809051514,-0.07912653684616089,0.7511682261062007,0.06759248585276512,1.0972682577464616,0.04936520382761955,-0.6824930906295776,-0.7292230725288391
1727331524013,9i,16.59346405646754,0.5s : 2.6s,1.2100975232319002,0.19488320463987943,-0.2742093801498413,-1.4653562307357788,-1.0144376754760742,0.1375620812177658,0.12132900953292847,-0.06584382057189941,0.7478861987798829,0.062037012174090106,1.083519610106035,0.04545190930366516,-0.680090606212616,-0.7317178249359131
1727331524023,9i,16.59346405646754,0.5s : 2.6s,1.1677591260404507,0.18572609879787477,-0.3156193196773529,-1.4042565822601318,-0.9779797196388245,0.13285677134990692,0.11572533845901489,-0.05874443054199219,0.7443694617539308,0.05675137117280321,1.0702271850286431,0.04171909764409065,-0.6775081753730774,-0.7343311905860901
1727331524033,9i,16.59346405646754,0.5s : 2.6s,1.1418323253241416,0.18049248151185057,-0.3620520830154419,-1.3607808351516724,-0.9551055431365967,0.13399608433246613,0.10658389329910278,-0.05711793899536133,0.7404535853439723,0.05164824604901142,1.0573732079453246,0.03810786083340645,-0.6746227741241455,-0.7371783256530762
1727331524043,9i,16.59346405646754,0.5s : 2.6s,1.1095045701319288,0.179659030028537,-0.39153140783309937,-1.3164706230163574,-0.9203435778617859,0.13238713145256042,0.10528033971786499,-0.06055629253387451,0.7362152617079514,0.046634121239993394,1.044988123324983,0.034544073045253754,-0.6714881658554077,-0.740209698677063
1727331524053,9i,16.59346405646754,0.5s : 2.6s,1.0865238524824148,0.1838112609310625,-0.3810286819934845,-1.2975763082504272,-0.8902117609977722,0.13447952270507812,0.1095813512802124,-0.060776352882385254,0.7319583449666409,0.04156583142622084,1.0330658991752195,0.030910549685359,-0.6683276891708374,-0.7432245016098022
1727331524063,9i,16.59346405646754,0.5s : 2.6s,1.048181538958228,0.18987327221099992,-0.3506944179534912,-1.2573210000991821,-0.85777348279953,0.13751953840255737,0.1170760989189148,-0.05859541893005371,0.7279690681522245,0.036462761873993194,1.0215643543455866,0.0272144116461277,-0.66535484790802,-0.7460309863090515
1727331524073,9i,16.59346405646754,0.5s : 2.6s,1.0141401221722603,0.18971391717092373,-0.31855112314224243,-1.2113806009292603,-0.8454656600952148,0.13562989234924316,0.12014281749725342,-0.0562281608581543,0.724336341756617,0.03157175763712943,1.0103722466292218,0.023641405627131462,-0.6626385450363159,-0.7485661506652832
1727331524083,9i,16.59346405646754,0.5s : 2.6s,0.9832378555432064,0.17822406950594372,-0.31750476360321045,-1.1527705192565918,-0.8467493057250977,0.1327114999294281,0.10758733749389648,-0.05075865983963013,0.7209422820436814,0.02713383062698283,0.9992462729088498,0.02038000151515007,-0.6600927710533142,-0.7509075999259949
1727331524093,9i,16.59346405646754,0.5s : 2.6s,0.9524505679386307,0.1627391285412786,-0.3616615831851959,-1.086151123046875,-0.8389403820037842,0.12697374820709229,0.08921182155609131,-0.049019813537597656,0.7173473927488412,0.02326132397643046,0.9881890333079679,0.01752704195678234,-0.6573880910873413,-0.7533483505249023
1727331524103,9i,16.59346405646754,0.5s : 2.6s,0.934484097227505,0.1531323231078486,-0.4043106734752655,-1.0529955625534058,-0.8165779113769531,0.1233249381184578,0.07902097702026367,-0.044678330421447754,0.7133274827766163,0.019711307778520055,0.9773412313430869,0.014904504641890526,-0.6543536186218262,-0.7560418844223022
1727331524113,9i,16.59346405646754,0.5s : 2.6s,0.9075123775750576,0.1534217761108986,-0.45194342732429504,-1.0089669227600098,-0.7787690162658691,0.12830795347690582,0.06797033548355103,-0.049551427364349365,0.7088723237023482,0.016226712131676462,0.966904428039253,0.01231709960848093,-0.650978147983551,-0.7589966058731079
1727331524123,9i,16.59346405646754,0.5s : 2.6s,0.8783318797841094,0.15637906394199289,-0.4528256058692932,-0.9808698892593384,-0.7388353943824768,0.1336890012025833,0.07044458389282227,-0.040239572525024414,0.7042010971537046,0.012705052686230973,0.9570630377830167,0.009682629257440567,-0.6474251747131348,-0.7620675563812256
1727331524133,9i,16.59346405646754,0.5s : 2.6s,0.83431468408039,0.16741224580928368,-0.35078391432762146,-0.9589914679527283,-0.7091733813285828,0.13961872458457947,0.08993524312973022,-0.021097958087921143,0.7000308158657341,0.009096704348710058,0.9476588160149155,0.006957267411053181,-0.6442412734031677,-0.7647907733917236
1727331524143,9i,16.59346405646754,0.5s : 2.6s,0.7827338020775727,0.17923447068820203,-0.22002963721752167,-0.9182717800140381,-0.684687077999115,0.14317838847637177,0.10690367221832275,-0.014019608497619629,0.697122435182808,0.0055460351972548005,0.9386178799720185,0.004252083599567413,-0.6420141458511353,-0.7666810750961304
1727331524153,9i,16.59346405646754,0.5s : 2.6s,0.7598858874278639,0.17964028116973074,-0.09503896534442902,-0.901163637638092,-0.6790004372596741,0.14472925662994385,0.10640358924865723,-0.0015326738357543945,0.6955358133349812,0.0021670007748801393,0.929743752748644,0.0016636279178783298,-0.6407968997955322,-0.7677086591720581
1727331524163,9i,16.59346405646754,0.5s : 2.6s,0.7427318187885329,0.16609320229894317,-0.029108282178640366,-0.8759704828262329,-0.6758424043655396,0.1430649310350418,0.08341246843338013,0.012717604637145996,0.6949447755354401,-0.0010508725076413127,0.9209232405042398,-0.0008071635966189206,-0.6403430104255676,-0.768088698387146
1727331524173,9i,16.59346405646754,0.5s : 2.6s,0.7234193675308243,0.1463837989126908,-0.02774101495742798,-0.8446794152259827,-0.6691849827766418,0.13551123440265656,0.05467033386230469,0.008722186088562012,0.6946934957170261,-0.004049037156977554,0.9121631717321803,-0.003110663965344429,-0.6401500105857849,-0.7682436108589172
1727331524183,9i,16.59346405646754,0.5s : 2.6s,0.684911059278809,0.1264072570080576,-0.09806124866008759,-0.7955616116523743,-0.6317472457885742,0.12303101271390915,0.027238190174102783,-0.010012269020080566,0.6941218155174967,-0.006808538722310608,0.903676303857587,-0.005233109928667545,-0.6397107243537903,-0.7685979604721069
1727331524193,9i,16.59346405646754,0.5s : 2.6s,0.6499899657389882,0.12401048297613444,-0.228111132979393,-0.750971257686615,-0.5675698518753052,0.12037015706300735,-0.0027497410774230957,-0.02969956398010254,0.6925487896885572,-0.009508346427802957,0.8958369942543286,-0.0073177143931388855,-0.6385008692741394,-0.7695863842964172
1727331524203,9i,16.59346405646754,0.5s : 2.6s,0.6174500998832472,0.12831639679074006,-0.3536006808280945,-0.7018248438835144,-0.47849589586257935,0.12282156944274902,-0.018057405948638916,-0.032463669776916504,0.6897129236684174,-0.012406879951042237,0.8890034641508393,-0.009570778347551823,-0.6363157629966736,-0.7713693976402283
1727331524213,9i,16.59346405646754,0.5s : 2.6s,0.5978313971797263,0.13155586227936789,-0.44219979643821716,-0.6701505184173584,-0.3859611749649048,0.12594398856163025,-0.018474161624908447,-0.03322291374206543,0.6857572194391914,-0.015652190706113237,0.8833497273620111,-0.012113358825445175,-0.6332592368125916,-0.7738449573516846
1727331524223,9i,16.59346405646754,0.5s : 2.6s,0.5837699568681903,0.1313231884748658,-0.4917803108692169,-0.6420692205429077,-0.32033446431159973,0.12840859591960907,-0.017071545124053955,-0.021577179431915283,0.6811312393233553,-0.019257444097970866,0.8787043897426178,-0.014959431253373623,-0.6296722292900085,-0.7767168879508972
1727331524233,9i,16.59346405646754,0.5s : 2.6s,0.5686962512620284,0.13589761411268525,-0.5078276991844177,-0.6175260543823242,-0.28091514110565186,0.13485710322856903,-0.014147639274597168,-0.009031474590301514,0.676164382746994,-0.023047166195877915,0.874761241127329,-0.01797471009194851,-0.6258059144020081,-0.7797716856002808
1727331524243,9i,16.59346405646754,0.5s : 2.6s,0.5559687004959095,0.14511915226286826,-0.48700380325317383,-0.6114742755889893,-0.274376779794693,0.14316166937351227,-0.012332677841186523,0.020302951335906982,0.6712626015439286,-0.026880012283377913,0.8710860307184886,-0.021045509725809097,-0.6219751238822937,-0.782754123210907
1727331524253,9i,16.59346405646754,0.5s : 2.6s,0.541763789984677,0.15605136014539225,-0.4642718434333801,-0.5895529985427856,-0.29767516255378723,0.14945943653583527,-0.023873627185821533,0.03799939155578613,0.6666071120150346,-0.030524685730479173,0.8672947179269396,-0.023986361920833588,-0.618323028087616,-0.7855579853057861
1727331524263,9i,16.59346405646754,0.5s : 2.6s,0.5401367255550905,0.1593636698580528,-0.4936535358428955,-0.5427559614181519,-0.3309757709503174,0.14967510104179382,-0.0370793342590332,0.04024010896682739,0.6619279211894419,-0.03360903368836259,0.8631297557101401,-0.026506109163165092,-0.6146387457847595,-0.7883632779121399
1727331524272,9i,16.59346405646754,0.5s : 2.6s,0.5418737308307117,0.1575932973945034,-0.50445955991745,-0.5077436566352844,-0.37378209829330444,0.14651253819465637,-0.039894819259643555,0.042167842388153076,0.657052498818598,-0.03600316072984048,0.8584856894750942,-0.028501000255346298,-0.6107856631278992,-0.7912828326225281
1727331524282,9i,16.59346405646754,0.5s : 2.6s,0.5483494911615563,0.1495354494160738,-0.5308464169502258,-0.4644135534763336,-0.41254693269729614,0.1388872116804123,-0.04029965400695801,0.03804117441177368,0.6520414888499311,-0.03769500327327283,0.853295139280229,-0.02995465323328972,-0.6068103313446045,-0.7942820191383362
1727331524292,9i,16.59346405646754,0.5s : 2.6s,0.548732041775202,0.12965424894143393,-0.5346866846084595,-0.4289003014564514,-0.44582444429397583,0.12360850721597672,-0.021129906177520752,0.032934606075286865,0.646855208137115,-0.03872734991026137,0.8476731054489633,-0.03089604526758194,-0.6026799082756042,-0.7973847389221191
1727331524302,9i,16.59346405646754,0.5s : 2.6s,0.5277038853232019,0.11599757802183082,-0.4774159789085388,-0.4059707522392273,-0.47497859597206116,0.1072535514831543,0.006451606750488281,0.0437091588973999,0.6419420404946927,-0.03929307222143074,0.8416723067742188,-0.031463079154491425,-0.5987520217895508,-0.8003162741661072
1727331524312,9i,16.59346405646754,0.5s : 2.6s,0.49270578676923577,0.10615636589856167,-0.39935722947120667,-0.3689734935760498,-0.4933723509311676,0.09282451868057251,0.022172927856445312,0.04648810625076294,0.6377631984052213,-0.03942529354434694,0.8353942984779273,-0.03166724368929863,-0.595399796962738,-0.8028052449226379
1727331524322,9i,16.59346405646754,0.5s : 2.6s,0.46341882789065436,0.09414394893831367,-0.3523743450641632,-0.3238203227519989,-0.49783381819725037,0.08097873628139496,0.02094292640686035,0.04320788383483887,0.6342047809281237,-0.03912604523661113,0.8290926838046357,-0.031509675085544586,-0.5925371050834656,-0.8049266338348389
1727331524332,9i,16.59346405646754,0.5s : 2.6s,0.44661950919277293,0.08952428829106474,-0.3358986973762512,-0.27802860736846924,-0.5027832984924316,0.07529579848051071,0.012620925903320312,0.046753108501434326,0.6309810195841017,-0.03838240315548279,0.8227499452260644,-0.03098423033952713,-0.589937150478363,-0.8068544864654541
1727331524342,9i,16.59346405646754,0.5s : 2.6s,0.4453618091452266,0.08959080127521032,-0.34031954407691956,-0.23303325474262238,-0.5199095606803894,0.07525856047868729,-0.0019840598106384277,0.04856669902801514,0.6278070446764376,-0.03713450872102081,0.8163154737223669,-0.030046703293919563,-0.5873713493347168,-0.8087595701217651
1727331524352,9i,16.59346405646754,0.5s : 2.6s,0.4811681053922868,0.09480972172619156,-0.3921864628791809,-0.1888900250196457,-0.5697405338287354,0.08156995475292206,-0.023173272609710693,0.04240548610687256,0.6244051621604744,-0.03522945743171181,0.809462336810659,-0.028576133772730827,-0.5846147537231445,-0.8108075857162476
1727331524362,9i,16.59346405646754,0.5s : 2.6s,0.5535909113810673,0.10593621166442253,-0.4904174506664276,-0.15820197761058807,-0.6441743969917297,0.08845348656177521,-0.046765804290771484,0.034805476665496826,0.6202143963457573,-0.032499224059065246,0.8018290684191594,-0.02644171379506588,-0.581209659576416,-0.8133241534233093
1727331524372,9i,16.59346405646754,0.5s : 2.6s,0.6343511259239745,0.11384441432592335,-0.5880958437919617,-0.13952095806598663,-0.7267773747444153,0.08849864453077316,-0.06452441215515137,0.031066715717315674,0.6150144801749585,-0.029014260883340713,0.7932349652224933,-0.023694511502981186,-0.5769703388214111,-0.8164213299751282
1727331524382,9i,16.59346405646754,0.5s : 2.6s,0.6963316955981996,0.1123334244765922,-0.6733821034431458,-0.11177828162908554,-0.781491219997406,0.08146447688341141,-0.07443493604660034,0.021018505096435547,0.6088906497963477,-0.02485189770395486,0.7838110800498536,-0.02038349211215973,-0.5719578266143799,-0.8200297355651855
1727331524392,9i,16.59346405646754,0.5s : 2.6s,0.7157611441987851,0.09980823661796207,-0.6714390516281128,-0.10432489216327667,-0.8221156001091003,0.07105575501918793,-0.06593292951583862,0.02378261089324951,0.6023056084246078,-0.02029086343255378,0.773884603242182,-0.016719166189432144,-0.5665438771247864,-0.8238619565963745
1727331524402,9i,16.59346405646754,0.5s : 2.6s,0.687933793050894,0.08488473827225827,-0.577053427696228,-0.06601602584123611,-0.8446919918060303,0.06306189298629761,-0.049731314182281494,0.027484774589538574,0.5961668721293572,-0.015357643661836326,0.7636679167565574,-0.01270785741508007,-0.5614747405052185,-0.8273963332176208
1727331524412,9i,16.59346405646754,0.5s : 2.6s,0.6346499193047639,0.07520507626114359,-0.3890262246131897,-0.023482684046030045,-0.8616712093353271,0.06504017859697342,-0.030187785625457764,0.02267765998840332,0.5914134320438301,-0.010026261933404248,0.7533223467874456,-0.008323196321725845,-0.55753493309021,-0.8301117420196533
1727331524422,9i,16.59346405646754,0.5s : 2.6s,0.6014951289654797,0.08079863859103728,-0.1706223338842392,0.011790796183049679,-0.8798376321792603,0.07489267736673355,-0.02361428737640381,0.01902294158935547,0.5886369130355867,-0.004241075691267391,0.7428333989637875,-0.0035272848326712847,-0.5552278757095337,-0.831690788269043
1727331524432,9i,16.59346405646754,0.5s : 2.6s,0.6016684929459473,0.09520830251766628,0.00990403164178133,0.05575399473309517,-0.8947747349739075,0.08760575205087662,-0.03349858522415161,0.016361474990844727,0.5878889913124119,0.0020294339553944894,0.7321670102061292,0.0016887178644537926,-0.5546056628227234,-0.8321115970611572
1727331524442,9i,16.59346405646754,0.5s : 2.6s,0.611235186981044,0.11544317525214669,0.10931024700403214,0.07121452689170837,-0.9014286398887634,0.102059006690979,-0.05380082130432129,0.004069089889526367,0.5884845617301767,0.008667315398527279,0.7213800161785434,0.0072092339396476746,-0.5551011562347412,-0.8317515850067139
1727331524452,9i,16.59346405646754,0.5s : 2.6s,0.5976954567815175,0.14071127380041976,0.132102370262146,0.056423068046569824,-0.8789840340614319,0.11636392772197723,-0.0791129469871521,-0.0004904270172119141,0.5896249678397391,0.015256230672489676,0.7106666920631319,0.01267971284687519,-0.5560493469238281,-0.8310525417327881
1727331524462,9i,16.59346405646754,0.5s : 2.6s,1.4664231035938624,0.16149508788187458,1.9784200191497803,-0.2048058658838272,-0.904899537563324,0.12654316425323486,-0.10014945268630981,0.006130099296569824,0.596716421613607,0.02161874761789453,0.6998636603422699,0.01788131520152092,-0.5619294047355652,-0.8269919157028198
1727331524472,9i,16.59346405646754,0.5s : 2.6s,0.5894788991787211,0.33676646455806536,0.13111275434494019,-0.18951179087162018,-0.8476334810256958,0.22727644443511963,-0.1784074306488037,0.17299669981002808,0.6079805543446856,0.023336652180378347,0.6893457850235233,0.019153060391545296,-0.571211040019989,-0.8205797672271729
1727331524482,9i,16.59346405646754,0.5s : 2.6s,0.6086938169167693,0.2496523858482952,-0.06814376264810562,-0.22075776755809784,-0.877115786075592,0.24141593277454376,0.06359505653381348,-0.0005744099617004395,0.6071976631111965,0.02732647480135541,0.6786379579495097,0.022439079359173775,-0.5705682635307312,-0.8209435939788818
1727331524492,9i,16.59346405646754,0.5s : 2.6s,0.6158769357997043,0.06698469431440228,0.020224180072546005,0.18059659004211426,-0.8995651602745056,0.021378714591264725,-0.055602431297302246,0.030631184577941895,0.6070541491058482,0.03359419193089086,0.6676580409575472,0.0275867972522974,-0.5704504251480103,-0.8208686113357544
1727331524502,9i,16.59346405646754,0.5s : 2.6s,0.5172494514557332,0.13301547590659563,-0.25699663162231445,0.16360074281692505,-0.7080063223838806,-0.03559534624218941,-0.10950654745101929,-0.06659132242202759,0.6056491462847402,0.04106218924996835,0.6578120455104451,0.03374908119440079,-0.5692958831787109,-0.8214396834373474
1727331524512,9i,16.59346405646754,0.5s : 2.6s,0.45754667868064736,0.20579763492367747,-0.5923203229904175,0.0015889361966401339,-0.3376557230949402,0.04189354553818703,-0.20103007555007935,-0.01358330249786377,0.6010150011834275,0.045443844109775616,0.651649929038202,0.037467461079359055,-0.5654798746109009,-0.823910653591156