timestamp,club,max_speed(mph),tempo,rotation.x,rotation.y,rotation.x,userAcceleration.x,userAcceleration.y,userAcceleration.z,speed(mph),acc
1727122052943,6i,8.06449675717071,0.2s : 0.5s,-2.4542834758758545,5.118080139160156,5.0428547859191895,2.0094807147979736,-0.7207027673721313,1.2345008850097656,1.94494863405708,2.4660530523759454
1727122052933,6i,8.06449675717071,0.2s : 0.5s,-2.1952219009399414,4.892999649047852,4.492488384246826,1.7940475940704346,-0.7237820029258728,1.0812548398971558,2.0259014355834544,2.21620829038029
1727122052953,6i,8.06449675717071,0.2s : 0.5s,-2.50445818901062,5.281650066375732,5.581132888793945,2.3144264221191406,-0.6451869010925293,1.3105077743530273,2.3003514454827374,2.7368351114717
1727122052963,6i,8.06449675717071,0.2s : 0.5s,-2.522125482559204,5.451595306396484,6.096916198730469,2.6373190879821777,-0.46795347332954407,1.2157288789749146,2.6360067731918098,2.941501169846773
1727122052973,6i,8.06449675717071,0.2s : 0.5s,-2.59889817237854,5.633963108062744,6.5793609619140625,2.893745183944702,-0.32217633724212646,1.0829734802246094,2.9587141065506835,3.106507740333462
1727122052983,6i,8.06449675717071,0.2s : 0.5s,-2.8124446868896484,5.884582042694092,7.051707744598389,3.25050687789917,-0.19752930104732513,1.0520917177200317,3.3174354925586402,3.42223753859038
1727122052993,6i,8.06449675717071,0.2s : 0.5s,-3.0740363597869873,6.067547798156738,7.516442775726318,3.595670700073242,-0.05500628054141998,1.133472204208374,3.6968656989607247,3.7704950221392934
1727122053003,6i,8.06449675717071,0.2s : 0.5s,-3.367398977279663,6.184779167175293,7.86189603805542,3.975635051727295,0.09259749948978424,1.174717903137207,4.102983901288755,4.1465902273296225
1727122053013,6i,8.06449675717071,0.2s : 0.5s,-3.670518159866333,6.324285507202148,8.556324005126953,4.257291793823242,0.34939804673194885,1.2086970806121826,4.479142591980365,4.439319885466155
1727122053023,6i,8.06449675717071,0.2s : 0.5s,-3.855583429336548,6.619935512542725,9.214129447937012,4.601771354675293,0.7199937105178833,1.2306798696517944,4.862220787446006,4.817599348789971
1727122053033,6i,8.06449675717071,0.2s : 0.5s,-4.084071636199951,6.870093822479248,9.62781047821045,4.87940788269043,1.0720348358154297,1.2549335956573486,5.2217349316401265,5.150993914224011
1727122053043,6i,8.06449675717071,0.2s : 0.5s,-4.2971510887146,7.106775283813477,10.13282299041748,5.096408367156982,1.4775102138519287,1.2398396730422974,5.535273237585007,5.449184993346629
1727122053053,6i,8.06449675717071,0.2s : 0.5s,-4.814512252807617,7.409422397613525,10.516423225402832,5.313369274139404,1.9457807540893555,1.2731951475143433,5.820068498812215,5.799912212267295
1727122053063,6i,8.06449675717071,0.2s : 0.5s,-5.657333850860596,7.756059646606445,10.66572380065918,5.464895248413086,2.3117876052856445,1.2093510627746582,6.058586212632299,6.055738765923977
1727122053073,6i,8.06449675717071,0.2s : 0.5s,-7.239357948303223,7.639222621917725,10.940407752990723,5.403062343597412,2.622114658355713,1.2483079433441162,6.166824703825425,6.134072113350174
1727122053083,6i,8.06449675717071,0.2s : 0.5s,-8.99249267578125,6.932723045349121,10.928177833557129,5.505398273468018,2.98260235786438,1.6884934902191162,6.268423198290129,6.485085754340887
1727122053093,6i,8.06449675717071,0.2s : 0.5s,-11.34701919555664,8.484794616699219,11.086432456970215,5.677302360534668,3.1771340370178223,1.9911267757415771,6.411098007012168,6.803714325218595
1727122053103,6i,8.06449675717071,0.2s : 0.5s,-15.102461814880371,5.203864574432373,11.275246620178223,5.732365608215332,3.531139373779297,2.062443733215332,6.52521167846043,7.041493797198402
1727122053113,6i,8.06449675717071,0.2s : 0.5s,-17.817272186279297,3.76296067237854,11.039865493774414,6.031242847442627,4.240675926208496,2.5181186199188232,6.731316461835414,7.791029712427878
1727122053123,6i,8.06449675717071,0.2s : 0.5s,-21.483642578125,2.1587820053100586,12.422554016113281,6.4263834953308105,4.820715427398682,3.495943307876587,7.049235007049651,8.761239733788077
1727122053133,6i,8.06449675717071,0.2s : 0.5s,-25.042255401611328,0.36062192916870117,12.20908260345459,7.59641170501709,5.7276506423950195,4.0786566734313965,7.800648589493979,10.351178335492786
1727122053143,6i,8.06449675717071,0.2s : 0.5s,-28.932554244995117,-1.7119024991989136,11.6843900680542,7.135817050933838,5.993368148803711,4.636863708496094,8.06449675717071,10.408691166648238
1727122053153,6i,8.06449675717071,0.2s : 0.5s,-31.535547256469727,-3.3112103939056396,8.661426544189453,6.22022008895874,4.955665588378906,5.336308002471924,7.738794883652361,9.577366155482133
1727122053163,6i,8.06449675717071,0.2s : 0.5s,-32.48009490966797,-5.051092624664307,3.499521255493164,5.6490654945373535,3.5201706886291504,6.724730968475342,7.2301686284209135,9.461794186993696
1727122053173,6i,8.06449675717071,0.2s : 0.5s,-26.647085189819336,-9.274869918823242,-1.5179963111877441,5.817258834838867,3.646859884262085,9.571906089782715,6.998592500207052,11.77970600475964
1727122053183,6i,8.06449675717071,0.2s : 0.5s,-25.603757858276367,-17.901046752929688,-1.7114368677139282,5.686643600463867,7.074350833892822,11.624238967895508,6.825754494711837,14.748128245388875
1727122053193,6i,8.06449675717071,0.2s : 0.5s,-9.696175575256348,-5.22959041595459,0.056185219436883926,4.542367935180664,11.092788696289062,8.692188262939453,6.183309608664869,14.806660809158094
1727122053203,6i,8.06449675717071,0.2s : 0.5s,-12.876015663146973,-15.479804992675781,-1.0109248161315918,3.422597646713257,9.872383117675781,-2.6547820568084717,5.230657639932324,10.780815870916687
1727122053213,6i,8.06449675717071,0.2s : 0.5s,-19.261356353759766,-9.436837196350098,-5.405822277069092,3.7063560485839844,4.014093399047852,13.441628456115723,4.777759649670185,14.509562244513601
1727122053223,6i,8.06449675717071,0.2s : 0.5s,-10.452635765075684,-13.415363311767578,-10.282001495361328,2.7655885219573975,-1.1288087368011475,-3.598128318786621,4.1129101456204715,4.676453403543688
1727122053233,6i,8.06449675717071,0.2s : 0.5s,-11.845520973205566,-10.973057746887207,-5.656642913818359,2.08860445022583,-1.810293436050415,5.8808488845825195,3.3720588919712546,6.497985416835423
1727122053243,6i,8.06449675717071,0.2s : 0.5s,-7.2133636474609375,-11.238582611083984,-10.961580276489258,7.05510950088501,1.7382787466049194,0.9693179726600647,5.2863991471983685,7.330467952491036
1727122053253,6i,8.06449675717071,0.2s : 0.5s,-6.55604887008667,-11.255215644836426,-10.500844955444336,3.3994245529174805,-1.8140357732772827,4.086638450622559,4.918572128273433,5.616709615407821
1727122053263,6i,8.06449675717071,0.2s : 0.5s,-3.5865626335144043,-10.56247615814209,-8.828526496887207,4.852726459503174,-1.6527904272079468,3.657136917114258,5.153220073314726,6.297247074520136
1727122053273,6i,8.06449675717071,0.2s : 0.5s,-2.728306293487549,-11.017687797546387,-9.923834800720215,2.3676578998565674,-1.5317809581756592,4.133951663970947,4.206769425556313,5.004169580922585
1727122053283,6i,8.06449675717071,0.2s : 0.5s,-1.2866896390914917,-10.203965187072754,-10.138520240783691,3.0749247074127197,-1.0893831253051758,4.078160762786865,3.8590937854766274,5.222385734230211
1727122053293,6i,8.06449675717071,0.2s : 0.5s,-0.08686364442110062,-9.979183197021484,-10.644617080688477,2.2797129154205322,-1.8892613649368286,4.169740200042725,3.3495763070405116,5.114013376755138
1727122053303,6i,8.06449675717071,0.2s : 0.5s,1.097184419631958,-9.353493690490723,-10.244847297668457,2.3866491317749023,-1.1126337051391602,3.90181040763855,3.0721486296087037,4.707246785241889
1727122053313,6i,8.06449675717071,0.2s : 0.5s,2.110062837600708,-8.962939262390137,-10.491595268249512,2.557858467102051,-0.8437101244926453,3.389216423034668,3.013507879571294,4.329119387827617
1727122053323,6i,8.06449675717071,0.2s : 0.5s,3.13114595413208,-8.489158630371094,-9.979866981506348,2.5249130725860596,-1.1267457008361816,3.4202041625976562,2.978988023118725,4.398015281046569
1727122053333,6i,8.06449675717071,0.2s : 0.5s,4.321142196655273,-8.1044921875,-9.319202423095703,2.5256617069244385,-0.836113691329956,3.012761354446411,2.9586502447605576,4.019301449443628
1727122053343,6i,8.06449675717071,0.2s : 0.5s,4.828505992889404,-7.8245368003845215,-9.172383308410645,2.2962565422058105,-0.6371667981147766,2.6015448570251465,2.8393210086468743,3.528003866119879
1727122053353,6i,8.06449675717071,0.2s : 0.5s,4.769224643707275,-7.318088054656982,-8.531255722045898,2.2650022506713867,-0.5410979986190796,2.4861979484558105,2.7447382185105362,3.4064941624141825
1727122053363,6i,8.06449675717071,0.2s : 0.5s,5.179474830627441,-6.761965274810791,-7.183027744293213,2.0678932666778564,-0.4635675549507141,2.6974563598632812,2.5989753209694375,3.430356869735489
1727122053373,6i,8.06449675717071,0.2s : 0.5s,5.616546154022217,-6.22321891784668,-6.207707405090332,1.6132668256759644,-0.27735477685928345,2.5388097763061523,2.2924437261048607,3.020779800538424
1727122053383,6i,8.06449675717071,0.2s : 0.5s,5.7441864013671875,-5.750670909881592,-5.706040382385254,1.464962363243103,-0.1981716752052307,2.271791696548462,2.026757155503601,2.710428794688952
1727122053393,6i,8.06449675717071,0.2s : 0.5s,5.916792869567871,-5.310703277587891,-5.238021373748779,1.4130300283432007,-0.296750009059906,2.1412670612335205,1.8503596502228299,2.5825837946522237
1727122053403,6i,8.06449675717071,0.2s : 0.5s,6.18316125869751,-4.906473636627197,-4.639577388763428,1.2665925025939941,-0.2654804587364197,2.0468831062316895,1.6836547473426084,2.421666139701116
1727122053413,6i,8.06449675717071,0.2s : 0.5s,6.4249420166015625,-4.554582118988037,-4.178012847900391,1.2505371570587158,0.0014221370220184326,1.7899739742279053,1.5769679290155436,2.183541167936031
1727122053423,6i,8.06449675717071,0.2s : 0.5s,6.503932952880859,-4.290870666503906,-3.7006149291992188,1.2807297706604004,0.3021257221698761,1.6880159378051758,1.5334244263918069,2.1403145805551103
1727122053433,6i,8.06449675717071,0.2s : 0.5s,6.571521759033203,-4.001168727874756,-3.18696928024292,1.352055549621582,0.37498846650123596,1.6320915222167969,1.5462150062358742,2.1522995368125244