timestamp,club,max_speed,tempo,speed,acc,rotation.x,rotation.y,rotation.z,userAcceleration.x,userAcceleration.y,userAcceleration.z,pitch,roll,yaw,gravity.x,gravity.y,gravity.z
1727330687372,9i,2.167479666876773,5.3s : 7.1s,0.08200606819480442,0.1543572426915532,-0.30831941962242126,1.3574298620224,0.015697056427598,0.011391177773475647,-0.14533185958862305,0.05074495077133179,-1.2240029555983378,0.22531569810324226,0.15848944148390365,0.07593487203121185,0.9404674172401428,-0.3312929570674896
1727330687382,9i,2.167479666876773,5.3s : 7.1s,0.12271851694710345,0.16832703324409234,-0.23401868343353271,1.4793559312820435,0.003755375510081649,-0.018260657787322998,-0.16447502374649048,0.0307978093624115,-1.2266420957312913,0.2414749134844663,0.16062449249861194,0.08068438619375229,0.941361129283905,-0.3276117444038391
1727330687392,9i,2.167479666876773,5.3s : 7.1s,0.18799931894333696,0.16528608503880737,-0.1575087308883667,1.5972521305084229,-0.000842838198877871,-0.04245813935995102,-0.15858590602874756,0.019165247678756714,-1.2285488806512257,0.258224297479774,0.16209863375724845,0.08570156246423721,0.9420027732849121,-0.3244783282279968
1727330687402,9i,2.167479666876773,5.3s : 7.1s,0.24502617288562328,0.1455186705244871,-0.07084561139345169,1.702711582183838,0.012924173846840858,-0.06233981251716614,-0.13061487674713135,0.015138864517211914,-1.2296365865902639,0.2756763984758503,0.1631383229783057,0.09107211977243423,0.9423672556877136,-0.32194724678993225
1727330687412,9i,2.167479666876773,5.3s : 7.1s,0.29726177845784896,0.12042954974358569,0.014941999688744545,1.7989379167556763,0.031435806304216385,-0.07230354845523834,-0.09540665149688721,0.01315462589263916,-1.2298460521030679,0.2939593745218954,0.16398743677469343,0.09688547253608704,0.9424373507499695,-0.3200393319129944
1727330687422,9i,2.167479666876773,5.3s : 7.1s,0.3434987447183474,0.10471491425939702,0.08484072983264923,1.877906322479248,0.05241568759083748,-0.07960283756256104,-0.06716102361679077,0.01086270809173584,-1.2292485200122916,0.31294348426992613,0.16466273422231592,0.10311664640903473,0.942237377166748,-0.31867820024490356
1727330687432,9i,2.167479666876773,5.3s : 7.1s,0.3854733809900102,0.1007085789246104,0.14031356573104858,1.9685275554656982,0.07575776427984238,-0.08786630630493164,-0.04780763387680054,0.011668771505355835,-1.227959900605956,0.3328105135363762,0.1653893293338388,0.10982371121644974,0.9418049454689026,-0.31771427392959595
1727330687442,9i,2.167479666876773,5.3s : 7.1s,0.4209261881052875,0.1065756369343667,0.15978693962097168,2.0627565383911133,0.082996666431427,-0.09750182926654816,-0.03914332389831543,0.017876237630844116,-1.2262468078361877,0.35362845961149647,0.1661348347012825,0.11697202920913696,0.9412277340888977,-0.31687209010124207
1727330687452,9i,2.167479666876773,5.3s : 7.1s,0.4494638994813894,0.1138627909213483,0.15741778910160065,2.156196117401123,0.07489746063947678,-0.1044943556189537,-0.03550064563751221,0.02802443504333496,-1.2245016818675434,0.37518442580165917,0.16666120675183702,0.1243765652179718,0.9406368136405945,-0.3158051371574402
1727330687462,9i,2.167479666876773,5.3s : 7.1s,0.4751532206935558,0.12077658013740367,0.15277104079723358,2.2586424350738525,0.07003436237573624,-0.11127643287181854,-0.023843109607696533,0.04044803977012634,-1.222797672999581,0.3974529407600502,0.16691143770679026,0.13199783861637115,0.940057098865509,-0.3144347369670868
1727330687472,9i,2.167479666876773,5.3s : 7.1s,0.5009922549800305,0.12109066967452564,0.15426161885261536,2.34720778465271,0.06749024987220764,-0.10677115619182587,-0.004746973514556885,0.05692395567893982,-1.2211243049377114,0.42055296150593063,0.16701138587855877,0.13986743986606598,0.9394851326942444,-0.31273746490478516
1727330687482,9i,2.167479666876773,5.3s : 7.1s,0.5241741078199029,0.10521773221792552,0.15637457370758057,2.4108314514160156,0.0577276311814785,-0.0861862450838089,0.011559247970581055,0.059237539768218994,-1.2194517652972827,0.4440846471103158,0.16679270639742166,0.1478622853755951,0.9389108419418335,-0.3107786178588867
1727330687492,9i,2.167479666876773,5.3s : 7.1s,0.5428271908148011,0.08997708271851686,0.15900230407714844,2.459378957748413,0.0465141236782074,-0.06619875133037567,0.018147051334381104,0.05817461013793945,-1.2178263283004582,0.46773926045750075,0.16609922778711592,0.15585939586162567,0.9383501410484314,-0.30855605006217957
1727330687502,9i,2.167479666876773,5.3s : 7.1s,0.5616563922600079,0.08212579994445379,0.1929396241903305,2.4937455654144287,0.04195685684680939,-0.04508058726787567,0.02227383852005005,0.06493276357650757,-1.2160450794548194,0.49133870315143097,0.16488637182574803,0.16388551890850067,0.9377329349517822,-0.3062656819820404
1727330687512,9i,2.167479666876773,5.3s : 7.1s,0.5779990374172501,0.07037733398117696,0.23212404549121857,2.5108225345611572,0.030128957703709602,-0.028164133429527283,0.026680052280426025,0.05871903896331787,-1.2140401810369252,0.5144396152910592,0.1629111688591918,0.17184089124202728,0.9370346069335938,-0.3040345013141632
1727330687522,9i,2.167479666876773,5.3s : 7.1s,0.5917301588976412,0.06938409653999615,0.2546486556529999,2.5454413890838623,-0.00044393003918230534,-0.017845720052719116,0.03886681795120239,0.05463564395904541,-1.2118327037851613,0.5367389521670299,0.1597688422628992,0.17963466048240662,0.9362614154815674,-0.30190423130989075
1727330687532,9i,2.167479666876773,5.3s : 7.1s,0.6015580453593586,0.06907354015633982,0.2827620506286621,2.5723109245300293,-0.04574882611632347,-0.016911134123802185,0.041481614112854004,0.052577972412109375,-1.2096515992096946,0.5580481017565899,0.15526697973844134,0.18710766732692719,0.9354929327964783,-0.2997397482395172
1727330687542,9i,2.167479666876773,5.3s : 7.1s,0.6085169457380231,0.06587671841117546,0.31010714173316956,2.6173336505889893,-0.10218054056167603,-0.020760968327522278,0.03726989030838013,0.05019640922546387,-1.207542319554524,0.5780622742872286,0.14897300713400882,0.1941465586423874,0.9347455501556396,-0.2975870966911316
1727330687552,9i,2.167479666876773,5.3s : 7.1s,0.6121219828726668,0.060591858048971894,0.32916152477264404,2.6617751121520996,-0.16610893607139587,-0.025656387209892273,0.03335613012313843,0.04359462857246399,-1.2056360163012643,0.596905573008613,0.14095081553670535,0.20072050392627716,0.9340665340423584,-0.2953493595123291
1727330687562,9i,2.167479666876773,5.3s : 7.1s,0.616461595469753,0.05930207686676964,0.37299907207489014,2.70163893699646,-0.2279863804578781,-0.029394924640655518,0.03404641151428223,0.038646042346954346,-1.203877592958089,0.6142639483282784,0.13087695974438043,0.20676307380199432,0.933437168598175,-0.29316258430480957
1727330687572,9i,2.167479666876773,5.3s : 7.1s,0.6204940755977665,0.06001769501600239,0.4055439531803131,2.7314789295196533,-0.2822946012020111,-0.02799306809902191,0.03885740041732788,0.036174774169921875,-1.202210040704234,0.6301262081108115,0.1188073249074772,0.21230396628379822,0.9328376054763794,-0.2911032736301422
1727330687582,9i,2.167479666876773,5.3s : 7.1s,0.6219406394986057,0.063369470772142,0.42275533080101013,2.741426706314087,-0.33955225348472595,-0.022459998726844788,0.04934149980545044,0.032812416553497314,-1.200726984236135,0.6445607573751702,0.1050232778201726,0.2173147201538086,0.9323022961616516,-0.28911420702934265
1727330687592,9i,2.167479666876773,5.3s : 7.1s,0.6226226618314756,0.07029978591073704,0.44776374101638794,2.7418806552886963,-0.3853985667228699,-0.015143439173698425,0.05864071846008301,0.03569316864013672,-1.1994871847973263,0.6577261289464371,0.08980193670800575,0.22180847823619843,0.9318531155586243,-0.28714269399642944
1727330687602,9i,2.167479666876773,5.3s : 7.1s,0.6460955066271834,0.07361497357397105,0.6191105842590332,2.8422365188598633,-0.4141033887863159,-0.00866614282131195,0.06635570526123047,0.030675441026687622,-1.197908545494211,0.6692943347812019,0.07237058205132339,0.22602754831314087,0.931279182434082,-0.28571075201034546
1727330687612,9i,2.167479666876773,5.3s : 7.1s,0.6812385854487889,0.0720710458404525,0.864566445350647,2.830829620361328,-0.43165522813796997,-0.006207138299942017,0.07110816240310669,0.009966760873794556,-1.1946776296731336,0.6774024868459788,0.05058487024830748,0.23022137582302094,0.9300972819328308,-0.286211758852005
1727330687622,9i,2.167479666876773,5.3s : 7.1s,0.7041987161068648,0.08721475591090737,0.9664506316184998,2.8080546855926514,-0.4648532569408417,-0.016148462891578674,0.08408880233764648,-0.016574501991271973,-1.1903515702194085,0.682284393423001,0.02560014032318219,0.2341507226228714,0.9284995794296265,-0.28820446133613586
1727330687631,9i,2.167479666876773,5.3s : 7.1s,0.7342616842906313,0.14632277475633498,1.124982237815857,2.778538942337036,-0.552200436592102,-0.024108707904815674,0.1390082836151123,0.03880491852760315,-1.1854833100306685,0.6841722793487427,-0.0024443406169678632,0.2375486046075821,0.9266808032989502,-0.2912614643573761
1727330687641,9i,2.167479666876773,5.3s : 7.1s,0.7610700836412703,0.20102023108622777,1.2824552059173584,2.7503435611724854,-0.6550043225288391,-0.02341330051422119,0.1944701075553894,0.04519212245941162,-1.1799291142392656,0.6816665714763813,-0.03493409134546965,0.2400575578212738,0.9245790243148804,-0.29584816098213196
1727330687651,9i,2.167479666876773,5.3s : 7.1s,0.7712180482695379,0.2086073200613141,1.3470771312713623,2.745148181915283,-0.7407844662666321,-0.029366672039031982,0.20543724298477173,0.021216779947280884,-1.1740537485684965,0.6760917618584787,-0.07064787972079192,0.2417995035648346,0.9223245978355408,-0.30141380429267883
1727330687661,9i,2.167479666876773,5.3s : 7.1s,0.76737294955331,0.1979675233316911,1.3437687158584595,2.736797332763672,-0.8046624660491943,-0.0286673903465271,0.1955258846282959,0.01178768277168274,-1.168349063485724,0.6692509114326838,-0.10779048100915896,0.2429923117160797,0.9201052188873291,-0.30718252062797546
1727330687671,9i,2.167479666876773,5.3s : 7.1s,0.7642207897312001,0.1606989007452313,1.2582669258117676,3.014808177947998,-1.012476921081543,-0.02249281108379364,0.15908467769622803,0.003205537796020508,-1.163476448042968,0.6618683071667575,-0.14616756743948964,0.24347056448459625,0.918185830116272,-0.31250113248825073
1727330687681,9i,2.167479666876773,5.3s : 7.1s,0.7721728453980828,0.11157756880734648,1.126426100730896,3.7339439392089844,-1.710944652557373,-0.02569708228111267,0.1085781455039978,1.1920928955078125e-05,-1.158878674238079,0.6552245613844294,-0.18289981855657927,0.24395878612995148,0.9163547158241272,-0.3174557387828827
1727330687691,9i,2.167479666876773,5.3s : 7.1s,0.7360747837594535,0.16362229799556985,1.0934830904006958,3.2818450927734375,-1.4981669187545776,0.1275879144668579,0.10078734159469604,0.018316447734832764,-1.1554082006671784,0.6489644890590729,-0.21897840532253265,0.2438872903585434,0.9149597883224487,-0.321508526802063
1727330687701,9i,2.167479666876773,5.3s : 7.1s,0.6815765829460151,0.11042623780382813,1.1157249212265015,2.6579959392547607,-1.049652338027954,0.04911552369594574,0.09683305025100708,0.020124107599258423,-1.1528875422826204,0.6423964962571224,-0.25560134387673783,0.24315127730369568,0.9139396548271179,-0.32494887709617615
1727330687711,9i,2.167479666876773,5.3s : 7.1s,0.6509086811153847,0.09005907498800987,1.1162292957305908,2.6091859340667725,-1.073426365852356,-0.018207058310508728,0.08810079097747803,0.004170209169387817,-1.1503860050419827,0.6349617130442019,-0.2926937891155949,0.24208395183086395,0.9129215478897095,-0.32858726382255554
1727330687721,9i,2.167479666876773,5.3s : 7.1s,0.6389385643211694,0.11751067473545493,1.1337871551513672,2.612661123275757,-1.1327378749847412,0.040714263916015625,0.11009252071380615,0.005544751882553101,-1.1478416678732366,0.6264135512516869,-0.33068891330460637,0.240627259016037,0.9118801355361938,-0.33252525329589844
1727330687731,9i,2.167479666876773,5.3s : 7.1s,0.6341083705557119,0.13917178874604375,1.1977893114089966,2.589433193206787,-1.1850247383117676,0.02101890742778778,0.13700968027114868,0.012463539838790894,-1.1451343325159788,0.6165486669557695,-0.37000157605654027,0.23876193165779114,0.9107655882835388,-0.33689582347869873
1727330687741,9i,2.167479666876773,5.3s : 7.1s,0.6390525075723479,0.16138807439084088,1.2978421449661255,2.551901340484619,-1.2033480405807495,0.0406583696603775,0.15471923351287842,0.021329939365386963,-1.1417983343248868,0.6049888934316948,-0.41090632916365344,0.23657852411270142,0.9093829989433289,-0.3421306908130646
1727330687751,9i,2.167479666876773,5.3s : 7.1s,0.6484192211062747,0.1766025872950658,1.3780983686447144,2.521789789199829,-1.20855712890625,0.05141828954219818,0.16620922088623047,0.03031712770462036,-1.137562269408859,0.5922469200559732,-0.452793102634365,0.23434828221797943,0.9076128005981445,-0.3483102321624756
1727330687761,9i,2.167479666876773,5.3s : 7.1s,0.6604976473555614,0.20195720312107945,1.4536811113357544,2.4853971004486084,-1.2227082252502441,0.06821446120738983,0.18681710958480835,0.035112202167510986,-1.1325173388104794,0.5787408788619132,-0.495251614382573,0.2321242392063141,0.9054833650588989,-0.3552720844745636
1727330687771,9i,2.167479666876773,5.3s : 7.1s,0.6770605201766542,0.2231611474860137,1.563044786453247,2.4501750469207764,-1.222719669342041,0.08301670849323273,0.2032182216644287,0.040143221616744995,-1.1264844074915679,0.5644062449488229,-0.538332836651595,0.229925736784935,0.9029066562652588,-0.36317169666290283
1727330687781,9i,2.167479666876773,5.3s : 7.1s,0.6975232558108824,0.23104090784563902,1.6901782751083374,2.4200632572174072,-1.2291128635406494,0.09820336103439331,0.20416629314422607,0.04530039429664612,-1.1191526484695373,0.5492533444835107,-0.5821183135288426,0.2278464436531067,0.899730920791626,-0.37225043773651123
1727330687791,9i,2.167479666876773,5.3s : 7.1s,0.7279967927385516,0.25485537086394283,1.8937556743621826,2.372958183288574,-1.248289704322815,0.11978280544281006,0.21841299533843994,0.05384331941604614,-1.1102945416851755,0.5328970324364338,-0.6270302721341581,0.22576770186424255,0.8958296179771423,-0.38277700543403625
1727330687801,9i,2.167479666876773,5.3s : 7.1s,0.7779691332877349,0.30095075280412803,2.200190544128418,2.3387973308563232,-1.2269567251205444,0.14505189657211304,0.25696510076522827,0.05916282534599304,-1.0987357099952475,0.5147299102832752,-0.673679379006295,0.22385980188846588,0.8906331658363342,-0.39580217003822327
1727330687811,9i,2.167479666876773,5.3s : 7.1s,0.818118982451189,0.34893751064891554,2.3452932834625244,2.2410900592803955,-1.216676950454712,0.16983355581760406,0.29982393980026245,0.05495047569274902,-1.084707003893568,0.495851757119933,-0.7207565856418255,0.22227151691913605,0.8841665983200073,-0.41090747714042664
1727330687821,9i,2.167479666876773,5.3s : 7.1s,0.8530385439104444,0.3825569776799021,2.3699684143066406,2.3644661903381348,-1.3382304906845093,0.18403476476669312,0.3186677098274231,0.10455590486526489,-1.0696689951371199,0.4766451329565898,-0.7677408986108978,0.2204146534204483,0.8770415186882019,-0.4268672466278076
1727330687831,9i,2.167479666876773,5.3s : 7.1s,0.872338536078416,0.37020139043182887,2.254345655441284,2.682260751724243,-1.6078071594238281,0.16946318745613098,0.29020190238952637,0.15528732538223267,-1.0540896619641187,0.4578904050188205,-0.8124535056054775,0.21838468313217163,0.8694508671760559,-0.4431290924549103
1727330687841,9i,2.167479666876773,5.3s : 7.1s,0.840227782042074,0.40372471879133437,2.124103307723999,2.3241541385650635,-1.6231029033660889,0.2790747880935669,0.227777898311615,0.182285875082016,-1.0396632435987274,0.43905545045941363,-0.8567395855626736,0.21530991792678833,0.8622336983680725,-0.4584698975086212
1727330687851,9i,2.167479666876773,5.3s : 7.1s,0.7500371060817345,0.31077303468352924,1.9066390991210938,1.8667373657226562,-1.4502949714660645,0.20690029859542847,0.10980737209320068,0.20424124598503113,-1.0270645346217948,0.42203248494388523,-0.8984018801381104,0.21190762519836426,0.8557840585708618,-0.47194141149520874
1727330687861,9i,2.167479666876773,5.3s : 7.1s,0.6405896715223472,0.2272235754322965,1.5838702917099,1.7832978963851929,-1.4461978673934937,0.09393392503261566,-0.03204190731048584,0.20440226793289185,-1.0169506303219806,0.40722115856144314,-0.937106731833046,0.20831213891506195,0.8505081534385681,-0.48295146226882935
1727330687871,9i,2.167479666876773,5.3s : 7.1s,0.5428426699748994,0.2704357172354937,1.2878851890563965,1.798751711845398,-1.482021450996399,0.0762648731470108,-0.12787717580795288,0.22575777769088745,-1.0095006801345778,0.39457621572858564,-0.9731679492736239,0.2046188861131668,0.8465661406517029,-0.4913827180862427
1727330687881,9i,2.167479666876773,5.3s : 7.1s,0.46243961222840196,0.2949763529724971,1.061538815498352,1.8348954916000366,-1.5316652059555054,0.0252772718667984,-0.16334384679794312,0.2443172037601471,-1.0043713975708601,0.38370613856777447,-1.007352202114895,0.20088844001293182,0.8438248038291931,-0.4975977838039398
1727330687891,9i,2.167479666876773,5.3s : 7.1s,0.4114956680899791,0.2894828373810819,0.9392228126525879,1.9092775583267212,-1.5928654670715332,0.0029817968606948853,-0.1339867115020752,0.2565910816192627,-1.0006304535056607,0.3744800654832555,-1.0396555738360602,0.19744235277175903,0.84181147813797,-0.5023643374443054
1727330687901,9i,2.167479666876773,5.3s : 7.1s,0.388248352156789,0.26210749637880715,0.9115080237388611,1.927054762840271,-1.5794540643692017,-0.009820789098739624,-0.04631012678146362,0.2577969431877136,-0.9973039703698328,0.3666045778640407,-1.070544003539398,0.19448259472846985,0.8400112390518188,-0.5065151453018188
1727330687911,9i,2.167479666876773,5.3s : 7.1s,0.3812810853728637,0.2577969515619714,0.9199228286743164,1.8566231727600098,-1.479081392288208,-0.024442806839942932,0.04617971181869507,0.2524465322494507,-0.9937866197203099,0.35992970736002045,-1.100269229486475,0.19213685393333435,0.8380976319313049,-0.5105642080307007
1727330687921,9i,2.167479666876773,5.3s : 7.1s,0.3784438030897067,0.27896321463287677,0.9069936275482178,1.7146227359771729,-1.2931936979293823,-0.04531465470790863,0.11335122585296631,0.25083571672439575,-0.9901284803767167,0.35447210525317985,-1.1288384601539811,0.19041043519973755,0.836096465587616,-0.5144770741462708
1727330687931,9i,2.167479666876773,5.3s : 7.1s,0.372420571068958,0.30568780297076187,0.8618336319923401,1.5162550210952759,-1.0494368076324463,-0.07412450015544891,0.14196449518203735,0.2603779435157776,-0.9865445571382093,0.35010995909899384,-1.1564618239672395,0.18919098377227783,0.8341250419616699,-0.5181141495704651
1727330687941,9i,2.167479666876773,5.3s : 7.1s,0.35997143889032623,0.320362265629409,0.7649297714233398,1.3179656267166138,-0.7728556990623474,-0.09959165751934052,0.13235270977020264,0.2742193341255188,-0.9834785065146099,0.346816559418982,-1.1830679332115264,0.18835197389125824,0.8324299454689026,-0.521136999130249
1727330687951,9i,2.167479666876773,5.3s : 7.1s,0.3465262744985201,0.3281240291064893,0.6400759816169739,1.1742827892303467,-0.5269610285758972,-0.110859215259552,0.11481422185897827,0.2866937518119812,-0.981290411527434,0.3446835833806909,-1.2084667690243809,0.18785502016544342,0.8312154412269592,-0.5232507586479187
1727330687961,9i,2.167479666876773,5.3s : 7.1s,0.341182023148668,0.3436756854546572,0.5166857838630676,1.1607260704040527,-0.37391194701194763,-0.11176425218582153,0.10094588994979858,0.30892014503479004,-0.9798886322615593,0.3435640405973594,-1.2327529508750878,0.18766142427921295,0.8304353356361389,-0.52455735206604
1727330687971,9i,2.167479666876773,5.3s : 7.1s,0.34147586695239945,0.35733995577967853,0.3572750985622406,1.3032233715057373,-0.379118412733078,-0.10200582444667816,0.08247226476669312,0.3323928117752075,-0.9795789297895462,0.34352897823946454,-1.2559133349187939,0.18772965669631958,0.8302627801895142,-0.5248060822486877
1727330687981,9i,2.167479666876773,5.3s : 7.1s,0.34335668518915463,0.3589539865804489,0.17857126891613007,1.5919913053512573,-0.5775567889213562,-0.07896475493907928,0.07164609432220459,0.3427526354789734,-0.980633942609721,0.3441790387417606,-1.278228591372003,0.1877751350402832,0.8308503031730652,-0.5238592028617859
1727330687991,9i,2.167479666876773,5.3s : 7.1s,0.344158423423451,0.3607936885456732,0.0011610728688538074,1.9784783124923706,-0.9210683107376099,-0.043825551867485046,0.06301403045654297,0.35253459215164185,-0.9832083088883696,0.3457134077080793,-1.299233431165956,0.18785321712493896,0.8322802186012268,-0.5215561985969543
1727330688001,9i,2.167479666876773,5.3s : 7.1s,0.33974386120301886,0.3713596094250645,-0.15044862031936646,2.3320724964141846,-1.269344449043274,-0.011612892150878906,0.04924166202545166,0.3678972125053406,-0.9872275452203522,0.3483725976489135,-1.3187404738845194,0.18809598684310913,0.8345015645027161,-0.5179063081741333
1727330688011,9i,2.167479666876773,5.3s : 7.1s,0.3292989159443852,0.3856609026785255,-0.2595157325267792,2.595146417617798,-1.5565285682678223,0.005139246582984924,0.02383190393447876,0.38488954305648804,-0.9924616452255819,0.3522663021197959,-1.3367511379642456,0.1886015236377716,0.8373741507530212,-0.513063371181488
1727330688021,9i,2.167479666876773,5.3s : 7.1s,0.31466156466639106,0.39473599508278295,-0.31400859355926514,2.738291025161743,-1.7429791688919067,0.007809102535247803,0.0022118091583251953,0.3946525454521179,-0.998516343814962,0.3574314925207063,-1.3533206268288274,0.18947172164916992,0.8406684398651123,-0.5073233842849731
1727330688031,9i,2.167479666876773,5.3s : 7.1s,0.29437350058499334,0.39399577685335546,-0.3345000147819519,2.742037296295166,-1.820292353630066,-0.0024768710136413574,-0.014912605285644531,0.39370566606521606,-1.0050373717799561,0.3635477706446908,-1.3688817755509124,0.19061769545078278,0.844182014465332,-0.5010207295417786
1727330688041,9i,2.167479666876773,5.3s : 7.1s,0.26901035461668615,0.3870989131868286,-0.3331259489059448,2.6262593269348145,-1.7735625505447388,-0.023193523287773132,-0.027262210845947266,0.38544052839279175,-1.0118009943643982,0.37029912744287347,-1.3839041031163646,0.19192516803741455,0.8477883338928223,-0.49438831210136414
1727330688051,9i,2.167479666876773,5.3s : 7.1s,0.24274330188535817,0.37853577316561676,-0.3081710636615753,2.4164674282073975,-1.5971922874450684,-0.047389328479766846,-0.036416471004486084,0.37378793954849243,-1.0185974790559085,0.377537596632957,-1.398560929686846,0.19337013363838196,0.8513731360435486,-0.48761847615242004
1727330688061,9i,2.167479666876773,5.3s : 7.1s,0.21939420711492452,0.3680548968363714,-0.2719249129295349,2.1453986167907715,-1.316401481628418,-0.0711342990398407,-0.04561507701873779,0.3582228124141693,-1.0251434693267762,0.3852688675406855,-1.4127585665609084,0.19503559172153473,0.8547886610031128,-0.4809339940547943
1727330688071,9i,2.167479666876773,5.3s : 7.1s,0.20216207203115516,0.35704189935507435,-0.24029135704040527,1.8671255111694336,-0.9981986880302429,-0.09164440631866455,-0.05619603395462036,0.3404735326766968,-1.0312734720099788,0.39343782640742586,-1.426465697826605,0.19694526493549347,0.8579539060592651,-0.4744762182235718
1727330688081,9i,2.167479666876773,5.3s : 7.1s,0.18903641371503982,0.3426240120187972,-0.25639790296554565,1.6358556747436523,-0.7158390283584595,-0.10769699513912201,-0.06354939937591553,0.318989098072052,-1.0373309851970385,0.4017964672436749,-1.4399121378484265,0.19886822998523712,0.8610500693321228,-0.4680216908454895
1727330688091,9i,2.167479666876773,5.3s : 7.1s,0.18142303595086584,0.3282673642195598,-0.2938017249107361,1.4839590787887573,-0.4834330081939697,-0.123576819896698,-0.05811452865600586,0.29851454496383667,-1.0435698315401023,0.4103344008164728,-1.4531058166324733,0.20070995390415192,0.8642058372497559,-0.46137163043022156
1727330688101,9i,2.167479666876773,5.3s : 7.1s,0.18208727774900474,0.3152525608164479,-0.33280330896377563,1.428666353225708,-0.30528196692466736,-0.1338799148797989,-0.05552738904953003,0.2799590229988098,-1.0499876120308382,0.4193981407800809,-1.4657212126700074,0.202620729804039,0.86741703748703,-0.4544585347175598
1727330688111,9i,2.167479666876773,5.3s : 7.1s,0.1887933530323704,0.3043457831830343,-0.38526996970176697,1.4597218036651611,-0.2201433628797531,-0.13284023106098175,-0.06378448009490967,0.26629188656806946,-1.0565922945684145,0.4292038397805605,-1.4774364898705925,0.20467855036258698,0.8706845045089722,-0.44723060727119446
1727330688121,9i,2.167479666876773,5.3s : 7.1s,0.19637033945418303,0.2902690893794198,-0.4561155438423157,1.5540367364883423,-0.23065413534641266,-0.12505148351192474,-0.06740981340408325,0.2531287968158722,-1.063509226689001,0.4398040250381243,-1.4880500961130119,0.20683853328227997,0.8740656971931458,-0.4395758807659149
1727330688131,9i,2.167479666876773,5.3s : 7.1s,0.20359603082355143,0.2723756258327651,-0.522662878036499,1.6973403692245483,-0.33186596632003784,-0.11361703276634216,-0.0569382905960083,0.2409101128578186,-1.0708681372680653,0.45100217881880705,-1.4976763759166356,0.2089386284351349,0.8776170015335083,-0.431431382894516
1727330688141,9i,2.167479666876773,5.3s : 7.1s,0.21075373542159012,0.25425054296546573,-0.5668783187866211,1.8626593351364136,-0.4748901426792145,-0.10434544086456299,-0.03477668762207031,0.22922903299331665,-1.078614164853464,0.46276682170485867,-1.5063804937054213,0.2109585553407669,0.8813037872314453,-0.42284777760505676
1727330688151,9i,2.167479666876773,5.3s : 7.1s,0.2188765610840619,0.24140973147377456,-0.5848570466041565,2.0295591354370117,-0.6255430579185486,-0.1013696938753128,-0.007732093334197998,0.2189590334892273,-1.0865390022226522,0.475139912976998,-1.5142624728583864,0.2129724621772766,0.8850209712982178,-0.4139816462993622
1727330688161,9i,2.167479666876773,5.3s : 7.1s,0.2241829283940858,0.2288898871690477,-0.6072746515274048,2.16385555267334,-0.7690517902374268,-0.09812910854816437,0.02080059051513672,0.20573914051055908,-1.094567379117627,0.48817609774424764,-1.521345485842864,0.2150113731622696,0.888729989528656,-0.4048815369606018
1727330688170,9i,2.167479666876773,5.3s : 7.1s,0.22440752538847655,0.22237828541161106,-0.6316137909889221,2.240245819091797,-0.875724732875824,-0.09668560326099396,0.05402874946594238,0.19283384084701538,-1.1028676672155535,0.5017709957203288,-1.5277710848133352,0.21694007515907288,0.8925044536590576,-0.395440012216568
1727330688180,9i,2.167479666876773,5.3s : 7.1s,0.22110403733960557,0.2235066191176364,-0.6434587836265564,2.2513816356658936,-0.9005910754203796,-0.09713754057884216,0.08379626274108887,0.18302375078201294,-1.111333921229317,0.5161648478507681,-1.533264128260777,0.21887211501598358,0.8962910175323486,-0.38569095730781555
1727330688190,9i,2.167479666876773,5.3s : 7.1s,0.21456537069411347,0.21780349582238154,-0.6636524796485901,2.2007102966308594,-0.8365033864974976,-0.0931197851896286,0.0962141752243042,0.17178446054458618,-1.119808319103716,0.5318894316123705,-1.53717651248027,0.22104942798614502,0.9000169038772583,-0.3756418526172638
1727330688200,9i,2.167479666876773,5.3s : 7.1s,0.20438922736312332,0.20902970080206157,-0.6983854174613953,2.101569652557373,-0.7377297282218933,-0.0895589292049408,0.09352511167526245,0.16409042477607727,-1.1282928516533417,0.5491352590960775,-1.5391752961491778,0.22350051999092102,0.9036825299263,-0.36524704098701477
1727330688210,9i,2.167479666876773,5.3s : 7.1s,0.18933685376106124,0.20272948456299242,-0.7649180889129639,1.9929686784744263,-0.6256939768791199,-0.0920860767364502,0.07551181316375732,0.16406512260437012,-1.137051763969417,0.5679273196352516,-1.5392453335102723,0.2260582000017166,0.9073984026908875,-0.35429641604423523
1727330688220,9i,2.167479666876773,5.3s : 7.1s,0.17461703734451917,0.20076673898458106,-0.8235118985176086,1.8981596231460571,-0.5011029243469238,-0.10011003911495209,0.06243377923965454,0.16244164109230042,-1.146222580219659,0.5884430702488748,-1.537308206758023,0.2286500632762909,0.9112144112586975,-0.3426479995250702
1727330688230,9i,2.167479666876773,5.3s : 7.1s,0.16841171501430557,0.19773549002280424,-0.8364963531494141,1.8355950117111206,-0.37383949756622314,-0.10452577471733093,0.060114145278930664,0.1567162275314331,-1.1553914929889546,0.6107449160470724,-1.5334260329096785,0.23143309354782104,0.9149529933929443,-0.3306053876876831
1727330688240,9i,2.167479666876773,5.3s : 7.1s,0.16976247420876567,0.18627379491616117,-0.8488610982894897,1.8118335008621216,-0.2834445834159851,-0.09606868028640747,0.059747934341430664,0.14798283576965332,-1.164329747187816,0.6347263215433754,-1.5278169478206873,0.23443534970283508,0.9185235500335693,-0.3183624744415283
1727330688250,9i,2.167479666876773,5.3s : 7.1s,0.17647871696061537,0.17434041725395166,-0.8395861387252808,1.7906421422958374,-0.23615747690200806,-0.07433794438838959,0.08523106575012207,0.1326805055141449,-1.1730215912563566,0.6597954503637663,-1.5209835455227585,0.2374391108751297,0.9219252467155457,-0.30606609582901
1727330688260,9i,2.167479666876773,5.3s : 7.1s,0.18975950323489468,0.17206929199702795,-0.8032806515693665,1.7911323308944702,-0.19655364751815796,-0.04302987456321716,0.12645065784454346,0.1084735095500946,-1.1812017328676145,0.6856666077677617,-1.5131178056920918,0.24049386382102966,0.9250631332397461,-0.2939746677875519
1727330688270,9i,2.167479666876773,5.3s : 7.1s,0.2020121552935227,0.16862609930375347,-0.7902878522872925,1.7752423286437988,-0.15783794224262238,-0.004773005843162537,0.1435956358909607,0.08827385306358337,-1.1886771434962655,0.7124074868996227,-1.5039834888843904,0.24374084174633026,0.9278765320777893,-0.2821977734565735
1727330688280,9i,2.167479666876773,5.3s : 7.1s,0.20523158147461523,0.15852824557323253,-0.8232762813568115,1.731131911277771,-0.1282496154308319,0.0333825945854187,0.13455677032470703,0.07688486576080322,-1.1957106042835286,0.740455253919754,-1.4927804032913492,0.2471502125263214,0.9304762482643127,-0.27042731642723083
1727330688290,9i,2.167479666876773,5.3s : 7.1s,0.1968648436207039,0.13940220861342464,-0.8848128914833069,1.6548882722854614,-0.06490235030651093,0.0581987202167511,0.10653918981552124,0.06852215528488159,-1.2025661459016224,0.770507137345068,-1.4786588301075092,0.250715434551239,0.932965874671936,-0.2582956850528717
1727330688300,9i,2.167479666876773,5.3s : 7.1s,0.17961194295834232,0.10872943853645342,-0.963821530342102,1.5837615728378296,-0.00807282142341137,0.0705018937587738,0.05549359321594238,0.06141689419746399,-1.2092940244130155,0.8031102556417576,-1.4610571911907675,0.2544797956943512,0.9353665709495544,-0.24562104046344757
1727330688310,9i,2.167479666876773,5.3s : 7.1s,0.15420855848701856,0.09047341774124741,-1.0745733976364136,1.527384877204895,0.018241873010993004,0.07491055130958557,0.0025730133056640625,0.05066782236099243,-1.2161817207413994,0.8386549691240471,-1.4396719099314175,0.25824981927871704,0.9377803802490234,-0.23211009800434113
1727330688320,9i,2.167479666876773,5.3s : 7.1s,0.13233362071885071,0.0841319306502321,-1.133745551109314,1.4941898584365845,0.03370704874396324,0.07095229625701904,-0.020864009857177734,0.040107935667037964,-1.223235141334711,0.8770288908783762,-1.4148367834700535,0.26187241077423096,0.9402061700820923,-0.21779656410217285
1727330688330,9i,2.167479666876773,5.3s : 7.1s,0.12191514576013024,0.07363059749556804,-1.1095746755599976,1.482412338256836,0.0508362352848053,0.06403166055679321,-0.025441229343414307,0.02596449851989746,-1.229925827019059,0.9170383242161936,-1.3880993567557223,0.2653750479221344,0.9424639940261841,-0.20331741869449615
1727330688340,9i,2.167479666876773,5.3s : 7.1s,0.12158854769051614,0.0677121427351667,-1.0361357927322388,1.4693632125854492,0.07850075513124466,0.06385168433189392,-0.021270275115966797,0.007447957992553711,-1.2357544003038368,0.9574806281286612,-1.3608550781016489,0.2688814401626587,0.9443964958190918,-0.1892564296722412
1727330688350,9i,2.167479666876773,5.3s : 7.1s,0.1307058943230901,0.06881580522697345,-0.9162648320198059,1.4404306411743164,0.1092165857553482,0.06850740313529968,-0.0014865994453430176,-0.0063356757164001465,-1.2404477420625875,0.9969791616269038,-1.3344454222906355,0.27241969108581543,0.9459293484687805,-0.17608316242694855
1727330688360,9i,2.167479666876773,5.3s : 7.1s,0.1473920563916328,0.08718936363845446,-0.7772467732429504,1.3921363353729248,0.1573985069990158,0.08333069086074829,0.01612764596939087,-0.019946932792663574,-1.2437868310116786,1.0342443058089255,-1.3100278692299463,0.2760747969150543,0.9470071792602539,-0.16419613361358643
1727330688370,9i,2.167479666876773,5.3s : 7.1s,0.16670393878038847,0.10888576839429971,-0.6380262970924377,1.3082363605499268,0.21960115432739258,0.10377484560012817,0.01475226879119873,-0.029483258724212646,-1.2456511947320676,1.0685691782544722,-1.2880234291674144,0.27999892830848694,0.9476043581962585,-0.15377481281757355
1727330688380,9i,2.167479666876773,5.3s : 7.1s,0.18483265930836998,0.1248622583231357,-0.5211905837059021,1.2219932079315186,0.28988125920295715,0.11893314123153687,-0.0029410719871520996,-0.03790569305419922,-1.246107677594593,1.099917871165938,-1.26828545731022,0.28429558873176575,0.9477500915527344,-0.14472678303718567
1727330688390,9i,2.167479666876773,5.3s : 7.1s,0.19438058721197207,0.1364831534989469,-0.47162139415740967,1.1444286108016968,0.3390626609325409,0.12462916970252991,-0.03450578451156616,-0.04364140331745148,-1.245421117823395,1.128913110629732,-1.2501362479528424,0.2889603078365326,0.9475308656692505,-0.1367022544145584
1727330688400,9i,2.167479666876773,5.3s : 7.1s,0.18752770452907755,0.1408688646675717,-0.5154314637184143,1.0762656927108765,0.3335939943790436,0.11797979474067688,-0.06482160091400146,-0.041508615016937256,-1.2444091556936177,1.1573707000437372,-1.2317787064689751,0.2936107814311981,0.9472068548202515,-0.12880998849868774
1727330688410,9i,2.167479666876773,5.3s : 7.1s,0.17469535694199267,0.12374440323612504,-0.5670650601387024,1.0481500625610352,0.32379594445228577,0.10021781921386719,-0.06622070074081421,-0.02973020076751709,-1.2434916079975091,1.186317041610754,-1.212398304287524,0.2980212867259979,0.9469122886657715,-0.1205841600894928
1727330688420,9i,2.167479666876773,5.3s : 7.1s,0.1630700709052993,0.10089254468033923,-0.608307957649231,1.0423105955123901,0.33014485239982605,0.08197936415672302,-0.050930023193359375,-0.029407858848571777,-1.2425866639569385,1.2163659095411554,-1.1916904542180526,0.3023132085800171,0.9466210007667542,-0.11187324672937393
1727330688430,9i,2.167479666876773,5.3s : 7.1s,0.1559579946190924,0.09044381194736427,-0.6137863993644714,1.021759033203125,0.34718057513237,0.07565310597419739,-0.03150033950805664,-0.03826773166656494,-1.241436224412695,1.2468041955012212,-1.1704296494046724,0.306610107421875,0.9462494850158691,-0.10296759009361267
1727330688440,9i,2.167479666876773,5.3s : 7.1s,0.1508061803215083,0.0938773994257068,-0.6134929060935974,0.9717159271240234,0.3806063234806061,0.08132827281951904,-0.020981013774871826,-0.04193417727947235,-1.239864160994238,1.2770374133615878,-1.1490153683661457,0.3110056519508362,0.9457398653030396,-0.09408264607191086
1727330688450,9i,2.167479666876773,5.3s : 7.1s,0.14726299253012543,0.10190801518266245,-0.5911028981208801,0.9018782377243042,0.4084017276763916,0.09244430065155029,-0.02465158700942993,-0.03509407490491867,-1.2377366364768634,1.3064062215387908,-1.1278640432171134,0.3155756890773773,0.9450464248657227,-0.08543512225151062
1727330688460,9i,2.167479666876773,5.3s : 7.1s,0.14360443872418635,0.1155958186513868,-0.5484137535095215,0.8143539428710938,0.4264839291572571,0.10578975081443787,-0.03660321235656738,-0.028829269111156464,-1.2350986459691935,1.3338094533171172,-1.1079181434174392,0.32022032141685486,0.9441807270050049,-0.07734137028455734
1727330688470,9i,2.167479666876773,5.3s : 7.1s,0.13729464777899242,0.12100355150178152,-0.5203051567077637,0.7334636449813843,0.42540132999420166,0.10991579294204712,-0.04580026865005493,-0.0215107724070549,-1.2321345567382236,1.3590803560364857,-1.0893389342695377,0.3248070478439331,0.9432001113891602,-0.06981305778026581
1727330688480,9i,2.167479666876773,5.3s : 7.1s,0.12932401341051908,0.1140666340339146,-0.4999731481075287,0.652915894985199,0.42298659682273865,0.10708749294281006,-0.0378260612487793,-0.010613903403282166,-1.228997804141221,1.3824259557597773,-1.0718961501042212,0.3292527198791504,0.9421533346176147,-0.06276559829711914
1727330688490,9i,2.167479666876773,5.3s : 7.1s,0.12605060234845625,0.10062306732179424,-0.4585910737514496,0.5858595967292786,0.46049216389656067,0.09926337003707886,-0.016173958778381348,-0.0031918808817863464,-1.2255100422667873,1.4039487328905933,-1.0555832913621133,0.33376574516296387,0.9409785866737366,-0.056210581213235855
1727330688500,9i,2.167479666876773,5.3s : 7.1s,0.1284874418402857,0.08890738456659397,-0.39142167568206787,0.5156756639480591,0.5167351365089417,0.08872911334037781,-0.004461824893951416,-0.003429226577281952,-1.2213608754884482,1.423082975789342,-1.0410614604299926,0.3386389911174774,0.9395661354064941,-0.05038851127028465
1727330688510,9i,2.167479666876773,5.3s : 7.1s,0.12983279992261135,0.07835644261253161,-0.3560495674610138,0.4542064070701599,0.5730236768722534,0.07620054483413696,-0.01394951343536377,-0.01177370548248291,-1.2164815561202114,1.4399166362774745,-1.0282636895273864,0.34398072957992554,0.9378844499588013,-0.045278921723365784
1727330688520,9i,2.167479666876773,5.3s : 7.1s,0.1262877451697223,0.06881855745310654,-0.3591878414154053,0.40168496966362,0.616965651512146,0.057196348905563354,-0.03605467081069946,-0.012830909341573715,-1.2110104113622446,1.4555997753450498,-1.016075511882943,0.34974026679992676,0.9359722137451172,-0.040468037128448486
1727330688530,9i,2.167479666876773,5.3s : 7.1s,0.11751696287423352,0.07040297799299035,-0.3946520984172821,0.35954177379608154,0.6549587845802307,0.03455764055252075,-0.061009764671325684,-0.006336987018585205,-1.2050960617937245,1.4709673398281302,-1.0036712257584732,0.35582321882247925,0.9338735938072205,-0.03563994541764259
1727330688540,9i,2.167479666876773,5.3s : 7.1s,0.10314853063480042,0.08536170059594449,-0.4745839536190033,0.33014997839927673,0.6890794634819031,0.010592550039291382,-0.08464622497558594,0.003071548417210579,-1.1987917649880027,1.487063241189289,-0.9900844923652752,0.36221012473106384,0.9316005706787109,-0.030400050804018974
1727330688550,9i,2.167479666876773,5.3s : 7.1s,0.08372257776961167,0.08860047779549146,-0.6131021976470947,0.3105352520942688,0.6989736557006836,-0.006664842367172241,-0.085873544216156,0.020769182592630386,-1.192273442690894,1.5052989698417572,-0.9739118044703141,0.36875587701797485,0.9292114973068237,-0.024187132716178894
1727330688560,9i,2.167479666876773,5.3s : 7.1s,0.07267709491837114,0.06934900308052733,-0.7072403430938721,0.318795770406723,0.7198048233985901,-0.01704004406929016,-0.049347519874572754,0.045648038387298584,-1.1855678442252777,1.5259275266009105,-0.9550591323214912,0.3753926753997803,0.9267125725746155,-0.016854731366038322
1727330688570,9i,2.167479666876773,5.3s : 7.1s,0.07093856961570785,0.059439480418490724,-0.7386792302131653,0.322308212518692,0.756509006023407,-0.019860148429870605,-0.009865283966064453,0.05514800548553467,-1.1784626019050701,1.5474007377144652,-0.9353199461088106,0.38224107027053833,0.9240192770957947,-0.00894438661634922
1727330688580,9i,2.167479666876773,5.3s : 7.1s,0.07218573065349493,0.060952276666860074,-0.7405527830123901,0.30170324444770813,0.784272313117981,-0.015824496746063232,0.014675140380859375,0.057003557682037354,-1.1708591181862318,1.5684534282774865,-0.9159077660907642,0.38935962319374084,0.9210854172706604,-0.0009122317424044013
1727330688590,9i,2.167479666876773,5.3s : 7.1s,0.0748042995298771,0.07113969726977254,-0.731072187423706,0.28117772936820984,0.8023954033851624,-0.011606216430664062,0.027483344078063965,0.06458187103271484,-1.1628850074189347,1.588474165267278,-0.8973177763884662,0.39663130044937134,0.9179514050483704,0.0070123146288096905
1727330688600,9i,2.167479666876773,5.3s : 7.1s,0.08135822311373687,0.07604113799820852,-0.6742573976516724,0.25633248686790466,0.836789608001709,-0.01151883602142334,0.02990281581878662,0.06895935535430908,-1.154520141266114,1.6067163891791867,-0.8803369447025445,0.40409696102142334,0.9146010279655457,0.014521433971822262
1727330688610,9i,2.167479666876773,5.3s : 7.1s,0.09158535045365311,0.06741624380777068,-0.6019659042358398,0.24487370252609253,0.8759055733680725,-0.01460924744606018,0.020862579345703125,0.06242012977600098,-1.145682009585716,1.6225881198438035,-0.8656843858005321,0.4118717610836029,0.9109916090965271,0.021350670605897903
1727330688620,9i,2.167479666876773,5.3s : 7.1s,0.09798419126659855,0.052904692493080004,-0.5694575309753418,0.22937285900115967,0.8909717202186584,-0.019075840711593628,0.0033857226371765137,0.04922962188720703,-1.1365022465629673,1.636470033217411,-0.8530383728951628,0.41986316442489624,0.9071673154830933,0.027613680809736252
1727330688630,9i,2.167479666876773,5.3s : 7.1s,0.0923640221215371,0.05158809436129685,-0.6146202087402344,0.19450275599956512,0.8682133555412292,-0.019893020391464233,-0.012405931949615479,0.04595315083861351,-1.1273066186210179,1.6496591115494914,-0.8407952874297167,0.42776039242744446,0.9032597541809082,0.03380448371171951
1727330688640,9i,2.167479666876773,5.3s : 7.1s,0.08042018458034225,0.07965090614636051,-0.7038275003433228,0.1783919632434845,0.8407196402549744,-0.0209081768989563,-0.015421390533447266,0.07529472559690475,-1.118240327603771,1.6636300894940375,-0.827370808508752,0.43538254499435425,0.8993324041366577,0.04053471237421036
1727330688650,9i,2.167479666876773,5.3s : 7.1s,0.06934607558245715,0.10491461729834654,-0.7918748259544373,0.16737739741802216,0.8215236067771912,-0.012693941593170166,0.009912073612213135,0.10367107391357422,-1.1092421311732672,1.678757222257857,-0.8124355293193938,0.4427476227283478,0.8953614234924316,0.04798601195216179
1727330688660,9i,2.167479666876773,5.3s : 7.1s,0.0640023945983083,0.11492452703362505,-0.836463212966919,0.16387800872325897,0.8239285945892334,0.00640442967414856,0.05312711000442505,0.10170614719390869,-1.100138022203578,1.694623029811832,-0.7965183075120857,0.45000118017196655,0.8912699818611145,0.0560087151825428
1727330688670,9i,2.167479666876773,5.3s : 7.1s,0.0606128670119733,0.12524446575503106,-0.8354389667510986,0.14129386842250824,0.8070356249809265,0.03207316994667053,0.08620995283126831,0.08500195294618607,-1.0909634016834506,1.7101838096982003,-0.7807866271833032,0.45715418457984924,0.8870720863342285,0.06413748115301132
1727330688680,9i,2.167479666876773,5.3s : 7.1s,0.05167536520334505,0.1338382411703263,-0.8485656976699829,0.06407880038022995,0.7706086039543152,0.05512791872024536,0.10063105821609497,0.06889831274747849,-1.0819476186112325,1.7247909893586144,-0.7654679308735167,0.46405228972435,0.8828741312026978,0.07203187048435211
1727330688690,9i,2.167479666876773,5.3s : 7.1s,0.041672648604329315,0.13920608528250816,-0.9002882838249207,-0.04067530855536461,0.7438941597938538,0.07061469554901123,0.10076206922531128,0.06510686874389648,-1.0730994031463992,1.7386865299725587,-0.7498347325888121,0.47069084644317627,0.878684401512146,0.07977534085512161
1727330688700,9i,2.167479666876773,5.3s : 7.1s,0.04518651619554806,0.13480911577719712,-0.9321198463439941,-0.11419320106506348,0.7112628221511841,0.0763242244720459,0.08759373426437378,0.06837724894285202,-1.0643481024567978,1.7520596464508018,-0.7336734176787818,0.4771272540092468,0.8744729161262512,0.08744549006223679
1727330688709,9i,2.167479666876773,5.3s : 7.1s,0.06098488777213595,0.10924667468134044,-0.9299288392066956,-0.16242492198944092,0.6824362277984619,0.0735640823841095,0.06205016374588013,0.051700472831726074,-1.0557647473446303,1.7646552454504314,-0.7176370412854941,0.483335942029953,0.8702771663665771,0.09489067643880844
1727330688719,9i,2.167479666876773,5.3s : 7.1s,0.08134991253338222,0.07308246947111863,-0.9116132855415344,-0.20936375856399536,0.6494589447975159,0.06245547533035278,0.02631521224975586,0.027347221970558167,-1.0474288531087927,1.7762626359521352,-0.7021214714869705,0.4892871081829071,0.8661410212516785,0.10197101533412933
1727330688729,9i,2.167479666876773,5.3s : 7.1s,0.09910194398195198,0.05443434577500354,-0.8719598650932312,-0.258708119392395,0.6241477131843567,0.04911702871322632,0.0010712146759033203,0.023440733551979065,-1.039345837074941,1.7866272900150213,-0.687420114477174,0.49502667784690857,0.8620728850364685,0.10853260010480881
1727330688739,9i,2.167479666876773,5.3s : 7.1s,0.10881166639847376,0.04413944795010388,-0.8044754266738892,-0.3011544644832611,0.6202108860015869,0.036641716957092285,-0.003914177417755127,0.024297215044498444,-1.031470914417825,1.7953294545084506,-0.674062029768659,0.5006659030914307,0.8580552935600281,0.11434412747621536
1727330688749,9i,2.167479666876773,5.3s : 7.1s,0.11095691338755391,0.026031183797466908,-0.7147048115730286,-0.33695507049560547,0.6141670942306519,0.023863375186920166,-0.003582477569580078,0.00976359099149704,-1.0237440584238098,1.8021034416746493,-0.6624119857545179,0.5063184499740601,0.8540615439414978,0.11924941092729568
1727330688759,9i,2.167479666876773,5.3s : 7.1s,0.10218386837812034,0.01782161923913295,-0.5800726413726807,-0.3358166813850403,0.5957856178283691,0.015057504177093506,-0.0013418197631835938,-0.009438283741474152,-1.016371707964103,1.8066924700601763,-0.6530517539429322,0.5118741989135742,0.8502035140991211,0.12303992360830307
1727330688769,9i,2.167479666876773,5.3s : 7.1s,0.09227668777889715,0.03313690270280683,-0.47414514422416687,-0.34226977825164795,0.5516170859336853,0.004383206367492676,-0.004168510437011719,-0.03258013725280762,-1.0095760419105455,1.8093564472855281,-0.6459574338954377,0.5171469449996948,0.8466062545776367,0.12576556205749512
1727330688779,9i,2.167479666876773,5.3s : 7.1s,0.08736039060724494,0.037989950455447945,-0.42407336831092834,-0.3595650792121887,0.5110631585121155,-0.0020328760147094727,-0.0017585158348083496,-0.03789474070072174,-1.003386582792167,1.8107390827462595,-0.6401706334222134,0.5220523476600647,0.8432959318161011,0.12772324681282043
1727330688789,9i,2.167479666876773,5.3s : 7.1s,0.08406525920740433,0.023768859442552387,-0.38708871603012085,-0.38551783561706543,0.4861343801021576,-0.0016513466835021973,0.005584657192230225,-0.02304437756538391,-0.9975858043629294,1.8113102145947204,-0.6350495361344135,0.5267214179039001,0.8401641249656677,0.12918443977832794
1727330688799,9i,2.167479666876773,5.3s : 7.1s,0.08441351526317029,0.017900763448108474,-0.3793805241584778,-0.41337600350379944,0.4715127944946289,0.004088997840881348,0.008733808994293213,-0.015081048011779785,-0.9920283587187329,1.8111768841683287,-0.6304460810291502,0.5312656164169312,0.8371372222900391,0.13022388517856598
1727330688809,9i,2.167479666876773,5.3s : 7.1s,0.08941383053398101,0.011242039063265263,-0.4167976677417755,-0.4105812609195709,0.45615193247795105,0.002931058406829834,0.00756758451461792,-0.007779717445373535,-0.9865677476474964,1.811242546471534,-0.6254139950940788,0.5356889963150024,0.8341377973556519,0.13134542107582092
1727330688819,9i,2.167479666876773,5.3s : 7.1s,0.08961775879616236,0.015001556618427801,-0.41379356384277344,-0.36469414830207825,0.4313948154449463,-0.01037144660949707,0.001074075698852539,0.010785460472106934,-0.9812650023106236,1.8118473854218908,-0.6200130928710965,0.5398972034454346,0.8312013149261475,0.13272346556186676
1727330688829,9i,2.167479666876773,5.3s : 7.1s,0.07960655271319594,0.030187237320932585,-0.3395843207836151,-0.28728988766670227,0.4042859673500061,-0.024724304676055908,-0.01201862096786499,0.012471199035644531,-0.97628965396905,1.8126589739148613,-0.6151112349205212,0.5437977910041809,0.8284249305725098,0.1341504603624344
1727330688839,9i,2.167479666876773,5.3s : 7.1s,0.0602724590714404,0.033984347665897245,-0.23940852284431458,-0.20628556609153748,0.35173672437667847,-0.03304708003997803,-0.006414532661437988,0.004656195640563965,-0.9719374371845618,1.8129561980265745,-0.6117616213831262,0.5472530126571655,0.8259794116020203,0.13517539203166962
1727330688849,9i,2.167479666876773,5.3s : 7.1s,0.028465948667708955,0.05245789893569422,-0.08316166698932648,-0.1187187135219574,0.2928001880645752,-0.03273409605026245,0.04069626331329346,-0.004911646246910095,-0.9684154733209019,1.8126613604616661,-0.6101960605980455,0.5501139760017395,0.8239889740943909,0.1357099860906601
1727330688859,9i,2.167479666876773,5.3s : 7.1s,0.026614504922477057,0.10778199103769791,0.14660003781318665,-0.06528060883283615,0.2530815899372101,-0.02118992805480957,0.10232162475585938,-0.02642403542995453,-0.9658436648050472,1.810329682404624,-0.6119036946660359,0.5524857640266418,0.8225290179252625,0.13492926955223083
1727330688869,9i,2.167479666876773,5.3s : 7.1s,0.06785665166272493,0.13289628062316466,0.32384857535362244,-0.04150071367621422,0.20509515702724457,-0.0032885074615478516,0.12189960479736328,-0.05283080041408539,-0.9641804789321333,1.8056852248327584,-0.6169309884478721,0.5544360280036926,0.821582019329071,0.1326799988746643
1727330688879,9i,2.167479666876773,5.3s : 7.1s,0.09645942150163066,0.13533024214889927,0.40440574288368225,-0.027538735419511795,0.16062487661838531,0.021909654140472412,0.11415666341781616,-0.06930005550384521,-0.9632827150957275,1.7995627947897155,-0.6239443221202694,0.5559559464454651,0.8210698366165161,0.1294502168893814
1727330688889,9i,2.167479666876773,5.3s : 7.1s,0.11405023607712678,0.1290383081728678,0.44442373514175415,0.00830128788948059,0.1292392611503601,0.04412877559661865,0.09011566638946533,-0.08113385736942291,-0.9628161124810347,1.793063247634641,-0.6317303560544504,0.5571590065956116,0.8208034038543701,0.1259184330701828
1727330688899,9i,2.167479666876773,5.3s : 7.1s,0.11940960873844056,0.13521173349392424,0.44066113233566284,0.024434540420770645,0.12065373361110687,0.06855207681655884,0.05039185285568237,-0.1050879955291748,-0.9626118771938809,1.7865909475514516,-0.6398345258255917,0.5581263899803162,0.8206867575645447,0.1223457008600235
1727330688909,9i,2.167479666876773,5.3s : 7.1s,0.11018026772456113,0.1581311719450072,0.34892961382865906,0.031897515058517456,0.13410454988479614,0.09124237298965454,0.015076816082000732,-0.12826919555664062,-0.9621955739364395,1.7808951486592874,-0.6471396499913756,0.5591482520103455,0.8204488158226013,0.11923599243164062
1727330688919,9i,2.167479666876773,5.3s : 7.1s,0.08915372693057347,0.18673606294017606,0.19762758910655975,0.02549714222550392,0.1366966813802719,0.11417979001998901,0.007518887519836426,-0.14756964147090912,-0.9614305924459351,1.7769522511124314,-0.6523005327856727,0.5602282285690308,0.8200111985206604,0.11715885251760483
1727330688929,9i,2.167479666876773,5.3s : 7.1s,0.0638739473220836,0.19362983571134398,0.06228335201740265,0.025522442534565926,0.11303023248910904,0.12453228235244751,0.01079106330871582,-0.14787757396697998,-0.9604594874779183,1.775062326326155,-0.654929434937066,0.5612282156944275,0.8194550275802612,0.11626134812831879
1727330688939,9i,2.167479666876773,5.3s : 7.1s,0.04794870479110783,0.17625412198144663,0.024426382035017014,0.04212547466158867,0.13557076454162598,0.12195706367492676,-0.0066405534744262695,-0.12707436084747314,-0.9593527691363622,1.7745897481088722,-0.6559339243977639,0.5621708035469055,0.8188201785087585,0.11617955565452576
1727330688949,9i,2.167479666876773,5.3s : 7.1s,0.05189323746223952,0.17080265616274004,0.10499632358551025,0.07552630454301834,0.17769664525985718,0.11689239740371704,-0.03198361396789551,-0.12036097049713135,-0.9579422800759618,1.7738238772296417,-0.6575885036117717,0.5633901953697205,0.8180096745491028,0.11598172783851624
1727330688959,9i,2.167479666876773,5.3s : 7.1s,0.06059671636792856,0.17154661925287307,0.14176419377326965,0.10454988479614258,0.17321108281612396,0.10939449071884155,-0.03860527276992798,-0.12637531757354736,-0.9564569894264341,1.7724486934699162,-0.6603872240440529,0.5647387504577637,0.8171544671058655,0.11545003950595856
1727330688969,9i,2.167479666876773,5.3s : 7.1s,0.07452253192884775,0.1408939599800909,0.17713336646556854,0.14100216329097748,0.14911453425884247,0.08589708805084229,0.007832348346710205,-0.11140669882297516,-0.9552049533616488,1.7710892404034184,-0.6635502625916997,0.5658972859382629,0.8164321184158325,0.11488563567399979
1727330688979,9i,2.167479666876773,5.3s : 7.1s,0.1011781471076131,0.1367669800766987,0.27360063791275024,0.20686204731464386,0.15307393670082092,0.04727351665496826,0.08070802688598633,-0.09978294372558594,-0.9541757888689406,1.7693199375216162,-0.6678435960390335,0.5669232606887817,0.8158373832702637,0.11404989659786224
1727330688989,9i,2.167479666876773,5.3s : 7.1s,0.13210877042684796,0.16055525428238637,0.3752380609512329,0.2627657949924469,0.15527503192424774,0.011391818523406982,0.12129366397857666,-0.10457563400268555,-0.9533103395136985,1.7667392091089282,-0.6739039348156945,0.5679081082344055,0.8153365850448608,0.11272387951612473
1727330688999,9i,2.167479666876773,5.3s : 7.1s,0.1547788979714075,0.16022868342626234,0.40952643752098083,0.3043372929096222,0.15747477114200592,-0.02128368616104126,0.123252272605896,-0.10014545917510986,-0.9525634023505026,1.7637042608224354,-0.6811225685346143,0.5688453316688538,0.8149039149284363,0.11111655831336975
1727330689009,9i,2.167479666876773,5.3s : 7.1s,0.16945665266314733,0.14415842462931203,0.41394224762916565,0.3113352954387665,0.1970549374818802,-0.04658234119415283,0.11123126745223999,-0.07898950576782227,-0.9516375258074926,1.7605989070606545,-0.6886922740317466,0.5699282884597778,0.8143669366836548,0.10949184745550156
1727330689019,9i,2.167479666876773,5.3s : 7.1s,0.17995568409388701,0.11968478444645987,0.40113237500190735,0.35531923174858093,0.20706145465373993,-0.06476718187332153,0.08274942636489868,-0.057290419936180115,-0.9503921182467676,1.7577237763719264,-0.6962398481299009,0.5712369680404663,0.8136435151100159,0.1080412045121193
1727330689029,9i,2.167479666876773,5.3s : 7.1s,0.17880588424160895,0.10647635051600372,0.3429257869720459,0.4289415180683136,0.1614108681678772,-0.08452332019805908,0.030577778816223145,-0.05707907676696777,-0.9492412558305862,1.7559572498273994,-0.7032240977286676,0.5723468065261841,0.8129739165306091,0.10720422118902206
1727330689039,9i,2.167479666876773,5.3s : 7.1s,0.15693676571348544,0.12141059970274069,0.18320678174495697,0.49856874346733093,0.09564321488142014,-0.09913450479507446,-0.03290963172912598,-0.06188569962978363,-0.9484742812555415,1.7566092748809303,-0.7081269898958866,0.5728894472122192,0.812527060508728,0.10769254714250565
1727330689049,9i,2.167479666876773,5.3s : 7.1s,0.12178083232158275,0.14193020947889973,-0.00620656181126833,0.5205518007278442,0.06274492293596268,-0.09978538751602173,-0.09295082092285156,-0.03933453559875488,-0.9478947892624794,1.7603469079411447,-0.7098381852839927,0.5729451775550842,0.8121891617774963,0.10992172360420227
1727330689059,9i,2.167479666876773,5.3s : 7.1s,0.08590974298949025,0.16431473316106104,-0.15179792046546936,0.49191129207611084,0.08218490332365036,-0.08655762672424316,-0.13910239934921265,-0.012555129826068878,-0.9470475156114019,1.7663752943585802,-0.7086592348887322,0.5729467272758484,0.8116945624351501,0.11350729316473007
1727330689069,9i,2.167479666876773,5.3s : 7.1s,0.0625222113270436,0.18801486068448114,-0.2084372341632843,0.47590410709381104,0.11833438277244568,-0.07550173997879028,-0.17217904329299927,0.0018579959869384766,-0.9457090465573322,1.7734136347185436,-0.7059151646674252,0.573197603225708,0.8109120726585388,0.11775562167167664
1727330689079,9i,2.167479666876773,5.3s : 7.1s,0.04951720531311682,0.20332792662258933,-0.23428812623023987,0.4817374646663666,0.1318245530128479,-0.08418738842010498,-0.18506109714508057,-0.0026682764291763306,-0.9440219782543212,1.780845338162017,-0.7026300211693766,0.5736435055732727,0.8099236488342285,0.12229717522859573
1727330689089,9i,2.167479666876773,5.3s : 7.1s,0.04925332435648253,0.2069903210141923,-0.21044191718101501,0.5414133071899414,0.13754954934120178,-0.1067279577255249,-0.17609798908233643,-0.02106262743473053,-0.9422187513708848,1.7885876469939954,-0.6993449793858064,0.5741046071052551,0.8088647127151489,0.12705017626285553
1727330689099,9i,2.167479666876773,5.3s : 7.1s,0.058831660816525036,0.20744863377414585,-0.17694421112537384,0.6393367648124695,0.14250127971172333,-0.12647569179534912,-0.15725761651992798,-0.04805077612400055,-0.9404375960026576,1.7965834297766043,-0.6967134783917847,0.5744736790657043,0.8078160881996155,0.13195881247520447
1727330689109,9i,2.167479666876773,5.3s : 7.1s,0.07003816462098103,0.21139675295142166,-0.19635359942913055,0.7242830991744995,0.158367320895195,-0.1314791440963745,-0.1558746099472046,-0.05572187900543213,-0.9385597209186343,1.8054013275596419,-0.6942243452526,0.574762225151062,0.8067077994346619,0.13737167418003082
1727330689119,9i,2.167479666876773,5.3s : 7.1s,0.08508144481873053,0.20219772556849872,-0.18675097823143005,0.7590028047561646,0.205768421292305,-0.11613810062408447,-0.16233259439468384,-0.0323108434677124,-0.9363483535385664,1.8148501558679424,-0.69173022800395,0.575168251991272,0.8053990006446838,0.1432270109653473
1727330689129,9i,2.167479666876773,5.3s : 7.1s,0.10199229149789062,0.19130323806250696,-0.14906352758407593,0.7400174140930176,0.25433942675590515,-0.0828060507774353,-0.17177283763885498,-0.015302911400794983,-0.9337188806954687,1.8238181147022123,-0.6899343804649051,0.5759090185165405,0.8038376569747925,0.14890888333320618
1727330689139,9i,2.167479666876773,5.3s : 7.1s,0.11672997312113764,0.18828705221037087,-0.1181279718875885,0.7086119055747986,0.307661771774292,-0.04342132806777954,-0.18124651908874512,-0.026763811707496643,-0.9306946547327275,1.8317759592299352,-0.6890220381298595,0.5770516395568848,0.8020350337028503,0.15411363542079926
1727330689149,9i,2.167479666876773,5.3s : 7.1s,0.1299085439511541,0.18843768066800023,-0.1225605309009552,0.7195534706115723,0.35814571380615234,-0.01868283748626709,-0.18346291780471802,-0.038743630051612854,-0.9271839950389205,1.8391936623663707,-0.6885937870757521,0.5786041021347046,0.7999332547187805,0.15913549065589905
1727330689159,9i,2.167479666876773,5.3s : 7.1s,0.1392880170611084,0.19652760028435984,-0.19124719500541687,0.7880313396453857,0.40104296803474426,-0.007035791873931885,-0.18813461065292358,-0.05638229846954346,-0.9231054830952041,1.8472905918294138,-0.6878743942682014,0.5804305672645569,0.7974791526794434,0.16470444202423096
1727330689169,9i,2.167479666876773,5.3s : 7.1s,0.1384759696577114,0.20858795889234777,-0.3593355119228363,0.8541938662528992,0.4508630037307739,0.003213822841644287,-0.20002174377441406,-0.05907545983791351,-0.9182913878419762,1.8573608154512056,-0.6855141100909495,0.5824185609817505,0.7945653200149536,0.1716242879629135
1727330689179,9i,2.167479666876773,5.3s : 7.1s,0.13879690608268527,0.21322552690571647,-0.5065391659736633,0.900834321975708,0.530916690826416,0.02131134271621704,-0.21131092309951782,-0.01893794536590576,-0.9123544108358725,1.8697942517915382,-0.6809307278906258,0.5847373008728027,0.7909465432167053,0.18023861944675446
1727330689189,9i,2.167479666876773,5.3s : 7.1s,0.1432671783482536,0.22507408220725353,-0.5557352304458618,0.8843973278999329,0.606008768081665,0.06289136409759521,-0.21595436334609985,-0.00816895067691803,-0.9053366785979066,1.8830725836545072,-0.675456427683149,0.58756023645401,0.7866330742835999,0.18968746066093445
1727330689199,9i,2.167479666876773,5.3s : 7.1s,0.1374133726706497,0.24356098107407517,-0.6430614590644836,0.8181219696998596,0.6408356428146362,0.10993164777755737,-0.2150915265083313,-0.031186848878860474,-0.8975276428420432,1.896246259909431,-0.6695278235200256,0.5908129215240479,0.7817876935005188,0.1993691325187683
1727330689209,9i,2.167479666876773,5.3s : 7.1s,0.12427632249682653,0.2516361744227177,-0.7247198224067688,0.7397691011428833,0.6539788842201233,0.14135271310806274,-0.2056492567062378,-0.03238144516944885,-0.8891580147217449,1.909481323370168,-0.6625090609758596,0.5942734479904175,0.776541531085968,0.20933757722377777
1727330689219,9i,2.167479666876773,5.3s : 7.1s,0.1161599140170039,0.2536784096783848,-0.7243825793266296,0.6439452767372131,0.7192776203155518,0.1617714762687683,-0.19471228122711182,-0.016427189111709595,-0.8802758281975296,1.9219492048400024,-0.6553187052742839,0.5980703830718994,0.770914614200592,0.2190944254398346
1727330689229,9i,2.167479666876773,5.3s : 7.1s,0.11506819787830284,0.2635655581948066,-0.6897862553596497,0.557806134223938,0.8214940428733826,0.17444121837615967,-0.19644701480865479,-0.02111007273197174,-0.8706222879542983,1.9326333199179409,-0.6491910284696846,0.6026278138160706,0.7647300362586975,0.22809556126594543
1727330689239,9i,2.167479666876773,5.3s : 7.1s,0.1201070024348744,0.2627436205053258,-0.6572578549385071,0.503940224647522,0.9302020072937012,0.17385941743850708,-0.1929956078529358,-0.039494410157203674,-0.8600277881514433,1.9415941979347364,-0.644336120846581,0.6080771684646606,0.7578607201576233,0.23640906810760498
1727330689248,9i,2.167479666876773,5.3s : 7.1s,0.1282208983221275,0.2622054903828294,-0.6235126852989197,0.4881839156150818,0.9943474531173706,0.1650499701499939,-0.19449132680892944,-0.060690611600875854,-0.8487358188314033,1.9492814269132799,-0.6406945932387202,0.6141554117202759,0.7504454851150513,0.24422332644462585
1727330689258,9i,2.167479666876773,5.3s : 7.1s,0.12233981886491324,0.2727387935205087,-0.7332098484039307,0.4674847722053528,1.0081093311309814,0.15414875745773315,-0.21967417001724243,-0.0486607551574707,-0.8369336193227649,1.9568016740739629,-0.6370173746229286,0.6204636693000793,0.7425929307937622,0.2521520256996155
1727330689268,9i,2.167479666876773,5.3s : 7.1s,0.10582257110232085,0.27815099744895255,-0.883435070514679,0.41965624690055847,1.0241013765335083,0.14476722478866577,-0.23727864027023315,-0.010453462600708008,-0.8244823754249816,1.965214432165636,-0.6316205238501541,0.6268087029457092,0.7341964244842529,0.2608959376811981
1727330689278,9i,2.167479666876773,5.3s : 7.1s,0.09806277801435662,0.2823162570942156,-0.9016492366790771,0.36553096771240234,1.0673904418945312,0.14532899856567383,-0.2394798994064331,0.03509029746055603,-0.8113657844384857,1.9736601554955013,-0.6254201630956636,0.6333879232406616,0.7252281904220581,0.26993289589881897
1727330689288,9i,2.167479666876773,5.3s : 7.1s,0.09120203048840331,0.32175048879030616,-0.8370521068572998,0.28774508833885193,1.049221396446228,0.15798455476760864,-0.2767077088356018,0.04468894004821777,-0.7981766725500561,1.9808172575592495,-0.6200248659765184,0.6401568651199341,0.7160845994949341,0.2782480716705322
1727330689298,9i,2.167479666876773,5.3s : 7.1s,0.07283070936129306,0.34232058334862353,-0.8728404641151428,0.21148361265659332,0.9524950385093689,0.15391963720321655,-0.3007032871246338,0.05540451407432556,-0.7855910767112468,1.9871035128321075,-0.6146661295985795,0.6465869545936584,0.7072432041168213,0.28588876128196716
1727330689308,9i,2.167479666876773,5.3s : 7.1s,0.05967598164303634,0.2993214430229373,-0.8689786195755005,0.1524282842874527,0.8916351795196533,0.12065887451171875,-0.2575790286064148,0.09320840239524841,-0.7736576239860816,1.9931322689377877,-0.6086614070218352,0.6525039076805115,0.6987563967704773,0.2932204306125641
1727330689318,9i,2.167479666876773,5.3s : 7.1s,0.05752067959060755,0.21764250183487033,-0.7808375954627991,0.11060573160648346,0.8982241153717041,0.09115946292877197,-0.17703938484191895,0.08783659338951111,-0.7621346620103789,1.9981571737976895,-0.6033101352605648,0.6583064198493958,0.6904671788215637,0.299812912940979
1727330689328,9i,2.167479666876773,5.3s : 7.1s,0.057688168735637514,0.14727682554028218,-0.7007790803909302,0.0871628075838089,0.9060254693031311,0.06638365983963013,-0.12718021869659424,0.03329962491989136,-0.7508762141236532,2.001927025479437,-0.5992770069065895,0.6641918420791626,0.6822795867919922,0.30552175641059875
1727330689338,9i,2.167479666876773,5.3s : 7.1s,0.052887012335005014,0.13611768673952754,-0.7089089751243591,0.05783954635262489,0.8766138553619385,0.0429997444152832,-0.12880152463912964,-0.00944530963897705,-0.7398348635990841,2.005050069488054,-0.5957396878797275,0.6700282096862793,0.6741659641265869,0.31074538826942444
1727330689348,9i,2.167479666876773,5.3s : 7.1s,0.04904841725435637,0.17345272257385003,-0.7417516112327576,0.02749442309141159,0.8100228905677795,0.02792501449584961,-0.16837459802627563,-0.030919820070266724,-0.7291125286930308,2.008214714910136,-0.591663967442431,0.6755511164665222,0.666208028793335,0.31590837240219116
1727330689358,9i,2.167479666876773,5.3s : 7.1s,0.06334224435825332,0.22045432882521057,-0.8244867920875549,-0.0185818150639534,0.7189283967018127,0.029176771640777588,-0.21405577659606934,-0.04391983151435852,-0.7189435363840084,2.01159687264232,-0.5866355714789996,0.6805704832077026,0.6585900783538818,0.32106515765190125
1727330689368,9i,2.167479666876773,5.3s : 7.1s,0.10046500149896587,0.22623434471857934,-0.9742845296859741,-0.07395824790000916,0.6542745232582092,0.038591086864471436,-0.22042369842529297,-0.03325808048248291,-0.7089162861816256,2.0156387423875937,-0.5797612843072513,0.6851943135261536,0.6510115265846252,0.326638787984848
1727330689378,9i,2.167479666876773,5.3s : 7.1s,0.12614091030893831,0.1676904594418757,-1.0082483291625977,-0.13140477240085602,0.6539795994758606,0.06534552574157715,-0.1530475616455078,-0.020651787519454956,-0.6987373996843664,2.0198834490199515,-0.5716283061185398,0.6897357106208801,0.6432514786720276,0.33240410685539246
1727330689388,9i,2.167479666876773,5.3s : 7.1s,0.13104397732110193,0.12357446288192425,-0.961307168006897,-0.20247521996498108,0.6877575516700745,0.10321563482284546,-0.06191986799240112,-0.02798411250114441,-0.688435749892733,2.0231794998538337,-0.5639044157731795,0.6945596933364868,0.6353299617767334,0.3375544548034668
1727330689398,9i,2.167479666876773,5.3s : 7.1s,0.12712470419890545,0.1551162233374772,-0.9151004552841187,-0.2945566773414612,0.7203506827354431,0.14682990312576294,0.009253323078155518,-0.04915687441825867,-0.678039241652503,2.0250660423639015,-0.5570131846807612,0.6998193264007568,0.6272671818733215,0.34174415469169617
1727330689408,9i,2.167479666876773,5.3s : 7.1s,0.11745229355984585,0.21136754066627575,-0.8310868144035339,-0.40223997831344604,0.7686372399330139,0.18941223621368408,0.06462371349334717,-0.06799277663230896,-0.6675279768166492,2.0252619514765327,-0.5511252343601025,0.7056378722190857,0.6190464496612549,0.3447567820549011
1727330689418,9i,2.167479666876773,5.3s : 7.1s,0.10764812124774834,0.2550755557026597,-0.7475472092628479,-0.5363773107528687,0.8158438801765442,0.22710198163986206,0.09231525659561157,-0.07047072052955627,-0.6569672846225981,2.0233879758019473,-0.5465796396180448,0.7121222019195557,0.6107181906700134,0.3462733328342438
1727330689428,9i,2.167479666876773,5.3s : 7.1s,0.10801933836227114,0.2897316512554969,-0.7424976229667664,-0.6765437126159668,0.8527933955192566,0.26115381717681885,0.10515326261520386,-0.06845366954803467,-0.6462520548224896,2.0196419376451256,-0.5427776780614735,0.7192691564559937,0.6021984815597534,0.34642311930656433
1727330689438,9i,2.167479666876773,5.3s : 7.1s,0.11645586120868365,0.32164205847716826,-0.7862870693206787,-0.7832337617874146,0.882418155670166,0.2859824299812317,0.1312500238418579,-0.06664153933525085,-0.6351312290586608,2.014665676570894,-0.5389045417398585,0.7269876599311829,0.5932831764221191,0.34569433331489563
1727330689448,9i,2.167479666876773,5.3s : 7.1s,0.13468175640964097,0.3433624165210782,-0.8796087503433228,-0.8805307745933533,0.8876739144325256,0.3007251024246216,0.15230673551559448,-0.06530559062957764,-0.6235800095742751,2.0090555617946557,-0.5343274310422513,0.7350720763206482,0.583945095539093,0.3444957137107849
1727330689458,9i,2.167479666876773,5.3s : 7.1s,0.16054879412055093,0.35331508778836146,-0.9864550232887268,-0.9657869935035706,0.8841555714607239,0.3127661943435669,0.156497061252594,-0.050174981355667114,-0.6116273699817187,2.0032160309720504,-0.5284990214102551,0.7433555722236633,0.5742005705833435,0.3430979549884796
1727330689468,9i,2.167479666876773,5.3s : 7.1s,0.18847923793306015,0.36416422317223834,-1.0524686574935913,-1.0780282020568848,0.8558762669563293,0.3257927894592285,0.16104978322982788,-0.02318635582923889,-0.5995015594014275,1.9969294065278134,-0.5216476811540649,0.7517828345298767,0.5642310380935669,0.3412710726261139
1727330689478,9i,2.167479666876773,5.3s : 7.1s,0.22098908894002428,0.3760679591783945,-1.087421178817749,-1.2260996103286743,0.8170793056488037,0.3395543694496155,0.16134309768676758,-0.009916901588439941,-0.5875147294776915,1.9897286479291594,-0.514032299978869,0.7603449821472168,0.5542941689491272,0.33857595920562744
1727330689488,9i,2.167479666876773,5.3s : 7.1s,0.260525999375513,0.37422041844536075,-1.1481494903564453,-1.3642443418502808,0.8062439560890198,0.34153103828430176,0.15288811922073364,-0.004763871431350708,-0.5755922698533097,1.981315612749155,-0.5057406208230427,0.7691714763641357,0.5443317294120789,0.33478090167045593
1727330689498,9i,2.167479666876773,5.3s : 7.1s,0.3073715733303956,0.351752196978492,-1.25825035572052,-1.4300357103347778,0.7428993582725525,0.3270633816719055,0.12844818830490112,-0.016131192445755005,-0.5637359693766741,1.9724087534286463,-0.4963397404919612,0.7780085802078247,0.5343478322029114,0.3304165005683899
1727330689508,9i,2.167479666876773,5.3s : 7.1s,0.3750896487493172,0.31063273195823426,-1.4962023496627808,-1.458048701286316,0.6331472992897034,0.2987312078475952,0.07875669002532959,-0.0323997437953949,-0.5520914886379721,1.9641722447551728,-0.4846325496707986,0.7863977551460266,0.5244691371917725,0.3263603746891022
1727330689518,9i,2.167479666876773,5.3s : 7.1s,0.4605788126484553,0.2679102504785915,-1.7938425540924072,-1.464827537536621,0.4916464686393738,0.2664669156074524,0.015785396099090576,-0.02284964919090271,-0.5406420127059355,1.9575083314160164,-0.4694034065602607,0.7940648198127747,0.5146865248680115,0.3233563303947449
1727330689528,9i,2.167479666876773,5.3s : 7.1s,0.5528894828615312,0.2487133333304407,-2.091602325439453,-1.4826507568359375,0.3293643295764923,0.24463576078414917,-0.03536200523376465,0.027589768171310425,-0.529590679500396,1.9525710615692815,-0.4502461437962988,0.8008810877799988,0.5051801204681396,0.32153138518333435
1727330689538,9i,2.167479666876773,5.3s : 7.1s,0.6322476765991134,0.24269254865242837,-2.253024101257324,-1.506706953048706,0.20762862265110016,0.23058617115020752,-0.04424908757209778,0.061414241790771484,-0.5190573602233773,1.9487774142048981,-0.4280182403910426,0.80699622631073,0.49606186151504517,0.32043692469596863
1727330689548,9i,2.167479666876773,5.3s : 7.1s,0.6862217997530675,0.22992583675506784,-2.2803592681884766,-1.5410630702972412,0.10479650646448135,0.21911805868148804,0.004588305950164795,0.06951341032981873,-0.5092853782749021,1.9451692941228842,-0.4044208244702424,0.8126201033592224,0.4875534474849701,0.3192805349826813
1727330689558,9i,2.167479666876773,5.3s : 7.1s,0.7078239146159742,0.22505804374312485,-2.1844594478607178,-1.557760238647461,0.0499412827193737,0.18837779760360718,0.09523621201515198,0.07807043194770813,-0.5004342917570774,1.941035666405923,-0.3809430193583202,0.8179242014884949,0.4798066318035126,0.31746789813041687
1727330689568,9i,2.167479666876773,5.3s : 7.1s,0.6961967752787988,0.25795199281402226,-1.9887189865112305,-1.5425834655761719,0.01085939072072506,0.14337337017059326,0.1956840455532074,0.08769869804382324,-0.4926429062649878,1.93604309549745,-0.358938107220434,0.8229658007621765,0.4729561507701874,0.31470614671707153
1727330689578,9i,2.167479666876773,5.3s : 7.1s,0.6666606242324268,0.2993553258394108,-1.7826179265975952,-1.5198947191238403,-0.039157968014478683,0.09209740161895752,0.2647952735424042,0.10495305061340332,-0.4861205774543417,1.9301638001746675,-0.3389670940881511,0.8276718854904175,0.4671994149684906,0.3109405040740967
1727330689588,9i,2.167479666876773,5.3s : 7.1s,0.6377946093406771,0.3208315965904708,-1.663374900817871,-1.4992629289627075,-0.04911952093243599,0.04407602548599243,0.2844005525112152,0.14179754257202148,-0.4805913369777171,1.9235751312252753,-0.32066076944799454,0.8321141600608826,0.46230360865592957,0.3063684403896332
1727330689598,9i,2.167479666876773,5.3s : 7.1s,0.6149610679618575,0.3344295281651795,-1.604798436164856,-1.4766721725463867,-0.08284283429384232,0.007954895496368408,0.2749650180339813,0.19019481539726257,-0.47561363681129165,1.916786518039977,-0.3031822072445908,0.8363290429115295,0.4578840732574463,0.30148911476135254
1727330689608,9i,2.167479666876773,5.3s : 7.1s,0.602470881270754,0.3420223824171144,-1.5850061178207397,-1.4652466773986816,-0.11355094611644745,-0.021230697631835938,0.24041950702667236,0.24233660101890564,-0.4712242868208217,1.9099385144833056,-0.2859788984161386,0.8402613997459412,0.4539774954319,0.29642072319984436
1727330689618,9i,2.167479666876773,5.3s : 7.1s,0.5971701300378802,0.3524062494776253,-1.5885615348815918,-1.4278466701507568,-0.10759827494621277,-0.06089550256729126,0.18607813119888306,0.2930133640766144,-0.46707281733865524,1.9032763026468698,-0.2687819354898037,0.8439919352531433,0.4502745568752289,0.2914288640022278
1727330689628,9i,2.167479666876773,5.3s : 7.1s,0.588604065060971,0.37099478024994387,-1.5487594604492188,-1.3992267847061157,-0.08857771009206772,-0.09701257944107056,0.15955379605293274,0.32057490944862366,-0.4629124694325033,1.8967672704248482,-0.2518007409897716,0.8476383090019226,0.4465559422969818,0.2865265905857086
1727330689638,9i,2.167479666876773,5.3s : 7.1s,0.5662455433196637,0.3993082430533213,-1.4284515380859375,-1.3455493450164795,-0.0714091807603836,-0.13765519857406616,0.1672237515449524,0.3354613780975342,-0.45893166766525956,1.8901854494690449,-0.23577910601309476,0.8511866331100464,0.44299057126045227,0.2814972698688507
1727330689648,9i,2.167479666876773,5.3s : 7.1s,0.5338988955535942,0.44476281659276784,-1.2980421781539917,-1.286064624786377,-0.07612510770559311,-0.18423676490783691,0.19236105680465698,0.35618534684181213,-0.45538786101562717,1.8835471887945712,-0.22108638262223967,0.8545249700546265,0.43981069326400757,0.27632203698158264
1727330689658,9i,2.167479666876773,5.3s : 7.1s,0.4917950739857368,0.5083150559947026,-1.135465383529663,-1.2521809339523315,-0.04385878145694733,-0.23036819696426392,0.23798641562461853,0.38558676838874817,-0.4522622870467761,1.876646359871112,-0.20796755391236427,0.8577181696891785,0.437001496553421,0.2708311676979065
1727330689668,9i,2.167479666876773,5.3s : 7.1s,0.439827257305219,0.5665121488666623,-0.9600750207901001,-1.2005497217178345,0.006103984080255032,-0.26991790533065796,0.28858885169029236,0.40595173835754395,-0.449324715531383,1.8692488573181072,-0.19681599443771286,0.860921323299408,0.4343573749065399,0.26485514640808105
1727330689678,9i,2.167479666876773,5.3s : 7.1s,0.3835710342322996,0.5998986945094178,-0.7856267690658569,-1.1190344095230103,0.03646485134959221,-0.3070569634437561,0.3135569989681244,0.4089944660663605,-0.4465938950849886,1.8616252415760912,-0.1876392294951727,0.8640486598014832,0.43189600110054016,0.2586233615875244
1727330689688,9i,2.167479666876773,5.3s : 7.1s,0.3321666864719446,0.6092616617720713,-0.635978102684021,-1.025650143623352,0.06499796360731125,-0.349804162979126,0.2914816439151764,0.40481510758399963,-0.4441038744455364,1.8540974061074948,-0.18029268492082454,0.867000937461853,0.42964884638786316,0.25241151452064514
1727330689698,9i,2.167479666876773,5.3s : 7.1s,0.29084809689193186,0.6062856429395296,-0.536948025226593,-0.9235636591911316,0.08751612156629562,-0.3907362222671509,0.23497018218040466,0.3996204435825348,-0.44176535684373486,1.846915977066204,-0.17432387854240133,0.8697555065155029,0.4275360107421875,0.24645200371742249
1727330689708,9i,2.167479666876773,5.3s : 7.1s,0.25433323484272,0.6041643405668049,-0.4424663186073303,-0.8103460073471069,0.10701312124729156,-0.4247773289680481,0.18338871002197266,0.38851943612098694,-0.43949538040155856,1.8403540309240303,-0.16940897626211343,0.8722872138023376,0.4254828691482544,0.2409972846508026
1727330689718,9i,2.167479666876773,5.3s : 7.1s,0.21927834201491475,0.6056060518682266,-0.34424108266830444,-0.6944977641105652,0.1162695363163948,-0.4546028971672058,0.1411108374595642,0.3744097054004669,-0.4373841399293952,1.8344703386024652,-0.16556397968593828,0.8745554089546204,0.42357131838798523,0.23609447479248047
1727330689728,9i,2.167479666876773,5.3s : 7.1s,0.1848418109737511,0.6109830197279074,-0.24539943039417267,-0.5807267427444458,0.12681220471858978,-0.48138272762298584,0.1017342209815979,0.36224448680877686,-0.4354576657554915,1.8292854249288157,-0.16275503143714395,0.8765548467636108,0.4218254089355469,0.23176492750644684
1727330689738,9i,2.167479666876773,5.3s : 7.1s,0.14629031192071007,0.6190868693179571,-0.134752556681633,-0.4627266824245453,0.15189677476882935,-0.500070333480835,0.0752657949924469,0.35711801052093506,-0.4336347347884985,1.8247679502618555,-0.16112623327471234,0.87833571434021,0.4201718866825104,0.22799557447433472
1727330689748,9i,2.167479666876773,5.3s : 7.1s,0.10617725840755421,0.6199033212188193,-0.051051799207925797,-0.35510995984077454,0.18780897557735443,-0.507432222366333,0.06270450353622437,0.35051506757736206,-0.4317558146337703,1.8208948979940554,-0.1606195723328145,0.8799753785133362,0.41846612095832825,0.22478699684143066
1727330689758,9i,2.167479666876773,5.3s : 7.1s,0.06694555897602857,0.616312043354196,0.02169031649827957,-0.27699971199035645,0.22910182178020477,-0.5059307217597961,0.05557224154472351,0.347543329000473,-0.42971416271363627,1.817586319992298,-0.16106581142733054,0.8815409541130066,0.4166109561920166,0.22208257019519806
1727330689768,9i,2.167479666876773,5.3s : 7.1s,0.03370729471648104,0.613679479955081,0.045269675552845,-0.2042277604341507,0.27744510769844055,-0.49690181016921997,0.04298773407936096,0.35755160450935364,-0.42732777552906925,1.8147381832113254,-0.16212092787049356,0.8831323981285095,0.4144403636455536,0.21981048583984375
1727330689778,9i,2.167479666876773,5.3s : 7.1s,0.01637653753462358,0.6149467308843193,0.06844790279865265,-0.12890423834323883,0.321731835603714,-0.48615628480911255,0.02768680453300476,0.37555956840515137,-0.42455897488901617,1.8125079919372316,-0.1634902046722382,0.8847311735153198,0.4119189381599426,0.2181142121553421
1727330689787,9i,2.167479666876773,5.3s : 7.1s,0.03978794118693587,0.6139865929311321,0.09246082603931427,-0.05579007789492607,0.36813634634017944,-0.4770520329475403,0.016703635454177856,0.38616302609443665,-0.4213929649521874,1.8108499033938479,-0.16524840034339328,0.8863539099693298,0.4090319573879242,0.21695592999458313
1727330689797,9i,2.167479666876773,5.3s : 7.1s,0.07389936301593453,0.6162358386402403,0.13848145306110382,0.0368218794465065,0.407560795545578,-0.471388578414917,0.016554206609725952,0.3965669870376587,-0.4178973521951482,1.8098526778897233,-0.16746344645358968,0.887953519821167,0.4058396518230438,0.21640916168689728
1727330689807,9i,2.167479666876773,5.3s : 7.1s,0.11223018524982727,0.6183319410498376,0.1945897340774536,0.13575857877731323,0.4329279363155365,-0.467509388923645,0.02681693434715271,0.4037947654724121,-0.4142177107626407,1.8095652034393752,-0.17032077159776404,0.8894606828689575,0.40247392654418945,0.21650561690330505
1727330689817,9i,2.167479666876773,5.3s : 7.1s,0.1487062326689966,0.6180846520086837,0.22196708619594574,0.2161429077386856,0.4555343687534332,-0.45814448595046997,0.04282784461975098,0.412671834230423,-0.41041568510791815,1.809969604551531,-0.17370578296466865,0.8908533453941345,0.39899054169654846,0.21722625195980072
1727330689827,9i,2.167479666876773,5.3s : 7.1s,0.18252940792833358,0.6149337865536861,0.24205343425273895,0.2890027165412903,0.4733186662197113,-0.4438188672065735,0.05961677432060242,0.42144301533699036,-0.4064705760437166,1.8110615381974515,-0.1773501424736345,0.8921374678611755,0.3953699469566345,0.218571737408638
1727330689837,9i,2.167479666876773,5.3s : 7.1s,0.21293280830567618,0.6066276625050075,0.2532780170440674,0.3501373529434204,0.485874205827713,-0.42075634002685547,0.07274740934371948,0.43089330196380615,-0.40239521169698445,1.812763357843175,-0.1811970439902113,0.8933210968971252,0.3916233479976654,0.22047391533851624
1727330689847,9i,2.167479666876773,5.3s : 7.1s,0.2413953243530892,0.5971444377126726,0.27266183495521545,0.4261397123336792,0.48016437888145447,-0.40010595321655273,0.0833156406879425,0.43537938594818115,-0.3983258417999468,1.8150506100248844,-0.18524219334143194,0.8943533301353455,0.3878757953643799,0.22290010750293732
1727330689857,9i,2.167479666876773,5.3s : 7.1s,0.2708626678907479,0.59000604570793,0.3102344870567322,0.5312014818191528,0.4515487253665924,-0.38724684715270996,0.10043418407440186,0.4336588382720947,-0.3945066950171845,1.818141481266573,-0.18952546728454284,0.8950898051261902,0.38435283303260803,0.22602440416812897
1727330689867,9i,2.167479666876773,5.3s : 7.1s,0.3014891606170407,0.5860018987963753,0.34458127617836,0.6513718366622925,0.42216819524765015,-0.37602853775024414,0.12074488401412964,0.43292197585105896,-0.3911028626877528,1.8222868401941015,-0.19411940258567986,0.8954071402549744,0.38120824098587036,0.23005715012550354
1727330689877,9i,2.167479666876773,5.3s : 7.1s,0.33973852902324975,0.587031327308146,0.4176257848739624,0.7725395560264587,0.40421363711357117,-0.3599278926849365,0.15813148021697998,0.4359496831893921,-0.38806512551573663,1.8274943445579772,-0.19916684314717703,0.8953130841255188,0.3783981204032898,0.2350098043680191
1727330689887,9i,2.167479666876773,5.3s : 7.1s,0.38788859613212534,0.5752088012604473,0.5529466271400452,0.8634324669837952,0.41094744205474854,-0.331970751285553,0.20491176843643188,0.4226958155632019,-0.38538313236209787,1.833351397195237,-0.2052996888242676,0.8948982954025269,0.37591418623924255,0.24051222205162048
1727330689897,9i,2.167479666876773,5.3s : 7.1s,0.44124718063946267,0.5434858039465965,0.7097686529159546,0.9427664279937744,0.4241606891155243,-0.2939971089363098,0.237033873796463,0.3908419907093048,-0.3830268990432388,1.8394642433146373,-0.21303753466070144,0.8942627906799316,0.37372973561286926,0.24621249735355377
1727330689907,9i,2.167479666876773,5.3s : 7.1s,0.49141100545837724,0.5104768874773505,0.8365278840065002,1.0042295455932617,0.42649948596954346,-0.25501126050949097,0.24509209394454956,0.3680839240550995,-0.38100250047613393,1.845749725033742,-0.22231804287998672,0.8934236764907837,0.37185126543045044,0.2520332932472229
1727330689917,9i,2.167479666876773,5.3s : 7.1s,0.5311173054972428,0.487180949462749,0.8805493712425232,1.0492280721664429,0.44197598099708557,-0.21160626411437988,0.2479402720928192,0.36206862330436707,-0.3792006680660515,1.8521952578698146,-0.23252206439984657,0.8924229145050049,0.3701780438423157,0.25797227025032043
1727330689927,9i,2.167479666876773,5.3s : 7.1s,0.5618034689268558,0.48498752270455886,0.8714131712913513,1.1085656881332397,0.43862733244895935,-0.1775583028793335,0.2724654972553253,0.35978952050209045,-0.3774062834546213,1.8590930100758645,-0.2429040398042818,0.8912577629089355,0.36851054430007935,0.2643102705478668
1727330689937,9i,2.167479666876773,5.3s : 7.1s,0.5863185378590827,0.4960643185585809,0.8401669859886169,1.222998023033142,0.3840564489364624,-0.16026532649993896,0.3028312623500824,0.3587311804294586,-0.3759285999619975,1.866977087642165,-0.2529703408780268,0.8896661400794983,0.3671364486217499,0.27148738503456116
1727330689947,9i,2.167479666876773,5.3s : 7.1s,0.6029740182812977,0.5075393792668704,0.7879562377929688,1.3657869100570679,0.30404868721961975,-0.16080063581466675,0.3087799549102783,0.3693160116672516,-0.3750781937412497,1.8764095341632203,-0.2624311532673851,0.8873633146286011,0.36634528636932373,0.2799607515335083
1727330689957,9i,2.167479666876773,5.3s : 7.1s,0.6134878721387996,0.5182252117388023,0.725706934928894,1.5027788877487183,0.22351962327957153,-0.1580478549003601,0.2996664047241211,0.3921457529067993,-0.37486933615742113,1.8876114310804992,-0.2710169360127167,0.8842442035675049,0.36615094542503357,0.28990694880485535
1727330689967,9i,2.167479666876773,5.3s : 7.1s,0.6204993485633568,0.5227121567569212,0.6887787580490112,1.5970462560653687,0.1307598501443863,-0.13848817348480225,0.2936825752258301,0.40963345766067505,-0.3754131322615917,1.9002375968642227,-0.2787786373013139,0.8803250193595886,0.36665692925453186,0.300983726978302
1727330689977,9i,2.167479666876773,5.3s : 7.1s,0.6271385977476737,0.5130503553743783,0.6958321928977966,1.682899832725525,0.03680597245693207,-0.11067748069763184,0.28817668557167053,0.40978696942329407,-0.3769032661588693,1.9139461723192217,-0.2860311821492521,0.8756007552146912,0.36804285645484924,0.3128388524055481
1727330689987,9i,2.167479666876773,5.3s : 7.1s,0.6402402515396215,0.4891122374900156,0.7745863795280457,1.7732741832733154,-0.04127445071935654,-0.08195823431015015,0.29567286372184753,0.38090837001800537,-0.3794602135822179,1.928487727236424,-0.2934096238761922,0.8700747489929199,0.37041914463043213,0.32520735263824463
1727330689997,9i,2.167479666876773,5.3s : 7.1s,0.659951034573975,0.45377789585526535,0.8928602933883667,1.8626620769500732,-0.1095975786447525,-0.0565342903137207,0.31433138251304626,0.3223569989204407,-0.3831457864359563,1.943594854333974,-0.3014868098306917,0.8637851476669312,0.37384000420570374,0.33781445026397705
1727330690007,9i,2.167479666876773,5.3s : 7.1s,0.680882832381092,0.42047987118259567,0.9872395396232605,1.9658385515213013,-0.17649859189987183,-0.04127848148345947,0.3222343623638153,0.2669539749622345,-0.38795564420077533,1.9593625542347268,-0.3103341554908107,0.856677770614624,0.37829679250717163,0.35070663690567017
1727330690017,9i,2.167479666876773,5.3s : 7.1s,0.7036253224515551,0.38053312153038005,1.1039609909057617,2.0782344341278076,-0.26172754168510437,-0.03449892997741699,0.3056745231151581,0.22400528192520142,-0.39398392040008584,1.9759492866403954,-0.3198022987334599,0.8486314415931702,0.3838701546192169,0.3639615774154663
1727330690027,9i,2.167479666876773,5.3s : 7.1s,0.7302097243560045,0.3330756452928901,1.2638640403747559,2.172191619873047,-0.3293992578983307,-0.022409677505493164,0.2727315127849579,0.18988078832626343,-0.40144758777561224,1.9931496299724505,-0.330205665043227,0.8396095633506775,0.3907512426376343,0.37731894850730896
1727330690037,9i,2.167479666876773,5.3s : 7.1s,0.7627868073476124,0.29371883241338603,1.4606399536132812,2.2336978912353516,-0.39615774154663086,0.0019654035568237305,0.24197611212730408,0.16647657752037048,-0.41042590408105717,2.0104961663264587,-0.3420130013639108,0.8297301530838013,0.3989998996257782,0.39031660556793213
1727330690047,9i,2.167479666876773,5.3s : 7.1s,0.7954255992639077,0.28143198253061613,1.6275097131729126,2.2621047496795654,-0.4792790114879608,0.037566542625427246,0.231288343667984,0.15587949752807617,-0.42102465112807735,2.0276364005116285,-0.3551804528691855,0.8190771341323853,0.40869584679603577,0.4025922417640686
1727330690057,9i,2.167479666876773,5.3s : 7.1s,0.816597356610507,0.2921057283045881,1.704198956489563,2.250088691711426,-0.5693783164024353,0.07862555980682373,0.23147332668304443,0.15988707542419434,-0.433210730266349,2.0444593945757497,-0.36897274696711135,0.8076964616775513,0.41978707909584045,0.41401126980781555
1727330690067,9i,2.167479666876773,5.3s : 7.1s,0.8228758136205182,0.3126362203387374,1.7003674507141113,2.229531764984131,-0.6435231566429138,0.1168370246887207,0.23017507791519165,0.17638012766838074,-0.44648413129817244,2.061051766864411,-0.38255042228569763,0.7957300543785095,0.43179699778556824,0.42469412088394165
1727330690077,9i,2.167479666876773,5.3s : 7.1s,0.8142787316541139,0.328282511339646,1.637255072593689,2.202998399734497,-0.7153366804122925,0.15287059545516968,0.20875105261802673,0.20204699039459229,-0.4604038181542802,2.0776144171843476,-0.39526500994395786,0.7832561731338501,0.44430992007255554,0.4348549246788025
1727330690087,9i,2.167479666876773,5.3s : 7.1s,0.7909673576856475,0.34049509336322237,1.5267301797866821,2.170917272567749,-0.7819694876670837,0.1866767406463623,0.16662314534187317,0.23092299699783325,-0.4747093517686992,2.094365982527092,-0.4065662037135024,0.7702783942222595,0.4570799469947815,0.4446905255317688
1727330690097,9i,2.167479666876773,5.3s : 7.1s,0.7609549306039851,0.36063745255962654,1.4175875186920166,2.1453168392181396,-0.8293507695198059,0.21585631370544434,0.12231075763702393,0.26173555850982666,-0.489106263635482,2.111422029622592,-0.41622976504712333,0.7568609714508057,0.46983712911605835,0.45432886481285095
1727330690107,9i,2.167479666876773,5.3s : 7.1s,0.7323643630561743,0.39050070452823,1.3297079801559448,2.1225228309631348,-0.8625750541687012,0.24554836750030518,0.0925091803073883,0.28920382261276245,-0.5034580228243793,2.128770095706483,-0.42449499479114133,0.7430686354637146,0.48245736956596375,0.4637717604637146
1727330690117,9i,2.167479666876773,5.3s : 7.1s,0.7088640281071702,0.42169329864986105,1.2752609252929688,2.1127231121063232,-0.9221335053443909,0.2775276303291321,0.06797441840171814,0.31013405323028564,-0.5179212266613936,2.146457223491036,-0.43158992012886394,0.7288202047348022,0.4950750768184662,0.4729928970336914
1727330690127,9i,2.167479666876773,5.3s : 7.1s,0.6873863182069126,0.4502240484541408,1.227356195449829,2.1062867641448975,-0.9812911152839661,0.3091306686401367,0.04397028684616089,0.3243555724620819,-0.5327208443301734,2.1645296528382194,-0.4375428995684838,0.7140015959739685,0.5078790187835693,0.4819341003894806
1727330690137,9i,2.167479666876773,5.3s : 7.1s,0.6650110100118624,0.4723395131065403,1.194737195968628,2.0566179752349854,-1.0373574495315552,0.34559303522109985,0.030081748962402344,0.32057005167007446,-0.5478668375781688,2.1827958626068997,-0.44248615552687426,0.6987033486366272,0.5208674669265747,0.4904193878173828
1727330690147,9i,2.167479666876773,5.3s : 7.1s,0.6393352551257082,0.4866328930775169,1.165908694267273,1.979230523109436,-1.0724387168884277,0.38457196950912476,0.02268218994140625,0.29732388257980347,-0.5632935386806656,2.2007878957850493,-0.4465413658793934,0.6831923723220825,0.533973753452301,0.4981168210506439
1727330690157,9i,2.167479666876773,5.3s : 7.1s,0.6100523520227281,0.4890470508300219,1.134585976600647,1.9004285335540771,-1.0979211330413818,0.4147629737854004,0.012958884239196777,0.2587870955467224,-0.5788407952136267,2.21838507325009,-0.44980850895226904,0.6676192283630371,0.5470539331436157,0.5049915909767151
1727330690167,9i,2.167479666876773,5.3s : 7.1s,0.5817006990159748,0.4770245134765908,1.1231237649917603,1.8627712726593018,-1.1103465557098389,0.43233001232147217,-0.0031851530075073242,0.20157629251480103,-0.5944150391998182,2.235732037135925,-0.45241146116712805,0.6519749164581299,0.5600242018699646,0.5111770629882812
1727330690177,9i,2.167479666876773,5.3s : 7.1s,0.5538607648044811,0.4597760913769568,1.1289128065109253,1.8182566165924072,-1.1165963411331177,0.434692919254303,-0.040850937366485596,0.14410871267318726,-0.610125982456301,2.2528604013196696,-0.4546273940461772,0.6362146735191345,0.5729706883430481,0.516657829284668
1727330690187,9i,2.167479666876773,5.3s : 7.1s,0.5254176680108664,0.4514851581213006,1.1288646459579468,1.764259934425354,-1.0893495082855225,0.4298532009124756,-0.09588605165481567,0.09935259819030762,-0.6257917201849624,2.26956551701021,-0.4566645673607021,0.6205466985702515,0.5857391357421875,0.5213750004768372
1727330690197,9i,2.167479666876773,5.3s : 7.1s,0.4989113466396241,0.4605595096948052,1.1202468872070312,1.7025519609451294,-1.046907901763916,0.43314605951309204,-0.14429837465286255,0.06064265966415405,-0.6411788966333081,2.2857133693089486,-0.4586470209012556,0.6051688194274902,0.5981405973434448,0.5253559947013855
1727330690207,9i,2.167479666876773,5.3s : 7.1s,0.4724398438239314,0.477407931134617,1.101735234260559,1.622761845588684,-0.9976662993431091,0.4394937753677368,-0.1854616403579712,0.019171178340911865,-0.6561850416267265,2.3011277634502103,-0.4606147381377697,0.5902456641197205,0.6100986003875732,0.5285736322402954
1727330690217,9i,2.167479666876773,5.3s : 7.1s,0.4449896127908597,0.5033516413478433,1.0654008388519287,1.5486555099487305,-0.9273875951766968,0.44398415088653564,-0.23671913146972656,-0.014317870140075684,-0.6705781513930574,2.3157399371853575,-0.46256871651544923,0.5759438872337341,0.6214390397071838,0.5311331152915955
1727330690227,9i,2.167479666876773,5.3s : 7.1s,0.4169757833772166,0.5376513121611297,1.0243518352508545,1.4824652671813965,-0.8776759505271912,0.4465820789337158,-0.29576051235198975,-0.04646611213684082,-0.6842732875323095,2.3296852886770014,-0.464460860967562,0.5622527599334717,0.632110059261322,0.5332062244415283
1727330690237,9i,2.167479666876773,5.3s : 7.1s,0.38637359870103694,0.583914239588898,0.990155816078186,1.4057751893997192,-0.8461713790893555,0.45108211040496826,-0.3616711497306824,-0.08169913291931152,-0.6974301479012978,2.3430516195393953,-0.4660994270741774,0.5490705966949463,0.6422500014305115,0.5348243117332458
1727330690247,9i,2.167479666876773,5.3s : 7.1s,0.35152573572074525,0.6253058741501089,0.945700466632843,1.290727138519287,-0.7999093532562256,0.4569767117500305,-0.41148674488067627,-0.11339479684829712,-0.7100729489809808,2.3556091876525858,-0.4675415723758479,0.536523163318634,0.6518890857696533,0.5358954668045044
1727330690257,9i,2.167479666876773,5.3s : 7.1s,0.3125997547293242,0.6626310112783034,0.8761674761772156,1.1487960815429688,-0.7483572363853455,0.4722362756729126,-0.44324737787246704,-0.14001613855361938,-0.7219953880093568,2.3670285931765696,-0.4687309225440064,0.5248950123786926,0.6608834862709045,0.5363935828208923
1727330690267,9i,2.167479666876773,5.3s : 7.1s,0.27292155013680874,0.6940499314257387,0.8091407418251038,1.0020670890808105,-0.6818703413009644,0.489523708820343,-0.4637644290924072,-0.16429972648620605,-0.7330202137776988,2.377117033240726,-0.4697008066807638,0.5143823623657227,0.6691171526908875,0.536370038986206
1727330690277,9i,2.167479666876773,5.3s : 7.1s,0.2358496783609404,0.7195087954736041,0.7523506879806519,0.8808310031890869,-0.6048921942710876,0.49597930908203125,-0.4856734871864319,-0.18925827741622925,-0.7430823576716057,2.385836059546637,-0.47069737970178016,0.5050429701805115,0.6765609383583069,0.5359074473381042
1727330690287,9i,2.167479666876773,5.3s : 7.1s,0.19992261555948512,0.740309795640609,0.6774263978004456,0.7900608777999878,-0.5264115333557129,0.48964372277259827,-0.5089012384414673,-0.22209715843200684,-0.752139256050349,2.393447270784143,-0.4717238820305968,0.4967607259750366,0.6832024455070496,0.5352227687835693
1727330690297,9i,2.167479666876773,5.3s : 7.1s,0.16822406657526884,0.7599305517075665,0.6240854263305664,0.7150058150291443,-0.4552081823348999,0.47843149304389954,-0.5333579182624817,-0.25323325395584106,-0.7602315302117169,2.400195909056458,-0.47281946367487226,0.4893878102302551,0.6890892386436462,0.5344679951667786
1727330690307,9i,2.167479666876773,5.3s : 7.1s,0.13984785634422878,0.7835524908260525,0.5817179679870605,0.6212641000747681,-0.3766323924064636,0.4736214876174927,-0.5610421299934387,-0.2736218571662903,-0.7674851804376099,2.4059507608033055,-0.4741803683447473,0.4829367399215698,0.6943276524543762,0.5335553884506226
1727330690317,9i,2.167479666876773,5.3s : 7.1s,0.11055829667910186,0.8106979503537343,0.5211891531944275,0.4997459650039673,-0.29137104749679565,0.4780158996582031,-0.5864946842193604,-0.2911287546157837,-0.7738029578119137,2.4103857912436677,-0.4758659170170211,0.4776267409324646,0.6988604068756104,0.5324159264564514
1727330690326,9i,2.167479666876773,5.3s : 7.1s,0.08249702819869076,0.8293286227727168,0.4712980389595032,0.35897380113601685,-0.206597700715065,0.48985743522644043,-0.5966206789016724,-0.30309969186782837,-0.779120851488755,2.413290873819717,-0.4778598608404229,0.47359785437583923,0.7026541233062744,0.5310203433036804
1727330690336,9i,2.167479666876773,5.3s : 7.1s,0.05634401241460837,0.840071150140155,0.4377625584602356,0.21783798933029175,-0.11752647906541824,0.49377959966659546,-0.6026451587677002,-0.31419748067855835,-0.783565673579631,2.4143725002158165,-0.480377791413427,0.47094208002090454,0.7058098316192627,0.5291936993598938
1727330690346,9i,2.167479666876773,5.3s : 7.1s,0.031247114165976034,0.8418631215021252,0.39149677753448486,0.0979885682463646,-0.01935224048793316,0.4844139516353607,-0.6061111092567444,-0.32665878534317017,-0.7871292094515867,2.4136906141587167,-0.48354258161719305,0.4696265757083893,0.7083297371864319,0.5269914865493774
1727330690356,9i,2.167479666876773,5.3s : 7.1s,0.006521794339873457,0.8363195066643601,0.3105999529361725,-0.004470345098525286,0.07652854919433594,0.4688774049282074,-0.5997356176376343,-0.3462679386138916,-0.78955708788335,2.4116198897857473,-0.48714576773662327,0.4695686101913452,0.7100414633750916,0.5247347950935364
1727330690366,9i,2.167479666876773,5.3s : 7.1s,0.022368928747539638,0.8243623052237271,0.22781984508037567,-0.10563850402832031,0.16853250563144684,0.4538068473339081,-0.5833273530006409,-0.36518728733062744,-0.7907424157597082,2.4083406573581376,-0.49100936856773963,0.4707231819629669,0.7108756303787231,0.5225664377212524
1727330690376,9i,2.167479666876773,5.3s : 7.1s,0.05179979328570068,0.8202077002813194,0.12036775797605515,-0.232507586479187,0.2714807689189911,0.445911705493927,-0.5792434215545654,-0.3719952702522278,-0.7905766395499656,2.4038283283694937,-0.4949993492998476,0.4731557369232178,0.7107590436935425,0.5205243825912476
1727330690386,9i,2.167479666876773,5.3s : 7.1s,0.08599056428502755,0.8252860069016197,-0.0056977653875947,-0.3733198344707489,0.3682536482810974,0.44760116934776306,-0.5833303332328796,-0.3748011589050293,-0.7888392594453982,2.3980220031500745,-0.4989355978443193,0.4770051836967468,0.7095358371734619,0.5186764001846313
1727330690396,9i,2.167479666876773,5.3s : 7.1s,0.12459004430989554,0.8281949828796306,-0.1511189490556717,-0.5154916644096375,0.4574528634548187,0.45222777128219604,-0.5879682898521423,-0.36836159229278564,-0.785466028237936,2.391057197174361,-0.5024919943116127,0.48223572969436646,0.7071547508239746,0.5170890092849731
1727330690406,9i,2.167479666876773,5.3s : 7.1s,0.1678662917850672,0.8278281077528459,-0.31578752398490906,-0.6423582434654236,0.5159260034561157,0.4505864977836609,-0.597356915473938,-0.3541693091392517,-0.7804349825998435,2.3833381756037277,-0.505241789721937,0.4886529743671417,0.703588604927063,0.5159276723861694
1727330690416,9i,2.167479666876773,5.3s : 7.1s,0.21357685767146456,0.8236926613801158,-0.47169795632362366,-0.7489733099937439,0.5505138635635376,0.44225749373435974,-0.6078467965126038,-0.33674943447113037,-0.7738952839382279,2.3752797502274627,-0.5068248268585068,0.4959748387336731,0.6989263892173767,0.5152772068977356
1727330690426,9i,2.167479666876773,5.3s : 7.1s,0.2569639843778698,0.8105152177538256,-0.6034743189811707,-0.853497326374054,0.5966238379478455,0.43412691354751587,-0.6088672876358032,-0.3126489520072937,-0.766050129437021,2.366910107632526,-0.507345087622044,0.5040901899337769,0.6932941675186157,0.5150108933448792
1727330690436,9i,2.167479666876773,5.3s : 7.1s,0.2955439922523049,0.7889551581532044,-0.7125293612480164,-0.9718915224075317,0.6404979825019836,0.433505117893219,-0.5895081758499146,-0.2949638366699219,-0.75701192685936,2.3580342413270117,-0.5070098439505544,0.5130433440208435,0.6867524981498718,0.5149345993995667
1727330690446,9i,2.167479666876773,5.3s : 7.1s,0.3266069321262864,0.7601259621169687,-0.7946979999542236,-1.0864521265029907,0.6800699234008789,0.4422467350959778,-0.5547945499420166,-0.2727862000465393,-0.7470040752344647,2.3484211795524312,-0.5060353672721406,0.5228411555290222,0.6794435977935791,0.514775276184082
1727330690456,9i,2.167479666876773,5.3s : 7.1s,0.3486671301537027,0.7243973911784379,-0.8449060320854187,-1.1887303590774536,0.7139455676078796,0.4475516676902771,-0.5170393586158752,-0.23899662494659424,-0.7362985920998348,2.3379859865275967,-0.5046524010266153,0.5333901047706604,0.671549916267395,0.5143109560012817
1727330690466,9i,2.167479666876773,5.3s : 7.1s,0.3626851711569024,0.6869066184969045,-0.8701863884925842,-1.2763744592666626,0.744549036026001,0.4507567882537842,-0.4726994037628174,-0.2126365303993225,-0.7250934602614932,2.326754582810518,-0.5030701512307529,0.544573962688446,0.6632053852081299,0.5134177803993225
1727330690476,9i,2.167479666876773,5.3s : 7.1s,0.37346970710734756,0.6495266068883637,-0.9026957750320435,-1.379733681678772,0.7875921726226807,0.4547905921936035,-0.4247959852218628,-0.18600726127624512,-0.7134831994571955,2.3146178201766534,-0.5013833729188817,0.5563941597938538,0.6544713377952576,0.5119503140449524
1727330690486,9i,2.167479666876773,5.3s : 7.1s,0.3827235031473205,0.6126249294912604,-0.9422227144241333,-1.4807002544403076,0.829561173915863,0.4581971764564514,-0.3735172152519226,-0.16077792644500732,-0.70130520947299,2.301543666685248,-0.4995251494785593,0.5689330697059631,0.6452153921127319,0.5099143981933594
1727330690496,9i,2.167479666876773,5.3s : 7.1s,0.3945259002078662,0.5833289815617965,-0.9982944130897522,-1.5799659490585327,0.8601072430610657,0.4595145583152771,-0.33029264211654663,-0.1415126919746399,-0.6885756863309533,2.287642073715573,-0.49734542624271666,0.5821114778518677,0.6354380249977112,0.5073117017745972
1727330690506,9i,2.167479666876773,5.3s : 7.1s,0.4125601654628198,0.5639823794511715,-1.088654637336731,-1.6555720567703247,0.8749673962593079,0.4561799168586731,-0.3082966208457947,-0.1221851110458374,-0.6752200625627488,2.2733116746544257,-0.4944419640433752,0.5957458019256592,0.6250690817832947,0.5043568015098572
1727330690516,9i,2.167479666876773,5.3s : 7.1s,0.4336066703504537,0.5426863794846452,-1.16904616355896,-1.7354789972305298,0.8908206820487976,0.4459606409072876,-0.29591381549835205,-0.08979213237762451,-0.6612326625978664,2.2587867579679655,-0.49057919092466507,0.6097034215927124,0.6140902042388916,0.501153826713562
1727330690526,9i,2.167479666876773,5.3s : 7.1s,0.45384424775963644,0.5196758052880195,-1.230392336845398,-1.8075350522994995,0.9021023511886597,0.4340361952781677,-0.279555082321167,-0.05936732888221741,-0.6467345901041519,2.2439292462628955,-0.48591769440751864,0.6239777207374573,0.602583646774292,0.4975387454032898
1727330690536,9i,2.167479666876773,5.3s : 7.1s,0.47162419140718903,0.49670551675353397,-1.2621912956237793,-1.881308913230896,0.8961208462715149,0.4245772361755371,-0.2544657588005066,-0.04120337963104248,-0.6319744856813343,2.2286572663308557,-0.4806397157235153,0.6384720802307129,0.5907390713691711,0.49333658814430237
1727330690546,9i,2.167479666876773,5.3s : 7.1s,0.485582109858103,0.47000630442362956,-1.2755405902862549,-1.9333207607269287,0.881912887096405,0.41307199001312256,-0.2226557731628418,-0.026492714881896973,-0.6172327045441351,2.21301441347791,-0.4748267963555109,0.6530138254165649,0.5787807106971741,0.4884525239467621
1727330690556,9i,2.167479666876773,5.3s : 7.1s,0.4971139978513465,0.4400929005500155,-1.2919539213180542,-1.9761016368865967,0.857898473739624,0.39836567640304565,-0.1868099570274353,-0.009412169456481934,-0.6026530654634356,2.1971204177095767,-0.46851270677135576,0.6674607396125793,0.5668301582336426,0.48290765285491943
1727330690566,9i,2.167479666876773,5.3s : 7.1s,0.508197286991672,0.41631837278572414,-1.3171346187591553,-2.015371799468994,0.8054847717285156,0.38996386528015137,-0.1454656720161438,0.009429186582565308,-0.5883218620064958,2.181146893804885,-0.4615215737066442,0.6816760897636414,0.5549657940864563,0.4767920672893524
1727330690576,9i,2.167479666876773,5.3s : 7.1s,0.5185831985723025,0.4010464956600044,-1.3372464179992676,-2.0754237174987793,0.7717458605766296,0.38826900720596313,-0.09321707487106323,0.03736370801925659,-0.5743151170732119,2.1649445955296143,-0.4537797301113141,0.6956849694252014,0.5432599186897278,0.4699910879135132
1727330690586,9i,2.167479666876773,5.3s : 7.1s,0.5232768467833422,0.3963192102429872,-1.3229204416275024,-2.1263582706451416,0.745637834072113,0.38765400648117065,-0.043792545795440674,0.06982478499412537,-0.5606515666462508,2.1483423670825155,-0.44560183468553594,0.7095444202423096,0.5317381024360657,0.46238651871681213
1727330690596,9i,2.167479666876773,5.3s : 7.1s,0.5216064719957617,0.3963532422439756,-1.2815381288528442,-2.1568877696990967,0.7097709774971008,0.38481491804122925,0.0008334517478942871,0.09493511915206909,-0.5475061021281076,2.1312839326580555,-0.4373444116213736,0.7231868505477905,0.5205594897270203,0.4538930356502533
1727330690606,9i,2.167479666876773,5.3s : 7.1s,0.5198462214540682,0.39067562815199647,-1.2453055381774902,-2.178802013397217,0.6584175229072571,0.3736317753791809,0.03103703260421753,0.1098337173461914,-0.5350890533582233,2.1139680068759916,-0.42899896578947777,0.7364146113395691,0.509917676448822,0.44460970163345337
1727330690616,9i,2.167479666876773,5.3s : 7.1s,0.5190193842442167,0.3845135128718156,-1.2139824628829956,-2.189155340194702,0.605381190776825,0.35903728008270264,0.05290308594703674,0.12705957889556885,-0.5234040319620182,2.0964491270157652,-0.4204937611187223,0.7491933107376099,0.49983134865760803,0.43460121750831604
1727330690626,9i,2.167479666876773,5.3s : 7.1s,0.5179129788083395,0.3813940357849908,-1.1742528676986694,-2.2068417072296143,0.5714098811149597,0.3464106321334839,0.07000243663787842,0.14339017868041992,-0.5123993278024254,2.0787806187055033,-0.4118932003883787,0.7615147829055786,0.49026983976364136,0.42394694685935974
1727330690636,9i,2.167479666876773,5.3s : 7.1s,0.5189672574799026,0.3862428552435652,-1.1436718702316284,-2.2410857677459717,0.5315675139427185,0.34767383337020874,0.08126604557037354,0.14731693267822266,-0.5020445001938748,2.0607667290567617,-0.40331577058325163,0.7734657526016235,0.48121875524520874,0.41252803802490234
1727330690646,9i,2.167479666876773,5.3s : 7.1s,0.5259791690604192,0.3931320156807388,-1.1403045654296875,-2.288001775741577,0.4925442337989807,0.35463863611221313,0.09133437275886536,0.14297640323638916,-0.4922560314685561,2.0423607212612733,-0.39451412450944384,0.7850861549377441,0.4726152718067169,0.4003433287143707
1727330690656,9i,2.167479666876773,5.3s : 7.1s,0.5376451373213528,0.39742606656721813,-1.1454215049743652,-2.336266040802002,0.44751492142677307,0.3568357825279236,0.09644106030464172,0.14599597454071045,-0.48295226439832734,2.0235609705900828,-0.38533548471338114,0.7963929772377014,0.46439579129219055,0.38742080330848694
1727330690666,9i,2.167479666876773,5.3s : 7.1s,0.5531347515741261,0.38745809281386645,-1.1704189777374268,-2.3569858074188232,0.4038902223110199,0.341904878616333,0.09300872683525085,0.15676161646842957,-0.4741671116683128,2.0046027946607237,-0.3756080730991789,0.8072648644447327,0.45659759640693665,0.37395432591438293
1727330690676,9i,2.167479666876773,5.3s : 7.1s,0.5688148797112116,0.36935382337453704,-1.1843469142913818,-2.370330572128296,0.36786139011383057,0.3150154948234558,0.0859462320804596,0.17262887954711914,-0.46581266363072243,1.985635432180781,-0.3653710577670736,0.8176749348640442,0.4491490423679352,0.36010128259658813
1727330690686,9i,2.167479666876773,5.3s : 7.1s,0.5803357932754285,0.35790149551993605,-1.1803992986679077,-2.375123977661133,0.32869189977645874,0.28671830892562866,0.09022507071495056,0.19428208470344543,-0.4579479183934902,1.9666856324439168,-0.3547777321993741,0.8275853991508484,0.4421083927154541,0.34589436650276184
1727330690696,9i,2.167479666876773,5.3s : 7.1s,0.5856686032718698,0.3571220735291541,-1.1517454385757446,-2.389014482498169,0.3044954538345337,0.2619081139564514,0.1097135841846466,0.21657156944274902,-0.4506256077352332,1.9475810254959474,-0.34408782080838013,0.8370298743247986,0.43552878499031067,0.33120372891426086
1727330690706,9i,2.167479666876773,5.3s : 7.1s,0.5832368006399822,0.3700174658055491,-1.104433298110962,-2.4009218215942383,0.288744181394577,0.24207967519760132,0.13810041546821594,0.24338987469673157,-0.44381648752091485,1.9281835460538739,-0.33363566793606697,0.8460551500320435,0.4293893277645111,0.31593629717826843
1727330690716,9i,2.167479666876773,5.3s : 7.1s,0.5751072162927244,0.3880016099710175,-1.0671228170394897,-2.3802525997161865,0.26345542073249817,0.22108304500579834,0.16092807054519653,0.2752629518508911,-0.43753999226113643,1.9086673214490628,-0.32342414373538075,0.8545852303504944,0.42371249198913574,0.300252765417099
1727330690726,9i,2.167479666876773,5.3s : 7.1s,0.5622456706780509,0.4082115165978676,-1.028627634048462,-2.3397979736328125,0.24876701831817627,0.1950317621231079,0.17511284351348877,0.31294527649879456,-0.43174266543259904,1.889311678198503,-0.31342166177815406,0.8625550270080566,0.41845420002937317,0.28442108631134033
1727330690736,9i,2.167479666876773,5.3s : 7.1s,0.5473048539395997,0.4332816761505539,-0.9883031249046326,-2.3169960975646973,0.23483559489250183,0.16893941164016724,0.1858636736869812,0.35305407643318176,-0.42636360418143077,1.8701451121627661,-0.3036813618078755,0.8699858784675598,0.41356268525123596,0.2684975266456604
1727330690746,9i,2.167479666876773,5.3s : 7.1s,0.5326188874059302,0.46448047288497624,-0.9399710297584534,-2.331360101699829,0.23798266053199768,0.1476649045944214,0.1970059871673584,0.3938601613044739,-0.4213711825462426,1.8508475163077591,-0.2942497863231459,0.8769778609275818,0.4090120792388916,0.25222739577293396
1727330690756,9i,2.167479666876773,5.3s : 7.1s,0.5142549311684311,0.49049467744255126,-0.8641871213912964,-2.320694923400879,0.23645330965518951,0.12362015247344971,0.20766055583953857,0.42682570219039917,-0.41667320981302886,1.8311941098252977,-0.2854257882750355,0.8836127519607544,0.4047205448150635,0.23543642461299896
1727330690766,9i,2.167479666876773,5.3s : 7.1s,0.4981373451319971,0.49190578831711074,-0.7994238138198853,-2.2968833446502686,0.2150084674358368,0.08955895900726318,0.21215462684631348,0.43467333912849426,-0.41241341853028857,1.8114015290794951,-0.27725576219958614,0.8897655010223389,0.4008215665817261,0.21831129491329193
1727330690776,9i,2.167479666876773,5.3s : 7.1s,0.48791216524102127,0.47449811845720075,-0.760596752166748,-2.242856740951538,0.18301177024841309,0.04282718896865845,0.20551797747612,0.4255310297012329,-0.4087012437149831,1.7918262150651123,-0.26952813620140464,0.8953136801719666,0.3974178731441498,0.2011779397726059
1727330690786,9i,2.167479666876773,5.3s : 7.1s,0.4833810540287679,0.46453807559306043,-0.7472460865974426,-2.192950963973999,0.16497045755386353,-0.0034444332122802734,0.18531152606010437,0.4259617328643799,-0.405431834641934,1.7727058251655492,-0.26192706526195325,0.9002643823623657,0.39441561698913574,0.18428301811218262
1727330690796,9i,2.167479666876773,5.3s : 7.1s,0.479676354814587,0.46981953536143023,-0.7427141666412354,-2.138943672180176,0.16594359278678894,-0.04281419515609741,0.1627606749534607,0.43864142894744873,-0.40237678509513436,1.7540738639326896,-0.25433847832353534,0.9047220945358276,0.3916063904762268,0.16769713163375854
1727330690806,9i,2.167479666876773,5.3s : 7.1s,0.47364563471978427,0.4809277493543542,-0.7330983281135559,-2.081721305847168,0.1620979905128479,-0.07429438829421997,0.14782190322875977,0.4515756070613861,-0.39949350607619283,1.7359594389585813,-0.24676943270789803,0.9087211489677429,0.38895177841186523,0.1514669954776764
1727330690816,9i,2.167479666876773,5.3s : 7.1s,0.4633447217057218,0.498224630028995,-0.7086355090141296,-2.018681049346924,0.16801263391971588,-0.10529029369354248,0.14038729667663574,0.4662972688674927,-0.3967495772512789,1.7183691745730085,-0.23933831296806568,0.9122971296310425,0.38642245531082153,0.13561618328094482
1727330690826,9i,2.167479666876773,5.3s : 7.1s,0.4477400111981809,0.5243914674964248,-0.6739012598991394,-1.9558266401290894,0.18237878382205963,-0.13664060831069946,0.14088833332061768,0.4862779378890991,-0.3940571310907534,1.7012747119517135,-0.2322183673610604,0.9155102372169495,0.3839377462863922,0.12013683468103409
1727330690836,9i,2.167479666876773,5.3s : 7.1s,0.42915322469393624,0.5470830864972981,-0.6482873558998108,-1.8747678995132446,0.18954701721668243,-0.17076140642166138,0.14639738202095032,0.498706579208374,-0.3913973804671618,1.6847564729545854,-0.22538403417797062,0.9183810353279114,0.38148048520088196,0.10511426627635956
1727330690846,9i,2.167479666876773,5.3s : 7.1s,0.41022856400447033,0.5680443356878014,-0.6363641619682312,-1.7800220251083374,0.19347836077213287,-0.2069411277770996,0.1473945677280426,0.5080596208572388,-0.388801377414722,1.6690637072539103,-0.2187053068534685,0.9208999872207642,0.37907952070236206,0.09078684449195862
1727330690856,9i,2.167479666876773,5.3s : 7.1s,0.39151804862636835,0.5866499572657491,-0.6264511346817017,-1.6875261068344116,0.19822795689105988,-0.23710346221923828,0.1412154734134674,0.5176855325698853,-0.3862790100145061,1.6542600049232863,-0.21210211002424742,0.9230928421020508,0.37674421072006226,0.07722412794828415
1727330690865,9i,2.167479666876773,5.3s : 7.1s,0.37154702589905264,0.6044755560570371,-0.5916628241539001,-1.615600824356079,0.20004475116729736,-0.2617155909538269,0.1374567449092865,0.5272582769393921,-0.3838477221564631,1.6401758449746515,-0.205701878249888,0.9249998927116394,0.3744909465312958,0.0642792135477066
1727330690875,9i,2.167479666876773,5.3s : 7.1s,0.3502713464133698,0.6262256355042382,-0.5513676404953003,-1.549702763557434,0.21391846239566803,-0.2859485149383545,0.13683491945266724,0.5400631427764893,-0.3814093236100446,1.6266137324812675,-0.1996751505063005,0.926695704460144,0.3722288906574249,0.05177953466773033
1727330690885,9i,2.167479666876773,5.3s : 7.1s,0.3248389251901602,0.6460611130942824,-0.4976907968521118,-1.4586809873580933,0.2298646718263626,-0.3153417110443115,0.1435088813304901,0.5453070402145386,-0.378921751691932,1.6136552093828587,-0.19415490082266637,0.9282110333442688,0.36991891264915466,0.039806466549634933
1727330690895,9i,2.167479666876773,5.3s : 7.1s,0.29711488757917154,0.6631936633554846,-0.44765493273735046,-1.346650242805481,0.23728004097938538,-0.35160326957702637,0.1477774679660797,0.54255211353302,-0.37643068799754575,1.6014719209824144,-0.18918985296030616,0.9295451045036316,0.3676034212112427,0.028523296117782593
1727330690905,9i,2.167479666876773,5.3s : 7.1s,0.26823437010331475,0.680267886260926,-0.39566710591316223,-1.2241935729980469,0.2470109760761261,-0.39018499851226807,0.14091581106185913,0.5391315221786499,-0.3739164731497014,1.5902619488971632,-0.18474139199971695,0.9307277798652649,0.36526408791542053,0.018119484186172485
1727330690915,9i,2.167479666876773,5.3s : 7.1s,0.2411533644236061,0.6937966744956374,-0.35772478580474854,-1.1143122911453247,0.2512967884540558,-0.4219236373901367,0.12738513946533203,0.5358239412307739,-0.3713565353971067,1.580052364817983,-0.18076727816253924,0.9317961931228638,0.36287984251976013,0.008624987676739693
1727330690925,9i,2.167479666876773,5.3s : 7.1s,0.21716378492252947,0.7075064676633988,-0.34032687544822693,-1.014538049697876,0.25434452295303345,-0.44402867555618286,0.11386287212371826,0.5389240980148315,-0.3688228163279195,1.570797506964913,-0.17703809556660854,0.9327523708343506,0.3605176508426666,1.1008064575435128e-06
1727330690935,9i,2.167479666876773,5.3s : 7.1s,0.19304596912480254,0.730467854824917,-0.3330196440219879,-0.907943844795227,0.27563905715942383,-0.46273183822631836,0.10425928235054016,0.5555110573768616,-0.36619660847505714,1.5624947812605139,-0.17341777392822327,0.9336637258529663,0.3580668270587921,-0.007751029916107655
1727330690945,9i,2.167479666876773,5.3s : 7.1s,0.16507744430520715,0.7541888749039694,-0.3109271228313446,-0.795204222202301,0.3056502342224121,-0.4811842441558838,0.10095512866973877,0.5719009041786194,-0.3633471375922037,1.555220452447782,-0.1699432267596024,0.9345992803573608,0.3554048240184784,-0.014558377675712109
1727330690955,9i,2.167479666876773,5.3s : 7.1s,0.13171877314374048,0.7700863523488118,-0.27329686284065247,-0.6611629724502563,0.336216539144516,-0.4970378279685974,0.1001150906085968,0.5796234607696533,-0.3601991789763679,1.5490728673945175,-0.16675431293981008,0.9356059432029724,0.3524606227874756,-0.020327795296907425
1727330690965,9i,2.167479666876773,5.3s : 7.1s,0.09692908778981786,0.7844377527919767,-0.251923143863678,-0.5220184326171875,0.35950401425361633,-0.5156412720680237,0.10679006576538086,0.5814228653907776,-0.3567862630858232,1.5441825620331466,-0.1638664856405725,0.9366924166679382,0.3492646813392639,-0.02493480034172535
1727330690975,9i,2.167479666876773,5.3s : 7.1s,0.060869599623462285,0.7988190260859195,-0.22164557874202728,-0.37632787227630615,0.38062360882759094,-0.5335304737091064,0.11287793517112732,0.5837085247039795,-0.35315774549119194,1.5406100077115912,-0.16122130028950396,0.9378578662872314,0.34586238861083984,-0.02831907942891121
1727330690985,9i,2.167479666876773,5.3s : 7.1s,0.027397801284136408,0.8098372441538684,-0.1844547986984253,-0.24001291394233704,0.40296512842178345,-0.5455275774002075,0.12230050563812256,0.585899829864502,-0.3493140541610046,1.5383354573225774,-0.15892952732548662,0.9391128420829773,0.34225335717201233,-0.030495131388306618
1727330690995,9i,2.167479666876773,5.3s : 7.1s,0.03119241255035301,0.8154918853007992,-0.13492313027381897,-0.11290937662124634,0.42851337790489197,-0.5532667636871338,0.1392524242401123,0.5826934576034546,-0.3452091703862914,1.5372014425921225,-0.1570645135675306,0.9404737949371338,0.33839350938796997,-0.0316070020198822
1727330691005,9i,2.167479666876773,5.3s : 7.1s,0.07174666166112953,0.8159872910152581,-0.06513499468564987,0.0226907916367054,0.4629232883453369,-0.5579131245613098,0.15737131237983704,0.5742843151092529,-0.3407787030578471,1.5371590151689822,-0.15582154170669757,0.9419615268707275,0.33422112464904785,-0.03169700875878334
1727330691015,9i,2.167479666876773,5.3s : 7.1s,0.12100025546776556,0.8210926977831899,0.02872425690293312,0.1678781658411026,0.48606157302856445,-0.5648608803749084,0.1704990565776825,0.5710126757621765,-0.33603357469525674,1.5382082867214817,-0.1554449697211293,0.9435687065124512,0.3297451138496399,-0.030759943649172783
1727330691025,9i,2.167479666876773,5.3s : 7.1s,0.17562820688871209,0.8242045277801778,0.1290612518787384,0.3392017185688019,0.5085482001304626,-0.5708270072937012,0.1746407151222229,0.568304717540741,-0.3310205766542628,1.5405162805564798,-0.15610997848064437,0.9452776908874512,0.325008362531662,-0.028631802648305893
1727330691035,9i,2.167479666876773,5.3s : 7.1s,0.2330001900686212,0.8253861076682278,0.22814436256885529,0.5100647211074829,0.5238828063011169,-0.5744653344154358,0.17718613147735596,0.565558910369873,-0.32581670976147004,1.5441944475904859,-0.1578382096746794,0.9470545649528503,0.3200826346874237,-0.025199374184012413
1727330691045,9i,2.167479666876773,5.3s : 7.1s,0.2931098053383916,0.8268136948562756,0.3258591890335083,0.6767578721046448,0.5470395088195801,-0.5715002417564392,0.19067400693893433,0.5662612318992615,-0.32042692246806787,1.5492434167019966,-0.1606144281424391,0.9488806128501892,0.31497177481651306,-0.02045430615544319
1727330691055,9i,2.167479666876773,5.3s : 7.1s,0.3551006426741208,0.8285106845570276,0.41688624024391174,0.8328897356987,0.5679295063018799,-0.5604537725448608,0.21266484260559082,0.5719223618507385,-0.31481819382990506,1.5556067824705648,-0.164384809007828,0.9507430791854858,0.30964359641075134,-0.014442465268075466
1727330691065,9i,2.167479666876773,5.3s : 7.1s,0.41645054490124583,0.8141350206317173,0.5200616121292114,0.9606239795684814,0.5922449231147766,-0.5396476984024048,0.23758602142333984,0.5613813996315002,-0.30899464336663834,1.5630968931216063,-0.1692172962838726,0.9526115655899048,0.30410104990005493,-0.007334714289754629
