timestamp,club,max_speed,tempo,w.rotation,l.speed,t.spped,acc,rotation.x,rotation.y,rotation.z,userAcceleration.x,userAcceleration.y,userAcceleration.z,pitch,roll,yaw,gravity.x,gravity.y,gravity.z
1729080399206,9i,4.539639275056742,0.3s : 0.3s,-43.48069057496919,0.0002925932984428791,0.10042484851123083,0.08720046088045247,0.37909960746765137,-0.22825154662132263,-0.23023176193237305,0.05739559978246689,0.02834387496113777,0.05921393632888794,-0.007483838150931618,-0.09769961341664195,-0.00036587686362975355,-0.09754152595996857,0.007483768276870251,-0.9952033162117004
1729080399216,9i,4.539639275056742,0.3s : 0.3s,-43.48069057496919,0.000724642827699137,0.26491524237890285,0.07717142007781157,0.30922067165374756,0.4329706132411957,-0.9906630516052246,0.0327531173825264,-0.014836265705525875,0.0682828426361084,-0.0035600319669526694,-0.10033539193974,-0.0013377889433030254,-0.10016649216413498,0.003560024546459317,-0.9949643015861511
1729080399226,9i,4.539639275056742,0.3s : 0.3s,-43.48069057496919,0.0013348962521508082,0.4319381190731463,0.0997141059312885,0.2586752772331238,0.5958387851715088,-1.0770248174667358,0.057482391595840454,-0.03739791736006737,0.07238835096359253,-0.000685274501608136,-0.10353525784046941,-0.00011020016652610811,-0.10335035622119904,0.0006852744263596833,-0.9946447610855103
1729080399236,9i,4.539639275056742,0.3s : 0.3s,-43.48069057496919,0.0020985977092835345,0.3861175670793096,0.10339567137865376,0.17158856987953186,-0.00912381336092949,-0.40867525339126587,0.06137608736753464,-0.040153760462999344,0.07287877798080444,0.0013806573231170476,-0.10540984398899439,-0.0008407155126684543,-0.10521464794874191,-0.0013806568458676338,-0.9944486021995544
1729080399246,9i,4.539639275056742,0.3s : 0.3s,-43.48069057496919,0.002869081303888025,0.2974025538913741,0.07562963249688294,0.12665684521198273,-0.10182196646928787,-0.12513816356658936,0.016921646893024445,-0.03565819561481476,0.06451350450515747,0.002992316048634405,-0.1059876859444966,-0.0030363766992298038,-0.10578889399766922,-0.002992311492562294,-0.9943841099739075
1729080399256,9i,4.539639275056742,0.3s : 0.3s,-43.48069057496919,0.0036145260014533403,0.25859598898659714,0.054671547825880996,0.15654496848583221,-0.029383987188339233,-0.21230316162109375,-0.0022129714488983154,-0.020465420559048653,0.050648272037506104,0.004482709055840122,-0.10646389624397612,-0.004188111876619476,-0.10626181960105896,-0.0044826939702034,-0.9943280816078186
1729080399266,9i,4.539639275056742,0.3s : 0.3s,-43.48069057496919,0.004350663844522423,0.28598785260769943,0.05706551225327149,0.2680271565914154,0.025309262797236443,-0.4491908550262451,0.029797792434692383,-0.0015771095640957355,0.04864233732223511,0.006403275102893255,-0.10785941131606752,-0.004381704132173364,-0.10764819383621216,-0.006403231527656317,-0.9941684007644653
1729080399276,9i,4.539639275056742,0.3s : 0.3s,-43.48069057496919,0.005210745369548694,0.2607665492743181,0.12083011919185109,0.3240930736064911,-0.21880140900611877,-0.07304546236991882,0.10723108053207397,0.012019507586956024,0.05437779426574707,0.00881527105956099,-0.1089768129567831,-0.004692552396005508,-0.10875701159238815,-0.008815157227218151,-0.9940292835235596
1729080399286,9i,4.539639275056742,0.3s : 0.3s,-43.48069057496919,0.006069495037132601,0.21290353345919003,0.07617577656732885,0.2629911005496979,-0.49870994687080383,0.2447010725736618,0.04509292542934418,0.010307904332876205,0.06052374839782715,0.01148307762085045,-0.1102956515980029,-0.004885601503158451,-0.11006490141153336,-0.011482825502753258,-0.9938580989837646
1729080399296,9i,4.539639275056742,0.3s : 0.3s,-43.48069057496919,0.006939191028784818,0.20262233031892943,0.0862090868754094,0.2012457251548767,-0.17447221279144287,-0.06502669304609299,0.060436978936195374,0.0005806144326925278,0.06147390604019165,0.013917238596206307,-0.11218142561672587,-0.00555454871924846,-0.11193543672561646,-0.013916789554059505,-0.9936180114746094
1729080399306,9i,4.539639275056742,0.3s : 0.3s,-43.48069057496919,0.007826643619096758,0.17446020109054403,0.09265927366199404,0.12168712168931961,-0.07662376016378403,-0.07557260245084763,0.05142880976200104,-0.020138174295425415,0.07439941167831421,0.015598537303675367,-0.11357632502065501,-0.006078568837198785,-0.11331851035356522,-0.015597905032336712,-0.9934362769126892
1729080399316,9i,4.539639275056742,0.3s : 0.3s,-43.48069057496919,0.00871128209175705,0.13942770327883958,0.08750256257643792,0.042084701359272,-0.07705546170473099,-0.032136984169483185,0.01746908575296402,-0.032605044543743134,0.0792996883392334,0.016483222814509677,-0.11450596401373386,-0.007150213385334234,-0.1142403781414032,-0.016482476145029068,-0.9933164119720459
1729080399326,9i,4.539639275056742,0.3s : 0.3s,-43.48069057496919,0.009603985628763937,0.09840845058834652,0.09086604121496543,-0.023125726729631424,-0.03507019579410553,0.0028455015271902084,0.0372680202126503,-0.03365647792816162,0.0757296085357666,0.016576209240080186,-0.11502142092293556,-0.007902785838149616,-0.11475220322608948,-0.01657545007765293,-0.9932558536529541
1729080399336,9i,4.539639275056742,0.3s : 0.3s,-43.48069057496919,0.010505423725994613,0.06902256541381271,0.09079157223925748,-0.040525488555431366,-0.040149375796318054,0.0070847212336957455,0.03810907155275345,-0.025075441226363182,0.07849860191345215,0.01623080970906748,-0.11540666878073116,-0.008072581256306388,-0.11513549089431763,-0.01623009704053402,-0.9932171702384949
1729080399346,9i,4.539639275056742,0.3s : 0.3s,-43.48069057496919,0.011426100539847533,0.04998874020839499,0.09905578960306675,-0.030124779790639877,-0.03415593132376671,0.014653423801064491,0.04887969046831131,-0.019616566598415375,0.08389288187026978,0.015845517179204398,-0.11578793427096201,-0.00826210631621616,-0.11551488190889359,-0.015844853594899178,-0.9931793808937073
1729080399356,9i,4.539639275056742,0.3s : 0.3s,-43.48069057496919,0.012363331307788158,0.04489043738910986,0.09883470700808247,-6.998889148235321e-07,-0.027697762474417686,0.04432876035571098,0.04575367271900177,-0.017420992255210876,0.08585691452026367,0.015675959598195535,-0.11611231506902997,-0.00827102866975042,-0.11583735048770905,-0.015675317496061325,-0.9931445121765137
1729080399366,9i,4.539639275056742,0.3s : 0.3s,-43.48069057496919,0.013310824349645572,0.04064255244882462,0.09725989819667184,0.03328881412744522,-0.001447784248739481,0.06826978176832199,0.035982824862003326,-0.00900634191930294,0.0899088978767395,0.01575932021196503,-0.11629157716907243,-0.007828208440201082,-0.1160152330994606,-0.015758667141199112,-0.993122398853302
1729080399376,9i,4.539639275056742,0.3s : 0.3s,-43.48069057496919,0.01426158400415419,0.03341838506648517,0.09698820087751103,0.04170466959476471,0.021766459569334984,0.0925586149096489,0.0277426615357399,0.00771251879632473,0.09261518716812134,0.016090282915228907,-0.11619958788859396,-0.007188497186885988,-0.11592326313257217,-0.016089588403701782,-0.9931278228759766
1729080399386,9i,4.539639275056742,0.3s : 0.3s,-43.48069057496919,0.015198951168454655,0.035240126693827305,0.08399830462427475,0.007265469059348106,0.042044296860694885,0.09883275628089905,0.02055393159389496,0.014709917828440666,0.08010536432266235,0.016267028077945406,-0.11589077977611043,-0.00639075115097265,-0.11561623960733414,-0.016266310587525368,-0.9931607842445374
1729080399396,9i,4.539639275056742,0.3s : 0.3s,-43.48069057496919,0.016113093501346633,0.042208827275812204,0.067919049512363,-0.03962800279259682,0.0696205347776413,0.09663964062929153,0.02044302225112915,0.004594014957547188,0.06460630893707275,0.016008267971396366,-0.11536381612823729,-0.005625229580107025,-0.11509334295988083,-0.01600758358836174,-0.9932256937026978
1729080399406,9i,4.539639275056742,0.3s : 0.3s,-43.48069057496919,0.017006728128532954,0.05914493139809473,0.06532723769076774,-0.09140311181545258,0.12231197953224182,0.09342756122350693,0.026476435363292694,-0.024347171187400818,0.05453312397003174,0.015295755089313648,-0.11441632368383653,-0.0050360329190413545,-0.11415348947048187,-0.015295159071683884,-0.9933453798294067
1729080399426,9i,4.539639275056742,0.3s : 0.3s,-43.48069057496919,0.017870211785272285,0.08917917962873366,0.06765784397458273,-0.12690365314483643,0.15381549298763275,0.1409367322921753,0.013564728200435638,-0.047010719776153564,0.04672873020172119,0.012697257142695541,-0.1114145794377782,-0.0035258156283606086,-0.11117526143789291,-0.012696916237473488,-0.9937196969985962
1729080399416,9i,4.539639275056742,0.3s : 0.3s,-43.48069057496919,0.018707913152035936,0.10854001482184354,0.06884843673065005,-0.12655697762966156,0.1585458666086197,0.11516368389129639,0.020230531692504883,-0.05026556923985481,0.04247593879699707,0.014096464388313258,-0.11298077638520003,-0.004395455202491795,-0.11272937059402466,-0.01409599743783474,-0.9935257434844971
1729080399436,9i,4.539639275056742,0.3s : 0.3s,-43.48069057496919,0.01953675739161496,0.1250147464184609,0.0735877536354424,-0.12020500749349594,0.14055880904197693,0.1591399759054184,0.013990961015224457,-0.0252058282494545,0.06770581007003784,0.011339209369039378,-0.10993778245849722,-0.002179563454323074,-0.10970940440893173,-0.011338965967297554,-0.9938990473747253
1729080399446,9i,4.539639275056742,0.3s : 0.3s,-43.48069057496919,0.02036548706793001,0.13754275754001222,0.08220625789090409,-0.1298450380563736,0.13688167929649353,0.1625143587589264,0.011365845799446106,-0.021173562854528427,0.07861530780792236,0.009939265632563057,-0.10853857560680495,-0.0007806105332469952,-0.10832024365663528,-0.00993910152465105,-0.9940663576126099
1729080399456,9i,4.539639275056742,0.3s : 0.3s,-43.48069057496919,0.021201881511306732,0.1496776524891274,0.0944044395996253,-0.1441318392753601,0.1415741741657257,0.17258509993553162,0.004144258797168732,-0.027025675401091576,0.09035837650299072,0.00840532531952004,-0.1071668276467077,0.0006030026728604697,-0.10695803910493851,-0.008405226282775402,-0.9942280054092407
1729080399466,9i,4.539639275056742,0.3s : 0.3s,-43.48069057496919,0.022082873178207785,0.16421378779695406,0.11516096196114108,-0.18476815521717072,0.14733120799064636,0.17992320656776428,-0.009443335235118866,-0.04493292421102524,0.10561203956604004,0.006611310288357746,-0.10576157939421965,0.002019162113794439,-0.10556221753358841,-0.006611261982470751,-0.9943907260894775
1729080399476,9i,4.539639275056742,0.3s : 0.3s,-43.48069057496919,0.02301439988815955,0.1922238087141842,0.13270650763304653,-0.28609052300453186,0.1918262392282486,0.18454618752002716,-0.02548438310623169,-0.05948793515563011,0.1158565878868103,0.0041259620069175875,-0.10408365592536697,0.003436643152487936,-0.10389494150876999,-0.004125950392335653,-0.9945797324180603
1729080399486,9i,4.539639275056742,0.3s : 0.3s,-43.48069057496919,0.023964118416144285,0.23577614394751853,0.1384487632736177,-0.39599883556365967,0.24906761944293976,0.2037966251373291,-0.042705975472927094,-0.06683371216058731,0.1134791374206543,0.0005490984972450563,-0.10191010358808839,0.004859812625026343,-0.10173378139734268,-0.00054909847676754,-0.9948115348815918
1729080399496,9i,4.539639275056742,0.3s : 0.3s,-43.48069057496919,0.024938978611112377,0.2874993462785624,0.14610364773622098,-0.47973740100860596,0.30657216906547546,0.2259858101606369,-0.05565602332353592,-0.061935603618621826,0.1200527548789978,-0.003998000362492863,-0.0991243813695316,0.006443614022639478,-0.09896134585142136,0.003997989930212498,-0.9950832724571228
1729080399506,9i,4.539639275056742,0.3s : 0.3s,-43.48069057496919,0.025930060722945687,0.33923916202043447,0.1482683424913033,-0.5299442410469055,0.3615756034851074,0.24638769030570984,-0.06991976499557495,-0.04675668850541115,0.12210053205490112,-0.009235463546036759,-0.09575799023299654,0.008182015420307092,-0.09560763835906982,0.00923533271998167,-0.9953762292861938
1729080399516,9i,4.539639275056742,0.3s : 0.3s,-43.48069057496919,0.026936974282161918,0.38810310944398163,0.15242347374979417,-0.5795605182647705,0.4014812111854553,0.2544783651828766,-0.08041155338287354,-0.031325459480285645,0.12564080953598022,-0.014968603237790578,-0.09192362191772685,0.010039671835858863,-0.09178393334150314,0.014968044124543667,-0.9956664443016052
1729080399526,9i,4.539639275056742,0.3s : 0.3s,-43.48069057496919,0.027978338189651956,0.43865615070623276,0.16077653778388903,-0.6535001397132874,0.44145727157592773,0.2613624334335327,-0.08527465164661407,-0.02824965864419937,0.13333898782730103,-0.02132378879126076,-0.08766332721923159,0.011950623753969738,-0.0875311866402626,0.02132217213511467,-0.9959335327148438
1729080399536,9i,4.539639275056742,0.3s : 0.3s,-43.48069057496919,0.02911404526153085,0.4947081961325914,0.1757655705380672,-0.7513140439987183,0.4949580729007721,0.2528778612613678,-0.08685436844825745,-0.04224890470504761,0.1468498706817627,-0.028550393728823693,-0.08296760466839279,0.013771432969949846,-0.08283867686986923,0.028546515852212906,-0.9961540102958679
1729080399546,9i,4.539639275056742,0.3s : 0.3s,-43.48069057496919,0.030397477444685423,0.5659190512979163,0.198959601657869,-0.8924385905265808,0.5980756878852844,0.21936233341693878,-0.09530822932720184,-0.06103375554084778,0.16363418102264404,-0.03690272748796035,-0.07747519503327781,0.015388863824076714,-0.07734502106904984,0.03689435124397278,-0.9963214993476868
1729080399556,9i,4.539639275056742,0.3s : 0.3s,-43.48069057496919,0.031832398307600256,0.6589092678773835,0.218988138208924,-1.051816463470459,0.7602653503417969,0.19500745832920074,-0.11312761157751083,-0.07277946174144745,0.17280364036560059,-0.04673446633447772,-0.07070905480145412,0.016606528388124615,-0.07057300955057144,0.046717457473278046,-0.9964120388031006
1729080399565,9i,4.539639275056742,0.3s : 0.3s,-43.48069057496919,0.03340635905858026,0.7736382880173558,0.2319043782278624,-1.2192076444625854,0.9357236623764038,0.23866595327854156,-0.1295136958360672,-0.07260773330926895,0.1781402826309204,-0.05820577800772881,-0.06217520851205191,0.01783332191544939,-0.06202993169426918,0.05817291885614395,-0.9963775277137756
1729080399575,9i,4.539639275056742,0.3s : 0.3s,-43.48069057496919,0.03503260454949332,0.8905299732754234,0.2086457611908673,-1.329371690750122,1.0516088008880615,0.3680497705936432,-0.1314399242401123,-0.04983522742986679,0.15418511629104614,-0.07113544304749077,-0.052064884379839846,0.019981069529744256,-0.05190974846482277,0.07107546180486679,-0.9961193203926086
1729080399585,9i,4.539639275056742,0.3s : 0.3s,-43.48069057496919,0.036702510018192684,0.986874581551302,0.18675233638466168,-1.3304259777069092,1.124894142150879,0.49170804023742676,-0.10232038795948029,-0.01731415092945099,0.15526491403579712,-0.08470667407931769,-0.04088877982853683,0.023585291598963738,-0.04073082283139229,0.08460541069507599,-0.9955816864967346
1729080399595,9i,4.539639275056742,0.3s : 0.3s,-43.48069057496919,0.03838242057704864,1.0498474462436203,0.16882460329994853,-1.235188603401184,1.174743413925171,0.5545274615287781,-0.07990815490484238,0.006498999893665314,0.1485738754272461,-0.09772140247360687,-0.028983611577295124,0.02832464717677473,-0.0288412943482399,0.09756594896316528,-0.9948110580444336
1729080399605,9i,4.539639275056742,0.3s : 0.3s,-43.48069057496919,0.04002639649627842,1.0883007605003978,0.1587976624009213,-1.120776653289795,1.2346278429031372,0.592413604259491,-0.07334445416927338,0.023845650255680084,0.1388116478919983,-0.1095827685278386,-0.0163847374313684,0.03371149243668938,-0.01628573052585125,0.10936357825994492,-0.9938684105873108
1729080399615,9i,4.539639275056742,0.3s : 0.3s,-43.48069057496919,0.041557038351263995,1.1030496386052862,0.14267852397652334,-0.9845719933509827,1.242207407951355,0.6543036103248596,-0.0668620616197586,0.03406953811645508,0.12135028839111328,-0.12019610910409186,-0.0033065162934420014,0.03980811120116164,-0.003282654331997037,0.11990690231323242,-0.9927797317504883
1729080399625,9i,4.539639275056742,0.3s : 0.3s,-43.48069057496919,0.04303788297944767,1.077836703981694,0.13534528084047276,-0.6816205382347107,1.2161049842834473,0.7128121852874756,-0.045280128717422485,0.03303036093711853,0.12319517135620117,-0.1285938928258285,0.009869774398215434,0.04663077681836144,0.009788122959434986,0.12823976576328278,-0.9916948676109314
1729080399635,9i,4.539639275056742,0.3s : 0.3s,-43.48069057496919,0.044355184309788985,1.005883222875361,0.10692004484402173,-0.33008405566215515,1.1120491027832031,0.6467820405960083,-0.03896467760205269,0.036903977394104004,0.09247565269470215,-0.1335056952135347,0.022427158610081478,0.05347289075626272,0.022225724533200264,0.133109450340271,-0.9908521175384521
1729080399645,9i,4.539639275056742,0.3s : 0.3s,-43.48069057496919,0.04547567307116676,0.9087855574093695,0.10750825963614917,-0.08097351342439651,0.9869707226753235,0.5034613609313965,-0.0433986634016037,0.0779377669095993,0.06000238656997681,-0.1352888865618799,0.03368771838368083,0.05919647884655089,0.03337357938289642,0.1348765641450882,-0.9903002381324768
1729080399655,9i,4.539639275056742,0.3s : 0.3s,-43.48069057496919,0.04649191470718302,0.8058577895095835,0.1393090077689663,-0.0005625603953376412,0.8471025824546814,0.3394492566585541,-0.018284693360328674,0.1356850415468216,0.025734007358551025,-0.13545017203082307,0.0434304497295354,0.06329344280063161,0.0430191271007061,0.1350363790988922,-0.9899063110351562
1729080399665,9i,4.539639275056742,0.3s : 0.3s,-43.48069057496919,0.04725343993429279,0.7157311782183637,0.15196088235700206,-0.0325997918844223,0.7640476822853088,0.2048199623823166,0.015495169907808304,0.15088310837745667,0.00928962230682373,-0.13543448201413455,0.05178967464994024,0.06588809816795023,0.05129248648881912,0.13502082228660583,-0.9895142316818237
1729080399675,9i,4.539639275056742,0.3s : 0.3s,-43.48069057496919,0.04793257927512,0.6538335607664179,0.11843942860764335,-0.16373783349990845,0.7558062672615051,0.10762444883584976,0.0209997296333313,0.11651426553726196,0.003366827964782715,-0.13624139989786876,0.05954286062504108,0.06743920818036238,0.05895625427365303,0.13582031428813934,-0.9889777302742004
1729080399685,9i,4.539639275056742,0.3s : 0.3s,-43.48069057496919,0.04849139009082673,0.6294841816776566,0.07196274624385883,-0.40564966201782227,0.7916937470436096,0.04576992988586426,-0.008628927171230316,0.06815226376056671,0.0214347243309021,-0.13899037166651168,0.06737348953793014,0.06821142992171493,0.06667330116033554,0.1385432928800583,-0.9881095290184021
1729080399695,9i,4.539639275056742,0.3s : 0.3s,-43.48069057496919,0.049078766934423035,0.6629191724362644,0.08377566088015924,-0.6455309391021729,0.9556565880775452,0.0022416296415030956,-0.044754453003406525,0.02729162573814392,0.06534957885742188,-0.1442438191017057,0.07608901944334205,0.06856098676387298,0.07522618770599365,0.14374414086341858,-0.9867515563964844
1729080399705,9i,4.539639275056742,0.3s : 0.3s,-43.48069057496919,0.04971510377628032,0.7483738796949481,0.11163752920699163,-0.9104833602905273,1.1347676515579224,-0.020536554977297783,-0.07199527323246002,0.016952931880950928,0.08361947536468506,-0.1519508242308697,0.08660408484286591,0.06893043134713023,0.08549923449754715,0.15136677026748657,-0.9847730398178101
1729080399715,9i,4.539639275056742,0.3s : 0.3s,-43.48069057496919,0.05045558490512542,0.8621545212611655,0.12564579602354753,-1.1719144582748413,1.249794602394104,-0.01179046556353569,-0.06866376847028732,0.04217498004436493,0.09640240669250488,-0.16233343568993777,0.09866800951147638,0.06963414711048276,0.09721288830041885,0.16162140667438507,-0.9820530414581299
1729080399725,9i,4.539639275056742,0.3s : 0.3s,-43.48069057496919,0.051261719013757936,0.9726701766586017,0.12169569971131634,-1.3894855976104736,1.2416646480560303,0.03961014002561569,-0.02419354021549225,0.045701876282691956,0.11016285419464111,-0.17514767580821475,0.1113592649394975,0.07092902720893264,0.10942906141281128,0.17425355315208435,-0.9786015152931213
1729080399735,9i,4.539639275056742,0.3s : 0.3s,-43.48069057496919,0.05210777828051309,1.0539165057444768,0.10648123124082565,-1.4427073001861572,1.1853853464126587,0.15374550223350525,0.023548558354377747,0.013808146119117737,0.10292255878448486,-0.18914565144832624,0.12397847055042846,0.07337710954963594,0.12145563960075378,0.18801985681056976,-0.9746266007423401
1729080399745,9i,4.539639275056742,0.3s : 0.3s,-43.48069057496919,0.05299346594038408,1.1086612064831796,0.11963568012597028,-1.3753504753112793,1.216507077217102,0.21179625391960144,0.051058560609817505,-0.023355573415756226,0.10564202070236206,-0.20293780209969814,0.13657734233329807,0.0768636466390386,0.13335908949375153,0.20154771208763123,-0.9703575968742371
1729080399755,9i,4.539639275056742,0.3s : 0.3s,-43.48069057496919,0.053893566815337225,1.1500956296694849,0.09649637871943198,-1.2844016551971436,1.3267004489898682,0.21631671488285065,0.026846781373023987,-0.029326170682907104,0.08792483806610107,-0.21570259865383692,0.15012544539095793,0.08081573724279563,0.14609625935554504,0.2140337973833084,-0.9658392071723938
1729080399765,9i,4.539639275056742,0.3s : 0.3s,-43.48069057496919,0.054763493395528405,1.199425978190532,0.06423960584973554,-1.3008480072021484,1.4507837295532227,0.22118958830833435,-0.014440357685089111,0.0034852176904678345,0.06249845027923584,-0.22803926660281645,0.16494587431362193,0.08489946592877982,0.15994808077812195,0.22606799006462097,-0.9608901143074036
1729080399775,9i,4.539639275056742,0.3s : 0.3s,-43.48069057496919,0.055602896836490716,1.2638208171506071,0.07399465227663762,-1.3730109930038452,1.5759824514389038,0.2888234853744507,-0.017275124788284302,0.0513664186000824,0.050381243228912354,-0.2407630749960118,0.18119269104527025,0.08973497431823056,0.17500515282154083,0.2384437620639801,-0.9552579522132874
1729080399785,9i,4.539639275056742,0.3s : 0.3s,-43.48069057496919,0.0564019998086099,1.337237578299391,0.08509037149178615,-1.4742650985717773,1.658523678779602,0.3765920400619507,0.007707148790359497,0.07350766658782959,0.042161524295806885,-0.2540452360581586,0.19888699431569093,0.09582253910881913,0.19123685359954834,0.251321405172348,-0.9488235116004944
1729080399795,9i,4.539639275056742,0.3s : 0.3s,-43.48069057496919,0.05718206755319862,1.4109060729373493,0.08685805417291015,-1.648895502090454,1.6418213844299316,0.4025096595287323,0.0236407071352005,0.06052219867706299,0.05764114856719971,-0.26845043884529296,0.2173093937795987,0.1031172672821098,0.20788083970546722,0.2652376890182495,-0.9415065050125122
1729080399805,9i,4.539639275056742,0.3s : 0.3s,-43.48069057496919,0.057993963192600265,1.4936053989283034,0.10038455416832626,-1.8708112239837646,1.6500808000564575,0.35652631521224976,0.020737290382385254,0.003970205783843994,0.09813898801803589,-0.28468002316101704,0.23587524295258447,0.1109181734181078,0.22428826987743378,0.2808503806591034,-0.9331762194633484
1729080399815,9i,4.539639275056742,0.3s : 0.3s,-43.48069057496919,0.059011952185191605,1.5912062816425379,0.14734617177818823,-2.153097629547119,1.6464812755584717,0.29395055770874023,0.00043295323848724365,-0.06657183170318604,0.13144922256469727,-0.30327018803048766,0.254816028664247,0.11919995157477457,0.2405642867088318,0.29864275455474854,-0.9235482215881348
1729080399825,9i,4.539639275056742,0.3s : 0.3s,-43.48069057496919,0.06028732581016978,1.7143770631385602,0.194345997020862,-2.494683027267456,1.6675037145614624,0.2088194489479065,-0.030299246311187744,-0.1048826277256012,0.16078543663024902,-0.3250059155939388,0.2740671257156777,0.12792837946433977,0.25648021697998047,0.3193143904209137,-0.912280797958374
1729080399835,9i,4.539639275056742,0.3s : 0.3s,-43.48069057496919,0.061830372918840484,1.8747749877861424,0.22258780725843305,-2.8353629112243652,1.8127198219299316,0.1707839071750641,-0.06115400791168213,-0.11187228560447693,0.18245577812194824,-0.35007327424178786,0.29451657992381014,0.13755317495951844,0.27267125248908997,0.34296664595603943,-0.8989017009735107
1729080399845,9i,4.539639275056742,0.3s : 0.3s,-43.48069057496919,0.06355394635371932,2.038278269493686,0.22068480995162407,-2.966768741607666,2.0366482734680176,0.26196396350860596,-0.07737264037132263,-0.10657849907875061,0.177077054977417,-0.37697991515616486,0.31837279448077194,0.1487888903150202,0.29104137420654297,0.3681141436100006,-0.8830554485321045
1729080399855,9i,4.539639275056742,0.3s : 0.3s,-43.48069057496919,0.06527840290135069,2.1519004786357034,0.1713287925318769,-3.2589058876037598,1.5916191339492798,0.282993882894516,-0.06332728266716003,-0.08221015334129333,0.13632571697235107,-0.4053870148304688,0.3414654994299921,0.16244259763916113,0.30772721767425537,0.39437443017959595,-0.8658941984176636
1729080399865,9i,4.539639275056742,0.3s : 0.3s,-43.48069057496919,0.06702147776796687,2.288698217582877,0.20112883355200306,-3.6356589794158936,1.477898120880127,0.2094416320323944,0.04743418097496033,-0.11780837178230286,0.1559615135192871,-0.4368202590188171,0.3629797142962847,0.1781921660642842,0.321721613407135,0.42306044697761536,-0.8470625877380371
1729080399875,9i,4.539639275056742,0.3s : 0.3s,-43.48069057496919,0.06871151703238627,2.4331459656346603,0.1640652313940829,-3.885856866836548,1.4913161993026733,-0.011096346192061901,0.07031413912773132,-0.10946044325828552,0.09995865821838379,-0.47151083057311,0.3849612011940673,0.1945030839924592,0.334547221660614,0.454232782125473,-0.8256819844245911
1729080399885,9i,4.539639275056742,0.3s : 0.3s,-43.48069057496919,0.07019044489769401,2.564483629079615,0.08858088675331964,-4.033665657043457,1.4868773221969604,-0.07620999962091446,0.007221251726150513,-0.016866445541381836,0.08665996789932251,-0.508185657024578,0.4077863822173995,0.21111284230902597,0.3464621305465698,0.48659297823905945,-0.8019920587539673
1729080399895,9i,4.539639275056742,0.3s : 0.3s,-43.48069057496919,0.07163591179463778,2.6733636551863067,0.1303809916620297,-4.1831512451171875,1.306847333908081,0.08732513338327408,-0.011243641376495361,0.07301312685012817,0.10743308067321777,-0.5456775828115796,0.43142124458821424,0.23037754824802767,0.3574349582195282,0.5189973711967468,-0.7764546871185303
1729080399905,9i,4.539639275056742,0.3s : 0.3s,-43.48069057496919,0.07308793380383992,2.7721284379909443,0.1505812076397516,-4.3155670166015625,1.2185367345809937,0.3110848367214203,0.03690230846405029,0.029955804347991943,0.1428830623626709,-0.5830955068216988,0.45666747568371413,0.25400186965169147,0.36809635162353516,0.5506106019020081,-0.7492216229438782
1729080399915,9i,4.539639275056742,0.3s : 0.3s,-43.48069057496919,0.07463555064715696,2.8623739509598356,0.18243510078771094,-4.384160041809082,1.2964369058609009,0.38513749837875366,0.05765274167060852,-0.07187491655349731,0.15745705366134644,-0.6202188144522888,0.4847832288971928,0.2818288480100873,0.3792215883731842,0.5812132358551025,-0.7199875712394714
1729080399925,9i,4.539639275056742,0.3s : 0.3s,-43.48069057496919,0.07638966012921045,2.9407185139378478,0.21732662800685063,-4.485196590423584,1.2180896997451782,0.3626742362976074,0.003670245409011841,-0.10876190662384033,0.1881176233291626,-0.657310167574632,0.5157830561641304,0.3122611536261924,0.3904489576816559,0.6109896898269653,-0.6886517405509949
1729080399935,9i,4.539639275056742,0.3s : 0.3s,-43.48069057496919,0.07815689211007529,2.984110365004666,0.18276433431629463,-4.451494216918945,1.101090908050537,0.43487730622291565,-0.030779093503952026,-0.09963369369506836,0.15009522438049316,-0.6937945666589356,0.5483050672602857,0.34560932015051415,0.4007435739040375,0.6394591331481934,-0.6561224460601807
1729080399945,9i,4.539639275056742,0.3s : 0.3s,-43.48069057496919,0.07986662816041429,2.995352353104558,0.14129312074657002,-4.409801483154297,0.871505856513977,0.4464479386806488,0.013745486736297607,-0.08018362522125244,0.11552226543426514,-0.7287709862194759,0.5818007048602981,0.3818055018384007,0.4099452495574951,0.6659532785415649,-0.6232584714889526
1729080399955,9i,4.539639275056742,0.3s : 0.3s,-43.48069057496919,0.08147380847285035,3.0133501526322406,0.13744962578946732,-4.477852821350098,0.7568439841270447,0.4876052141189575,0.041177600622177124,-0.10338860750198364,0.08066970109939575,-0.7627934156922516,0.6163206345214103,0.4208875051041568,0.4178677499294281,0.6909435391426086,-0.589901328086853
1729080399965,9i,4.539639275056742,0.3s : 0.3s,-43.48069057496919,0.08297038582091779,3.057218727299761,0.1439546665415504,-4.61890172958374,0.7536500096321106,0.6028340458869934,0.06183043122291565,-0.1274700164794922,0.02552133798599243,-0.796070585348789,0.6548826030829091,0.46490560125192343,0.4260539710521698,0.7146129012107849,-0.5548029541969299
1729080399975,9i,4.539639275056742,0.3s : 0.3s,-43.48069057496919,0.08432908753470422,3.1238104134657276,0.11620182768768135,-4.764811038970947,0.8438557982444763,0.7191116213798523,0.03658488392829895,-0.08406811952590942,0.07139301300048828,-0.8285184112085154,0.6991548852819399,0.5149674906978801,0.4350336790084839,0.7369306683540344,-0.5173769593238831
1729080399985,9i,4.539639275056742,0.3s : 0.3s,-43.48069057496919,0.08577817240090667,3.1947332791482372,0.1684860477118514,-4.8212571144104,1.059272289276123,0.879684329032898,-0.01140284538269043,-0.0649222731590271,0.15505683422088623,-0.8590363706951646,0.75105664321626,0.5716223769205528,0.44572895765304565,0.7572135329246521,-0.4774446189403534
1729080399995,9i,4.539639275056742,0.3s : 0.3s,-43.48069057496919,0.08752168892935625,3.2649084166444258,0.22491769131461536,-4.867852687835693,1.2117748260498047,1.0221706628799438,-0.06928750872612,-0.07069659233093262,0.2019633650779724,-0.8867336917091706,0.8110958404373697,0.6351005886055084,0.4581882059574127,0.7750117778778076,-0.4352245032787323
1729080400005,9i,4.539639275056742,0.3s : 0.3s,-43.48069057496919,0.08956408546754091,3.323297862796437,0.26663710653497197,-4.8571062088012695,1.3243038654327393,1.1707719564437866,-0.11420860886573792,-0.0926821231842041,0.2224000096321106,-0.9107735181331975,0.8785803559731393,0.7049351931031279,0.47201186418533325,0.7899782657623291,-0.39133012294769287
1729080400015,9i,4.539639275056742,0.3s : 0.3s,-43.48069057496919,0.09169975865295096,3.37530159518179,0.2501484713965454,-4.872997760772705,1.3759191036224365,1.2771273851394653,-0.1214301586151123,-0.12617111206054688,0.1786332130432129,-0.9306584164114388,0.952544964976789,0.78073545816891,0.48674076795578003,0.8020133972167969,-0.34620529413223267
1729080400025,9i,4.539639275056742,0.3s : 0.3s,-43.48069057496919,0.09377472168260449,3.4456345390252587,0.2396566028760184,-5.0069427490234375,1.4331001043319702,1.3784812688827515,-0.10576450824737549,-0.17635977268218994,0.12307065725326538,-0.9464650897732182,1.032732980547306,0.8626917452643166,0.5019588470458984,0.8113542199134827,-0.29956912994384766
1729080400035,9i,4.539639275056742,0.3s : 0.3s,-43.48069057496919,0.09574189361468663,3.5211925828729957,0.23854643426830816,-5.121531009674072,1.412219524383545,1.4819642305374146,-0.07844257354736328,-0.21141916513442993,0.0778016746044159,-0.9579553134759103,1.1192521041345016,0.951230605549705,0.517544686794281,0.8180171847343445,-0.25098901987075806
1729080400045,9i,4.539639275056742,0.3s : 0.3s,-43.48069057496919,0.09760742835387363,3.575865484184113,0.2246962960299289,-5.114831447601318,1.3605469465255737,1.583289384841919,-0.04435843229293823,-0.2195643186569214,0.017671018838882446,-0.9640781140032885,1.2088604536415055,1.0436961499569612,0.5332347750663757,0.8215236067771912,-0.2018904685974121
1729080400055,9i,4.539639275056742,0.3s : 0.3s,-43.48069057496919,0.09937035323401595,3.6634974578629813,0.182114739774628,-5.348751068115234,1.3546520471572876,1.679883360862732,-0.025179147720336914,-0.1737450361251831,0.0484195351600647,-0.9648059127223504,1.3009703015858425,1.139399857861023,0.5489675402641296,0.8219383955001831,-0.15182840824127197
1729080400065,9i,4.539639275056742,0.3s : 0.3s,-43.48069057496919,0.10124792545859819,3.7779860358321757,0.230994263985444,-5.543602466583252,1.4584529399871826,1.8813623189926147,-0.060655295848846436,-0.1545429229736328,0.1606106162071228,-0.9595101680631271,1.397034439453211,1.2392650392595046,0.5652785897254944,0.818910539150238,-0.0992245227098465
1729080400075,9i,4.539639275056742,0.3s : 0.3s,-43.48069057496919,0.10337257882368858,3.864996183809674,0.2939825927023007,-5.488311767578125,1.5257984399795532,2.1047637462615967,-0.1141209602355957,-0.20417332649230957,0.1780882477760315,-0.9466946524234765,1.4925594800222057,1.3378939200773743,0.5825809836387634,0.8114883899688721,-0.045672524720430374
1729080400085,9i,4.539639275056742,0.3s : 0.3s,-43.48069057496919,0.10566604646103807,3.929344458178054,0.31941091391697596,-5.4093217849731445,1.5000510215759277,2.383836269378662,-0.16384637355804443,-0.22176629304885864,0.16123712062835693,-0.9261484930764682,1.582862130160358,1.4307425309264392,0.6008732914924622,0.7993114590644836,0.0072503709234297276
1729080400095,9i,4.539639275056742,0.3s : 0.3s,-43.48069057496919,0.10803103744764475,3.7973359605451327,0.3282244053230964,-4.477536201477051,1.3419040441513062,2.353302240371704,-0.1700156331062317,-0.247661292552948,0.132249116897583,-0.8995732274840161,1.6601434381200297,1.5099679628902851,0.6194631457328796,0.7830615639686584,0.055494990199804306
1729080400105,9i,4.539639275056742,0.3s : 0.3s,-43.48069057496919,0.11028545813146659,3.5301655120660835,0.2515819480838144,-3.6644105911254883,1.3468732833862305,1.924536108970642,-0.16665899753570557,-0.18079304695129395,0.053217753767967224,-0.8738513356793204,1.7189702666936493,1.5681644099986085,0.6348442435264587,0.7668067216873169,0.0947619080543518
1729080400115,9i,4.539639275056742,0.3s : 0.3s,-43.48069057496919,0.1122395117749132,3.261882350504857,0.29048511867062793,-3.0604119300842285,1.3540664911270142,2.1879611015319824,-0.05556076765060425,0.2847979664802551,-0.013591304421424866,-0.8481192371888095,1.7675103857053478,1.614184709077291,0.6486392021179199,0.7500377893447876,0.12926816940307617
1729080400124,9i,4.539639275056742,0.3s : 0.3s,-43.48069057496919,0.11274592425836799,2.988657339624447,0.5357721027182596,-2.3788585662841797,1.211747169494629,2.5049455165863037,0.09483951330184937,0.5204923152923584,-0.0845278799533844,-0.8193658236376323,1.803685329298622,1.6453315558559514,0.6642545461654663,0.7307130098342896,0.157556414604187
1729080400134,9i,4.539639275056742,0.3s : 0.3s,-43.48069057496919,0.11233133160105338,2.807912095293824,0.4782859151705951,-2.2649171352386475,1.2992794513702393,2.585524559020996,0.07330411672592163,0.46533679962158203,-0.08273805677890778,-0.7889810251234279,1.8325385509204382,1.6679323848991592,0.680571436882019,0.7096356749534607,0.1823168694972992
1729080400144,9i,4.539639275056742,0.3s : 0.3s,-43.48069057496919,0.11184650177146387,2.7313321476594017,0.22988509588785877,-2.5622825622558594,1.4018418788909912,2.483872652053833,-0.03284943103790283,0.2274479866027832,-0.005956977605819702,-0.7580612092986296,1.861845436433991,1.690286603281069,0.6956301331520081,0.6875148415565491,0.20837996900081635
1729080400154,9i,4.539639275056742,0.3s : 0.3s,-43.48069057496919,0.11177063237962223,2.721499980530461,0.12743641500671693,-2.8683509826660156,1.5506547689437866,2.362947702407837,-0.11622458696365356,-0.00717693567276001,0.051772356033325195,-0.7267770832998142,1.893587962859639,1.7153714665074562,0.708723247051239,0.66446453332901,0.23706118762493134
1729080400164,9i,4.539639275056742,0.3s : 0.3s,-43.48069057496919,0.1119566839977451,2.751212053024562,0.16851805307741455,-3.1113791465759277,1.7100415229797363,2.2645983695983887,-0.12070703506469727,-0.06772756576538086,0.09613075852394104,-0.6951052842180823,1.9274387580439194,1.7421568974676978,0.7196602821350098,0.6404662728309631,0.2681269943714142
1729080400174,9i,4.539639275056742,0.3s : 0.3s,-43.48069057496919,0.11261393555123655,2.818328474168745,0.17197488129277955,-3.35513973236084,1.8223438262939453,2.2697994709014893,-0.09497767686843872,0.0002956986427307129,0.1433684527873993,-0.6622500802432141,1.9628297048490098,1.7700191392499989,0.7287818193435669,0.614892840385437,0.30130308866500854
1729080400184,9i,4.539639275056742,0.3s : 0.3s,-43.48069057496919,0.11367750176436996,2.8766230778534383,0.20987478272991708,-3.456002712249756,1.7851167917251587,2.2519214153289795,-0.06323474645614624,0.06349503993988037,0.18978190422058105,-0.6279167649744436,1.9975755077772648,1.7978400802910401,0.7366660237312317,0.5874601602554321,0.3349830210208893
1729080400194,9i,4.539639275056742,0.3s : 0.3s,-43.48069057496919,0.11507985665427228,2.9172338298675,0.23782274477577697,-3.4791057109832764,1.8125474452972412,2.190683126449585,-0.05032449960708618,0.08948671817779541,0.21452093124389648,-0.592991146780507,2.030792351398447,1.8244047467465228,0.7430734634399414,0.5588439702987671,0.36815115809440613
1729080400204,9i,4.539639275056742,0.3s : 0.3s,-43.48069057496919,0.11665303881831576,2.9250230863643067,0.2746828998622921,-3.3956241607666016,1.8167273998260498,2.1063380241394043,-0.03097844123840332,0.16933542490005493,0.21404799818992615,-0.5581750856067291,2.0623965290998694,1.849178288549219,0.7477751970291138,0.5296391248703003,0.4003927707672119
1729080400214,9i,4.539639275056742,0.3s : 0.3s,-43.48069057496919,0.11825489016456009,2.8878799504286636,0.35439719591193086,-3.1570940017700195,1.795271873474121,2.061417579650879,-0.0016377568244934082,0.2845842242240906,0.21120253205299377,-0.5241007387962171,2.091689165975333,1.870920677523859,0.7509509325027466,0.5004346370697021,0.4308565557003021
1729080400224,9i,4.539639275056742,0.3s : 0.3s,-43.48069057496919,0.11970985014252555,2.7842088622337973,0.46299757080453136,-2.7215065956115723,1.6530641317367554,2.06335711479187,0.051635801792144775,0.4212922751903534,0.18496841192245483,-0.4914230831737831,2.117322935591538,1.8878277961618128,0.75323486328125,0.47188103199005127,0.45822012424468994
1729080400234,9i,4.539639275056742,0.3s : 0.3s,-43.48069057496919,0.12089469844539999,2.6207116322038844,0.5874864748959595,-2.2620410919189453,1.3668142557144165,2.069410562515259,0.12787878513336182,0.5539429783821106,0.14810317754745483,-0.4608041628789393,2.1377105878813913,1.899005436606593,0.7555745840072632,0.4446685314178467,0.4810166656970978
1729080400244,9i,4.539639275056742,0.3s : 0.3s,-43.48069057496919,0.12217886749627514,2.4159099730841826,0.7122171612474905,-1.826983094215393,0.9869971871376038,2.0790581703186035,0.18554508686065674,0.6504231691360474,0.22310537099838257,-0.43231495893010613,2.1522945343599162,1.9052554557292303,0.7587603330612183,0.4189738929271698,0.4987421929836273
1729080400254,9i,4.539639275056742,0.3s : 0.3s,-43.48069057496919,0.12409725926566176,2.165682665611917,0.8026554837212285,-1.3128582239151,0.5493210554122925,2.0151889324188232,0.17963767051696777,0.7010838985443115,0.34708428382873535,-0.40655050135732745,2.160872035347404,1.9068782325942775,0.763172447681427,0.3954433500766754,0.5110701322555542
1729080400264,9i,4.539639275056742,0.3s : 0.3s,-43.48069057496919,0.12721490999122284,1.8884739037872569,0.9172772608687333,-0.7383061647415161,0.11387588083744049,1.9420467615127563,0.11666041612625122,0.7539610266685486,0.5092452168464661,-0.3844200619463681,2.163027303345898,1.903960807153306,0.7691428661346436,0.3750215768814087,0.5174728631973267
1729080400274,9i,4.539639275056742,0.3s : 0.3s,-43.48069057496919,0.13185807639535402,1.6243573439625643,1.0742738177841704,-0.10714945942163467,-0.11474984139204025,1.8896831274032593,0.05437535047531128,0.8572636842727661,0.6451407074928284,-0.3662145789717935,2.160150809574375,1.8960515275372394,0.7761756181716919,0.3580836057662964,0.5189674496650696
1729080400284,9i,4.539639275056742,0.3s : 0.3s,-43.48069057496919,0.13785970109376977,1.415152182285151,1.150507326055316,0.42344003915786743,-0.33546215295791626,1.8455437421798706,0.011196553707122803,0.9435478448867798,0.6582242846488953,-0.3516329850094625,2.15351746107271,1.8834142213322969,0.7838777303695679,0.3444313406944275,0.5166260600090027
1729080400294,9i,4.539639275056742,0.3s : 0.3s,-43.48069057496919,0.14499287869270816,1.2859690843732419,1.0985107161374756,0.7859708070755005,-0.5312234163284302,1.764736533164978,-0.03386801481246948,0.8765343427658081,0.6612611413002014,-0.33985489497235516,2.1437411909598785,1.867370249761632,0.7922449707984924,0.3333503007888794,0.5111019015312195
1729080400304,9i,4.539639275056742,0.3s : 0.3s,-43.48069057496919,0.15269251677581772,1.2482922417755868,0.9318160201666293,0.9030320644378662,-0.6149660348892212,1.547951340675354,-0.08167552947998047,0.6527963280677795,0.6598993539810181,-0.3304493910186495,2.132309821699639,1.850073067085919,0.8006543517112732,0.32446813583374023,0.5036595463752747
1729080400314,9i,4.539639275056742,0.3s : 0.3s,-43.48069057496919,0.1608807315565436,1.1127437163684772,0.8204329077346593,0.707888662815094,-0.6321735382080078,1.1450717449188232,-0.11345505714416504,0.45558732748031616,0.6728137135505676,-0.32333252803455304,2.121243242231576,1.8350934028567396,0.8081267476081848,0.3177281618118286,0.4959637522697449
1729080400324,9i,4.539639275056742,0.3s : 0.3s,-43.48069057496919,0.1693671191354267,0.9567525074218244,0.8012388171927178,0.1574586182832718,-0.6295461654663086,0.770367443561554,-0.10647702217102051,0.37037965655326843,0.7024707794189453,-0.3175795726762244,2.112039829269256,1.8257931905162572,0.8142101168632507,0.31226807832717896,0.4894389510154724
1729080400334,9i,4.539639275056742,0.3s : 0.3s,-43.48069057496919,0.17803242388118823,0.7991190813390918,0.8476985644782163,-0.47116854786872864,-0.6232933402061462,0.48592904210090637,-0.03882211446762085,0.38939082622528076,0.7519710659980774,-0.3114193614403984,2.1051826181458373,1.8238779467357227,0.8191871643066406,0.3064100444316864,0.4848148822784424
1729080400344,9i,4.539639275056742,0.3s : 0.3s,-43.48069057496919,0.18736448044468845,0.6808907583871603,0.9850868728937421,-0.9266270995140076,-0.6166809797286987,0.1894589215517044,0.044648051261901855,0.4755820631980896,0.8615244626998901,-0.30485984358237966,2.100373395076457,1.8284233270023331,0.8232259154319763,0.3001594841480255,0.4818744957447052
1729080400354,9i,4.539639275056742,0.3s : 0.3s,-43.48069057496919,0.1980648450978741,0.5717571892084699,1.2700076391703965,-0.9494514465332031,-0.5291497707366943,-0.37314558029174805,0.09092968702316284,0.6258323192596436,1.101356029510498,-0.3005949295501439,2.0972350957601966,1.8373992731103546,0.8258334398269653,0.2960885167121887,0.4799274504184723
1729080400364,9i,4.539639275056742,0.3s : 0.3s,-43.48069057496919,0.21104345343064446,0.4941240758364696,1.6810309412519642,-0.6952847838401794,-0.4118953049182892,-1.2955163717269897,0.16342896223068237,0.8398070335388184,1.4470245838165283,-0.3035029848757819,2.096065717207105,1.8490712938759848,0.8256458044052124,0.2988649010658264,0.4785277247428894
1729080400374,9i,4.539639275056742,0.3s : 0.3s,-43.48069057496919,0.22738550741523836,0.6882888859098353,2.275446619401546,-0.8051345348358154,-0.1740311086177826,-2.226580858230591,0.4209921360015869,1.2008401155471802,1.88637375831604,-0.3153949653345123,2.097770025714618,1.8646767566809834,0.8216987252235413,0.3101919889450073,0.47811275720596313
1729080400384,9i,4.539639275056742,0.3s : 0.3s,-43.48069057496919,0.2481135782221276,1.143512762938367,3.0301188346074173,-1.783987045288086,0.9129548668861389,-2.992556095123291,0.9185395836830139,1.6792289018630981,2.34906268119812,-0.33167097970841647,2.108648434005593,1.8899768512091837,0.8120054006576538,0.32562339305877686,0.4843723475933075
1729080400394,9i,4.539639275056742,0.3s : 0.3s,-43.48069057496919,0.2731322331626118,1.832827946368719,3.4712371022308712,-2.6930150985717773,2.8246068954467773,-3.8195078372955322,1.3420884609222412,1.8447864055633545,2.616304397583008,-0.34835873995236194,2.140098275353199,1.9292780410028258,0.7916854023933411,0.3413555920124054,0.5066661238670349
1729080400404,9i,4.539639275056742,0.3s : 0.3s,-43.48069057496919,0.30106140007549204,2.7080279948854966,3.3917080169666223,-2.696838617324829,5.479830741882324,-4.373316764831543,1.4774751663208008,1.5898528099060059,2.606361150741577,-0.36686909832241776,2.197677019219586,1.9788523153121043,0.7559691071510315,0.3586946427822113,0.5475847125053406
1729080400414,9i,4.539639275056742,0.3s : 0.3s,-43.48069057496919,0.33023845957292386,3.8739888513976974,3.1952399180584488,-1.8667396306991577,9.30665397644043,-4.457622051239014,1.5755531787872314,1.642828106880188,2.2423884868621826,-0.3875857756707991,2.289849183709637,2.0267350596684452,0.696617841720581,0.377954363822937,0.6098147630691528
1729080400424,9i,4.539639275056742,0.3s : 0.3s,-43.48069057496919,0.36000957594795524,5.255894698611193,3.1478864734077026,-1.0723023414611816,12.2061185836792,-4.6167097091674805,1.5626722574234009,1.9244191646575928,1.940065860748291,-0.4094178387537075,2.415097188180813,2.0729613116226644,0.6093552112579346,0.3980753421783447,0.6857274174690247
1729080400434,9i,4.539639275056742,0.3s : 0.3s,-43.48069057496919,0.3903551363788377,6.689701418437437,3.0867124949448774,-0.40393173694610596,14.745659828186035,-4.102090358734131,1.5240634679794312,1.7984981536865234,1.99259352684021,-0.43031201855742773,2.567824934655409,2.1155899634279507,0.4933162033557892,0.4171544015407562,0.763296365737915
1729080400444,9i,4.539639275056742,0.3s : 0.3s,-43.48069057496919,0.42134741051585267,7.929554927034325,3.1279648935664737,-0.003646367695182562,15.900994300842285,-3.734691858291626,1.6767910718917847,1.5498366355895996,2.137882709503174,-0.44683355483583265,2.7381080946113623,2.154447641998855,0.3540773391723633,0.4321121275424957,0.8294020891189575
1729080400454,9i,4.539639275056742,0.3s : 0.3s,-43.48069057496919,0.45365555134178037,8.829784518261626,3.3557615270445713,0.6382601261138916,16.06842803955078,-3.3642637729644775,1.8110663890838623,1.3012442588806152,2.5075759887695312,-0.46058033903792817,2.914423734141138,2.1908600390993187,0.20175093412399292,0.44446805119514465,0.8727797865867615
1729080400464,9i,4.539639275056742,0.3s : 0.3s,-43.48069057496919,0.4870284214716704,9.366073587980742,3.493364544491649,1.4458186626434326,15.52249813079834,-3.274294853210449,2.0367541313171387,0.9181286096572876,2.6855666637420654,-0.47540139577236645,3.0875874836941524,2.2256144419620503,0.047993145883083344,0.4576953649520874,0.8878127932548523
1729080400474,9i,4.539639275056742,0.3s : 0.3s,-43.48069057496919,0.5205786472774346,9.71008177154616,3.480084678941432,2.689700126647949,15.185667037963867,-3.4761979579925537,2.2199325561523438,0.4709476828575134,2.6383891105651855,-0.49479704702353455,-3.0236884072199,2.264131429626753,-0.10352315753698349,0.4748530387878418,0.8739549517631531
1729080400484,9i,4.539639275056742,0.3s : 0.3s,-43.48069057496919,0.5541871508526035,9.808279776216267,3.575707437945501,3.7564339637756348,14.166768074035645,-3.8100953102111816,2.369093894958496,0.1540326476097107,2.6738271713256836,-0.518976704373821,-2.8537863235456173,2.312439984411504,-0.24647420644760132,0.49599185585975647,0.8326118588447571
1729080400494,9i,4.539639275056742,0.3s : 0.3s,-43.48069057496919,0.5877092824234573,9.80166603655765,3.6259541820478676,4.655055046081543,13.420682907104492,-4.15084171295166,2.6184587478637695,0.07266658544540405,2.5071771144866943,-0.543692161285451,-2.6854484543469876,2.3728902522777067,-0.3769731819629669,0.5172992944717407,0.7683050036430359
1729080400504,9i,4.539639275056742,0.3s : 0.3s,-43.48069057496919,0.6205582411085246,9.769946675739215,3.561303185118036,5.151853561401367,12.859330177307129,-4.7489728927612305,2.9072115421295166,0.15814918279647827,2.0508511066436768,-0.5631317919569784,-2.515167329659918,2.447284151027804,-0.49572792649269104,0.5338370203971863,0.6850345134735107
1729080400514,9i,4.539639275056742,0.3s : 0.3s,-43.48069057496919,0.6526217410452386,9.752750426508252,3.54763229833696,4.852634906768799,12.630935668945312,-5.302011489868164,3.103506565093994,0.2918516993522644,1.6937427520751953,-0.568439763424704,-2.343153929007493,2.531390088553533,-0.603628396987915,0.5383177995681763,0.5880869030952454
1729080400524,9i,4.539639275056742,0.3s : 0.3s,-43.48069057496919,0.6837753330817872,9.758830639168856,3.5840861578408885,3.888420820236206,13.034610748291016,-5.2908759117126465,3.3026249408721924,0.3353465795516968,1.3512530326843262,-0.5550893043964714,-2.1724494433464097,2.6110133025194355,-0.7006200551986694,0.527019202709198,0.4810221791267395
1729080400534,9i,4.539639275056742,0.3s : 0.3s,-43.48069057496919,0.7139359472750387,9.672577379221387,3.6054138047152153,2.989335536956787,12.867085456848145,-5.0177717208862305,3.410130023956299,0.08578735589981079,1.167331337928772,-0.527494306000133,-2.0092503414422933,2.675219808290451,-0.7823378443717957,0.5033698081970215,0.3668329417705536
1729080400544,9i,4.539639275056742,0.3s : 0.3s,-43.48069057496919,0.7434377675527266,9.41164281135497,3.6558029586176515,2.3013219833374023,12.052440643310547,-4.708777904510498,3.3947348594665527,-0.42663705348968506,1.287886381149292,-0.4914212269176354,-1.8612579295355365,2.72242360099162,-0.844731867313385,0.47187939286231995,0.25250348448753357
1729080400554,9i,4.539639275056742,0.3s : 0.3s,-43.48069057496919,0.7727284728152887,8.920701710203323,3.869077600344395,2.121703624725342,10.516390800476074,-4.4168901443481445,3.4897375106811523,-0.9089728593826294,1.401877999305725,-0.4519759082905958,-1.7320484250179662,2.757584204840252,-0.8879155516624451,0.4367438852787018,0.14443227648735046
1729080400564,9i,4.539639275056742,0.3s : 0.3s,-43.48069057496919,0.8020364260407177,8.183151076397984,3.958858825231477,1.89448881149292,8.545149803161621,-4.0730299949646,3.528822660446167,-1.1414544582366943,1.384577751159668,-0.41198251560556254,-1.6254307335802771,2.7841764615854654,-0.9149616360664368,0.4004267454147339,0.050038181245326996
1729080400574,9i,4.539639275056742,0.3s : 0.3s,-43.48069057496919,0.8313097290918894,7.237992685161687,3.847853504369636,1.2476400136947632,6.660000801086426,-3.261701822280884,3.476581335067749,-1.098663568496704,1.22975492477417,-0.3749996500156337,-1.5436171977934632,2.8009482591939787,-0.9301639795303345,0.3662722110748291,-0.02528727427124977
1729080400584,9i,4.539639275056742,0.3s : 0.3s,-43.48069057496919,0.859630730588177,6.195204494616781,3.7563446702775383,1.6071449518203735,5.047147750854492,-1.8993158340454102,3.5192580223083496,-1.1028915643692017,0.7131468653678894,-0.3485701430847896,-1.480360278558896,2.8138106252224215,-0.9360212087631226,0.34155428409576416,-0.08488158881664276
1729080400594,9i,4.539639275056742,0.3s : 0.3s,-43.48069057496919,0.886143845726027,5.173889092950416,3.7720016385527644,2.0946245193481445,3.656562566757202,-0.999983549118042,3.5043811798095703,-1.375717282295227,0.23390354216098785,-0.3323158317835052,-1.4311167285066417,2.8314525715738164,-0.9360827803611755,0.32623302936553955,-0.13160869479179382
1729080400604,9i,4.539639275056742,0.3s : 0.3s,-43.48069057496919,0.9106874109164552,4.187343399648857,3.8068406075626946,2.217466354370117,2.286504030227661,-0.306259423494339,3.3646414279937744,-1.7805689573287964,0.028242886066436768,-0.3224432743936109,-1.394413583856081,2.852951937887568,-0.9337484240531921,0.3168848752975464,-0.16642659902572632
1729080400614,9i,4.539639275056742,0.3s : 0.3s,-43.48069057496919,0.9335403849881647,3.2372712139803244,3.957479277381017,1.5677070617675781,1.200235366821289,0.39953792095184326,3.2691810131073,-2.2291512489318848,-0.0705864280462265,-0.3191836772073868,-1.3711623891083253,2.872734709286024,-0.9306342005729675,0.31379157304763794,-0.18829424679279327
1729080400624,9i,4.539639275056742,0.3s : 0.3s,-43.48069057496919,0.9548291111806062,2.3714677113688154,4.170692566982612,0.5787721276283264,0.5974789261817932,1.1932405233383179,3.2236742973327637,-2.6301679611206055,-0.2912335991859436,-0.32479821581398105,-1.3583199333439602,2.8853449153342394,-0.9264026284217834,0.31911754608154297,-0.19985534250736237
1729080400634,9i,4.539639275056742,0.3s : 0.3s,-43.48069057496919,0.974555136545513,1.6768307010136525,4.243107520300858,-0.5020803213119507,0.3846692144870758,1.90379798412323,3.0903773307800293,-2.8532533645629883,-0.5589942932128906,-0.33982840613372406,-1.352441849192739,2.8888777387614146,-0.9204249978065491,0.3333253264427185,-0.20423516631126404
1729080400644,9i,4.539639275056742,0.3s : 0.3s,-43.48069057496919,0.9931748000580358,1.316082022129575,4.159071818774583,-1.3510435819625854,0.2835245728492737,2.6583306789398193,3.002401351928711,-2.7757890224456787,-0.760565459728241,-0.36403762785710225,-1.3506634604938497,2.884068688515895,-0.9119167327880859,0.35605016350746155,-0.2040495127439499
1729080400654,9i,4.539639275056742,0.3s : 0.3s,-43.48069057496919,1.0117601557074094,1.412964467639266,4.049987239071908,-1.8672418594360352,-0.12263066321611404,3.5251777172088623,3.1158053874969482,-2.4380850791931152,-0.8659645318984985,-0.39767219404470994,-1.3531477929080815,2.873739209299878,-0.900213897228241,0.38727325201034546,-0.19908380508422852
1729080400664,9i,4.539639275056742,0.3s : 0.3s,-43.48069057496919,1.031733210910972,1.792329451756862,4.058974022654477,-1.9662859439849854,-1.0520613193511963,4.259548187255859,3.3694887161254883,-2.1251440048217773,-0.778189480304718,-0.4398831688268775,-1.3636833239050672,2.8618596586030947,-0.8854646682739258,0.4258337616920471,-0.18605926632881165
1729080400674,9i,4.539639275056742,0.3s : 0.3s,-43.48069057496919,1.053903539033899,2.2815938362054187,4.160739836006038,-2.108241319656372,-1.8208423852920532,4.751910209655762,3.596165180206299,-1.9764683246612549,-0.6876953840255737,-0.4880621280510532,-1.3835356016372442,2.849315582444437,-0.8678022027015686,0.4689151644706726,-0.16443179547786713
1729080400683,9i,4.539639275056742,0.3s : 0.3s,-43.48069057496919,1.0785508854913721,2.8232801791204536,4.212898950906407,-2.4222867488861084,-2.737057685852051,5.2036566734313965,3.6919198036193848,-1.9554805755615234,-0.5425324440002441,-0.5408711840397257,-1.413934858198382,2.8334522317678585,-0.8467352986335754,0.5148830413818359,-0.1339203417301178
1729080400693,9i,4.539639275056742,0.3s : 0.3s,-43.48069057496919,1.1058012081732616,3.3765710166225675,4.2139373493640235,-2.81695556640625,-3.7689590454101562,5.424418926239014,3.653454065322876,-2.087790012359619,-0.22510939836502075,-0.5972478005631721,-1.4583776473789847,2.810726617969514,-0.8216668367385864,0.5623688697814941,-0.0927618071436882
1729080400703,9i,4.539639275056742,0.3s : 0.3s,-43.48069057496919,1.1357182256940577,3.8878311156637344,4.286471698144293,-3.1293294429779053,-4.756217002868652,5.311540126800537,3.5743954181671143,-2.359513282775879,0.1738795042037964,-0.6530814056982208,-1.5192578559610104,2.779758459683882,-0.793160617351532,0.607636570930481,-0.040914516896009445
1729080400713,9i,4.539639275056742,0.3s : 0.3s,-43.48069057496919,1.16856736274718,4.497349525540856,4.369202282040543,-4.177208423614502,-5.784612655639648,5.496498107910156,3.649381160736084,-2.348134756088257,0.5081425905227661,-0.7071820221929851,-1.6000730437709427,2.7336312090714174,-0.7598698735237122,0.6496941447257996,0.022252853959798813
1729080400723,9i,4.539639275056742,0.3s : 0.3s,-43.48069057496919,1.2056123650973753,5.282306579170841,4.672638543317198,-4.861641883850098,-7.708770751953125,5.813902378082275,3.9515273571014404,-2.2220280170440674,1.132066249847412,-0.7596142465147517,-1.7124492490835879,2.6662278292230894,-0.7178390026092529,0.6886417865753174,0.10236961394548416
1729080400733,9i,4.539639275056742,0.3s : 0.3s,-43.48069057496919,1.2476907753225486,6.181710142094868,5.188169763580598,-5.606300354003906,-9.287776947021484,6.194350242614746,4.380563735961914,-2.294816255569458,1.568943977355957,-0.8069771137295769,-1.861012599623645,2.576372049633253,-0.6627599000930786,0.7221996188163757,0.19793212413787842
1729080400743,9i,4.539639275056742,0.3s : 0.3s,-43.48069057496919,1.2955104064598926,7.188288907751485,5.745861613308363,-6.2428765296936035,-11.180362701416016,6.4740891456604,4.980299949645996,-2.2002246379852295,1.83590567111969,-0.8435960475326105,-2.0479963860488244,2.460364484735566,-0.5905141234397888,0.7470385432243347,0.3053295910358429
1729080400753,9i,4.539639275056742,0.3s : 0.3s,-43.48069057496919,1.350488591560101,8.378600378812786,6.5214476340586245,-6.783730506896973,-13.54849910736084,7.11289119720459,5.7808074951171875,-1.8857839107513428,2.3569817543029785,-0.8635332785912211,-2.2769995025656216,2.320939803691325,-0.49435439705848694,0.7601430416107178,0.4216587245464325
1729080400763,9i,4.539639275056742,0.3s : 0.3s,-43.48069057496919,1.4137442756225116,9.608795659421533,7.413348246891799,-7.170724868774414,-15.51052188873291,7.557374477386475,6.646445274353027,-1.5664396286010742,2.8859598636627197,-0.860823849030441,-2.540130868654787,2.1662619811671275,-0.3688270151615143,0.7583798170089722,0.5374254584312439
1729080400773,9i,4.539639275056742,0.3s : 0.3s,-43.48069057496919,1.4857207617409314,10.842895316681076,8.258817112956947,-7.640827655792236,-17.095151901245117,8.321955680847168,7.375092506408691,-1.4453105926513672,3.424492359161377,-0.8302670283508496,-2.8202515820826974,2.0105497127763168,-0.21309004724025726,0.7381115555763245,0.6401437520980835
1729080400783,9i,4.539639275056742,0.3s : 0.3s,-43.48069057496919,1.5677338151267546,11.974059125007079,9.426481723230566,-7.94592809677124,-18.184541702270508,9.00939655303955,8.407827377319336,-1.379821538925171,4.03275203704834,-0.7685996752511969,-3.0987171659023662,1.8676381416327237,-0.030813099816441536,0.6951292753219604,0.718224287033081
1729080400793,9i,4.539639275056742,0.3s : 0.3s,-43.48069057496919,1.6615833693504931,12.979298488807881,10.851804116648616,-7.472404479980469,-19.477577209472656,9.381012916564941,9.558977127075195,-1.4636741876602173,4.923948287963867,-0.684103670085211,2.9207632001190076,1.7551886688137504,0.1697521060705185,0.6319786310195923,0.7561661005020142
1729080400803,9i,4.539639275056742,0.3s : 0.3s,-43.48069057496919,1.76844310089372,13.9190943085912,12.268029222118091,-7.624941825866699,-20.125144958496094,10.692198753356934,10.776844024658203,-1.2238576412200928,5.732917785644531,-0.579880523809657,2.6728551947726187,1.6708276260300725,0.3779102563858032,0.5479239821434021,0.7462998032569885
1729080400813,9i,4.539639275056742,0.3s : 0.3s,-43.48069057496919,1.8883768634116156,14.751501771373892,13.53071470154524,-7.194672584533691,-20.60578727722168,12.043551445007324,11.956457138061523,-0.29684311151504517,6.3273420333862305,-0.45430879259168744,2.4386198124174694,1.6095244695190802,0.5809115767478943,0.438841313123703,0.6855359673500061
1729080400823,9i,4.539639275056742,0.3s : 0.3s,-43.48069057496919,2.019862298953327,15.33504460112412,14.281985220281857,-6.1718950271606445,-20.536848068237305,12.792082786560059,12.627742767333984,0.0006316304206848145,6.671972274780273,-0.31903854838948675,2.2164340429337863,1.5699553373800168,0.7584110498428345,0.31365376710891724,0.5713443160057068
1729080400833,9i,4.539639275056742,0.3s : 0.3s,-43.48069057496919,2.1591442548754096,15.255881846450482,14.164090328591397,-4.976844310760498,-17.980384826660156,12.73642635345459,12.754426002502441,-0.34645116329193115,6.150288105010986,-0.18035897867015668,2.0184926776714884,1.550965143825183,0.8868247270584106,0.17938274145126343,0.42586833238601685
1729080400843,9i,4.539639275056742,0.3s : 0.3s,-43.48069057496919,2.2994240266376016,14.542899762667808,12.935700146623427,-4.226746082305908,-14.263213157653809,12.479816436767578,12.123177528381348,-0.3409823477268219,4.499403953552246,-0.0470697177333923,1.8566802095902366,1.5480233423863228,0.9583499431610107,0.04705233871936798,0.28169316053390503
1729080400853,9i,4.539639275056742,0.3s : 0.3s,-43.48069057496919,2.4378438834360323,13.64751879533652,12.318220178955466,-5.038764476776123,-11.658905982971191,12.018555641174316,11.810615539550781,-0.010255128145217896,3.4996862411499023,0.08222942357314357,1.7276762525883629,1.5652847417002604,0.9843820929527283,-0.08213678747415543,0.15570929646492004
1729080400863,9i,4.539639275056742,0.3s : 0.3s,-43.48069057496919,2.5740931145923516,12.853739826726832,11.914850314787865,-7.408841609954834,-10.430952072143555,10.788222312927246,11.300583839416504,-0.28460168838500977,3.7655630111694336,0.2019986681590126,1.6104783908951972,1.6154830832344445,0.97889643907547,-0.20062775909900665,0.03886503353714943
1729080400873,9i,4.539639275056742,0.3s : 0.3s,-43.48069057496919,2.707676494148488,12.217194960288142,11.442100947597865,-10.26758861541748,-9.891204833984375,8.69046688079834,10.630971908569336,-1.215628981590271,4.052944183349609,0.2971952783312171,1.485959693252981,1.7085623602791815,0.9527227878570557,-0.29283958673477173,-0.08102026581764221
1729080400883,9i,4.539639275056742,0.3s : 0.3s,-43.48069057496919,2.838217114814659,11.744049766613237,11.116330993975442,-11.883414268493652,-9.857722282409668,6.476806640625,10.198593139648438,-1.999503493309021,3.9450600147247314,0.35462333061675544,1.3463014065717585,1.8373259000009599,0.9142454266548157,-0.34723716974258423,-0.20876236259937286
1729080400893,9i,4.539639275056742,0.3s : 0.3s,-43.48069057496919,2.96603016930254,11.2993150066424,10.992728768711379,-11.182693481445312,-10.10128116607666,4.907710552215576,10.209917068481445,-2.0566561222076416,3.5167946815490723,0.3743760206348345,1.1979054581414499,1.9737684327334843,0.8667740225791931,-0.3656918406486511,-0.33907565474510193
1729080400903,9i,4.539639275056742,0.3s : 0.3s,-43.48069057496919,3.0910576691376344,10.870212647155485,10.803321539339992,-9.155487060546875,-11.034171104431152,4.22813081741333,10.33310317993164,-1.3986968994140625,2.8253109455108643,0.37150876820011264,1.0492575228582832,2.0923518425735077,0.8079037070274353,-0.3630216717720032,-0.4642270505428314
1729080400913,9i,4.539639275056742,0.3s : 0.3s,-43.48069057496919,3.2136587352647727,10.599656096997418,10.730802518644891,-7.345812797546387,-12.667669296264648,3.919677734375,10.413630485534668,-0.9318907260894775,2.416195869445801,0.3585649376356114,0.8968371119174566,2.1894195987329685,0.7316636443138123,-0.3509308099746704,-0.5843935012817383
1729080400923,9i,4.539639275056742,0.3s : 0.3s,-43.48069057496919,3.3360746502268124,10.624954595841185,11.071753968273576,-6.293554782867432,-14.767377853393555,3.3821794986724854,10.5848388671875,-1.5479919910430908,2.8545827865600586,0.33551015713271765,0.7323194767921246,2.264480997303489,0.6313169598579407,-0.32925093173980713,-0.7021628618240356
1729080400933,9i,4.539639275056742,0.3s : 0.3s,-43.48069057496919,3.4602079810861985,10.995222732639611,11.576949498460587,-5.542284965515137,-17.081937789916992,3.0113401412963867,10.815408706665039,-2.162275791168213,3.5181326866149902,0.3007487673147164,0.5501508350194835,2.323931700031649,0.4993491768836975,-0.29623544216156006,-0.8141835927963257
1729080400943,9i,4.539639275056742,0.3s : 0.3s,-43.48069057496919,3.5851855173739753,11.529444068914666,11.404967783980682,-4.773563861846924,-18.768461227416992,2.470568895339966,10.619678497314453,-1.76877760887146,3.7639267444610596,0.2622799924460982,0.3561980208756521,2.3715161929150033,0.3367879092693329,-0.25928324460983276,-0.9051774144172668
1729080400953,9i,4.539639275056742,0.3s : 0.3s,-43.48069057496919,3.7107678568402056,11.883550491789572,11.402038304683591,-3.7515783309936523,-18.727140426635742,2.5089292526245117,10.714805603027344,-0.8630786538124084,3.8019092082977295,0.22679698299887266,0.16040956165045112,2.407353340149174,0.15563228726387024,-0.22485768795013428,-0.9618823528289795
1729080400963,9i,4.539639275056742,0.3s : 0.3s,-43.48069057496919,3.8338156205750287,11.769865001477712,10.574905030562316,-2.767972946166992,-16.94095802307129,2.446990728378296,9.961099624633789,0.03243333101272583,3.5502195358276367,0.19663127832442523,-0.024283079607714503,2.435654542703043,-0.023812811821699142,-0.19536663591861725,-0.980441153049469
1729080400973,9i,4.539639275056742,0.3s : 0.3s,-43.48069057496919,3.9508089916234863,11.256345851980015,9.35645683395962,-3.4085001945495605,-14.509780883789062,1.8663250207901,8.753692626953125,0.613563597202301,3.2464888095855713,0.16479983343322915,-0.18500309878248372,2.4547048005763545,-0.1814572811126709,-0.16405488550662994,-0.9696180820465088
1729080400983,9i,4.539639275056742,0.3s : 0.3s,-43.48069057496919,4.061003009975059,10.521816175395546,8.633632933061081,-5.0862836837768555,-12.228368759155273,0.7282601594924927,7.978910446166992,0.9371461868286133,3.1620187759399414,0.12098906525431359,-0.31869084295658473,2.457256401768256,-0.31103312969207764,-0.120694100856781,-0.9427042603492737
1729080400993,9i,4.539639275056742,0.3s : 0.3s,-43.48069057496919,4.164759718482241,9.635607929231094,8.154314817361087,-6.0889997482299805,-9.99499797821045,-0.7642427086830139,7.576049327850342,1.023393154144287,2.8370747566223145,0.0680011609770452,-0.42793227197207623,2.4359713136960206,-0.4140312969684601,-0.06794876605272293,-0.9077230095863342
1729080401003,9i,4.539639275056742,0.3s : 0.3s,-43.48069057496919,4.262604909901122,8.701307798193646,7.777688068424762,-3.8024356365203857,-9.09101390838623,-2.432725429534912,7.304994583129883,1.1304137706756592,2.419018507003784,0.029893275211084785,-0.5196679407707027,2.3990410246739926,-0.4963700771331787,-0.029888823628425598,-0.8675963282585144
1729080401013,9i,4.539639275056742,0.3s : 0.3s,-43.48069057496919,4.356548236495989,7.958996651960636,7.875854796369,-0.38498547673225403,-9.599759101867676,-2.6993346214294434,7.088868618011475,1.4466193914413452,3.111964464187622,0.027463862869569946,-0.611822669591231,2.367393598375004,-0.5741438269615173,-0.027460411190986633,-0.8182938098907471
1729080401023,9i,4.539639275056742,0.3s : 0.3s,-43.48069057496919,4.447476559725397,7.459803926413193,7.904505770711343,2.9748611450195312,-9.983338356018066,-2.8321001529693604,6.806933403015137,1.8200316429138184,3.5825066566467285,0.05768870420855106,-0.7116671173925156,2.352282977950016,-0.6520106792449951,-0.05765671283006668,-0.7560144066810608
1729080401033,9i,4.539639275056742,0.3s : 0.3s,-43.48069057496919,4.533033428439572,7.203331015905468,6.840718343689992,4.690507411956787,-9.654582023620605,-3.3348615169525146,5.994258403778076,1.5328242778778076,2.9180033206939697,0.10896749588420637,-0.8114336889499342,2.3552310714213265,-0.7209733128547668,-0.10875198245048523,-0.6843760013580322
1729080401043,9i,4.539639275056742,0.3s : 0.3s,-43.48069057496919,4.612847668047068,7.154541189347499,6.1066917304574755,4.069385051727295,-9.339456558227539,-3.3713669776916504,5.547763824462891,1.0133744478225708,2.3424501419067383,0.16404199030350544,-0.9079344230127872,2.367217532820022,-0.7776524424552917,-0.16330726444721222,-0.6071139574050903
1729080401053,9i,4.539639275056742,0.3s : 0.3s,-43.48069057496919,4.689007432894936,6.885402633717021,6.173734393396282,1.800917625427246,-8.782645225524902,-2.914212942123413,5.628126621246338,0.8476482629776001,2.391794204711914,0.20720571644426752,-0.9997072847555855,2.37358862227972,-0.8233168125152588,-0.20572619140148163,-0.5289860367774963
1729080401063,9i,4.539639275056742,0.3s : 0.3s,-43.48069057496919,4.761639464388676,6.568277032772481,5.837039774362062,-0.7585278749465942,-8.366616249084473,-2.6921377182006836,5.291424751281738,0.6105954647064209,2.3872642517089844,0.2337039095616819,-1.0826393291245544,2.3636775554296556,-0.8591892123222351,-0.23158232867717743,-0.4562493562698364
1729080401073,9i,4.539639275056742,0.3s : 0.3s,-43.48069057496919,4.830188446294601,6.343593361014949,5.299464417447728,-2.9751055240631104,-8.192008018493652,-2.853586435317993,4.675553321838379,0.094664067029953,2.4929025173187256,0.2503784908149499,-1.1581475027873,2.3336820927874222,-0.8874977231025696,-0.24777066707611084,-0.3885323405265808
1729080401083,9i,4.539639275056742,0.3s : 0.3s,-43.48069057496919,4.894113320890897,6.275323235841433,4.812651023660876,-3.8577053546905518,-8.225377082824707,-2.968179702758789,3.9858555793762207,-0.2893425226211548,2.681575298309326,0.26441758388207487,-1.2281976014848657,2.288561363475609,-0.9091494679450989,-0.2613471448421478,-0.324260413646698
1729080401093,9i,4.539639275056742,0.3s : 0.3s,-43.48069057496919,4.953098993119314,6.217818024328739,4.416753642575803,-2.980159282684326,-7.850159645080566,-3.8312201499938965,3.3400275707244873,-0.5485107898712158,2.837439775466919,0.2852044447189628,-1.296585079769708,2.242530410998748,-0.9237523078918457,-0.2813536524772644,-0.25984901189804077
1729080401103,9i,4.539639275056742,0.3s : 0.3s,-43.48069057496919,5.006032027228802,6.004044781290166,3.778393026332992,-2.1183865070343018,-6.908731460571289,-4.12216329574585,2.5266945362091064,-0.6325610876083374,2.737139940261841,0.3112845047410763,-1.3662975157158141,2.2076308660177983,-0.9321051239967346,-0.3062816560268402,-0.1933167427778244
1729080401113,9i,4.539639275056742,0.3s : 0.3s,-43.48069057496919,5.052521161213128,6.006581500852433,3.306030598043033,-0.9101746678352356,-8.2846040725708,-3.420396089553833,1.8155064582824707,-0.4549141228199005,2.7252206802368164,0.34112234891491344,-1.4414675785868698,2.1846211011970555,-0.9345095157623291,-0.33454498648643494,-0.12153730541467667
1729080401123,9i,4.539639275056742,0.3s : 0.3s,-43.48069057496919,5.093088572742821,6.000019317340131,2.901451090590282,0.6236104369163513,-8.867803573608398,-2.3219590187072754,1.4669486284255981,-0.2490919530391693,2.4908699989318848,0.36938917392304826,-1.5266580201856863,2.1805436413934367,-0.9316396713256836,-0.36104586720466614,-0.04114772379398346
1729080401133,9i,4.539639275056742,0.3s : 0.3s,-43.48069057496919,5.127963758625173,5.877638253681129,2.292070730183736,1.2974834442138672,-8.349017143249512,-1.6725208759307861,1.237066626548767,0.09138399362564087,1.9274084568023682,0.3892232445920163,-1.6166669506429245,2.1919242109911257,-0.9242308735847473,-0.3794698715209961,0.04242480546236038
1729080401143,9i,4.539639275056742,0.3s : 0.3s,-43.48069057496919,5.15837133555522,5.526170485939129,2.106290158358834,0.029294870793819427,-7.039661407470703,-0.9172778129577637,1.2664891481399536,0.5561628341674805,1.5884414911270142,0.4017527745995902,-1.6979818928107593,2.201745186049557,-0.9129429459571838,-0.3910321593284607,0.11674333363771439
1729080401153,9i,4.539639275056742,0.3s : 0.3s,-43.48069057496919,5.186393774514525,4.924527330500786,2.366928220006563,-2.4794774055480957,-5.304460525512695,0.46324679255485535,1.5796589851379395,0.9320278763771057,1.4961118698120117,0.40611191160613896,-1.7544988215334798,2.188826239691268,-0.9032062888145447,-0.39504048228263855,0.16781321167945862
1729080401163,9i,4.539639275056742,0.3s : 0.3s,-43.48069057496919,5.214329525116445,4.4545955346370905,2.7185480202876633,-3.986408233642578,-4.45195198059082,0.8271192908287048,1.8544126749038696,0.7624185085296631,1.8358581066131592,0.40542247672614296,-1.7879671251647589,2.1519437816487033,-0.8973509669303894,-0.3944070339202881,0.19800104200839996
1729080401173,9i,4.539639275056742,0.3s : 0.3s,-43.48069057496919,5.242351129094647,4.209192514113153,2.88947133012387,-4.905992031097412,-3.9379079341888428,0.18303164839744568,1.6801247596740723,0.06132328510284424,2.349992513656616,0.410276580825659,-1.810378696147237,2.1033641139822765,-0.890818178653717,-0.39886295795440674,0.21760381758213043
1729080401183,9i,4.539639275056742,0.3s : 0.3s,-43.48069057496919,5.269928389956862,4.160065651415407,2.825521554250778,-5.115538120269775,-3.5542941093444824,-0.5944287776947021,1.459106206893921,-0.3300377428531647,2.39700984954834,0.42474518933344113,-1.8261820838673772,2.050397521725523,-0.8815916180610657,-0.41208863258361816,0.23017191886901855
1729080401193,9i,4.539639275056742,0.3s : 0.3s,-43.48069057496919,5.296372767470161,4.074642826854805,2.6043983707975418,-5.438668251037598,-3.286198139190674,-0.5034637451171875,1.2462048530578613,-0.2676256000995636,2.2711760997772217,0.4444489963597605,-1.837552785227577,1.9960085960623886,-0.8709149956703186,-0.4299604594707489,0.23799431324005127
1729080401203,9i,4.539639275056742,0.3s : 0.3s,-43.48069057496919,5.3216764923356745,3.927538141963331,2.566791753742555,-4.947099685668945,-2.7130696773529053,-0.612870454788208,1.1355934143066406,0.09178441762924194,2.3000919818878174,0.46338468425980467,-1.844020213328243,1.9413172792434992,-0.8613623380661011,-0.4469784200191498,0.24138134717941284
1729080401213,9i,4.539639275056742,0.3s : 0.3s,-43.48069057496919,5.344979066496886,3.5726821681691665,2.0570015602199954,-3.7425405979156494,-1.8775895833969116,-0.9331682920455933,1.0173695087432861,0.3656616508960724,1.7500017881393433,0.4825104213018588,-1.8469510919403465,1.8967390519288894,-0.8522694706916809,-0.4640044569969177,0.24152952432632446
1729080401223,9i,4.539639275056742,0.3s : 0.3s,-43.48069057496919,5.365439851202177,3.063911110597039,1.5531654077349564,-2.6158130168914795,-0.9388883113861084,-1.331776738166809,0.8027172088623047,0.5129700303077698,1.2267149686813354,0.5019721231047655,-1.8462179763488407,1.8658013557655513,-0.8435953259468079,-0.48115530610084534,0.2384033203125
1729080401233,9i,4.539639275056742,0.3s : 0.3s,-43.48069057496919,5.383155714898635,2.535238479280765,1.3722726880592626,-1.9961183071136475,0.07580030709505081,-1.5865336656570435,0.6653810739517212,0.6454169750213623,1.0118484497070312,0.5222784910794519,-1.8404565764650025,1.845204367456769,-0.8353639245033264,-0.49885615706443787,0.230888232588768
1729080401242,9i,4.539639275056742,0.3s : 0.3s,-43.48069057496919,5.398953423346225,2.0743721069215617,1.3811521916381038,-1.4625917673110962,0.755686342716217,-1.6822041273117065,0.7009344100952148,0.7168700695037842,0.9499313831329346,0.5426061047631423,-1.8286436013935168,1.830684607498509,-0.8280553817749023,-0.5163695216178894,0.21837292611598969
1729080401252,9i,4.539639275056742,0.3s : 0.3s,-43.48069057496919,5.413786825060147,1.7390687970873753,1.4156841260155186,-0.9391700625419617,1.0233720541000366,-1.8702834844589233,0.8015497326850891,0.6229555606842041,0.9867147207260132,0.5625810089066899,-1.8151899797144495,1.8223882279396884,-0.8207454085350037,-0.5333712100982666,0.20467627048492432
1729080401262,9i,4.539639275056742,0.3s : 0.3s,-43.48069057496919,5.428168201014849,1.5803340733143116,1.4118822019357966,-0.6704983711242676,0.9770345687866211,-2.1572577953338623,0.8234431147575378,0.4260655641555786,1.0648102760314941,0.584042876278188,-1.8030215843397797,1.818705336830149,-0.8118463754653931,-0.5514011383056641,0.1919950395822525
1729080401272,9i,4.539639275056742,0.3s : 0.3s,-43.48069057496919,5.4423275967388784,1.5219659064849018,1.4346318313459732,-0.09350481629371643,0.711426317691803,-2.51987886428833,0.7790217995643616,0.20442068576812744,1.1872260570526123,0.607609271260931,-1.795366791450834,1.8203443371345265,-0.8003994226455688,-0.5709062814712524,0.18282994627952576
1729080401282,9i,4.539639275056742,0.3s : 0.3s,-43.48069057496919,5.45616232323561,1.560607291387256,1.384620574107618,0.5243685245513916,0.3236711025238037,-2.9031355381011963,0.7077588438987732,-0.00043720006942749023,1.1900635957717896,0.633595497660728,-1.796116166657177,1.8305091887037002,-0.7855328321456909,-0.5920462012290955,0.18005354702472687
1729080401292,9i,4.539639275056742,0.3s : 0.3s,-43.48069057496919,5.469435733938857,1.665430087633507,1.2891853235219435,1.0957255363464355,-0.03161855787038803,-3.0838305950164795,0.6225336194038391,-0.0948331356048584,1.1249254941940308,0.6609619550070472,-1.8058742035956759,1.8490099927889723,-0.7676904797554016,-0.6138765215873718,0.18386651575565338
1729080401302,9i,4.539639275056742,0.3s : 0.3s,-43.48069057496919,5.481863392883005,1.8105546047078345,1.1347613500949356,1.2110848426818848,-0.03666098788380623,-3.177232265472412,0.5357516407966614,-0.09035921096801758,0.9962372779846191,0.6884799011852792,-1.821470028041259,1.873188744596311,-0.7480776906013489,-0.6353640556335449,0.19155253469944
1729080401312,9i,4.539639275056742,0.3s : 0.3s,-43.48069057496919,5.49316769318382,1.9456265278643297,0.9569008734014519,1.1157373189926147,0.3630126416683197,-3.2295796871185303,0.43377941846847534,-0.0345650315284729,0.8522323369979858,0.7165206358020655,-1.8364973221854002,1.8985819665974313,-0.7276332378387451,-0.6567648649215698,0.19801470637321472
1729080401322,9i,4.539639275056742,0.3s : 0.3s,-43.48069057496919,5.503163447784478,2.0395988167084913,0.7668056914203948,0.7596811652183533,1.026166558265686,-3.1899795532226562,0.3515099287033081,0.05032855272293091,0.6796313524246216,0.7447874982632389,-1.8459561968264384,1.9227837117089472,-0.7075737118721008,-0.6778156161308289,0.19976307451725006
1729080401332,9i,4.539639275056742,0.3s : 0.3s,-43.48069057496919,5.511914093298343,2.106698507831974,0.6443975592831583,0.004709633067250252,1.731181263923645,-3.1209933757781982,0.31824642419815063,0.1491277813911438,0.5401188135147095,0.7741170226570845,-1.8437762850139952,1.9397444467921185,-0.6885619759559631,-0.699084997177124,0.19277600944042206
1729080401342,9i,4.539639275056742,0.3s : 0.3s,-43.48069057496919,5.519827395283059,2.174088059756071,0.644901920570985,-0.8661519885063171,2.358851671218872,-2.9123799800872803,0.35800230503082275,0.2130940556526184,0.49226391315460205,0.8043831283345537,-1.8270176327704886,1.9450868177097003,-0.6709142923355103,-0.7204029560089111,0.1757657825946808
1729080401352,9i,4.539639275056742,0.3s : 0.3s,-43.48069057496919,5.527385416486559,2.270513978715138,0.6840665848075487,-1.622219204902649,2.7341840267181396,-2.649365186691284,0.4603033661842346,0.23774921894073486,0.44670259952545166,0.8342619182343256,-1.795499797511946,1.9369067560427282,-0.6548376679420471,-0.7408009171485901,0.14967188239097595
1729080401362,9i,4.539639275056742,0.3s : 0.3s,-43.48069057496919,5.534900976791896,2.4243779567995194,0.7360359318110495,-2.247701406478882,3.0000085830688477,-2.4934394359588623,0.5489277839660645,0.26563137769699097,0.41214942932128906,0.86326739926427,-1.7510466573761445,1.9159379789495234,-0.639427661895752,-0.7599703073501587,0.11652173101902008
1729080401372,9i,4.539639275056742,0.3s : 0.3s,-43.48069057496919,5.542528729880487,2.5951040698235306,0.8072381317482437,-2.7106845378875732,3.110456943511963,-2.2979071140289307,0.6027089357376099,0.3477993607521057,0.4091588258743286,0.8907566704371631,-1.6951958342662903,1.8832796208210971,-0.6239643692970276,-0.7775477766990662,0.0780237540602684
1729080401382,9i,4.539639275056742,0.3s : 0.3s,-43.48069057496919,5.55035392983539,2.6659548270383877,0.888662245823299,-2.7316088676452637,2.781329870223999,-1.9845396280288696,0.6285434365272522,0.44228339195251465,0.44613802433013916,0.9145770864079765,-1.6332572676893353,1.8420782127538258,-0.6089359521865845,-0.7923046350479126,0.0380842499434948
1729080401392,9i,4.539639275056742,0.3s : 0.3s,-43.48069057496919,5.558323132968776,2.630916578637866,0.8960984052969472,-2.236628293991089,2.4175686836242676,-1.9537503719329834,0.5941144227981567,0.4308586120605469,0.5141801834106445,0.9348339400196324,-1.5750271229915371,1.801660426416701,-0.593946635723114,-0.8045004606246948,0.002512881997972727
1729080401402,9i,4.539639275056742,0.3s : 0.3s,-43.48069057496919,5.566070942880372,2.4957790112589384,0.7551077514215648,-1.3138234615325928,2.035090446472168,-2.199863910675049,0.4806954860687256,0.28518158197402954,0.5077312588691711,0.9550455404229831,-1.5272527723340212,1.7700871529404627,-0.5770242810249329,-0.8163400292396545,-0.025141580030322075
1729080401412,9i,4.539639275056742,0.3s : 0.3s,-43.48069057496919,5.573058972551775,2.361439140822699,0.5139177826040444,-0.11235487461090088,1.9134337902069092,-2.7550041675567627,0.3283349275588989,0.07802587747573853,0.3875817656517029,0.9791519900966451,-1.4955550278876057,1.7551908072791165,-0.5561486482620239,-0.8300247192382812,-0.04192449524998665
1729080401422,9i,4.539639275056742,0.3s : 0.3s,-43.48069057496919,5.578659797839082,2.4197951875648225,0.22642579821478467,0.43609878420829773,2.2520627975463867,-3.470149040222168,0.1489170789718628,-0.014839768409729004,0.1699180006980896,1.0103008873969035,-1.4743547986172505,1.754262476434066,-0.5291355848312378,-0.8469918370246887,-0.051189448684453964
1729080401432,9i,4.539639275056742,0.3s : 0.3s,-43.48069057496919,5.58251573133047,2.6782397081613687,0.09202553240609106,0.33068233728408813,3.0256314277648926,-3.9855306148529053,0.011600792407989502,0.0708467960357666,-0.05757474899291992,1.0479356878538257,-1.4479005092987771,1.754018310434063,-0.4955943822860718,-0.8663942217826843,-0.06121497228741646
1729080401442,9i,4.539639275056742,0.3s : 0.3s,-43.48069057496919,5.584714583148856,3.0000773058841186,0.3510166909773927,0.1413397192955017,3.828979969024658,-4.127283573150635,-0.014103204011917114,0.21334832906723022,-0.2783815860748291,1.0885834971318216,-1.407161172234915,1.7468054301949363,-0.4575459659099579,-0.8859708905220032,-0.07554610073566437
1729080401452,9i,4.539639275056742,0.3s : 0.3s,-43.48069057496919,5.585747128398593,3.2157738714150974,0.5457749492058104,0.12795333564281464,4.124990463256836,-3.763232469558716,0.07106071710586548,0.32462000846862793,-0.4329463243484497,1.1278139006636287,-1.354583683986621,1.7327451383343584,-0.41865596175193787,-0.9034773111343384,-0.09195611625909805
1729080401462,9i,4.539639275056742,0.3s : 0.3s,-43.48069057496919,5.586400534317667,3.2819793148526393,0.609857591399219,-0.0470048263669014,4.177381992340088,-3.0724170207977295,0.22018885612487793,0.367573618888855,-0.4339732527732849,1.1611742542441235,-1.2962893752228588,1.7143502817684728,-0.38335108757019043,-0.9172713756561279,-0.10795795172452927
1729080401472,9i,4.539639275056742,0.3s : 0.3s,-43.48069057496919,5.587433565265694,3.222531980591671,0.5323351695763066,-0.5257455706596375,3.956550359725952,-2.4464478492736816,0.3505544066429138,0.28997689485549927,-0.2764158844947815,1.1863758562596742,-1.2293906676086626,1.6860452468865692,-0.3533772826194763,-0.9270159006118774,-0.12556174397468567
1729080401482,9i,4.539639275056742,0.3s : 0.3s,-43.48069057496919,5.588673778586291,3.115073545365306,0.4104774927560384,-0.9867981672286987,3.614272117614746,-2.218395948410034,0.38241612911224365,0.06474900245666504,-0.13437724113464355,1.2048848542333848,-1.1519656066086945,1.6434753011897614,-0.32687413692474365,-0.9337980151176453,-0.1455148309469223
1729080401492,9i,4.539639275056742,0.3s : 0.3s,-43.48069057496919,5.5902820586124715,3.0333832193715797,0.3621819132300157,-1.2309952974319458,3.3205275535583496,-2.427229642868042,0.2975817918777466,-0.1904817819595337,-0.07960845530033112,1.2203453120177503,-1.0630440428724959,1.58544338097718,-0.30000799894332886,-0.9392179846763611,-0.16692788898944855
1729080401502,9i,4.539639275056742,0.3s : 0.3s,-43.48069057496919,5.591767254835294,3.0096865444656067,0.4122129052571941,-1.0082279443740845,3.1145312786102295,-2.9843268394470215,0.16896003484725952,-0.35332363843917847,-0.12858612835407257,1.2371314215993927,-0.963680900819167,1.5139845490002444,-0.2689814567565918,-0.9448484182357788,-0.1868436336517334
1729080401512,9i,4.539639275056742,0.3s : 0.3s,-43.48069057496919,5.592560347480188,3.006630651118604,0.5047652648322837,-0.5538090467453003,2.956246852874756,-3.367684841156006,0.0704507976770401,-0.3717727065086365,-0.33408039808273315,1.2576291846797074,-0.8564615046745854,1.4328751661697678,-0.232758566737175,-0.9513626098632812,-0.2018236219882965
1729080401522,9i,4.539639275056742,0.3s : 0.3s,-43.48069057496919,5.592484667867233,2.936899136540054,0.6263511447704236,-0.29957589507102966,2.64058518409729,-3.2371184825897217,0.08316206932067871,-0.18557393550872803,-0.5924205780029297,1.278656301189919,-0.7444758718854096,1.3451007325462367,-0.1951463520526886,-0.9576297402381897,-0.2118092179298401
1729080401532,9i,4.539639275056742,0.3s : 0.3s,-43.48069057496919,5.591842150902311,2.7299287830193437,0.7252926870516929,-0.014352140948176384,2.0539398193359375,-2.7119414806365967,0.16486243903636932,0.11465883255004883,-0.6969384551048279,1.296402685489362,-0.6382118325521546,1.2588469532362063,-0.1614292412996292,-0.962589681148529,-0.2176276445388794
1729080401542,9i,4.539639275056742,0.3s : 0.3s,-43.48069057496919,5.590929602907555,2.4096161189248058,0.8033618710026673,0.3914337754249573,1.5557279586791992,-1.988095998764038,0.2235977053642273,0.29433315992355347,-0.7132757902145386,1.3111573128784275,-0.5529594618057344,1.1890451385039502,-0.13483737409114838,-0.9664826989173889,-0.2184717357158661
1729080401552,9i,4.539639275056742,0.3s : 0.3s,-43.48069057496919,5.589976824726738,2.0594364499711766,0.7796999403803829,0.5932694673538208,1.1726056337356567,-1.4488064050674438,0.25912320613861084,0.2469409704208374,-0.6926812529563904,1.324078262063934,-0.4928604583788469,1.1409741974711751,-0.11555328965187073,-0.9697191715240479,-0.21515576541423798
1729080401562,9i,4.539639275056742,0.3s : 0.3s,-43.48069057496919,5.589062009435891,1.7854506395291236,0.6857413493385303,0.2383287101984024,0.9785473942756653,-1.4051271677017212,0.241627037525177,-5.447864532470703e-05,-0.641761302947998,1.3343410424616233,-0.44007946657437386,1.097471869274299,-0.09979663789272308,-0.9721744656562805,-0.2119375318288803
1729080401572,9i,4.539639275056742,0.3s : 0.3s,-43.48069057496919,5.588141752345933,1.6699670458474287,0.639728010748525,-0.14958812296390533,1.0646148920059204,-1.8299695253372192,0.1613943874835968,-0.2785472869873047,-0.5528247356414795,1.3407913008050103,-0.3688674986155167,1.0346515513523955,-0.08220131695270538,-0.9736652374267578,-0.21264779567718506
1729080401582,9i,4.539639275056742,0.3s : 0.3s,-43.48069057496919,5.586901200867876,1.7058133018063468,0.7717862293861377,-0.4168475866317749,1.2236645221710205,-2.3989689350128174,0.06895941495895386,-0.5001797080039978,-0.5837112665176392,1.3448481390399267,-0.2669741966176094,0.9418616230342381,-0.05910228192806244,-0.9745821356773376,-0.2160934954881668
1729080401592,9i,4.539639275056742,0.3s : 0.3s,-43.48069057496919,5.585300498900734,1.781976300512441,0.8645687333787199,-0.7475757002830505,1.1675834655761719,-2.658841371536255,0.04902863875031471,-0.5750563740730286,-0.6437277793884277,1.3442279229264542,-0.14094935236616776,0.8250706483500381,-0.031557366251945496,-0.9744429588317871,-0.22240689396858215
1729080401602,9i,4.539639275056742,0.3s : 0.3s,-43.48069057496919,5.583574877384234,1.7739602551952762,0.821466431924749,-0.833443284034729,0.728284478187561,-2.4746432304382324,0.10955612361431122,-0.4609224200248718,-0.671085000038147,1.338185998249314,-0.018063386108007253,0.7088392585463813,-0.004163713194429874,-0.9730679988861084,-0.2304806113243103
1729080401612,9i,4.539639275056742,0.3s : 0.3s,-43.48069057496919,5.581919922701702,1.6375566556517163,0.7711271382243793,-0.6581904888153076,0.07282005250453949,-2.0106289386749268,0.17187151312828064,-0.3227232098579407,-0.6789307594299316,1.3299245469474745,0.07832379073352673,0.6138497927235309,0.01866494119167328,-0.97113037109375,-0.23781739175319672
1729080401622,9i,4.539639275056742,0.3s : 0.3s,-43.48069057496919,5.580328572388468,1.4343954538621781,0.7242483267500361,-0.46346795558929443,-0.4602850675582886,-1.5539766550064087,0.19482213258743286,-0.2704921364784241,-0.6429727673530579,1.322490494481288,0.14417821557472482,0.5438231585891549,0.035310883074998856,-0.9693301916122437,-0.24321198463439941
1729080401632,9i,4.539639275056742,0.3s : 0.3s,-43.48069057496919,5.578852857894194,1.2667440081249959,0.6963342791182566,-0.4304759204387665,-0.702345073223114,-1.3418785333633423,0.16282400488853455,-0.3378574848175049,-0.586704432964325,1.3158195554078371,0.19014713115616122,0.49014893442375645,0.047670941799879074,-0.9676691293716431,-0.24767674505710602
1729080401642,9i,4.539639275056742,0.3s : 0.3s,-43.48069057496919,5.577374773122391,1.1868203235700892,0.7239611573877094,-0.5871675610542297,-0.6678135991096497,-1.373648762702942,0.0820222795009613,-0.4763343930244446,-0.5389783382415771,1.3081745023078526,0.22908099615850325,0.4427247679810039,0.05895362049341202,-0.9657126665115356,-0.25283083319664
1729080401652,9i,4.539639275056742,0.3s : 0.3s,-43.48069057496919,5.575750561031685,1.1811227340396273,0.7519006051033795,-0.8629528284072876,-0.5904146432876587,-1.452101469039917,0.0006316080689430237,-0.5627541542053223,-0.4986600875854492,1.297647877964573,0.26636210544680156,0.397597971131758,0.0710083544254303,-0.9629263281822205,-0.26025113463401794
1729080401662,9i,4.539639275056742,0.3s : 0.3s,-43.48069057496919,5.574060916368611,1.172681848023258,0.712038457319004,-1.0219409465789795,-0.6084445714950562,-1.371381402015686,-0.042560040950775146,-0.5453399419784546,-0.4558418095111847,1.28456187835464,0.2989277461680939,0.3575797274086372,0.08314836770296097,-0.9593138694763184,-0.2698204815387726
1729080401672,9i,4.539639275056742,0.3s : 0.3s,-43.48069057496919,5.572182756795848,1.139027913487923,0.6537207681359208,-1.104171633720398,-0.7366212010383606,-1.0691951513290405,-0.039382003247737885,-0.47342294454574585,-0.4490775167942047,1.2706835291391572,0.32024154431194934,0.32837284981890646,0.09306236356496811,-0.9553031325340271,-0.2805978059768677
1729080401682,9i,4.539639275056742,0.3s : 0.3s,-43.48069057496919,5.570274040251802,1.0768732970435473,0.5409004654617788,-1.0846284627914429,-0.9181346893310547,-0.6715643405914307,-0.022958628833293915,-0.36105263233184814,-0.4021034836769104,1.257458420698017,0.3269022674612897,0.31275888201525553,0.09897786378860474,-0.9513100385665894,-0.29191210865974426
1729080401692,9i,4.539639275056742,0.3s : 0.3s,-43.48069057496919,5.568463259814943,0.9954044728939044,0.4110012791282485,-0.8329184055328369,-1.1210390329360962,-0.3302198052406311,-0.016604870557785034,-0.2546711564064026,-0.3221628963947296,1.2466873465316994,0.3214611852913744,0.3077543174275423,0.10061969608068466,-0.9479348659515381,-0.3021504878997803
1729080401702,9i,4.539639275056742,0.3s : 0.3s,-43.48069057496919,5.566787185259478,0.9276553421611735,0.36067869791111246,-0.5734074711799622,-1.2442399263381958,-0.15796105563640594,-0.017901405692100525,-0.23575836420059204,-0.2723722755908966,1.2393631378059518,0.30969052723624624,0.3076536795961426,0.09916965663433075,-0.9455769658088684,-0.30991843342781067
1729080401712,9i,4.539639275056742,0.3s : 0.3s,-43.48069057496919,5.565276763850183,0.8907823110276469,0.37098035531252294,-0.41938164830207825,-1.2466095685958862,-0.20340922474861145,-0.023906081914901733,-0.29830676317214966,-0.21924415230751038,1.234235062188527,0.2975739131857019,0.3072276862254071,0.09682777523994446,-0.9438958764076233,-0.315729022026062
1729080401722,9i,4.539639275056742,0.3s : 0.3s,-43.48069057496919,5.563858561361697,0.8724226115820704,0.4301418042759612,-0.42606592178344727,-1.1335713863372803,-0.36890751123428345,-0.05171336978673935,-0.38866323232650757,-0.17688581347465515,1.2294805306304657,0.2900115268984991,0.30259679752078317,0.09571965783834457,-0.9423150420188904,-0.32074910402297974
1729080401732,9i,4.539639275056742,0.3s : 0.3s,-43.48069057496919,5.562457862175121,0.865544871420201,0.45239735335829917,-0.5971031785011292,-1.0040671825408936,-0.47916850447654724,-0.07865643501281738,-0.41845470666885376,-0.15287965536117554,1.223450064316345,0.2868953411087003,0.2945815305510349,0.0963260605931282,-0.9402793645858765,-0.32649052143096924
1729080401742,9i,4.539639275056742,0.3s : 0.3s,-43.48069057496919,5.561113770719076,0.8707430433762529,0.4113520179595448,-0.8502703309059143,-0.9237730503082275,-0.454694926738739,-0.0854937881231308,-0.38526588678359985,-0.11606675386428833,1.2151651690798886,0.28414791533741507,0.28730377375308985,0.09760921448469162,-0.9374269247055054,-0.33422020077705383
1729080401752,9i,4.539639275056742,0.3s : 0.3s,-43.48069057496919,5.559894884333806,0.8750979439724471,0.3527651041906621,-1.0360058546066284,-0.8388406038284302,-0.30566444993019104,-0.0739501565694809,-0.3348843455314636,-0.08262607455253601,1.2049972815106378,0.27813980425182455,0.28427967858737535,0.09821159392595291,-0.9338382482528687,-0.34394872188568115
1729080401762,9i,4.539639275056742,0.3s : 0.3s,-43.48069057496919,5.5588074048549165,0.8694316447874842,0.32233839167483475,-1.2002923488616943,-0.67238849401474,-0.06278813630342484,-0.055640317499637604,-0.30536675453186035,-0.0869329571723938,1.193749277252077,0.2674862728415071,0.2876117975987203,0.09731201827526093,-0.9297558665275574,-0.3550836741924286
1729080401772,9i,4.539639275056742,0.3s : 0.3s,-43.48069057496919,5.5578889168074355,0.8649646320692785,0.2782776330525923,-1.2772659063339233,-0.5453376173973083,0.1746574342250824,-0.02634143829345703,-0.26225006580352783,-0.0892719030380249,1.1818547078950288,0.25207130835352065,0.29773807320641044,0.09457868337631226,-0.9253109097480774,-0.3672253489494324
1729080401782,9i,4.539639275056742,0.3s : 0.3s,-43.48069057496919,5.557223673013371,0.8555678345604534,0.21846008441828868,-1.1949000358581543,-0.5025338530540466,0.3329507112503052,0.008395180106163025,-0.20939737558364868,-0.061701446771621704,1.1703761628686435,0.23361319622294685,0.31211287942272375,0.0902375653386116,-0.9208973050117493,-0.3792165517807007
1729080401791,9i,4.539639275056742,0.3s : 0.3s,-43.48069057496919,5.556875623590041,0.8196926267184057,0.16360498727491804,-0.9399362206459045,-0.5423081517219543,0.36922428011894226,0.04140010476112366,-0.15598583221435547,-0.02685225009918213,1.1607154417935808,0.21470346686388722,0.3270489356408389,0.08494262397289276,-0.9170885682106018,-0.3895297050476074
1729080401801,9i,4.539639275056742,0.3s : 0.3s,-43.48069057496919,5.556829191868486,0.7540462168981952,0.14908127710348046,-0.6419288516044617,-0.6026395559310913,0.2963002324104309,0.07060837745666504,-0.12810319662094116,-0.028796792030334473,1.1537032716250306,0.19770028089530164,0.3393824700217773,0.07956857234239578,-0.9142704010009766,-0.3972133994102478
1729080401811,9i,4.539639275056742,0.3s : 0.3s,-43.48069057496919,5.557046610536188,0.6766521654595561,0.14645848229640895,-0.4009665548801422,-0.6682510375976562,0.14718160033226013,0.09178110212087631,-0.10902851819992065,-0.03375053405761719,1.1490601701448413,0.18417803898940516,0.3472495039734296,0.0749669000506401,-0.9123796224594116,-0.40242207050323486
1729080401821,9i,4.539639275056742,0.3s : 0.3s,-43.48069057496919,5.557479946517258,0.6025856389334189,0.13413740744079064,-0.22549127042293549,-0.6974009275436401,-0.012076955288648605,0.0956774428486824,-0.09226042032241821,-0.018074452877044678,1.1461584141800867,0.17465101932951135,0.3501867157418624,0.07158935070037842,-0.9111879467964172,-0.4057231843471527
1729080401831,9i,4.539639275056742,0.3s : 0.3s,-43.48069057496919,5.558076283228495,0.546893130345375,0.12532252140211927,-0.1230892762541771,-0.7060610055923462,-0.11422516405582428,0.09537981450557709,-0.08092284202575684,-0.00774073600769043,1.1443480951972136,0.16842598297372766,0.349342665947732,0.06933876127004623,-0.9104406237602234,-0.40778666734695435
1729080401841,9i,4.539639275056742,0.3s : 0.3s,-43.48069057496919,5.558734349945249,0.5125623489206442,0.12790095644961552,-0.04235561192035675,-0.7179188132286072,-0.18997828662395477,0.08883234113454819,-0.09080559015274048,0.014893442392349243,1.1432912857605382,0.164377965923001,0.3459686033356142,0.06784484535455704,-0.9100030064582825,-0.40901273488998413
1729080401851,9i,4.539639275056742,0.3s : 0.3s,-43.48069057496919,5.55941874596422,0.5058192710442372,0.13472862850528972,-0.020672421902418137,-0.7083985805511475,-0.22777493298053741,0.07119379192590714,-0.11137598752975464,0.026050657033920288,1.1426622647402689,0.16161509856250833,0.3411664745036293,0.06680662930011749,-0.909741997718811,-0.40976348519325256
1729080401861,9i,4.539639275056742,0.3s : 0.3s,-43.48069057496919,5.560107575541966,0.4807332630158463,0.13682490693446298,-0.010366654954850674,-0.6417965292930603,-0.24719396233558655,0.0500887930393219,-0.12415528297424316,0.028242409229278564,1.1421296891911772,0.15994258318934745,0.3355600230650667,0.06619837880134583,-0.9095208048820496,-0.41035306453704834
1729080401871,9i,4.539639275056742,0.3s : 0.3s,-43.48069057496919,5.560770579703661,0.45361573945979045,0.1303332960070349,-0.06937431544065475,-0.5519811511039734,-0.22558985650539398,0.03157288581132889,-0.126359224319458,0.004823625087738037,1.141380114273147,0.15899022494596504,0.33006139425470193,0.06591545790433884,-0.9092089533805847,-0.4110889136791229
1729080401881,9i,4.539639275056742,0.3s : 0.3s,-43.48069057496919,5.561362104528027,0.42479132961809735,0.10819701492969247,-0.12509962916374207,-0.4897558391094208,-0.1778457760810852,0.02602405846118927,-0.10495108366012573,0.003822624683380127,1.1400628504539738,0.15785127104897098,0.3251821824199486,0.06563543528318405,-0.9086597561836243,-0.4123462438583374
1729080401891,9i,4.539639275056742,0.3s : 0.3s,-43.48069057496919,5.561921007232822,0.388476203544692,0.1023283738342835,-0.12528444826602936,-0.42751938104629517,-0.08398453891277313,0.0372343435883522,-0.09529727697372437,-0.0017688274383544922,1.1386277513035514,0.15570807246887383,0.32213673458886194,0.06495371460914612,-0.9080595970153809,-0.4137738347053528
1729080401901,9i,4.539639275056742,0.3s : 0.3s,-43.48069057496919,5.562479029790366,0.35676696040353945,0.1099781436278749,-0.11087781935930252,-0.4124850332736969,-0.016467276960611343,0.057091258466243744,-0.09214562177658081,-0.018573224544525146,1.1373742722016693,0.15214507197051874,0.32111573848317215,0.06365148723125458,-0.9075338840484619,-0.41512739658355713
1729080401911,9i,4.539639275056742,0.3s : 0.3s,-43.48069057496919,5.563050109361774,0.3315653404948769,0.10558848574808752,-0.06815005838871002,-0.4062716066837311,-0.009097244590520859,0.06645022332668304,-0.08166980743408203,-0.007958561182022095,1.1364502783270742,0.14793967375285821,0.32085363972355607,0.06202871724963188,-0.9071454405784607,-0.4162205457687378
1729080401921,9i,4.539639275056742,0.3s : 0.3s,-43.48069057496919,5.563651395042481,0.30778511790021135,0.09220502406020122,-0.0023481431417167187,-0.3807167112827301,-0.047701895236968994,0.061194323003292084,-0.06799376010894775,0.011570215225219727,1.1360616293797523,0.14446237342299081,0.32005614226028667,0.06063178926706314,-0.9069818258285522,-0.4167827069759369
1729080401931,9i,4.539639275056742,0.3s : 0.3s,-43.48069057496919,5.564269874550792,0.2913975508381082,0.08341050987142935,0.04244063422083855,-0.3753107488155365,-0.10195475071668625,0.04512133449316025,-0.059071481227874756,0.037840962409973145,1.1361604577457505,0.14230972281079352,0.317984566470968,0.05972175672650337,-0.9070234298706055,-0.4168235659599304
1729080401941,9i,4.539639275056742,0.3s : 0.3s,-43.48069057496919,5.564888688694824,0.2792832501663278,0.09235738868116646,0.07488645613193512,-0.36115872859954834,-0.12658952176570892,0.03023536503314972,-0.0674085021018982,0.055423855781555176,1.1365819614571826,0.14125165026583922,0.31475502771641484,0.05922685191035271,-0.907200813293457,-0.41650789976119995
1729080401951,9i,4.539639275056742,0.3s : 0.3s,-43.48069057496919,5.565503827558243,0.26051730433237336,0.11114008115063033,0.03065854124724865,-0.30919671058654785,-0.09669926762580872,0.02139541134238243,-0.08948826789855957,0.0623394250869751,1.137052967858257,0.14049174379129759,0.31158564812295364,0.05885050445795059,-0.9073988795280457,-0.4161297678947449
1729080401961,9i,4.539639275056742,0.3s : 0.3s,-43.48069057496919,5.566116383697363,0.23228073983679723,0.12578711437151313,-0.11052528023719788,-0.24240873754024506,-0.03193308413028717,0.019135091453790665,-0.10423988103866577,0.06775170564651489,1.1365897803766192,0.1390734512591196,0.3098365243710237,0.05831846594810486,-0.9072041511535645,-0.41662871837615967
1729080401971,9i,4.539639275056742,0.3s : 0.3s,-43.48069057496919,5.566747613561316,0.20656322138675037,0.13072458931987035,-0.23935750126838684,-0.18269507586956024,0.03833991289138794,0.026179838925600052,-0.10011821985244751,0.07987412810325623,1.1348200975085383,0.13636436175835145,0.31020378620369055,0.057407740503549576,-0.9064581990242004,-0.418375164270401
1729080401981,9i,4.539639275056742,0.3s : 0.3s,-43.48069057496919,5.567400643876075,0.19386975092832692,0.12078100114364551,-0.3153088688850403,-0.12386548519134521,0.10910656303167343,0.04365444555878639,-0.08698886632919312,0.07152116298675537,1.1321341567742025,0.13245286768995426,0.31253076418398873,0.056092195212841034,-0.9053207039833069,-0.42100852727890015
1729080401991,9i,4.539639275056742,0.3s : 0.3s,-43.48069057496919,5.568083029533017,0.1931963056953378,0.10104043517441909,-0.28701943159103394,-0.10915524512529373,0.17817404866218567,0.062898650765419,-0.05552065372467041,0.05630618333816528,1.129279469159085,0.12746372318516552,0.3164505567875316,0.054319318383932114,-0.9041045308113098,-0.42384469509124756
1729080402001,9i,4.539639275056742,0.3s : 0.3s,-43.48069057496919,5.568806974027238,0.1959963725885369,0.09891918260041,-0.15511910617351532,-0.19946108758449554,0.21385778486728668,0.08346153795719147,0.0001170039176940918,0.05309578776359558,1.1272579222424532,0.12119898745647721,0.3213991170524151,0.05188386142253876,-0.903238832950592,-0.42599010467529297
1729080402011,9i,4.539639275056742,0.3s : 0.3s,-43.48069057496919,5.569576980663972,0.19864596521573058,0.11978639184669583,0.05394568666815758,-0.31689369678497314,0.22104884684085846,0.09569741785526276,0.048966169357299805,0.052849769592285156,1.1270225700823382,0.1139137699379484,0.32629300455040106,0.04880325496196747,-0.9031378030776978,-0.42656806111335754
1729080402021,9i,4.539639275056742,0.3s : 0.3s,-43.48069057496919,5.570410561148649,0.21466350141676585,0.12051877716876692,0.18361173570156097,-0.3789623975753784,0.19393916428089142,0.10467475652694702,0.05221372842788696,0.029012024402618408,1.1285116443372865,0.10633419346795908,0.3304672150687104,0.045425895601511,-0.9037761688232422,-0.4255879819393158
1729080402031,9i,4.539639275056742,0.3s : 0.3s,-43.48069057496919,5.571274517734657,0.22903671326421288,0.10725752102512603,0.17045065760612488,-0.3708416223526001,0.12670393288135529,0.10212038457393646,0.02545297145843506,0.020682096481323242,1.1305197522597974,0.0995686225375367,0.33345631695326566,0.04236502945423126,-0.9046338200569153,-0.42407873272895813
1729080402041,9i,4.539639275056742,0.3s : 0.3s,-43.48069057496919,5.572156887288511,0.22813555142994613,0.09402626054101611,0.05405294895172119,-0.323434978723526,0.07300008833408356,0.08655927330255508,0.0005154609680175781,0.036717355251312256,1.1317635218042574,0.09427200031991205,0.3352168189560083,0.04001232609152794,-0.9051632285118103,-0.4231767952442169
1729080402051,9i,4.539639275056742,0.3s : 0.3s,-43.48069057496919,5.573055596947437,0.2175052349690777,0.0971999318283714,-0.0856197252869606,-0.28390565514564514,0.06290377676486969,0.07232314348220825,-0.009068608283996582,0.06430357694625854,1.1316522170135552,0.08985177961156483,0.3365056255492006,0.03815043717622757,-0.9051159024238586,-0.4234497547149658
1729080402061,9i,4.539639275056742,0.3s : 0.3s,-43.48069057496919,5.573966131675252,0.21332523668360787,0.10123363713474776,-0.2107996791601181,-0.24647386372089386,0.07508298009634018,0.06235494837164879,-0.018078863620758057,0.07767409086227417,1.130236937692956,0.08549635989059882,0.3381198329939293,0.036415137350559235,-0.9045132398605347,-0.42488789558410645
1729080402071,9i,4.539639275056742,0.3s : 0.3s,-43.48069057496919,5.575322622623762,0.776285687263153,0.37615785536733193,2.5270345211029053,-2.200875997543335,0.3084041178226471,0.057687900960445404,-0.08775746822357178,0.3612000346183777,1.143503726021783,0.05294934185930363,0.3369129338049229,0.02193240448832512,-0.9100910425186157,-0.41382768750190735
1729080402081,9i,4.539639275056742,0.3s : 0.3s,-43.48069057496919,5.577535950478604,0.604314214328942,0.4838318414488389,-1.2077648639678955,-0.12735502421855927,1.6216024160385132,0.34488335251808167,-0.3224063515663147,0.10584360361099243,1.1485037288735473,0.026649397397632904,0.3568715983497449,0.010921034961938858,-0.9121516942977905,-0.4097071886062622
1729080402091,9i,4.539639275056742,0.3s : 0.3s,-43.48069057496919,5.578785781567878,0.5351805366827133,0.42237420181100416,-0.9900684952735901,-0.25200510025024414,0.47868776321411133,0.0019833671394735575,0.39441579580307007,-0.15110331773757935,1.1354630642515522,-0.00202571589296612,0.38709948427958624,-0.0008542691939510405,-0.9067295789718628,-0.42171165347099304
1729080402101,9i,4.539639275056742,0.3s : 0.3s,-43.48069057496919,5.5785676868184515,0.31773404003357036,0.4566585970195969,-0.024457506835460663,0.3495791256427765,-0.09999482333660126,-0.4149134159088135,0.14048564434051514,0.12902602553367615,1.1315870919430564,-0.006611266990426577,0.39069454381649626,-0.002811247017234564,-0.9050881862640381,-0.42521440982818604
1729080402111,9i,4.539639275056742,0.3s : 0.3s,-43.48069057496919,5.577827688304094,0.18231896137031087,0.24306349641750902,-0.029964391142129898,0.990796685218811,-0.1121140718460083,-0.11718349903821945,0.16345840692520142,-0.13648897409439087,1.130996938874196,0.005438042956646535,0.3869277571008585,0.0023152786307036877,-0.9048370718955994,-0.425751656293869
1729080402121,9i,4.539639275056742,0.3s : 0.3s,-43.48069057496919,5.578080155065341,0.21149149047921037,0.23219097177957948,0.24098895490169525,0.14902418851852417,0.4440028965473175,0.1945982128381729,0.0040184855461120605,0.12660187482833862,1.1323950450257472,0.006319608568213456,0.39111442179098777,0.002682608785107732,-0.9054314494132996,-0.4244840443134308
1729080402131,9i,4.539639275056742,0.3s : 0.3s,-43.48069057496919,5.5792356713444375,0.25896308867376233,0.309591892276338,0.19842737913131714,-0.14141510426998138,0.5861222147941589,0.2941153645515442,-0.0820205807685852,0.05114603042602539,1.1346048704886433,-0.005495025800087308,0.40403069439616524,-0.002321583451703191,-0.906367301940918,-0.4224839508533478
1729080402141,9i,4.539639275056742,0.3s : 0.3s,-43.48069057496919,5.580751667838086,0.24564711819419813,0.21585332165251278,0.10183065384626389,-0.2979821562767029,0.19470764696598053,0.20057010650634766,-0.04874753952026367,0.06315034627914429,1.1361818855527561,-0.01705360587401808,0.4139084089974284,-0.007180256303399801,-0.9070324301719666,-0.42099955677986145
1729080402151,9i,4.539639275056742,0.3s : 0.3s,-43.48069057496919,5.582163214449062,0.1400284163229195,0.1019391576672725,-0.16781440377235413,-0.3219386041164398,-0.2135770469903946,0.0878979042172432,-0.03709989786148071,0.03590470552444458,1.1358316972473232,-0.01975402801667581,0.4132298645707572,-0.008323374204337597,-0.9068849682807922,-0.4212959408760071
1729080402161,9i,4.539639275056742,0.3s : 0.3s,-43.48069057496919,5.583318035773254,0.13142747613480957,0.05164694035167195,-0.19891026616096497,-0.3816688656806946,-0.26297321915626526,0.050676632672548294,0.0016338229179382324,0.009829342365264893,1.1338608745744954,-0.017711086289321346,0.4069313885603551,-0.007494315970689058,-0.9060527086257935,-0.4230984151363373
1729080402171,9i,4.539639275056742,0.3s : 0.3s,-43.48069057496919,5.5843637263131525,0.18962497536401732,0.07181648162848943,-0.0857674703001976,-0.4970923960208893,-0.07845505326986313,0.0700414702296257,0.013876020908355713,-0.007697761058807373,1.132467614661496,-0.018416893263229338,0.40259847304235047,-0.00781618244946003,-0.9054622650146484,-0.4243548810482025
1729080402181,9i,4.539639275056742,0.3s : 0.3s,-43.48069057496919,5.585366939932379,0.23175406656452394,0.08230110388371056,-0.01461745984852314,-0.48969149589538574,0.11715343594551086,0.07423321157693863,0.02824479341506958,-0.021566957235336304,1.1319885569995276,-0.02406350363052216,0.4030688001031211,-0.010222642682492733,-0.90525883436203,-0.4247373640537262
1729080402191,9i,4.539639275056742,0.3s : 0.3s,-43.48069057496919,5.586293559435015,0.23762226940228917,0.07425222552172159,0.0065962160006165504,-0.3502401113510132,0.18015903234481812,0.04819123074412346,0.03277093172073364,-0.04601156711578369,1.1319393847472299,-0.03168833262507826,0.4065769480909003,-0.013462274335324764,-0.9052379727363586,-0.4246915876865387
1729080402201,9i,4.539639275056742,0.3s : 0.3s,-43.48069057496919,5.587077798319051,0.22189516670576329,0.06279014158421112,-0.006482501048594713,-0.24301335215568542,0.1531108021736145,0.01918346807360649,0.021570265293121338,-0.05576127767562866,1.131865786947985,-0.038184341608351983,0.4103213142744085,-0.01622331514954567,-0.9052066802978516,-0.4246617555618286
1729080402211,9i,4.539639275056742,0.3s : 0.3s,-43.48069057496919,5.587734719135221,0.21675867496837145,0.05042108935076711,-0.017591344192624092,-0.26792004704475403,0.1299934983253479,0.021664772182703018,0.00010782480239868164,-0.04552924633026123,1.1316660175328312,-0.04368597856444673,0.41348307433192905,-0.018567288294434547,-0.9051217436790466,-0.42474669218063354
1729080402221,9i,4.539639275056742,0.3s : 0.3s,-43.48069057496919,5.588365071645566,0.22506199078287276,0.06355634192331129,-0.007338241208344698,-0.3412071168422699,0.12841661274433136,0.050887756049633026,-0.025265276432037354,-0.028487026691436768,1.1314918561570628,-0.0494219687164823,0.4163214860460127,-0.021011095494031906,-0.9050477147102356,-0.4247905910015106
1729080402231,9i,4.539639275056742,0.3s : 0.3s,-43.48069057496919,5.589003473717654,0.24492749875909497,0.07645374827754711,0.011401623487472534,-0.4224953353404999,0.10909271240234375,0.06808845698833466,-0.03477120399475098,0.0003178417682647705,1.131456727880744,-0.055786348681603495,0.4189688947949372,-0.023715956136584282,-0.905032753944397,-0.42468002438545227
1729080402241,9i,4.539639275056742,0.3s : 0.3s,-43.48069057496919,5.589654328785547,0.2647062051491514,0.0741358391669929,0.00506236869841814,-0.45796331763267517,0.08634579181671143,0.0651429146528244,-0.030621111392974854,0.017744600772857666,1.1315279451082128,-0.06229891701384661,0.42109907011186665,-0.026477187871932983,-0.9050630331039429,-0.42445239424705505
1729080402251,9i,4.539639275056742,0.3s : 0.3s,-43.48069057496919,5.59029802812511,0.2781616652555402,0.05590833907890716,-0.012664697133004665,-0.45092669129371643,0.09875798225402832,0.04738599807024002,-0.023825883865356445,0.017681539058685303,1.1314321191670766,-0.0687672835639678,0.4230802763133018,-0.0292280912399292,-0.9050222635269165,-0.4243588149547577
1729080402261,9i,4.539639275056742,0.3s : 0.3s,-43.48069057496919,5.590887676634041,0.28658136148581115,0.035435195218646916,-0.010766927152872086,-0.44302865862846375,0.10890169441699982,0.028569955378770828,-0.017388105392456055,0.011707454919815063,1.1312136056465403,-0.07545320422167309,0.42538177772433267,-0.032079536467790604,-0.9049293398857117,-0.42435088753700256
1729080402271,9i,4.539639275056742,0.3s : 0.3s,-43.48069057496919,5.591401139817776,0.29142954102111257,0.02686409881291445,0.026122113689780235,-0.4404115676879883,0.1299140304327011,0.011799152940511703,-0.012625932693481445,0.02056807279586792,1.1311811663406726,-0.08238590682191523,0.4280047504104097,-0.035023078322410583,-0.9049155116081238,-0.4241478145122528
1729080402281,9i,4.539639275056742,0.3s : 0.3s,-43.48069057496919,5.591841089652239,0.2962383553042149,0.01866266385847425,0.06732440739870071,-0.43688517808914185,0.155549094080925,0.006404634565114975,-0.0017985105514526367,0.01743677258491516,1.1315247740667436,-0.08984577963158695,0.43126042641773105,-0.03815823048353195,-0.9050617218017578,-0.42356470227241516
1729080402291,9i,4.539639275056742,0.3s : 0.3s,-43.48069057496919,5.592247861588935,0.30296618836012706,0.02006489993624406,0.10842178016901016,-0.43717148900032043,0.17247959971427917,0.008029326796531677,0.013239085674285889,0.012761533260345459,1.132225359518559,-0.09790162747891311,0.43517300532042014,-0.041507165879011154,-0.9053594470024109,-0.42261266708374023
1729080402301,9i,4.539639275056742,0.3s : 0.3s,-43.48069057496919,5.592621932237755,0.31123266788361337,0.023427825472426743,0.13765989243984222,-0.4459192454814911,0.17636147141456604,0.01001022383570671,0.021148383617401123,-0.0011850297451019287,1.133280697930477,-0.10626238976736396,0.43940724091542216,-0.04493764787912369,-0.9058070778846741,-0.42130032181739807
1729080402311,9i,4.539639275056742,0.3s : 0.3s,-43.48069057496919,5.592967809296921,0.31541757664302433,0.024958401146138523,0.1502625048160553,-0.44254475831985474,0.16660737991333008,0.010975673794746399,0.022411048412322998,-0.00044864416122436523,1.134533843282874,-0.11469742827570989,0.443649710954407,-0.04835975542664528,-0.906337320804596,-0.41977840662002563
1729080402321,9i,4.539639275056742,0.3s : 0.3s,-43.48069057496919,5.593286020704293,0.32137562764754524,0.026202970450256415,0.16692204773426056,-0.44790568947792053,0.16870734095573425,0.011239178478717804,0.02299100160598755,-0.005629420280456543,1.135872378568151,-0.123099573136692,0.4478799862608902,-0.05173604562878609,-0.9069020748138428,-0.41815298795700073
1729080402331,9i,4.539639275056742,0.3s : 0.3s,-43.48069057496919,5.59357901304496,0.3310939984579305,0.03390622662722841,0.1911648064851761,-0.4691571891307831,0.15763737261295319,0.010487742722034454,0.03206372261047363,-0.003399580717086792,1.1374172532696931,-0.13159948187080214,0.452061654341203,-0.05510448291897774,-0.9075519442558289,-0.4163087010383606
1729080402341,9i,4.539639275056742,0.3s : 0.3s,-43.48069057496919,5.593844830400916,0.3388033721269177,0.04431382189879041,0.21359999477863312,-0.4704150855541229,0.1402270644903183,0.0084042027592659,0.04298973083496094,-0.006705760955810547,1.139202626998885,-0.14004477890396108,0.456047846275082,-0.058392032980918884,-0.9083002209663391,-0.41422319412231445
1729080402350,9i,4.539639275056742,0.3s : 0.3s,-43.48069057496919,5.594067687610822,0.3436919119414638,0.05597326686223945,0.24030724167823792,-0.4701029658317566,0.11174721270799637,0.013062167912721634,0.053204238414764404,-0.011475861072540283,1.141265411909752,-0.14820535339825847,0.4596835552418708,-0.061493609100580215,-0.9091612100601196,-0.411879301071167
1729080402360,9i,4.539639275056742,0.3s : 0.3s,-43.48069057496919,5.594253296406461,0.35456778662532606,0.07076312147441954,0.25535470247268677,-0.5035417675971985,0.086388498544693,0.018790818750858307,0.06767326593399048,-0.00864022970199585,1.1435885583426044,-0.15602523524270392,0.4627703451939671,-0.06438412517309189,-0.9101262092590332,-0.4092980623245239
1729080402370,9i,4.539639275056742,0.3s : 0.3s,-43.48069057496919,5.594427479687921,0.37084569546446683,0.0864678979335813,0.2556612193584442,-0.5553887486457825,0.05544815585017204,0.02404424548149109,0.08273863792419434,-0.007272511720657349,1.1460005245621105,-0.16373782609376605,0.4653123618590452,-0.06718087941408157,-0.9111229181289673,-0.40662214159965515
1729080402380,9i,4.539639275056742,0.3s : 0.3s,-43.48069057496919,5.594586261789755,0.38300997316071617,0.08321743403250166,0.24153482913970947,-0.5703820586204529,0.009186021983623505,0.023403391242027283,0.0781092643737793,-0.016624242067337036,1.148399026957613,-0.17099914764792726,0.46691742122341484,-0.06975962966680527,-0.9121087789535522,-0.40396901965141296
1729080402390,9i,4.539639275056742,0.3s : 0.3s,-43.48069057496919,5.5947233491235,0.3899891196027434,0.07310986048246056,0.19706909358501434,-0.5806450843811035,-0.03195821866393089,0.013515636324882507,0.06500542163848877,-0.03060513734817505,1.1505716050825567,-0.1773072693350061,0.46739760692511445,-0.07195685058832169,-0.912997305393219,-0.4015696048736572
1729080402400,9i,4.539639275056742,0.3s : 0.3s,-43.48069057496919,5.594836571160598,0.3955517539253253,0.06928363845746154,0.1606808602809906,-0.5951886773109436,-0.06601092964410782,0.005102172493934631,0.06547296047210693,-0.022078990936279297,1.1523945891339171,-0.1827224810338056,0.46669653154937657,-0.07382781058549881,-0.9137395024299622,-0.399536669254303
1729080402410,9i,4.539639275056742,0.3s : 0.3s,-43.48069057496919,5.594920922364785,0.39968420751007144,0.07840179101575619,0.17870353162288666,-0.5923439264297485,-0.05621608719229698,0.001039348542690277,0.07330828905105591,-0.027778685092926025,1.1541445453435089,-0.18793137690050257,0.465742106600166,-0.07560912519693375,-0.9144490957260132,-0.39757540822029114
1729080402420,9i,4.539639275056742,0.3s : 0.3s,-43.48069057496919,5.594951146840744,0.4195187987072846,0.09245048691793196,0.2422892302274704,-0.6498665809631348,-0.04579576849937439,-0.0010893121361732483,0.09004068374633789,-0.020942330360412598,1.1562825326553803,-0.19392967123652685,0.4653506025439852,-0.07761557400226593,-0.9153122305870056,-0.3951954245567322
1729080402430,9i,4.539639275056742,0.3s : 0.3s,-43.48069057496919,5.594946639727315,0.4522575523885174,0.10113024442709638,0.33371901512145996,-0.7134072184562683,-0.07806875556707382,-0.0050296783447265625,0.10099911689758301,0.0010986626148223877,1.1592159829679425,-0.20068599915382085,0.46509234498356844,-0.07974819839000702,-0.9164897203445435,-0.3920288383960724
1729080402440,9i,4.539639275056742,0.3s : 0.3s,-43.48069057496919,5.594918038046393,0.48871631828007495,0.09879268165541019,0.38538846373558044,-0.7579343318939209,-0.13144443929195404,-0.012331515550613403,0.09793680906295776,0.004038453102111816,1.1629820137686362,-0.20742768875264278,0.46423075783716056,-0.08167795091867447,-0.9179898500442505,-0.3881022036075592
1729080402450,9i,4.539639275056742,0.3s : 0.3s,-43.48069057496919,5.594875122612704,0.5171246812821577,0.08470877574586483,0.34097760915756226,-0.7800718545913696,-0.2056417018175125,-0.018586114048957825,0.0813412070274353,0.014619886875152588,1.16693979445914,-0.21307256101832953,0.4619927698551725,-0.08309851586818695,-0.9195523262023926,-0.38408106565475464
1729080402460,9i,4.539639275056742,0.3s : 0.3s,-43.48069057496919,5.5948171448351625,0.5297625531047984,0.06222670990016414,0.23631563782691956,-0.7720988392829895,-0.2452349066734314,-0.025509744882583618,0.05297940969467163,0.02036169171333313,1.170263795822046,-0.21706412060225241,0.45771551795986254,-0.08397211879491806,-0.9208534955978394,-0.38075903058052063
1729080402470,9i,4.539639275056742,0.3s : 0.3s,-43.48069057496919,5.594722096646301,0.5293170223958756,0.03881068188552382,0.10825007408857346,-0.7596898078918457,-0.24931380152702332,-0.02869342267513275,0.016340136528015137,0.020395010709762573,1.1724926715261696,-0.219858367357483,0.4522649411923045,-0.08458786457777023,-0.9217202663421631,-0.37851881980895996
1729080402480,9i,4.539639275056742,0.3s : 0.3s,-43.48069057496919,5.594616118319331,0.5255768543137328,0.044652054576695,0.012032460421323776,-0.7374231219291687,-0.23195333778858185,-0.033966682851314545,-0.011937260627746582,0.026411592960357666,1.173588284521735,-0.22203535433430485,0.4463262358324698,-0.08518926799297333,-0.9221446514129639,-0.37734848260879517
1729080402490,9i,4.539639275056742,0.3s : 0.3s,-43.48069057496919,5.594495655336967,0.5072260100893043,0.04612678187189992,-0.04935846105217934,-0.701991856098175,-0.19449490308761597,-0.035453155636787415,-0.02311497926712036,0.01834261417388916,1.1738433399823993,-0.2241386865430466,0.4406489473757869,-0.08593056350946426,-0.9222432971000671,-0.37693947553634644
1729080402500,9i,4.539639275056742,0.3s : 0.3s,-43.48069057496919,5.594360709208978,0.49123467316972264,0.04191071446351442,-0.08713880181312561,-0.679394006729126,-0.16064129769802094,-0.03624340891838074,-0.008931517601013184,0.0190565288066864,1.1735482039744425,-0.22653620860914087,0.43563768638601175,-0.08689507842063904,-0.9221291542053223,-0.3769972026348114
1729080402510,9i,4.539639275056742,0.3s : 0.3s,-43.48069057496919,5.594210802382316,0.47797241739219903,0.04069593562243929,-0.0852503553032875,-0.6616799831390381,-0.1323670595884323,-0.03481363505125046,0.014319539070129395,0.015463531017303467,1.1730274437297092,-0.22935185232962077,0.4312726197018528,-0.08806545287370682,-0.9219275116920471,-0.37721893191337585
