timestamp,club,max_speed,tempo,speed,acc,rotation.x,rotation.y,rotation.z,userAcceleration.x,userAcceleration.y,userAcceleration.z,pitch,roll,yaw,gravity.x,gravity.y,gravity.z
1727296963231,7i,8.7005390429913,2.0s : 9.4s,0.09143877512689719,0.016967640588857125,-0.6548905968666077,-0.13647206127643585,0.04431190341711044,-0.015315890312194824,0.0050799548625946045,-0.005245797336101532,-0.2579328713049094,1.4934845403399473,0.23891401682430266,0.9640309810638428,0.2550823390483856,-0.07467980682849884
1727296963241,7i,8.7005390429913,2.0s : 9.4s,0.14764529482559768,0.03345438738747884,-0.6466984152793884,-0.14188706874847412,0.0499948225915432,-0.021797597408294678,0.020021021366119385,-0.015595495700836182,-0.25799319144911625,1.4938517237787756,0.24568427988539626,0.9640430212020874,0.25514066219329834,-0.07432464510202408
1727296963251,7i,8.7005390429913,2.0s : 9.4s,0.17698796057765523,0.03035495468788863,-0.6694451570510864,-0.1448388695716858,0.05291494354605675,-0.007268369197845459,0.027156174182891846,-0.011451475322246552,-0.25798356199668737,1.4941909157894209,0.2524747478445753,0.9640706181526184,0.2551313638687134,-0.07399783283472061
1727296963261,7i,8.7005390429913,2.0s : 9.4s,0.1941828792681296,0.022477157647668035,-0.69711834192276,-0.14883548021316528,0.0402367003262043,0.0004394054412841797,0.020978420972824097,-0.008058249950408936,-0.2580446246493737,1.4945793382062498,0.2596037904819581,0.9640838503837585,0.2551904022693634,-0.07362218201160431
1727296963271,7i,8.7005390429913,2.0s : 9.4s,0.21053096874488544,0.018269257242181883,-0.7206028699874878,-0.16163018345832825,0.03027501329779625,-0.011373937129974365,0.01397174596786499,0.0030314400792121887,-0.25825274955185856,1.4949269586111908,0.2669326473162078,0.9640562534332275,0.2553916275501251,-0.07328300178050995
1727296963281,7i,8.7005390429913,2.0s : 9.4s,0.25210052179297204,0.024517643506078764,-0.7504318356513977,-0.40114691853523254,0.5822814106941223,-0.016291379928588867,0.01738959550857544,0.00577128678560257,-0.2578898453223351,1.4949728770065633,0.27458784635038064,0.964151918888092,0.2550407350063324,-0.07324574887752533
1727296963291,7i,8.7005390429913,2.0s : 9.4s,0.32214039728028476,0.02771311988433815,-0.9063584804534912,-0.5356645584106445,1.2113767862319946,-0.013954341411590576,0.021076321601867676,0.01136142760515213,-0.2583852008163829,1.4956220748456759,0.28268694514583365,0.9640732407569885,0.25551968812942505,-0.07261031121015549
1727296963301,7i,8.7005390429913,2.0s : 9.4s,0.34478755923515203,0.028773046070342423,-0.9239159226417542,-0.33189862966537476,0.5069779753684998,-0.006621658802032471,-0.011653423309326172,0.02546054869890213,-0.25892148419904054,1.4967669171610762,0.29161800213514777,0.9640190601348877,0.2560381293296814,-0.07149641960859299
1727296963311,7i,8.7005390429913,2.0s : 9.4s,0.3106594509540061,0.060594952308052036,-0.8662028312683105,-0.13357116281986237,0.031925808638334274,0.009501397609710693,-0.02355942130088806,0.05501295626163483,-0.25876790985266307,1.4975811261022762,0.30096974657142167,0.9641159772872925,0.2558896839618683,-0.07071433961391449
1727296963321,7i,8.7005390429913,2.0s : 9.4s,0.2779862690022835,0.027346079077191766,-0.8099064826965332,-0.13067391514778137,0.04032914713025093,-0.014063656330108643,-0.016939014196395874,0.0162200927734375,-0.25888040265337625,1.4985020864908805,0.30980987980817215,0.9641520977020264,0.255998432636261,-0.06982433050870895
1727296963331,7i,8.7005390429913,2.0s : 9.4s,0.2538686094084493,0.0304186210628394,-0.7452316284179688,-0.1072232723236084,0.01754993200302124,-0.025022506713867188,0.016331613063812256,-0.00569605827331543,-0.25923679053605847,1.499417917779193,0.31783588727847445,0.9641246199607849,0.25634291768074036,-0.06893479824066162
1727296963341,7i,8.7005390429913,2.0s : 9.4s,0.2320799131447843,0.033838713495662344,-0.6871768236160278,-0.10105033218860626,0.02891124226152897,-0.023215949535369873,0.024040192365646362,-0.0053054094314575195,-0.2595022278902688,1.500321328914691,0.3252733536679448,0.9641185998916626,0.256599485874176,-0.06805896759033203
1727296963351,7i,8.7005390429913,2.0s : 9.4s,0.2148278045734359,0.030607040628291584,-0.6273217797279358,-0.09883724898099899,0.03314167633652687,-0.028367578983306885,0.011136114597320557,0.002838723361492157,-0.25967084464370327,1.5010979011718186,0.33209176410345465,0.9641281366348267,0.25676244497299194,-0.0673072338104248
1727296963361,7i,8.7005390429913,2.0s : 9.4s,0.19108489703538295,0.025124178810494148,-0.563862144947052,-0.07779640704393387,0.038832053542137146,-0.007151484489440918,0.013199925422668457,0.020145535469055176,-0.2597142074926079,1.501853262313163,0.33829784517131195,0.9641674757003784,0.25680434703826904,-0.06657817959785461
1727296963371,7i,8.7005390429913,2.0s : 9.4s,0.164348079135571,0.03607052555211222,-0.4559517502784729,-0.07039091736078262,0.01843559928238392,-0.00557631254196167,0.016121208667755127,0.03178197890520096,-0.25978600624767806,1.5025387567850037,0.34361323825982276,0.9641942977905273,0.25687375664711,-0.06591596454381943
1727296963381,7i,8.7005390429913,2.0s : 9.4s,0.14122152949936498,0.044294299819074366,-0.3609219193458557,-0.06768488138914108,0.0262029729783535,-0.013071835041046143,0.025052636861801147,0.03410978615283966,-0.259875485642235,1.502939763718542,0.3477981456466384,0.9641976952552795,0.2569602131843567,-0.06552774459123611
1727296963391,7i,8.7005390429913,2.0s : 9.4s,0.1187552591349447,0.0442804036233754,-0.29649779200553894,-0.048044729977846146,0.033907465636730194,-0.008934617042541504,0.03594815731048584,0.02426224946975708,-0.25979582922803346,1.503295221001334,0.35124341953818533,0.9642415642738342,0.2568832337856293,-0.06518640369176865
1727296963401,7i,8.7005390429913,2.0s : 9.4s,0.08961690319535716,0.04694348995106776,-0.20633752644062042,-0.03284979984164238,0.04260401800274849,0.009035110473632812,0.032769471406936646,0.03237622231245041,-0.2596114836293985,1.5035872007073536,0.353875133459916,0.9643078446388245,0.25670507550239563,-0.06490805000066757
1727296963411,7i,8.7005390429913,2.0s : 9.4s,0.06691008299930125,0.02461812128656729,-0.13502566516399384,-0.013387017883360386,0.05032728612422943,-0.0045961737632751465,0.018352657556533813,0.015751414000988007,-0.2592455062522789,1.5038709747512597,0.3556813982092458,0.9644198417663574,0.2563513517379761,-0.06464067846536636
1727296963421,7i,8.7005390429913,2.0s : 9.4s,0.04400535417703474,0.019375087060931866,-0.051675111055374146,8.005555719137192e-05,0.04584891349077225,-0.007777154445648193,0.017491400241851807,0.002993457019329071,-0.2588578660248491,1.50410099272178,0.3566977510558561,0.964533805847168,0.2559766471385956,-0.06442546099424362
1727296963431,7i,8.7005390429913,2.0s : 9.4s,0.05613257190030919,0.02982705103946132,0.040065594017505646,-0.27530530095100403,0.6779700517654419,-0.004452824592590332,0.028638571500778198,-0.007046811282634735,-0.2577129265155742,1.503868142347802,0.3568334850660941,0.9648103713989258,0.254869669675827,-0.06466959416866302
1727296963451,7i,8.7005390429913,2.0s : 9.4s,0.06919134921282295,0.11054126996043387,0.07993058860301971,-0.3909117579460144,0.5225175619125366,0.08578670024871826,0.06970617175102234,-0.001031525433063507,-0.25751721418905704,1.504057928264375,0.354738765057146,0.9648725390434265,0.25468042492866516,-0.06448981910943985
1727296963461,7i,8.7005390429913,2.0s : 9.4s,0.058323915202496454,0.042854686067102514,0.04946695268154144,-0.034704647958278656,0.033432524651288986,0.0011571645736694336,0.04015734791755676,-0.014918863773345947,-0.2569257096858148,1.5034535801508389,0.3538543445553307,0.9649835228919983,0.25410836935043335,-0.06508305668830872
1727296963471,7i,8.7005390429913,2.0s : 9.4s,0.0450281571446865,0.016086474275893374,-0.09516014158725739,-0.03339539095759392,0.039041176438331604,0.008489429950714111,-0.013657212257385254,0.0004298686981201172,-0.2564648907959664,1.5031787673063348,0.3541799318045367,0.9650822877883911,0.253662645816803,-0.06535614281892776
1727296963481,7i,8.7005390429913,2.0s : 9.4s,0.045719437393937544,0.048471010334370714,-0.2224123626947403,-0.03745857626199722,0.04965627193450928,0.03181654214859009,-0.03637737035751343,0.003719329833984375,-0.25618081457811426,1.503301174820204,0.3559388673551805,0.9651621580123901,0.2533878684043884,-0.06524287164211273
1727296963491,7i,8.7005390429913,2.0s : 9.4s,0.05226607642673666,0.011485829143689296,-0.19983553886413574,-0.03938177600502968,0.03654462844133377,0.00041985511779785156,-0.004122406244277954,-0.010712318122386932,-0.2558990537659777,1.5035241691402654,0.3582303372881599,0.9652478098869324,0.25311529636383057,-0.06503242999315262
1727296963501,7i,8.7005390429913,2.0s : 9.4s,0.04055310123658819,0.0627270973013808,-0.07765371352434158,-0.03194516524672508,0.08559046685695648,0.006906628608703613,0.04470956325531006,-0.04345160722732544,-0.2555954668681377,1.503491613826511,0.3597441629441366,0.9653223156929016,0.25282156467437744,-0.06506902724504471
1727296963521,7i,8.7005390429913,2.0s : 9.4s,0.002911899752144089,0.07891453750666456,0.23036016523838043,0.012665755115449429,0.1724708080291748,-0.0167655348777771,0.06322452425956726,-0.04414839297533035,-0.2544380600641188,1.5028587499818822,0.3580542433449,0.9655723571777344,0.25170159339904785,-0.0656997561454773
1727296963511,7i,8.7005390429913,2.0s : 9.4s,0.007575439888537091,0.08039417786759032,0.08067134022712708,0.009727489203214645,0.13654956221580505,-0.006105601787567139,0.05853146314620972,-0.054772377014160156,-0.2550619005333488,1.503246862203468,0.35969061161558097,0.9654409289360046,0.2523052990436554,-0.0653143897652626
1727296963531,7i,8.7005390429913,2.0s : 9.4s,0.039295367737913846,0.09106600051689293,0.3387681543827057,0.0038688017521053553,0.23531460762023926,-0.006003201007843018,0.08131349086761475,-0.040559761226177216,-0.2537525980008634,1.5020305662834341,0.3550224295664015,0.9656893014907837,0.251038134098053,-0.06651122868061066
1727296963541,7i,8.7005390429913,2.0s : 9.4s,0.06442083905828877,0.07908021420232919,0.3624013066291809,0.010876378044486046,0.297089546918869,0.015212535858154297,0.07074320316314697,-0.03190075606107712,-0.25289729596886934,1.501027170521678,0.3512922504896529,0.9658358693122864,0.25021013617515564,-0.06749510765075684
1727296963551,7i,8.7005390429913,2.0s : 9.4s,0.07209951585535933,0.030663022522356986,0.35240939259529114,0.015300421044230461,0.3594546616077423,-0.006643354892730713,0.02938234806060791,-0.005724020302295685,-0.25202474230235433,1.500150204736486,0.34753516769583725,0.9659939408302307,0.24936525523662567,-0.06835749000310898
1727296963571,7i,8.7005390429913,2.0s : 9.4s,0.06892316484253357,0.02506495504397563,0.32060858607292175,-0.010659807361662388,0.5301428437232971,-0.012574553489685059,0.020687997341156006,0.006491482257843018,-0.2500523862304755,1.4985351488672474,0.3402571505944864,0.9663709402084351,0.2474547177553177,-0.06995289772748947
1727296963561,7i,8.7005390429913,2.0s : 9.4s,0.06781026517539068,0.02634538864277934,0.3456031382083893,0.0097253592684865,0.43696489930152893,-0.02118837833404541,0.015648171305656433,0.0005165860056877136,-0.25111227780165096,1.499345783182904,0.3438363976655815,0.9661652445793152,0.24848151206970215,-0.06915074586868286
1727296963581,7i,8.7005390429913,2.0s : 9.4s,0.06049533458316959,0.008008316744064473,0.2746858298778534,-0.032394394278526306,0.6229897141456604,-0.00752633810043335,0.0026395469903945923,-0.0007212236523628235,-0.24882139407030174,1.4977321482613886,0.3370714325386546,0.9666175842285156,0.2462618201971054,-0.07075106352567673
1727296963591,7i,8.7005390429913,2.0s : 9.4s,0.053641132373124255,0.037155506786799554,0.31056633591651917,-0.02327972836792469,0.7146334052085876,-0.024721741676330566,-0.024819865822792053,-0.0123831108212471,-0.2474453766623073,1.4970518686357672,0.33401129016758146,0.9669062495231628,0.24492794275283813,-0.07143351435661316
1727296963601,7i,8.7005390429913,2.0s : 9.4s,0.05632314156228122,0.0655152949322306,0.42586442828178406,-0.013728035613894463,0.7610597610473633,-0.05390000343322754,-0.025143340229988098,-0.027474641799926758,-0.2457018863875621,1.4965012320855244,0.33011195952281136,0.9672910571098328,0.2432371973991394,-0.0719975009560585
1727296963611,7i,8.7005390429913,2.0s : 9.4s,0.06489413927196296,0.07571463902347457,0.5344343185424805,-0.04690258949995041,0.7592105865478516,-0.06064337491989136,0.008198365569114685,-0.044585585594177246,-0.24371898453169527,1.4957715395100801,0.32506615380813736,0.9677172899246216,0.2413133680820465,-0.07273931056261063
1727296963661,7i,8.7005390429913,2.0s : 9.4s,0.029132060648400102,0.06800413747544116,0.06605777889490128,-0.20344194769859314,0.6926801204681396,0.016966938972473145,-0.05965070426464081,0.027901239693164825,-0.23603046947145787,1.489608146708257,0.3014257928053966,0.9690711498260498,0.23384501039981842,-0.07885044813156128
1727296963671,7i,8.7005390429913,2.0s : 9.4s,0.03299452304438004,0.06921020953061699,-0.02606908418238163,-0.21305343508720398,0.6976341605186462,0.01552504301071167,-0.06260097026824951,0.025102682411670685,-0.23487474470712152,1.4890074778425582,0.30115318924648227,0.9692923426628113,0.23272116482257843,-0.07945455610752106
1727296963681,7i,8.7005390429913,2.0s : 9.4s,0.04807890083419266,0.006521025712974852,0.046768106520175934,-0.19372901320457458,0.6710723638534546,0.0032778382301330566,-0.00461249053478241,0.0032410621643066406,-0.23369299680537417,1.4885697544190404,0.30096075823154383,0.9695309400558472,0.23157170414924622,-0.07990136742591858
1727296963691,7i,8.7005390429913,2.0s : 9.4s,0.04276996330938786,0.06784032319925326,0.2079615294933319,-0.1749139428138733,0.6484698057174683,-0.018001437187194824,0.06488445401191711,-0.008262284100055695,-0.2325708531612075,1.4881178749417727,0.2994930488434755,0.9697532057762146,0.23047992587089539,-0.08036088943481445
1727296963701,7i,8.7005390429913,2.0s : 9.4s,0.01996417675377933,0.10091929028897426,0.39993202686309814,-0.1678408533334732,0.6393554210662842,-0.006001114845275879,0.10019907355308533,-0.010432422161102295,-0.23127925023691082,1.4873916009424613,0.29619730151397994,0.9699903130531311,0.22922289371490479,-0.08108989149332047
1727296963711,7i,8.7005390429913,2.0s : 9.4s,0.03456387977073497,0.10504756836259221,0.5836815237998962,-0.15018033981323242,0.6058124303817749,0.015084445476531982,0.10384808480739594,-0.004798583686351776,-0.22983508922473034,1.4863785823909765,0.29094676319817436,0.9702364802360535,0.22781695425510406,-0.0821002945303917
1727296963721,7i,8.7005390429913,2.0s : 9.4s,0.0653163055718198,0.10396293018778956,0.693249523639679,-0.13135312497615814,0.5708386898040771,-0.002042531967163086,0.10331860184669495,0.01137477159500122,-0.22843591543350864,1.4852122280125812,0.28413431412523915,0.9704568386077881,0.22645434737205505,-0.08325905352830887
1727296963731,7i,8.7005390429913,2.0s : 9.4s,0.07816303408916946,0.08443140120561682,0.650764524936676,-0.1436275690793991,0.5618024468421936,-0.003092527389526367,0.08202910423278809,0.019756615161895752,-0.22698278701013533,1.4840101353841484,0.2769251131949245,0.9706827998161316,0.22503873705863953,-0.0844539999961853
1727296963741,7i,8.7005390429913,2.0s : 9.4s,0.06746834906809401,0.05241934680314868,0.44332823157310486,-0.1593886911869049,0.5477798581123352,0.021571993827819824,0.0037189126014709473,0.04762989282608032,-0.22551308756346278,1.4829441780615864,0.2710614262385721,0.9709206223487854,0.22360648214817047,-0.08551758527755737
1727296963751,7i,8.7005390429913,2.0s : 9.4s,0.03290933997884402,0.10398271117755747,0.17028632760047913,-0.17629995942115784,0.549405574798584,0.021533548831939697,-0.08530327677726746,0.055426180362701416,-0.22405991960691327,1.4822988623311726,0.2677752652047729,0.971187949180603,0.22218987345695496,-0.08617275208234787
1727296963761,7i,8.7005390429913,2.0s : 9.4s,0.029890010579209945,0.12448086400831677,-0.08499125391244888,-0.1845429688692093,0.5267079472541809,0.012456834316253662,-0.11512838304042816,0.04567021131515503,-0.22267693195113378,1.482096904485481,0.26722662309985007,0.9714756011962891,0.22084124386310577,-0.08639602363109589
1727296963771,7i,8.7005390429913,2.0s : 9.4s,0.06645968133195919,0.09363286550823954,-0.22672401368618011,-0.16899670660495758,0.4836736023426056,0.014653801918029785,-0.0872935801744461,0.030532121658325195,-0.2215321715592369,1.4823725431182448,0.26880394167126814,0.9717505574226379,0.2197246104478836,-0.08615050464868546
1727296963781,7i,8.7005390429913,2.0s : 9.4s,0.08634102887962118,0.03753106928849727,-0.22762896120548248,-0.166272833943367,0.4503345787525177,0.013961493968963623,-0.03428323566913605,0.006190121173858643,-0.22057682286018682,1.4828511887832125,0.27106785566232455,0.9720003604888916,0.21879251301288605,-0.0857037752866745
1727296963791,7i,8.7005390429913,2.0s : 9.4s,0.08316509733886134,0.04511603123017557,-0.14007820188999176,-0.15399223566055298,0.42340564727783203,0.026220083236694336,0.017781391739845276,-0.03212141990661621,-0.2195588183382819,1.4832288740946007,0.27290496280533755,0.9722540378570557,0.21779905259609222,-0.08535609394311905
1727296963801,7i,8.7005390429913,2.0s : 9.4s,0.060762113653934906,0.07932157731617125,0.018729813396930695,-0.15281246602535248,0.36740124225616455,0.03993809223175049,0.05140915513038635,-0.04532063752412796,-0.218529771669258,1.4832964466402183,0.2734700950902881,0.9724826216697693,0.21679459512233734,-0.0853099375963211
1727296963811,7i,8.7005390429913,2.0s : 9.4s,0.03764943334920027,0.08745448577979652,0.1715242862701416,-0.14095255732536316,0.3209286332130432,0.017701327800750732,0.06999480724334717,-0.049352578818798065,-0.21760716677994627,1.4829886094916522,0.27237619144428726,0.9726549983024597,0.21589383482933044,-0.08562679588794708
1727296963821,7i,8.7005390429913,2.0s : 9.4s,0.02685139203193601,0.09330527264320161,0.22402557730674744,-0.15790198743343353,0.27512893080711365,0.0013648271560668945,0.07770715653896332,-0.05162953585386276,-0.21672530133560022,1.4823190995874462,0.27018114710616187,0.9727866649627686,0.2150326818227768,-0.0862947627902031
1727296963831,7i,8.7005390429913,2.0s : 9.4s,0.03352999711697574,0.062259033278788206,0.11598805338144302,-0.16488602757453918,0.25898879766464233,-0.0027639269828796387,0.03353087604045868,-0.05238538235425949,-0.21588380007998498,1.4814029183188349,0.2682631069727174,0.9728870987892151,0.21421079337596893,-0.08720210194587708
1727296963841,7i,8.7005390429913,2.0s : 9.4s,0.05558197261049198,0.053404404324011716,-0.07799845933914185,-0.15050150454044342,0.22274449467658997,-0.006036341190338135,-0.044920727610588074,-0.028243958950042725,-0.21507790529134455,1.4807423247967222,0.2680303673606744,0.9730010032653809,0.21342353522777557,-0.08786027133464813
1727296963851,7i,8.7005390429913,2.0s : 9.4s,0.08480097015436001,0.0843631981332193,-0.18491320312023163,-0.14255988597869873,0.18191397190093994,-0.03648817539215088,-0.0749983936548233,-0.012688703835010529,-0.21453396371918038,1.48041700613307,0.2694320770506202,0.9730879664421082,0.2128921002149582,-0.08818727731704712
1727296963861,7i,8.7005390429913,2.0s : 9.4s,0.09922758108767181,0.07329839562411966,-0.16452696919441223,-0.14325256645679474,0.14437885582447052,-0.04149341583251953,-0.03683324158191681,-0.04789847135543823,-0.21409368350768107,1.480057349998217,0.27127315209266606,0.973149299621582,0.21246188879013062,-0.08854571729898453
1727296963871,7i,8.7005390429913,2.0s : 9.4s,0.09357462191731758,0.0770416244209688,-0.12478660047054291,-0.12862341105937958,0.09567539393901825,-0.011933386325836182,0.014510869979858398,-0.07471573352813721,-0.2137363136108208,1.4795077393162879,0.27271384601925497,0.9731760025024414,0.2121126651763916,-0.08908747136592865
1727296963881,7i,8.7005390429913,2.0s : 9.4s,0.08614555044025966,0.0671847568860538,-0.11533717811107635,-0.12162996083498001,0.05633144825696945,-0.005540668964385986,0.023559004068374634,-0.06267428398132324,-0.21353366775418248,1.4788665848380087,0.27391589906607755,0.9731614589691162,0.21191462874412537,-0.08971535414457321
1727296963891,7i,8.7005390429913,2.0s : 9.4s,0.0805146997911624,0.03381329755609407,-0.14411689341068268,-0.12193896621465683,0.04824995622038841,0.01116865873336792,-0.004063457250595093,-0.03165578097105026,-0.2132723517306737,1.478074849130537,0.2752317034988824,0.9731452465057373,0.211659237742424,-0.09049093723297119
1727296963901,7i,8.7005390429913,2.0s : 9.4s,0.07327625732796013,0.061324843400488924,-0.17505456507205963,-0.11951762437820435,0.053921688348054886,0.03954946994781494,-0.04546426236629486,-0.01138317584991455,-0.21291712588557424,1.4772575099188936,0.27695324777159275,0.9731457829475403,0.21131205558776855,-0.0912933200597763
1727296963911,7i,8.7005390429913,2.0s : 9.4s,0.0629622266498638,0.057354891966606404,-0.09223492443561554,-0.10424027591943741,0.07140018045902252,0.02330303192138672,-0.052168071269989014,0.005004465579986572,-0.21245413457432968,1.4764832292338717,0.2784747783802591,0.973172128200531,0.2108594924211502,-0.09205598384141922
1727296963921,7i,8.7005390429913,2.0s : 9.4s,0.04402351068253239,0.026742401611466203,0.08038611710071564,-0.09268081933259964,0.08890487253665924,-0.003636300563812256,-0.017652273178100586,-0.01975678652524948,-0.21165762012442985,1.4755862936892805,0.27865763197975557,0.9732559323310852,0.2100808173418045,-0.09294474869966507
1727296963931,7i,8.7005390429913,2.0s : 9.4s,0.01632328320749366,0.043700299754785385,0.2666935622692108,-0.09113267809152603,0.08430309593677521,-0.00879967212677002,0.020501166582107544,-0.037576377391815186,-0.21063669002527943,1.4743504025446192,0.2769434561531667,0.9733534455299377,0.20908255875110626,-0.09416813403367996
1727296963941,7i,8.7005390429913,2.0s : 9.4s,0.013360714012176872,0.06134750020915664,0.3778909146785736,-0.09482195973396301,0.07893683016300201,-0.024673104286193848,0.021050095558166504,-0.05207347869873047,-0.20942016949276854,1.4725429463958837,0.2736475663861789,0.9734340310096741,0.2078927755355835,-0.09595214575529099
1727296963951,7i,8.7005390429913,2.0s : 9.4s,0.028197575379709718,0.057646617750540426,0.444654643535614,-0.0958385244011879,0.0801435336470604,-0.031738460063934326,-0.005448326468467712,-0.04781337082386017,-0.20830651903667396,1.4704943554567904,0.26948513945925145,0.9734652042388916,0.2068033218383789,-0.09796923398971558
1727296963961,7i,8.7005390429913,2.0s : 9.4s,0.03923576173909114,0.05998747899834499,0.4804754853248596,-0.10497583448886871,0.08054301142692566,-0.033824920654296875,-0.018181070685386658,-0.0460849329829216,-0.2071283772739282,1.4683209001131299,0.2647969352685742,0.9734915494918823,0.20565050840377808,-0.10010963678359985
1727296963971,7i,8.7005390429913,2.0s : 9.4s,0.04085433769001626,0.05895366988270338,0.441561222076416,-0.11117350310087204,0.09235216677188873,-0.030117034912109375,-0.021736085414886475,-0.04578255116939545,-0.20583410683503175,1.4663143129581184,0.26016937591876027,0.9735525250434875,0.2043837308883667,-0.1020904928445816
1727296963981,7i,8.7005390429913,2.0s : 9.4s,0.03774334710338669,0.05161940864186044,0.38337355852127075,-0.11820797622203827,0.13183407485485077,-0.01817178726196289,-0.0399240106344223,-0.027210712432861328,-0.20430622545098917,1.4643713366186424,0.25612067492015844,0.9736618399620056,0.2028878629207611,-0.10401494801044464
1727296963991,7i,8.7005390429913,2.0s : 9.4s,0.035623611987038596,0.07588517385955076,0.34673842787742615,-0.12175064533948898,0.1628594547510147,-0.0016671419143676758,-0.074429452419281,-0.014698192477226257,-0.20245759151045392,1.4624846318072307,0.25260462280583734,0.9738349318504333,0.20107732713222504,-0.1058921292424202
1727296964001,7i,8.7005390429913,2.0s : 9.4s,0.03931500950196804,0.07640924755374415,0.3864658772945404,-0.11670475453138351,0.17993751168251038,0.0017287135124206543,-0.07458072900772095,-0.016525723040103912,-0.20035384455544403,1.4606324379045967,0.24917226678969567,0.9740554094314575,0.19901610910892487,-0.10774193704128265
1727296964011,7i,8.7005390429913,2.0s : 9.4s,0.06215684444839025,0.039229270141002734,0.570218563079834,-0.11094500124454498,0.17942528426647186,0.006012618541717529,-0.028076082468032837,-0.026730462908744812,-0.198054201965301,1.4586132509675973,0.24459906325386893,0.9742881059646606,0.19676195085048676,-0.10975946485996246
1727296964021,7i,8.7005390429913,2.0s : 9.4s,0.09322744134788452,0.05893792843543997,0.7654005885124207,-0.10150063037872314,0.16785971820354462,-0.005765557289123535,0.015805765986442566,-0.056485533714294434,-0.195567255005551,1.4563054893794338,0.23803349965785325,0.9745154976844788,0.19432300329208374,-0.11206316947937012
1727296964031,7i,8.7005390429913,2.0s : 9.4s,0.12271463732679921,0.08358965160196329,0.9248858094215393,-0.10944874584674835,0.14303751289844513,-0.02090221643447876,0.046434447169303894,-0.0662885308265686,-0.19305906364412861,1.4536770871314424,0.22962234396067258,0.974698543548584,0.19186201691627502,-0.11468078196048737
1727296964041,7i,8.7005390429913,2.0s : 9.4s,0.15111911759702784,0.09387766399645894,1.0744699239730835,-0.12843042612075806,0.1588689386844635,-0.023000121116638184,0.05427633225917816,-0.0730622336268425,-0.19041781227522867,1.4506218876244064,0.21967582560979906,0.9748432636260986,0.18926917016506195,-0.11771848052740097
1727296964051,7i,8.7005390429913,2.0s : 9.4s,0.17202158856443853,0.07913542783505986,1.1302722692489624,-0.14997166395187378,0.1792861968278885,-0.00923919677734375,0.028086498379707336,-0.07340437173843384,-0.1873788076275053,1.4471781244871391,0.2086094236797327,0.974998414516449,0.18628422915935516,-0.12114527821540833
1727296964061,7i,8.7005390429913,2.0s : 9.4s,0.16567921089994672,0.053675814070254284,1.0047316551208496,-0.15092001855373383,0.18045027554035187,-0.018816053867340088,-0.0059420764446258545,-0.04991734027862549,-0.1842750801549847,1.4437424654614337,0.19800050660429197,0.9751453399658203,0.18323393166065216,-0.12456698715686798
1727296964071,7i,8.7005390429913,2.0s : 9.4s,0.13895809270196757,0.043558374720279056,0.8515157103538513,-0.18163754045963287,0.19298642873764038,-0.03597545623779297,-0.02376064658164978,-0.006207272410392761,-0.18126097543756794,1.4404726724725214,0.188905403573175,0.9752758741378784,0.1802700310945511,-0.1278260052204132
1727296964081,7i,8.7005390429913,2.0s : 9.4s,0.11810487128901163,0.047065084225177245,0.744692325592041,-0.19019800424575806,0.23857256770133972,-0.005822300910949707,-0.04615223407745361,0.00715501606464386,-0.1781197665010171,1.4372206474951499,0.18113461193476507,0.9754114151000977,0.17717939615249634,-0.13107171654701233
1727296964091,7i,8.7005390429913,2.0s : 9.4s,0.10513479168464111,0.05641890099220912,0.668805718421936,-0.18139168620109558,0.27915656566619873,0.017486274242401123,-0.05356918275356293,-0.0027686208486557007,-0.17457169978083936,1.4342307260690714,0.1744953311221149,0.975631833076477,0.17368637025356293,-0.13407227396965027
1727296964101,7i,8.7005390429913,2.0s : 9.4s,0.10278151248583615,0.021332252010484117,0.7610474824905396,-0.1893838346004486,0.23463356494903564,-0.002668142318725586,-0.019454360008239746,-0.008335098624229431,-0.17105943424677555,1.4312633892344384,0.16777408446097608,0.9758277535438538,0.17022641003131866,-0.13705070316791534
1727296964111,7i,8.7005390429913,2.0s : 9.4s,0.13570123485174965,0.05115983940116153,1.0962128639221191,-0.17317162454128265,0.2099330574274063,-0.008479595184326172,0.03900188207626343,-0.032004356384277344,-0.16759207577598165,1.427957622698518,0.15887630798594554,0.9759478569030762,0.16680864989757538,-0.14035899937152863
1727296964121,7i,8.7005390429913,2.0s : 9.4s,0.2145776645872544,0.13770460294497172,1.5900079011917114,-0.15767574310302734,0.19453679025173187,0.017499923706054688,0.1237037181854248,-0.05791114270687103,-0.16369319246790606,1.4241726662840803,0.14572837053952498,0.9760454893112183,0.1629631370306015,-0.14414581656455994
1727296964131,7i,8.7005390429913,2.0s : 9.4s,0.30819315345010123,0.20226573864765743,2.03318452835083,-0.14943836629390717,0.2012525200843811,0.028758585453033447,0.18695765733718872,-0.07163244485855103,-0.15904893560669928,1.4197719331063405,0.12779621407635233,0.9761394262313843,0.1583792120218277,-0.14855200052261353
1727296964141,7i,8.7005390429913,2.0s : 9.4s,0.39671436036596097,0.2101832923823752,2.337538957595825,-0.12722919881343842,0.1893838793039322,0.04353177547454834,0.1952839493751526,-0.06439083814620972,-0.1537710400898045,1.4150771457368243,0.10614906312384566,0.9762435555458069,0.1531657576560974,-0.15326063334941864
1727296964151,7i,8.7005390429913,2.0s : 9.4s,0.45957291837918524,0.17018236644584278,2.4867944717407227,-0.12813574075698853,0.2022697776556015,0.037439942359924316,0.16527073085308075,-0.015680372714996338,-0.14807496876983273,1.4102562628088864,0.08224463253127567,0.9763386845588684,0.14753444492816925,-0.15810208022594452
1727296964161,7i,8.7005390429913,2.0s : 9.4s,0.495963903193989,0.11460361973674567,2.5390892028808594,-0.14758561551570892,0.22772108018398285,0.03555864095687866,0.10795685648918152,0.014659121632575989,-0.14187777330490572,1.40535211843136,0.05754939267978665,0.9764346480369568,0.14140227437019348,-0.16303570568561554
1727296964171,7i,8.7005390429913,2.0s : 9.4s,0.5184915332287341,0.07768563084992602,2.572584390640259,-0.14215360581874847,0.2302541732788086,0.03795427083969116,0.06452254951000214,0.020769476890563965,-0.135384026093481,1.4004670141136728,0.032508404479122274,0.9765109419822693,0.13497082889080048,-0.16795584559440613
1727296964181,7i,8.7005390429913,2.0s : 9.4s,0.5413634960659929,0.07607694146530922,2.6949660778045654,-0.11123616993427277,0.24616096913814545,0.016300439834594727,0.07157424092292786,0.019978106021881104,-0.12854751499858627,1.3958106179235121,0.006809382825837661,0.976604163646698,0.12819378077983856,-0.17265763878822327
1727296964191,7i,8.7005390429913,2.0s : 9.4s,0.5622128275888844,0.10212240100833676,2.8004555702209473,-0.12122990936040878,0.23472705483436584,0.001559138298034668,0.10199303179979324,0.0048964619636535645,-0.12131144164033254,1.3913549051554481,-0.02009764267360128,0.9767122268676758,0.12101411819458008,-0.17716829478740692
1727296964201,7i,8.7005390429913,2.0s : 9.4s,0.5746891173320037,0.12107851751266889,2.834195852279663,-0.16027690470218658,0.21245238184928894,0.011620938777923584,0.11983446031808853,0.012832120060920715,-0.11407059274081487,1.3867462618586883,-0.047654308978971216,0.9767212271690369,0.11382336914539337,-0.18182331323623657
1727296964211,7i,8.7005390429913,2.0s : 9.4s,0.5710449003820199,0.1197959452933734,2.7008392810821533,-0.18007799983024597,0.24030767381191254,0.0458531379699707,0.11020506918430328,0.01016862690448761,-0.10673329293392592,1.3820651992050355,-0.07477425452563763,0.9766534566879272,0.10653075575828552,-0.18654505908489227
1727296964221,7i,8.7005390429913,2.0s : 9.4s,0.5325354262420292,0.07066156912472496,2.351785182952881,-0.2103853076696396,0.24751658737659454,0.06443911790847778,0.02534984052181244,0.014072775840759277,-0.099524419230912,1.37755554279744,-0.0993001628248766,0.9765307307243347,0.09936019778251648,-0.19109006226062775
1727296964231,7i,8.7005390429913,2.0s : 9.4s,0.4717058146346355,0.06432073489917073,2.049146890640259,-0.2259322702884674,0.1976330280303955,0.04653400182723999,-0.02248198539018631,0.03829234838485718,-0.09309674785731083,1.3734238373243772,-0.12040950412899415,0.9763388633728027,0.09296232461929321,-0.19524434208869934
1727296964241,7i,8.7005390429913,2.0s : 9.4s,0.416821321040212,0.05790385330837377,1.9734456539154053,-0.2468479424715042,0.15005671977996826,0.002414703369140625,0.05595964193344116,0.014681413769721985,-0.08750826846262824,1.3693270771540542,-0.13972036901495274,0.9760245084762573,0.08739662915468216,-0.19934335350990295
1727296964251,7i,8.7005390429913,2.0s : 9.4s,0.39559167974933646,0.22806105848838557,2.08740496635437,-0.2557380497455597,0.10350262373685837,-0.0036176443099975586,0.2214495837688446,-0.05439522862434387,-0.08217064507550485,1.3651833610825226,-0.15934850965101824,0.975632905960083,0.08207820355892181,-0.2034783512353897
1727296964261,7i,8.7005390429913,2.0s : 9.4s,0.408823076584774,0.352501547105107,2.300449848175049,-0.20835722982883453,0.04761406034231186,-0.010843932628631592,0.34050682187080383,-0.09052543342113495,-0.07695801412574278,1.3612479070525179,-0.18072098292744276,0.975229799747467,0.07688207179307938,-0.20740251243114471
1727296964271,7i,8.7005390429913,2.0s : 9.4s,0.4280001614236828,0.42997707785659545,2.4411933422088623,-0.17405663430690765,-0.013871174305677414,-0.04913628101348877,0.41568076610565186,-0.09836368262767792,-0.07182294210591765,1.3576788418864085,-0.20402129114057369,0.9748563766479492,0.07176120579242706,-0.21096256375312805
1727296964281,7i,8.7005390429913,2.0s : 9.4s,0.43131843767149797,0.502851791219189,2.413752555847168,-0.1691385805606842,-0.07704534381628036,-0.07703638076782227,0.4879407286643982,-0.09401683509349823,-0.06714815433987895,1.3543545401608201,-0.22800681900196335,0.9744666814804077,0.06709770858287811,-0.21427181363105774
1727296964291,7i,8.7005390429913,2.0s : 9.4s,0.4093091514852033,0.4711524062549707,2.2285819053649902,-0.16237249970436096,-0.10893487185239792,-0.09781020879745483,0.4597872495651245,-0.031834542751312256,-0.06305110221474045,1.351200222813839,-0.250952228286747,0.9740461111068726,0.0630093365907669,-0.21740257740020752
1727296964301,7i,8.7005390429913,2.0s : 9.4s,0.3869103110556507,0.39675124700752523,2.092738628387451,-0.12119311094284058,-0.15851227939128876,-0.10195928812026978,0.3831981420516968,-0.013230249285697937,-0.05966253436676387,1.3484540213062428,-0.27229135931258475,0.9736480116844177,0.059627145528793335,-0.22012248635292053
1727296964311,7i,8.7005390429913,2.0s : 9.4s,0.36016242291412365,0.44933021126983974,2.0089633464813232,-0.07429643720388412,-0.2375481128692627,-0.15638715028762817,0.4158289134502411,-0.06728307902812958,-0.057071884722280995,1.346269034382263,-0.29278575418762565,0.9733120799064636,0.05704090744256973,-0.2222830206155777
1727296964321,7i,8.7005390429913,2.0s : 9.4s,0.3217744928682502,0.5697942510841294,1.9479236602783203,-0.07811914384365082,-0.38928091526031494,-0.23802083730697632,0.5082548260688782,-0.09843069314956665,-0.0557082774083095,1.3444253233125798,-0.3126995157309619,0.9729756116867065,0.05567946657538414,-0.224094420671463
1727296964331,7i,8.7005390429913,2.0s : 9.4s,0.29393867014828406,0.6699470254603578,2.050746440887451,-0.10255448520183563,-0.5524643063545227,-0.29835236072540283,0.5928152203559875,-0.09156964719295502,-0.05588021338675719,1.3423580413211882,-0.3331880992889139,0.9725008010864258,0.05585113540291786,-0.22610315680503845
1727296964341,7i,8.7005390429913,2.0s : 9.4s,0.29007185657940165,0.8017834582661472,2.165964126586914,-0.09304460883140564,-0.7151962518692017,-0.29942965507507324,0.7183694839477539,-0.1927274763584137,-0.05722014643210436,1.3401034762041684,-0.35525383733428756,0.9719148278236389,0.05718892812728882,-0.22827783226966858
1727296964351,7i,8.7005390429913,2.0s : 9.4s,0.28858809236616023,0.9099379412496791,2.2425377368927,-0.1412576287984848,-0.8948527574539185,-0.31268173456192017,0.8355967998504639,-0.17887195944786072,-0.06005387354208359,1.3375821250039233,-0.37863739343157266,0.9711745977401733,0.06001778319478035,-0.23068927228450775
1727296964361,7i,8.7005390429913,2.0s : 9.4s,0.26856928604209973,0.8861313773561218,2.209195613861084,-0.20265094935894012,-1.0346728563308716,-0.33589375019073486,0.8074631690979004,-0.14285460114479065,-0.064254602856177,1.3343530649069053,-0.4026413825039965,0.9701709747314453,0.06421039998531342,-0.23376290500164032
1727296964371,7i,8.7005390429913,2.0s : 9.4s,0.2596752210103671,0.845326392175806,2.1918556690216064,-0.20913246273994446,-1.1787608861923218,-0.30066055059432983,0.7745591998100281,-0.15568554401397705,-0.0698732041912143,1.3306556923467163,-0.426634512983326,0.9689343571662903,0.06981635838747025,-0.23725885152816772
1727296964381,7i,8.7005390429913,2.0s : 9.4s,0.24785650887823185,0.8462440874740456,2.227902412414551,-0.2328748106956482,-1.3384355306625366,-0.33230262994766235,0.7616134881973267,-0.16015277802944183,-0.07679508929853197,1.3266336943047494,-0.4511643425717078,0.9674801230430603,0.07671962678432465,-0.24103137850761414
1727296964391,7i,8.7005390429913,2.0s : 9.4s,0.2372008355216403,0.8830164082227083,2.282683849334717,-0.2639124393463135,-1.5540772676467896,-0.35311049222946167,0.7877564430236816,-0.18566298484802246,-0.08531753291649984,1.3221474174005348,-0.47666177705710355,0.9657203555107117,0.08521406352519989,-0.245199516415596
1727296964401,7i,8.7005390429913,2.0s : 9.4s,0.22621195382904744,0.9356715114857777,2.3596036434173584,-0.3397853672504425,-1.7779486179351807,-0.36886876821517944,0.8437020778656006,-0.16608375310897827,-0.09574463631496555,1.316760942396459,-0.5034047496893002,0.9634732007980347,0.09559842199087143,-0.2501608729362488
1727296964411,7i,8.7005390429913,2.0s : 9.4s,0.22433084139607182,0.96581342043668,2.4032130241394043,-0.4150370657444,-1.9542908668518066,-0.32119518518447876,0.8975533246994019,-0.1550072431564331,-0.10778213157952315,1.310142126416251,-0.5313668135007521,0.9606146812438965,0.10757356882095337,-0.25621721148490906
1727296964421,7i,8.7005390429913,2.0s : 9.4s,0.22349147762424693,0.9406980778451198,2.350050449371338,-0.4529104232788086,-2.1243815422058105,-0.2614424228668213,0.8918234705924988,-0.14564213156700134,-0.12124494074133275,1.3025819591125547,-0.5598875703219672,0.9571669697761536,0.12094809859991074,-0.26306459307670593
1727296964431,7i,8.7005390429913,2.0s : 9.4s,0.2146620918639951,0.883649971893649,2.338123083114624,-0.5110000967979431,-2.3427653312683105,-0.2587561011314392,0.8366769552230835,-0.11770397424697876,-0.13652505933767659,1.2940570632163177,-0.5886330249882916,0.9530003666877747,0.13610133528709412,-0.2706781029701233
1727296964441,7i,8.7005390429913,2.0s : 9.4s,0.20875393293801806,0.9067284983483901,2.3787639141082764,-0.5787559747695923,-2.518296241760254,-0.24011129140853882,0.865608811378479,-0.12338769435882568,-0.1533477905543167,1.2843486276110159,-0.6183431861660379,0.947996973991394,0.1527474820613861,-0.27923083305358887
1727296964451,7i,8.7005390429913,2.0s : 9.4s,0.21025748026747054,0.950874631440221,2.385761260986328,-0.6650958061218262,-2.707016944885254,-0.1758168339729309,0.9255598783493042,-0.1288018524646759,-0.1715479125172548,1.2731312015720597,-0.6491526013450101,0.9419910311698914,0.17070774734020233,-0.2889838218688965
1727296964461,7i,8.7005390429913,2.0s : 9.4s,0.20652699701771476,0.9226570944335099,2.33048415184021,-0.7321392893791199,-2.8677258491516113,-0.12278866767883301,0.905770480632782,-0.1256936490535736,-0.19110899123882308,1.2604503409341143,-0.6805379578097591,0.9348918199539185,0.18994781374931335,-0.29982826113700867
1727296964471,7i,8.7005390429913,2.0s : 9.4s,0.20149874820944613,0.8753716674746904,2.2749452590942383,-0.8042978644371033,-3.058096170425415,-0.07027000188827515,0.8613952398300171,-0.13905367255210876,-0.2120905838755546,1.2464112719840563,-0.7122861369485232,0.9266083240509033,0.21050409972667694,-0.3115842342376709
1727296964481,7i,8.7005390429913,2.0s : 9.4s,0.18649663043313658,0.8846508629774545,2.1645662784576416,-0.8567366003990173,-3.2233359813690186,-0.03931772708892822,0.873275637626648,-0.13583418726921082,-0.23458276752114512,1.231010061226295,-0.7444021381860813,0.9170031547546387,0.23243719339370728,-0.32415732741355896
1727296964491,7i,8.7005390429913,2.0s : 9.4s,0.1649883935853492,0.8687383483585425,1.94717538356781,-0.9558353424072266,-3.410944700241089,0.024075865745544434,0.8614132404327393,-0.1099722683429718,-0.25877474256302074,1.2142362761667953,-0.7760094434866662,0.9059016108512878,0.25589627027511597,-0.33743077516555786
1727296964501,7i,8.7005390429913,2.0s : 9.4s,0.147576525926025,0.8285446445341036,1.7764564752578735,-1.0602065324783325,-3.5836963653564453,0.10690426826477051,0.81991046667099,-0.05295783281326294,-0.2848634000049378,1.1957846239507581,-0.8070164559702346,0.8930041193962097,0.28102636337280273,-0.3515222370624542
1727296964511,7i,8.7005390429913,2.0s : 9.4s,0.1424994162736111,0.8609087795010231,1.6862479448318481,-1.1312311887741089,-3.727653741836548,0.2074037790298462,0.831399142742157,-0.0832049548625946,-0.31229360656297067,1.1757078364454707,-0.8381262147727618,0.8783199787139893,0.30724212527275085,-0.3662732243537903
1727296964521,7i,8.7005390429913,2.0s : 9.4s,0.14823609479872848,0.9404789959843103,1.647864818572998,-1.1999332904815674,-3.938910961151123,0.30651360750198364,0.8794856071472168,-0.1305956244468689,-0.3410298005254781,1.15371568951307,-0.8702456186785396,0.8616228699684143,0.33445775508880615,-0.3817640244960785
1727296964531,7i,8.7005390429913,2.0s : 9.4s,0.15895941354733525,1.0195682536306707,1.6620056629180908,-1.2996777296066284,-4.080144882202148,0.3783242106437683,0.9395731687545776,-0.11658677458763123,-0.3707087369759979,1.129380829629358,-0.9041539677316917,0.8427297472953796,0.3622761070728302,-0.3981989920139313
1727296964541,7i,8.7005390429913,2.0s : 9.4s,0.171815711790204,1.0611302174734734,1.595948576927185,-1.4008852243423462,-4.2113037109375,0.49765801429748535,0.9255399703979492,-0.147341787815094,-0.400992304543565,1.1023966143926156,-0.9396550555318626,0.8215100169181824,0.3903321325778961,-0.4156465530395508
1727296964551,7i,8.7005390429913,2.0s : 9.4s,0.1852593428650921,1.0660861188072799,1.5691508054733276,-1.4468975067138672,-4.311988830566406,0.6034233570098877,0.8694342970848083,-0.1284673810005188,-0.4322288457867699,1.0728696662397939,-0.9767595709761676,0.79777592420578,0.4188957214355469,-0.4336816966533661
1727296964561,7i,8.7005390429913,2.0s : 9.4s,0.199468590887776,1.0670492470539927,1.5267571210861206,-1.5006520748138428,-4.390202045440674,0.6837744116783142,0.8143247365951538,-0.08900490403175354,-0.4626382168670365,1.0413477004954814,-1.0154932393589597,0.7723565101623535,0.44631054997444153,-0.45196494460105896
1727296964571,7i,8.7005390429913,2.0s : 9.4s,0.21438995232991934,1.1143246565050287,1.4492155313491821,-1.5720438957214355,-4.4715094566345215,0.783873975276947,0.7883347868919373,-0.07608741521835327,-0.49283399908989467,1.007450930501019,-1.0557647391373255,0.7448583245277405,0.47312453389167786,-0.4704671800136566
1727296964581,7i,8.7005390429913,2.0s : 9.4s,0.22283221228726124,1.1421617253846559,1.3491201400756836,-1.638811469078064,-4.525664329528809,0.863860547542572,0.7443915009498596,-0.06449538469314575,-0.5228158253088506,0.9711164002891505,-1.0974556638172053,0.715241014957428,0.4993217885494232,-0.48898670077323914
1727296964591,7i,8.7005390429913,2.0s : 9.4s,0.22738461457469233,1.1754817294218514,1.2247825860977173,-1.7023472785949707,-4.574014663696289,0.9488109946250916,0.6913301944732666,-0.05981266498565674,-0.5524027741932404,0.9324170185774728,-1.1404056599924064,0.6836199760437012,0.5247341394424438,-0.5072649717330933
1727296964601,7i,8.7005390429913,2.0s : 9.4s,0.22715726477208517,1.1924114023585524,1.1184680461883545,-1.7511411905288696,-4.636167526245117,1.0081558227539062,0.6352310180664062,-0.0441400408744812,-0.5817009703970916,0.8912831826803054,-1.1848380752935668,0.6499404311180115,0.5494459271430969,-0.5250585675239563
1727296964611,7i,8.7005390429913,2.0s : 9.4s,0.22976726708099704,1.2252586487164212,1.0797863006591797,-1.8082666397094727,-4.663451194763184,1.0628635883331299,0.6059004068374634,-0.06681650876998901,-0.6102096823110723,0.8474356551165415,-1.2311987968200135,0.6143062114715576,0.5730392932891846,-0.5424516201019287
1727296964621,7i,8.7005390429913,2.0s : 9.4s,0.23667829564025122,1.2772087456172698,1.0617045164108276,-1.8401644229888916,-4.651094436645508,1.1334863901138306,0.5835545659065247,-0.0770379900932312,-0.6371563396664228,0.8007496486429648,-1.2798906023079053,0.5770238041877747,0.5949121713638306,-0.5595739483833313
1727296964631,7i,8.7005390429913,2.0s : 9.4s,0.24313895805125116,1.290037357105677,1.0249696969985962,-1.884052038192749,-4.6709303855896,1.1800651550292969,0.5184749960899353,-0.05316287279129028,-0.6623777002252017,0.7512977766973963,-1.3307970692122375,0.5382423400878906,0.6149934530258179,-0.5762621164321899
1727296964641,7i,8.7005390429913,2.0s : 9.4s,0.24691381123725906,1.2941635500010504,1.0248745679855347,-1.9101272821426392,-4.667930603027344,1.2044379711151123,0.4730473756790161,-0.020362913608551025,-0.6857194226610702,0.6989341753779961,-1.3842780694381744,0.4979698359966278,0.6332299709320068,-0.592491090297699
1727296964651,7i,8.7005390429913,2.0s : 9.4s,0.24908804973076637,1.315373493874817,0.9559352397918701,-1.977181077003479,-4.646646976470947,1.243025302886963,0.4284942150115967,-0.0385776162147522,-0.7068978246146033,0.6437701450686623,-1.4399169043482836,0.4563917815685272,0.6494780778884888,-0.6081814169883728
1727296964661,7i,8.7005390429913,2.0s : 9.4s,0.24078678832354122,1.3137579199729046,0.8324154019355774,-2.0274407863616943,-4.625968933105469,1.2609643936157227,0.36345726251602173,-0.061866700649261475,-0.7263507197541607,0.5862608572680432,-1.4969891175312628,0.413611501455307,0.664145827293396,-0.6227647066116333
1727296964671,7i,8.7005390429913,2.0s : 9.4s,0.224881720035336,1.263998707039453,0.7337055802345276,-2.0441367626190186,-4.5977935791015625,1.2289518117904663,0.293657124042511,-0.03369969129562378,-0.7441144276135377,0.5267483407172571,-1.5553595358891212,0.3698488473892212,0.6773205995559692,-0.6359628438949585
1727296964681,7i,8.7005390429913,2.0s : 9.4s,0.21594218748087032,1.2475695803945577,0.6917360424995422,-2.0636231899261475,-4.556547164916992,1.2194066047668457,0.25862759351730347,-0.05088376998901367,-0.7596721313933896,0.46537604266519905,-1.6151364290130432,0.3253779411315918,0.6886837482452393,-0.6479535698890686
1727296964691,7i,8.7005390429913,2.0s : 9.4s,0.21582911203834904,1.2661842703590263,0.700562596321106,-2.105050563812256,-4.525566101074219,1.2409865856170654,0.24261599779129028,-0.06566870212554932,-0.7725109434816968,0.4020743792779159,-1.6763192552020465,0.28025370836257935,0.6979357004165649,-0.6590474843978882
1727296964701,7i,8.7005390429913,2.0s : 9.4s,0.21742345910336267,1.2780921879369855,0.7707440853118896,-2.130300998687744,-4.527156352996826,1.2510067224502563,0.25917941331863403,-0.036439716815948486,-0.7820258569626586,0.33678267559078723,-1.7392458280568535,0.23445166647434235,0.7047181725502014,-0.669630229473114
1727296964711,7i,8.7005390429913,2.0s : 9.4s,0.21823724832968486,1.2582331743138944,0.8434624671936035,-2.153663396835327,-4.484362602233887,1.2181791067123413,0.30749213695526123,-0.06810998916625977,-0.7877582966719876,0.2699335368774422,-1.803511073559068,0.18811675906181335,0.708773672580719,-0.6798911094665527
1727296964721,7i,8.7005390429913,2.0s : 9.4s,0.21790965270802085,1.224633718802643,0.8529219627380371,-2.171717882156372,-4.439087390899658,1.1920920610427856,0.26477915048599243,-0.09239190816879272,-0.7899504510368135,0.2026004461259061,-1.8678546053426335,0.14163289964199066,0.710318386554718,-0.6894837617874146
1727296964731,7i,8.7005390429913,2.0s : 9.4s,0.21034449274170525,1.1790229014106144,1.0644729137420654,-2.060739278793335,-4.431772708892822,1.1655683517456055,0.16607129573822021,-0.06297415494918823,-0.7882375690227892,0.1356117195042752,-1.932065522595178,0.0953264832496643,0.7091116905212402,-0.698622465133667
1727296964741,7i,8.7005390429913,2.0s : 9.4s,0.23884874477864915,1.1813471904046453,1.4631787538528442,-2.2579574584960938,-4.484121322631836,1.1433435678482056,0.25451743602752686,-0.1535172462463379,-0.7802322502692527,0.0686210344019634,-1.996326395149465,0.0487341471016407,0.7034444808959961,-0.7090774178504944
1727296964751,7i,8.7005390429913,2.0s : 9.4s,0.23872553551918976,1.2395861111710362,1.422511100769043,-2.2805731296539307,-4.414443492889404,1.13003408908844,0.4482966661453247,-0.24212968349456787,-0.7670606205271264,0.0020154050197809335,-2.059254572855232,0.0014509974280372262,0.694021999835968,-0.7199522852897644
1727296964761,7i,8.7005390429913,2.0s : 9.4s,0.23898932703177767,1.1017746348605189,1.1645410060882568,-2.3938395977020264,-4.375878810882568,1.0913887023925781,0.15092074871063232,0.0009868741035461426,-0.7525133006958459,-0.06265126843281212,-2.1192595699207697,-0.04570384696125984,0.6834755539894104,-0.7285412549972534
1727296964771,7i,8.7005390429913,2.0s : 9.4s,0.2575542693317886,1.0606167013947159,0.8792639970779419,-2.4996607303619385,-4.331841945648193,1.0588825941085815,0.05776357650756836,0.01840674877166748,-0.7385395255938619,-0.1263746750104647,-2.1770893806343676,-0.09319954365491867,0.6732086539268494,-0.7335556745529175
1727296964781,7i,8.7005390429913,2.0s : 9.4s,0.2814609576045123,1.0939263441766036,0.8397549390792847,-2.5422873497009277,-4.284615516662598,1.0836304426193237,0.1428518295288086,-0.044869422912597656,-0.7233461511061268,-0.18859096699055947,-2.2323634982550424,-0.14053036272525787,0.6618966460227966,-0.7363043427467346
1727296964791,7i,8.7005390429913,2.0s : 9.4s,0.3029641637613741,1.0862296502335214,0.8855892419815063,-2.5736987590789795,-4.236769676208496,1.057337999343872,0.2114160656929016,-0.1312800645828247,-0.7056430503580896,-0.2486511998095959,-2.28505296160402,-0.18732762336730957,0.6485234498977661,-0.7377843260765076
1727296964801,7i,8.7005390429913,2.0s : 9.4s,0.3244219201034298,1.0175859163749195,0.9440999627113342,-2.574248790740967,-4.163549423217773,0.9776214957237244,0.22670507431030273,-0.1683511734008789,-0.6853506223723611,-0.30605785750449727,-2.3343961530713417,-0.2332671880722046,0.6329445242881775,-0.7382192611694336
1727296964811,7i,8.7005390429913,2.0s : 9.4s,0.3479659037367172,0.9927555724046133,0.9513764381408691,-2.6398262977600098,-4.118471622467041,0.9650238752365112,0.18689298629760742,-0.13915300369262695,-0.6628144539077745,-0.36085724545514986,-2.380432613798464,-0.27831724286079407,0.6153377890586853,-0.7374950051307678
1727296964821,7i,8.7005390429913,2.0s : 9.4s,0.36468512566710615,0.985271458408496,1.0230770111083984,-2.69942307472229,-4.127532482147217,0.9675904512405396,0.15460538864135742,-0.10308122634887695,-0.6381745453111334,-0.41381892109284557,-2.4237760116414395,-0.32296761870384216,0.5957302451133728,-0.7353892922401428
1727296964831,7i,8.7005390429913,2.0s : 9.4s,0.370311600054032,1.0230643330613716,1.09980309009552,-2.74334979057312,-4.070868015289307,0.9958693385124207,0.19856667518615723,-0.12440323829650879,-0.6110482839199756,-0.46456794966017073,-2.4639454035417825,-0.3669630289077759,0.5737263560295105,-0.7322404980659485
1727296964841,7i,8.7005390429913,2.0s : 9.4s,0.375283599983683,1.0390279011674373,1.0984938144683838,-2.7590956687927246,-4.011228561401367,1.0012342929840088,0.21647363901138306,-0.17391961812973022,-0.5823711816611171,-0.5128374236551131,-2.5008467464979955,-0.4097730219364166,0.5500057935714722,-0.7277222275733948
1727296964851,7i,8.7005390429913,2.0s : 9.4s,0.3986561799746474,0.9805252301649056,1.0257878303527832,-2.798776149749756,-3.9365949630737305,0.9490860104560852,0.16642886400222778,-0.18156790733337402,-0.5528857143847857,-0.5589633448436242,-2.5349073603816197,-0.45129847526550293,0.5251451730728149,-0.7214930653572083
1727296964861,7i,8.7005390429913,2.0s : 9.4s,0.4289886130924923,0.9654521527668429,0.87327641248703,-2.8273494243621826,-3.856801748275757,0.9455351829528809,0.08215269446372986,-0.17695200443267822,-0.5235113412353765,-0.6034455311986948,-2.56672484726324,-0.4914793372154236,0.49992427229881287,-0.713108479976654
1727296964871,7i,8.7005390429913,2.0s : 9.4s,0.43777401692265727,0.986858552345328,0.887315034866333,-2.8103573322296143,-3.7894604206085205,0.9707193970680237,0.06688234210014343,-0.16468274593353271,-0.49413529496207875,-0.6461500767944823,-2.5964311971144114,-0.5300912857055664,0.4742705523967743,-0.7029015421867371
1727296964881,7i,8.7005390429913,2.0s : 9.4s,0.4308300360247546,0.9968441076984981,0.9854389429092407,-2.78524112701416,-3.7214925289154053,0.9691530466079712,0.15127485990524292,-0.1776413917541504,-0.4635701368998342,-0.6863988504738612,-2.623205894794311,-0.5668702721595764,0.4471442997455597,-0.6918959617614746
1727296964891,7i,8.7005390429913,2.0s : 9.4s,0.4209641455491806,1.0128022049689938,1.0331724882125854,-2.7821760177612305,-3.602519989013672,0.9760366678237915,0.17146438360214233,-0.20909494161605835,-0.4320466341356219,-0.7244776873520732,-2.6468362240300323,-0.6018452644348145,0.4187302589416504,-0.6800347566604614
1727296964901,7i,8.7005390429913,2.0s : 9.4s,0.41636983509997144,1.0314992840810617,0.958802342414856,-2.785240650177002,-3.4443869590759277,1.0054333209991455,0.11676216125488281,-0.19864845275878906,-0.40084427425866304,-0.7608418120184499,-2.6678739776454297,-0.6348735094070435,0.3901958167552948,-0.6668453812599182
1727296964911,7i,8.7005390429913,2.0s : 9.4s,0.41108267219867356,1.016486755130016,0.9322487711906433,-2.7479617595672607,-3.291698455810547,1.0035810470581055,0.05513980984687805,-0.1517564058303833,-0.3704832583000683,-0.7955863637656447,-2.686565583083311,-0.6658123731613159,0.3620659410953522,-0.6523818373680115
1727296964921,7i,8.7005390429913,2.0s : 9.4s,0.40721150385798704,0.9865524925796455,0.9079170823097229,-2.70751690864563,-3.139801502227783,0.9845782518386841,-0.002249389886856079,-0.06234121322631836,-0.34080942813186205,-0.8286039704392754,-2.703002591227845,-0.6946001648902893,0.3342500627040863,-0.6370301842689514
1727296964931,7i,8.7005390429913,2.0s : 9.4s,0.4028324360870557,1.0020834021349556,0.8503546118736267,-2.6888890266418457,-3.001599073410034,1.0017180442810059,-0.024711698293685913,0.01101982593536377,-0.3119101064296852,-0.8602713331329688,-2.717490547338013,-0.7214444279670715,0.30687713623046875,-0.6207610368728638
1727296964941,7i,8.7005390429913,2.0s : 9.4s,0.38982522931396757,1.0483686061914514,0.7695023417472839,-2.6332297325134277,-2.8195302486419678,1.0467565059661865,-0.04170510172843933,0.04047513008117676,-0.2843680235123463,-0.8907150130318686,-2.7305677795655985,-0.7462956309318542,0.28055089712142944,-0.6036008596420288
1727296964951,7i,8.7005390429913,2.0s : 9.4s,0.36985707311329147,1.1045935000979519,0.6909042596817017,-2.551225423812866,-2.6188673973083496,1.079881191253662,-0.17652881145477295,0.15106618404388428,-0.258515477629334,-0.9196912789459855,-2.742026521557977,-0.7689833641052246,0.25564563274383545,-0.5859264731407166
1727296964961,7i,8.7005390429913,2.0s : 9.4s,0.34549857554911756,1.118985130997608,0.6996538043022156,-2.438722848892212,-2.4322569370269775,1.0554556846618652,-0.28559356927871704,0.23785990476608276,-0.2340910088120046,-0.9470474476233839,-2.7518418391628847,-0.7895559668540955,0.23195888102054596,-0.5681516528129578
1727296964971,7i,8.7005390429913,2.0s : 9.4s,0.31014026345108464,1.1249300326181142,0.7724557518959045,-2.3124992847442627,-2.211082696914673,1.0413227081298828,-0.31561779975891113,0.2854820489883423,-0.21086912074018496,-0.972485301946481,-2.7593381628411726,-0.8079853057861328,0.20930984616279602,-0.5507714152336121
1727296964981,7i,8.7005390429913,2.0s : 9.4s,0.26234858849669257,1.2030404713469025,0.8090425729751587,-2.1503782272338867,-1.9781779050827026,1.063110589981079,-0.41206425428390503,0.38380372524261475,-0.18902095227943463,-0.9958329848678884,-2.7644155150623053,-0.8242647051811218,0.18789736926555634,-0.534118115901947
1727296964991,7i,8.7005390429913,2.0s : 9.4s,0.2207654674138458,1.2640521629362198,0.8210888504981995,-1.9845619201660156,-1.7525599002838135,1.033461093902588,-0.5255304574966431,0.5035908818244934,-0.16889515797212717,-1.0170715152579852,-2.7675393370508035,-0.8384689092636108,0.16809332370758057,-0.5183766484260559
1727296965001,7i,8.7005390429913,2.0s : 9.4s,0.18362632649291014,1.3058944959569803,0.7553132772445679,-1.7700119018554688,-1.4860427379608154,0.9964123964309692,-0.5970767736434937,0.5966758728027344,-0.15094833477608385,-1.0361415658302309,-2.769181244399869,-0.8506603837013245,0.15037575364112854,-0.5037499070167542
1727296965011,7i,8.7005390429913,2.0s : 9.4s,0.1520251775209963,1.4171423805387702,0.7713533639907837,-1.5153685808181763,-1.2201513051986694,1.005197286605835,-0.6902816295623779,0.7220680117607117,-0.13541251295655538,-1.0526229050333717,-2.769432347396775,-0.8607727289199829,0.13499906659126282,-0.49076011776924133
1727296965021,7i,8.7005390429913,2.0s : 9.4s,0.16260056002662798,1.4821186136700626,0.8168824911117554,-1.2656806707382202,-0.9247773885726929,0.9860407710075378,-0.7390896081924438,0.8234960436820984,-0.12222143566786553,-1.066387102299891,-2.767775143667183,-0.8689294457435608,0.12191736698150635,-0.47968509793281555
1727296965031,7i,8.7005390429913,2.0s : 9.4s,0.21765627720493286,1.5157614218586264,0.8577141165733337,-0.9597902894020081,-0.6253895163536072,0.9599277377128601,-0.7520243525505066,0.900294840335846,-0.11137002624915082,-1.0771058732828458,-2.7640713395427112,-0.8751345872879028,0.1111399456858635,-0.4709430932998657
1727296965041,7i,8.7005390429913,2.0s : 9.4s,0.3108322493106916,1.6164479161257999,0.8630015254020691,-0.5876550674438477,-0.27376866340637207,0.9514923691749573,-0.8118504285812378,1.0239458084106445,-0.10335510669041281,-1.0844271141856094,-2.7585501930751217,-0.8793182373046875,0.10317119210958481,-0.4649249017238617
1727296965051,7i,8.7005390429913,2.0s : 9.4s,0.4261218604507677,1.7097104434490649,0.8140988349914551,-0.18634645640850067,0.11015360057353973,0.9405595660209656,-0.8591316938400269,1.1403290033340454,-0.09871761573871839,-1.087599224779814,-2.7514797523772208,-0.881202757358551,0.09855736047029495,-0.4623505771160126
1727296965061,7i,8.7005390429913,2.0s : 9.4s,0.5561644748354313,1.7946004687545847,0.7905448079109192,0.21757358312606812,0.5185384154319763,0.9246540665626526,-0.9229598045349121,1.2303458452224731,-0.09778288894240575,-1.086619834568676,-2.7429019324439694,-0.880830705165863,0.09762714058160782,-0.4632560908794403
1727296965071,7i,8.7005390429913,2.0s : 9.4s,0.7277593466869416,1.9477995722276074,0.8380559682846069,0.6593409776687622,0.9393841624259949,0.9955068826675415,-1.0250284671783447,1.3237091302871704,-0.10042298997857545,-1.0812298017938036,-2.7322716387004786,-0.8780903816223145,0.10025428235530853,-0.4678741991519928
1727296965081,7i,8.7005390429913,2.0s : 9.4s,0.9195227802314029,2.035593251594034,0.8856293559074402,1.1212925910949707,1.367283821105957,1.039717674255371,-1.052324891090393,1.398298740386963,-0.10638904694199565,-1.0709199473050584,-2.7190619663301425,-0.8726796507835388,0.10618846118450165,-0.47660699486732483
1727296965091,7i,8.7005390429913,2.0s : 9.4s,1.112172544999536,2.1146456196964083,0.8405859470367432,1.5797313451766968,1.8224753141403198,1.0796749591827393,-1.112932562828064,1.4378488063812256,-0.11615375332518753,-1.0557150242652638,-2.703635360720117,-0.8643887042999268,0.11589274555444717,-0.489286333322525
1727296965101,7i,8.7005390429913,2.0s : 9.4s,1.3198865714865646,2.27731874101746,0.7538830041885376,2.0243465900421143,2.2454240322113037,1.2015323638916016,-1.2372798919677734,1.4871580600738525,-0.12982568303618294,-1.0355702327566847,-2.686437494853704,-0.8529147505760193,0.12946128845214844,-0.5057433247566223
1727296965111,7i,8.7005390429913,2.0s : 9.4s,1.5508387489448598,2.347195005339215,0.8037881851196289,2.482767343521118,2.697108745574951,1.3248000144958496,-1.2609564065933228,1.471128225326538,-0.14685973454052145,-1.0103634541654167,-2.6668220162519636,-0.8379073143005371,0.14633239805698395,-0.5258309841156006
1727296965121,7i,8.7005390429913,2.0s : 9.4s,1.814791130798371,2.404508557749605,0.9126999974250793,2.9712119102478027,3.162900686264038,1.487673044204712,-1.253801703453064,1.4129655361175537,-0.16677458713143786,-0.9794673966926316,-2.6434445318527837,-0.8186817765235901,0.166002556681633,-0.549730122089386
1727296965131,7i,8.7005390429913,2.0s : 9.4s,2.105364819084292,2.541776428947167,1.0148447751998901,3.5019638538360596,3.690460205078125,1.661461353302002,-1.29474937915802,1.4226024150848389,-0.18929522091724585,-0.9421574496179156,-2.6154872271864282,-0.7943806648254395,0.1881667524576187,-0.5775402188301086
1727296965141,7i,8.7005390429913,2.0s : 9.4s,2.422466041886953,2.725921730517009,1.0654940605163574,4.068880558013916,4.289270877838135,1.877140998840332,-1.3497419357299805,1.4440178871154785,-0.21465246473935487,-0.8977002648891527,-2.582329973533912,-0.7639511823654175,0.2130078822374344,-0.6091027855873108
1727296965151,7i,8.7005390429913,2.0s : 9.4s,2.7644645490081805,3.009078939414525,0.9814460277557373,4.676198959350586,4.93618631362915,2.1622025966644287,-1.4501897096633911,1.5087696313858032,-0.24327741725756688,-0.8452248613179818,-2.5437368495726136,-0.7260909676551819,0.24088482558727264,-0.644023597240448
1727296965161,7i,8.7005390429913,2.0s : 9.4s,3.132016139653081,3.393366630401449,0.8019769787788391,5.27955961227417,5.654490947723389,2.5263619422912598,-1.5859575271606445,1.617767333984375,-0.2756217602949752,-0.7841159677869303,-2.499450543556944,-0.6795448660850525,0.27214527130126953,-0.6812897324562073
1727296965171,7i,8.7005390429913,2.0s : 9.4s,3.5356363580380705,3.791344333065279,0.566462516784668,5.996682167053223,6.4700493812561035,2.9496495723724365,-1.648280143737793,1.7196022272109985,-0.31184901209777527,-0.7129222344179148,-2.448171901339677,-0.622501015663147,0.30681899189949036,-0.7199684977531433
1727296965181,7i,8.7005390429913,2.0s : 9.4s,3.9833071258173676,4.2051255195330635,0.3368173837661743,6.824531555175781,7.306624889373779,3.3868470191955566,-1.6827683448791504,1.8386512994766235,-0.35114947807388974,-0.6293824620376284,-2.388199298128296,-0.5527253150939941,0.3439773619174957,-0.7590614557266235
1727296965191,7i,8.7005390429913,2.0s : 9.4s,4.499864873367936,4.595665548378369,0.18810831010341644,7.788374423980713,8.253865242004395,3.8773276805877686,-1.683726191520691,1.8032021522521973,-0.39166108708994596,-0.5304725222864978,-2.316917474487558,-0.46762922406196594,0.3817242383956909,-0.7972511649131775
1727296965201,7i,8.7005390429913,2.0s : 9.4s,5.128425852812308,5.056329111575001,0.16833141446113586,8.936213493347168,9.12268352508545,4.490324974060059,-1.6391499042510986,1.6482212543487549,-0.4295849850780179,-0.4127882501857982,-2.2315494699586393,-0.3647145628929138,0.4164935350418091,-0.8327763080596924
1727296965211,7i,8.7005390429913,2.0s : 9.4s,5.844672277432714,5.689725501344571,-0.2031754106283188,10.246519088745117,10.013583183288574,5.234103202819824,-1.6202032566070557,1.5336496829986572,-0.4615852824770396,-0.27376940243645986,-2.13178667558094,-0.24206829071044922,0.44536805152893066,-0.8620036244392395
1727296965221,7i,8.7005390429913,2.0s : 9.4s,6.654773752375769,6.679914297113743,-0.9266932010650635,11.451233863830566,11.002174377441406,6.316725730895996,-1.5361268520355225,1.5364066362380981,-0.48712564174157424,-0.11249049918658517,-2.0169605125348777,-0.09919630736112595,0.4680877923965454,-0.8780967593193054
1727296965231,7i,8.7005390429913,2.0s : 9.4s,7.485751901430367,8.02671587853667,-2.148526906967163,12.164754867553711,11.873363494873047,7.747183799743652,-1.3117187023162842,1.6397271156311035,-0.5047034290202607,0.0677686722450355,-1.88720793050069,0.05927373841404915,0.4835478663444519,-0.8733087182044983
1727296965241,7i,8.7005390429913,2.0s : 9.4s,8.192381228603601,9.516588305191641,-3.9796559810638428,12.211225509643555,12.582833290100098,9.33045768737793,-0.8567018508911133,1.6655552387237549,-0.5148605698303151,0.2602766787713033,-1.7429069918306392,0.2239857017993927,0.4924134910106659,-0.8410466313362122
1727296965251,7i,8.7005390429913,2.0s : 9.4s,8.644349353094546,10.905746748272918,-6.225220203399658,11.68521785736084,13.217707633972168,10.778627395629883,0.052798449993133545,1.6594324111938477,-0.5166318677888099,0.4590890258974866,-1.5835384489179023,0.385297566652298,0.4939543902873993,-0.7794580459594727
1727296965261,7i,8.7005390429913,2.0s : 9.4s,8.7005390429913,12.0284399738205,-8.798138618469238,10.389236450195312,13.54744815826416,11.839569091796875,1.493857979774475,1.5087611675262451,-0.5090619854800551,0.6567455052871203,-1.4072416971344028,0.5331270098686218,0.4873583912849426,-0.6915615200996399
1727296965271,7i,8.7005390429913,2.0s : 9.4s,8.263067137071697,13.230916690957697,-12.310981750488281,8.32418441772461,13.631380081176758,12.725025177001953,3.416077136993408,1.208845615386963,-0.49254425533728396,0.8444640167116614,-1.2124320440791947,0.658748209476471,0.47286924719810486,-0.5851884484291077
1727296965281,7i,8.7005390429913,2.0s : 9.4s,7.358626241640723,14.24521043478224,-15.590721130371094,6.042835235595703,13.857029914855957,13.015822410583496,5.712681770324707,0.9378988742828369,-0.46552660712516314,1.0181395760001277,-0.991504228011426,0.7605597972869873,0.4488934278488159,-0.4690878689289093
1727296965291,7i,8.7005390429913,2.0s : 9.4s,6.191829217701258,15.074264241201382,-17.23639488220215,4.417431354522705,12.342723846435547,12.354388236999512,8.56712818145752,1.0985665321350098,-0.42170013703454523,1.166152242723353,-0.7610340948288822,0.8387117981910706,0.40931224822998047,-0.3592020273208618
1727296965301,7i,8.7005390429913,2.0s : 9.4s,4.582712911222405,15.32135433859611,-17.28465461730957,1.973055362701416,12.476971626281738,10.023820877075195,11.482966423034668,1.5519007444381714,-0.3573218146032186,1.2768354267159412,-0.5370350227384919,0.8966501951217651,0.34976646304130554,-0.27144429087638855
1727296965311,7i,8.7005390429913,2.0s : 9.4s,2.8216654320698686,15.373241355940271,-16.569433212280273,-0.11280614882707596,13.271297454833984,7.767246246337891,13.09736156463623,2.1131861209869385,-0.27129544160861285,1.3463802670223621,-0.3280954921401761,0.9392659664154053,0.2679797112941742,-0.21439771354198456
1727296965321,7i,8.7005390429913,2.0s : 9.4s,1.063254344461704,14.418814384678305,-14.890230178833008,-1.2832523584365845,13.021130561828613,4.931466579437256,13.239357948303223,2.881361961364746,-0.17326615894996508,1.380335658081503,-0.1422478039034078,0.967214822769165,0.17240051925182343,-0.1864766925573349
1727296965331,7i,8.7005390429913,2.0s : 9.4s,0.9739794111407706,11.978457685608946,-14.150078773498535,-3.2043681144714355,11.123194694519043,1.7172839641571045,11.524168014526367,2.779916524887085,-0.08232457612208739,1.3805862180118114,0.024405238413280468,0.9786388278007507,0.08223161846399307,-0.18842488527297974
1727296965341,7i,8.7005390429913,2.0s : 9.4s,2.7633888980321655,7.578249400338774,-11.8015718460083,-6.793201923370361,12.138283729553223,0.01889747381210327,7.329190731048584,1.9267771244049072,-0.0004142528656976021,1.3357857013417351,0.18186404464153147,0.9725117683410645,0.000414252863265574,-0.23285329341888428
1727296965351,7i,8.7005390429913,2.0s : 9.4s,3.0001307694042056,5.4358124710608156,-17.494422912597656,3.3648128509521484,16.060823440551758,1.757333755493164,-0.736005425453186,-5.090985298156738,0.13228470866350928,1.3098027259582563,0.27484047771635967,0.9576930403709412,-0.13189923763275146,-0.25578615069389343
1727296965361,7i,8.7005390429913,2.0s : 9.4s,4.219802631369943,14.113295057491618,-35.85799026489258,-9.266651153564453,0.32720863819122314,7.608528137207031,-10.895774841308594,4.751577377319336,0.09461551810759791,1.2505839788011066,0.5645330946977719,0.9449232816696167,-0.0944744125008583,-0.3133602738380432
1727296965371,7i,8.7005390429913,2.0s : 9.4s,2.538699308524825,16.679964470448333,-12.624473571777344,-9.985583305358887,13.275041580200195,11.38931941986084,3.0745911598205566,11.792010307312012,0.08340052963298783,1.1423271356478533,0.81980444324446,0.9064412713050842,-0.08330387622117996,-0.41403475403785706
1727296965381,7i,8.7005390429913,2.0s : 9.4s,3.8263319247745815,10.34141797737323,-29.240617752075195,-8.244681358337402,1.6729563474655151,8.573844909667969,5.609763145446777,-1.4016656875610352,0.06159950284162368,1.0363317084963597,1.0208523607259659,0.8589092493057251,-0.061560552567243576,-0.5084142684936523
1727296965391,7i,8.7005390429913,2.0s : 9.4s,5.2474505467191666,15.574599019259725,-20.172361373901367,-9.228997230529785,-2.3791399002075195,2.0772829055786133,7.30468225479126,13.597597122192383,-0.10410578395448535,0.9662151498678588,1.24574964047546,0.8182857632637024,0.10391783714294434,-0.5653400421142578
1727296965401,7i,8.7005390429913,2.0s : 9.4s,5.534461013539244,13.876404391917601,-8.422335624694824,-16.13933563232422,-2.6109328269958496,2.80216646194458,12.789663314819336,4.596408843994141,-0.1963367061685254,0.8384361439802306,1.3235119787545282,0.7293122410774231,0.19507773220539093,-0.6557807326316833
1727296965411,7i,8.7005390429913,2.0s : 9.4s,5.346752111440772,9.893974548912952,-6.008384704589844,-14.155952453613281,-4.575295925140381,3.858339309692383,8.810068130493164,-2.320915699005127,-0.2822891153959711,0.700944441500531,1.3556466518334662,0.6194132566452026,0.27855488657951355,-0.7339853048324585
1727296965421,7i,8.7005390429913,2.0s : 9.4s,5.525366421096592,2.7540484595625254,0.10191631317138672,-15.091553688049316,-1.2722705602645874,0.23921427130699158,2.724385976791382,0.32446956634521484,-0.31595519574707454,0.5511044523037606,1.3424096262886034,0.49770888686180115,0.31072452664375305,-0.8097753524780273
1727296965431,7i,8.7005390429913,2.0s : 9.4s,4.485675072147727,6.003501059250773,-3.1625571250915527,-14.017321586608887,1.0778368711471558,5.849339008331299,0.012335747480392456,-1.3517048358917236,-0.32929174285653584,0.4059947009986287,1.3511960762973116,0.3737137019634247,0.32337290048599243,-0.8693491816520691
1727296965441,7i,8.7005390429913,2.0s : 9.4s,3.9688644288173816,7.813601385687097,-6.369382858276367,-12.183646202087402,-1.12686026096344,5.807277202606201,-1.0824055671691895,5.114322662353516,-0.3719598963815102,0.28244705651012975,1.3705072561340408,0.2596477270126343,0.36344200372695923,-0.8947027325630188
1727296965451,7i,8.7005390429913,2.0s : 9.4s,4.459758503908899,5.755161697369391,-6.42366886138916,-12.19816780090332,-3.0675642490386963,2.299509048461914,-1.6587350368499756,5.008267402648926,-0.4430294101879149,0.15817502238304512,1.3636541569074143,0.14230920374393463,0.42867836356163025,-0.8921787142753601
1727296965461,7i,8.7005390429913,2.0s : 9.4s,4.3097516890964105,4.931064842011421,-4.2802581787109375,-11.511249542236328,-4.864694595336914,2.737212896347046,0.4909968972206116,4.072098731994629,-0.4982342113371391,0.020898475962720826,1.3305880570791766,0.01835646480321884,0.4778751730918884,-0.878235936164856
1727296965471,7i,8.7005390429913,2.0s : 9.4s,4.065087459397767,3.5053412607899417,-2.9994218349456787,-10.562232971191406,-5.868008136749268,2.228200912475586,0.4942174553871155,2.6605050563812256,-0.5334402523855657,-0.11969548122742697,1.2781401074283696,-0.10281939804553986,0.5084986090660095,-0.854901909828186
1727296965481,7i,8.7005390429913,2.0s : 9.4s,3.925130052006533,2.9530858285497654,-1.3386021852493286,-10.42535400390625,-5.419747829437256,1.2898192405700684,0.12283951044082642,2.6536753177642822,-0.545063161197899,-0.25970342715938793,1.2142989893043956,-0.21958309412002563,0.5184720754623413,-0.8264199495315552
1727296965491,7i,8.7005390429913,2.0s : 9.4s,3.66783529915629,2.4146831078945454,-0.4314541220664978,-10.435093879699707,-5.223670482635498,1.6309632062911987,0.2583826184272766,1.7617865800857544,-0.536218868148108,-0.39643425264140575,1.1522592158110712,-0.33193668723106384,0.5108892321586609,-0.7929755449295044
1727296965501,7i,8.7005390429913,2.0s : 9.4s,3.4277910097873807,2.4223959824096917,-0.07470293343067169,-10.050500869750977,-4.90950870513916,1.7083392143249512,0.0481208860874176,1.7167596817016602,-0.5152732673414837,-0.5257338280729976,1.0989278583965378,-0.4366869628429413,0.49277263879776,-0.7526483535766602
1727296965511,7i,8.7005390429913,2.0s : 9.4s,3.256463034643332,2.5906487688257624,-0.4290025532245636,-9.65221881866455,-4.6410441398620605,1.7339060306549072,-0.20726430416107178,1.9136542081832886,-0.4905938983461575,-0.6466300240967691,1.0523584232721264,-0.5314372181892395,0.47114983201026917,-0.7039831876754761
1727296965521,7i,8.7005390429913,2.0s : 9.4s,3.203241976827308,2.593088359942294,-0.7593719363212585,-9.24617862701416,-4.558508396148682,1.410195231437683,-0.09120884537696838,2.1741981506347656,-0.4658815535108907,-0.7615120449724847,1.008115783062037,-0.6164787411689758,0.44921058416366577,-0.6466558575630188
1727296965531,7i,8.7005390429913,2.0s : 9.4s,3.0665581146528025,2.1252585129987795,-0.3268403708934784,-8.731550216674805,-4.597404956817627,1.3100759983062744,0.09277227520942688,1.6708734035491943,-0.43659105733200737,-0.8687657144823279,0.9684041535314902,-0.6919119358062744,0.4228527545928955,-0.5851953029632568
1727296965541,7i,8.7005390429913,2.0s : 9.4s,2.7402222197542265,1.9361276021717906,0.39224347472190857,-8.002925872802734,-4.512730121612549,1.5451750755310059,0.1865992248058319,1.1516096591949463,-0.40006812790407537,-0.9646499281354199,0.9386792613822611,-0.7569517493247986,0.3894810974597931,-0.5247175693511963
1727296965551,7i,8.7005390429913,2.0s : 9.4s,2.332748031350354,2.0879306533794315,0.9075969457626343,-7.294932842254639,-4.709132671356201,1.747708797454834,0.38532689213752747,1.0754029750823975,-0.3582165312542433,-1.0489162016107594,0.9177049117930686,-0.8118568062782288,0.3506045341491699,-0.4668671786785126
1727296965561,7i,8.7005390429913,2.0s : 9.4s,1.848312950453349,2.236619497692049,2.3912858963012695,-6.7458014488220215,-4.70485258102417,1.7950873374938965,0.6847586631774902,1.14509117603302,-0.3087398348689638,-1.121620965547036,0.90944451106033,-0.8582128882408142,0.30385830998420715,-0.41369158029556274
1727296965571,7i,8.7005390429913,2.0s : 9.4s,1.3560620371845624,2.294100416053687,3.4389431476593018,-6.440704822540283,-4.343490123748779,2.1069045066833496,0.5802170634269714,0.6979959011077881,-0.2553585748106216,-1.1850418022397973,0.9191202890262191,-0.8964704871177673,0.25259238481521606,-0.3640573024749756
1727296965581,7i,8.7005390429913,2.0s : 9.4s,0.9618056376133812,2.417543254440469,3.6135458946228027,-5.831695556640625,-4.523567199707031,2.2736568450927734,0.3299451470375061,0.75242018699646,-0.20175531111304695,-1.2422960995072378,0.9373741231702699,-0.9273281693458557,0.2003893405199051,-0.3160797953605652
1727296965591,7i,8.7005390429913,2.0s : 9.4s,0.6816660598085367,2.1888506859163064,4.152519702911377,-5.165796279907227,-4.654474258422852,1.9598910808563232,0.3620799779891968,0.9048714637756348,-0.1463150378916569,-1.293300117074751,0.96052504311412,-0.9514680504798889,0.14579354226589203,-0.2710213363170624
1727296965601,7i,8.7005390429913,2.0s : 9.4s,0.45615185745704123,2.196956801241203,4.821849346160889,-4.4919657707214355,-4.569190979003906,1.9417674541473389,0.5134299993515015,0.890251636505127,-0.09036119187528989,-1.3377778938718257,0.9927674236380244,-0.9690042734146118,0.09023827314376831,-0.22997333109378815
1727296965611,7i,8.7005390429913,2.0s : 9.4s,0.4922854351888296,2.437680339499369,5.3787384033203125,-4.0180559158325195,-4.533041000366211,2.0586862564086914,0.6473793983459473,1.13357675075531,-0.035107716140074685,-1.3776755718153282,1.032950619741251,-0.9808053374290466,0.035100504755973816,-0.19180430471897125
1727296965621,7i,8.7005390429913,2.0s : 9.4s,0.6618546605923464,2.391322923327738,5.6966447830200195,-3.802577495574951,-4.1739277839660645,1.912879228591919,0.6127527356147766,1.297633409500122,0.01767609259553733,-1.4162160650222462,1.0801467057484129,-0.9879218935966492,-0.01767517253756523,-0.1539413332939148
1727296965631,7i,8.7005390429913,2.0s : 9.4s,0.7875682266655992,2.222062682474871,5.875993251800537,-3.7852113246917725,-3.5543203353881836,1.8180062770843506,0.3756595551967621,1.2211861610412598,0.06373670384310405,-1.4563213327783189,1.1323897772741722,-0.9914377331733704,-0.0636935606598854,-0.11399321258068085
1727296965641,7i,8.7005390429913,2.0s : 9.4s,0.7919242998478139,1.963420230395199,5.427207946777344,-3.5083587169647217,-3.194744825363159,1.6518476009368896,0.043606847524642944,1.0604324340820312,0.10237929518437633,-1.4974326593539953,1.1861913466345588,-0.9920880198478699,-0.10220053791999817,-0.07291407883167267
1727296965651,7i,8.7005390429913,2.0s : 9.4s,0.7117328288767534,1.742943522432838,5.12772798538208,-3.181290626525879,-3.0457231998443604,1.2351281642913818,-0.06255865097045898,1.2281681299209595,0.1364575258220037,-1.5368403453195065,1.2370730600636606,-0.9901331067085266,-0.13603442907333374,-0.033633869141340256
1727296965661,7i,8.7005390429913,2.0s : 9.4s,0.6660117669196772,1.5823454034708127,5.237643241882324,-3.0677621364593506,-2.6001315116882324,1.0219223499298096,0.0162602961063385,1.2079848051071167,0.1654979900758566,-1.5759093239656354,1.2892137531790344,-0.9863236546516418,-0.1647435426712036,0.005043114069849253
1727296965671,7i,8.7005390429913,2.0s : 9.4s,0.6437573694390801,1.4745214595817837,5.0513596534729,-2.8994157314300537,-2.303731679916382,1.0266005992889404,0.09170852601528168,1.0544639825820923,0.1885729920171502,-1.615015479130312,1.3420271801782084,-0.9813125133514404,-0.1874573826789856,0.04342111200094223
1727296965681,7i,8.7005390429913,2.0s : 9.4s,0.5815872667140047,1.3862624443556766,4.88927698135376,-2.7684943675994873,-2.108689785003662,0.7780131101608276,0.1569335013628006,1.136569857597351,0.207429005653919,-1.6535143205086926,1.3941132117849586,-0.9752177596092224,-0.2059447020292282,0.08085254579782486
1727296965691,7i,8.7005390429913,2.0s : 9.4s,0.5149527621444735,1.1234489706542148,4.910979747772217,-2.7152976989746094,-1.8272234201431274,0.5524700284004211,0.142289936542511,0.9678161144256592,0.22206773639607888,-1.6917479541471019,1.4457991669253971,-0.9683178663253784,-0.2202470600605011,0.11769410967826843
1727296965701,7i,8.7005390429913,2.0s : 9.4s,0.48746317224026153,0.9809209495167492,4.912336826324463,-2.644179344177246,-1.5780918598175049,0.5509740114212036,0.16540035605430603,0.7945289611816406,0.2319114149590179,-1.7302276540217787,1.498263425294255,-0.9608861804008484,-0.22983819246292114,0.15450668334960938
1727296965711,7i,8.7005390429913,2.0s : 9.4s,0.4714838577093672,1.002008592756758,4.650002956390381,-2.3314530849456787,-1.5346345901489258,0.5690014362335205,0.2541561722755432,0.7846421003341675,0.23862243325656363,-1.7666101293208927,1.5493626867378203,-0.9530956149101257,-0.23636431992053986,0.18905174732208252
1727296965721,7i,8.7005390429913,2.0s : 9.4s,0.4810763055623455,1.1734227765101208,4.564335823059082,-1.9969103336334229,-1.402678370475769,0.4834252595901489,0.39422255754470825,0.9938861131668091,0.2433582089820858,-1.7989426929298027,1.598590722877961,-0.9453851580619812,-0.24096323549747467,0.21950799226760864
1727296965731,7i,8.7005390429913,2.0s : 9.4s,0.5175555788966685,1.0981789248022777,4.418198585510254,-1.7101800441741943,-1.1782491207122803,0.46805793046951294,0.41946008801460266,0.9005398154258728,0.24499308259409222,-1.8287993271326521,1.6467462210865693,-0.9380285739898682,-0.2425496131181717,0.24753107130527496
1727296965741,7i,8.7005390429913,2.0s : 9.4s,0.5656642526256601,0.9923078835509376,4.209171295166016,-1.368223786354065,-1.0540786981582642,0.4600234031677246,0.35889771580696106,0.8026492595672607,0.2440806896577342,-1.8553013233619184,1.692714009684264,-0.9313521385192871,-0.2416643649339676,0.27236291766166687
1727296965751,7i,8.7005390429913,2.0s : 9.4s,0.5882503453903252,1.009073650033184,3.7097272872924805,-0.9528519511222839,-1.0676926374435425,0.39333242177963257,0.3004399538040161,0.8793492317199707,0.2426014271731549,-1.876805945426636,1.7349205432896257,-0.925619900226593,-0.24022868275642395,0.29243412613868713
1727296965761,7i,8.7005390429913,2.0s : 9.4s,0.6337902455373526,1.046325856327898,3.5025198459625244,-0.7448782920837402,-1.0555741786956787,0.3961706757545471,0.36050933599472046,0.898821234703064,0.24166951534326414,-1.8943663383224258,1.7734683328608822,-0.9205542206764221,-0.2393239587545395,0.30871355533599854
1727296965771,7i,8.7005390429913,2.0s : 9.4s,0.6830303251576616,0.928584941235956,3.4162070751190186,-0.6706562042236328,-0.9919769167900085,0.4346916675567627,0.4454166293144226,0.6891423463821411,0.2400902081122607,-1.9101939245371695,1.8104849037961541,-0.91590815782547,-0.23779024183750153,0.3233698308467865
1727296965781,7i,8.7005390429913,2.0s : 9.4s,0.7108833428737126,0.8423972938189331,3.440004348754883,-0.564784049987793,-1.0530061721801758,0.3684396743774414,0.5228824615478516,0.5481599569320679,0.2379354514491714,-1.9250408939014223,1.8472006001541394,-0.9114848375320435,-0.23569674789905548,0.33710911870002747
1727296965791,7i,8.7005390429913,2.0s : 9.4s,0.6975992111410144,0.70385951093502,3.441555976867676,-0.45288515090942383,-1.2584614753723145,0.18269193172454834,0.5567289590835571,0.38999325037002563,0.23658790563668686,-1.9388398138558973,1.8845185401291917,-0.9070417284965515,-0.23438695073127747,0.3497680127620697
1727296965801,7i,8.7005390429913,2.0s : 9.4s,0.6746468172383465,0.656124431995132,3.4651224613189697,-0.44696706533432007,-1.3037976026535034,0.0740930438041687,0.5422740578651428,0.36186784505844116,0.2360649581343332,-1.9520330715102996,1.9223501346341565,-0.9024620056152344,-0.23387853801250458,0.3617496192455292
1727296965811,7i,8.7005390429913,2.0s : 9.4s,0.6832962540817326,0.567445360006953,3.6012117862701416,-0.4495459496974945,-1.1683751344680786,0.09872770309448242,0.4419132173061371,0.3419938385486603,0.23413124333323052,-1.9655475850540507,1.9608743445474062,-0.8979068994522095,-0.2319980263710022,0.3740858733654022
1727296965821,7i,8.7005390429913,2.0s : 9.4s,0.6610989723504084,0.37297460899157064,3.3552517890930176,-0.33514589071273804,-1.1461598873138428,0.05212676525115967,0.20483100414276123,0.3073062300682068,0.23103549698220652,-1.9782035251618206,1.9986101528585332,-0.8937558531761169,-0.22898562252521515,0.3857021927833557
1727296965831,7i,8.7005390429913,2.0s : 9.4s,0.5910472916456372,0.4284569400959672,3.074495792388916,-0.19030018150806427,-1.111337661743164,-0.15115362405776978,0.009598195552825928,0.40079396963119507,0.22862560914584604,-1.98872015564234,2.0333974125055545,-0.8901517987251282,-0.22663910686969757,0.39530274271965027
1727296965841,7i,8.7005390429913,2.0s : 9.4s,0.5219533251094959,0.5045528198617494,2.668972969055176,0.05377586558461189,-1.023787021636963,-0.25069063901901245,-0.07513618469238281,0.43137258291244507,0.22644620633601492,-1.9965108880860416,2.064983642313393,-0.8874930143356323,-0.2245158851146698,0.4024287164211273
1727296965851,7i,8.7005390429913,2.0s : 9.4s,0.479654226931455,0.5337983877870512,2.2369165420532227,0.1339678019285202,-0.9667248129844666,-0.2011067271232605,-0.05952882766723633,0.49086976051330566,0.2254730078588768,-2.00143064586405,2.0919792424569352,-0.885700523853302,-0.2235674262046814,0.40688106417655945
1727296965861,7i,8.7005390429913,2.0s : 9.4s,0.45728696583597556,0.5034836546277072,2.013401985168457,0.13486742973327637,-0.8021885752677917,-0.13281768560409546,-0.014429852366447449,0.485434889793396,0.2246685133606329,-2.0051761783113466,2.115472692423905,-0.8843331336975098,-0.22278322279453278,0.41027116775512695
1727296965871,7i,8.7005390429913,2.0s : 9.4s,0.4396000762275207,0.4230602903642062,1.9202739000320435,0.09677322208881378,-0.6340054869651794,-0.10163867473602295,0.0015406906604766846,0.4106667935848236,0.22292589382791317,-2.008755320191027,2.1368226314828567,-0.883209228515625,-0.22108405828475952,0.4135976731777191
1727296965881,7i,8.7005390429913,2.0s : 9.4s,0.38680339042882617,0.4297313276836393,1.7314918041229248,0.11095349490642548,-0.518749475479126,-0.18795543909072876,0.01843559741973877,0.3860076367855072,0.22033300447152707,-2.0119038909741436,2.1562833975791498,-0.8824182748794556,-0.21855458617210388,0.4166199266910553
1727296965891,7i,8.7005390429913,2.0s : 9.4s,0.3196658289143512,0.5091583055457423,1.628644347190857,0.055240023881196976,-0.4315256178379059,-0.2788892388343811,0.029679492115974426,0.4249495267868042,0.21754859721217365,-2.0146877282807565,2.1738154035836943,-0.8818010687828064,-0.21583665907382965,0.41933444142341614
1727296965901,7i,8.7005390429913,2.0s : 9.4s,0.2626246050189641,0.4734288667460141,1.5499564409255981,0.002543523907661438,-0.3059772551059723,-0.29194140434265137,-0.0013383179903030396,0.3726973533630371,0.21422462006414,-2.017462391722358,2.1900260862072534,-0.8812763690948486,-0.212589830160141,0.4220871031284332
1727296965911,7i,8.7005390429913,2.0s : 9.4s,0.2353507187821562,0.3970546064017949,1.471014142036438,0.006744882091879845,-0.2390909343957901,-0.23397374153137207,-0.04199835658073425,0.3180326819419861,0.2102646403788523,-2.020247615916196,2.2050784083767176,-0.8808485269546509,-0.20871871709823608,0.42490237951278687
1727296965921,7i,8.7005390429913,2.0s : 9.4s,0.21366093150029977,0.3697363790896287,1.3101469278335571,0.055962227284908295,-0.27821996808052063,-0.2174873948097229,-0.04050074517726898,0.29624974727630615,0.20653944949390673,-2.0226830741530217,2.21899279706565,-0.8805045485496521,-0.20507413148880005,0.4273830056190491
1727296965931,7i,8.7005390429913,2.0s : 9.4s,0.20182578888032104,0.3859269860385101,1.269507884979248,0.10115864872932434,-0.3182283639907837,-0.23544734716415405,0.0022206902503967285,0.3057764768600464,0.20373080850952935,-2.024455286378235,2.2320721003797024,-0.8802600502967834,-0.20232437551021576,0.42919352650642395
1727296965941,7i,8.7005390429913,2.0s : 9.4s,0.202509970999339,0.3190710471987727,1.2383414506912231,0.1045035794377327,-0.31896844506263733,-0.20994693040847778,0.05942128598690033,0.2328040599822998,0.2010936376613163,-2.0259821080874416,2.2449893388764792,-0.8800799250602722,-0.19974105060100555,0.4307700991630554
1727296965951,7i,8.7005390429913,2.0s : 9.4s,0.21157458547396588,0.286966159820086,1.148185133934021,0.1046510711312294,-0.33999329805374146,-0.14010483026504517,0.11558611690998077,0.22217124700546265,0.19880219456592968,-2.0273120567304486,2.2573981386408732,-0.8799148201942444,-0.1974952667951584,0.4321408271789551
1727296965961,7i,8.7005390429913,2.0s : 9.4s,0.221635252087073,0.30842578531285625,1.0831371545791626,0.1660771518945694,-0.35807910561561584,-0.1194116473197937,0.1373218595981598,0.249018132686615,0.19703543106685556,-2.0283095620407834,2.2691870850677525,-0.8797950148582458,-0.1957629919052124,0.433171808719635
1727296965971,7i,8.7005390429913,2.0s : 9.4s,0.2209887754628567,0.3286113902074446,0.960170567035675,0.26838377118110657,-0.40437644720077515,-0.15510863065719604,0.1086893081665039,0.2685393691062927,0.19592353998964593,-2.028281291191611,2.2802647507193976,-0.8800017237663269,-0.19467249512672424,0.43324267864227295
1727296965981,7i,8.7005390429913,2.0s : 9.4s,0.20989853552939186,0.3559422777558363,0.8398755788803101,0.3308441936969757,-0.4537847340106964,-0.2048996090888977,0.0847160667181015,0.2784497141838074,0.19587521524239032,-2.0271761734769376,2.2903996732712666,-0.8804886937141418,-0.1946250945329666,0.43227419257164
1727296965991,7i,8.7005390429913,2.0s : 9.4s,0.20385233996581073,0.33526926705305155,0.7789099812507629,0.33878806233406067,-0.4285244345664978,-0.20097249746322632,0.07658778131008148,0.2571961283683777,0.1963154874026665,-2.0256057343101235,2.299797790255401,-0.8810890913009644,-0.19505693018436432,0.43085306882858276
1727296966001,7i,8.7005390429913,2.0s : 9.4s,0.2089157674067722,0.28189738293298394,0.6991914510726929,0.35240480303764343,-0.41114866733551025,-0.14413636922836304,0.05418303608894348,0.23612505197525024,0.1968395356093159,-2.0238374054171753,2.30842263186298,-0.8817576766014099,-0.19557087123394012,0.4292495846748352
1727296966011,7i,8.7005390429913,2.0s : 9.4s,0.2140445267975817,0.285729172516585,0.6704952120780945,0.3446767330169678,-0.4088450074195862,-0.12268185615539551,0.035438209772109985,0.2556060552597046,0.19754817401689517,-2.0218700851171407,2.316571051680098,-0.8824755549430847,-0.1962657868862152,0.42745357751846313
1727296966021,7i,8.7005390429913,2.0s : 9.4s,0.20601144471711078,0.27033296639432935,0.6101493239402771,0.33521583676338196,-0.38527920842170715,-0.1339014768600464,0.018220901489257812,0.23413309454917908,0.19836754194799935,-2.0199661619779885,2.324187971829568,-0.8831428289413452,-0.19706915318965912,0.4257027506828308
1727296966031,7i,8.7005390429913,2.0s : 9.4s,0.19848210854562048,0.2742006149747234,0.5704501271247864,0.3247787356376648,-0.34365853667259216,-0.12310671806335449,0.02205216884613037,0.24401724338531494,0.19911596807660478,-2.018056487135288,2.3312310571740222,-0.8838207721710205,-0.1978028416633606,0.4239514470100403
1727296966041,7i,8.7005390429913,2.0s : 9.4s,0.1924882731919131,0.2773062182561666,0.5143263936042786,0.31857624650001526,-0.3071276843547821,-0.10231143236160278,0.01761557161808014,0.257139652967453,0.19971128506464467,-2.0160433103455766,2.3376606631557646,-0.8845659494400024,-0.19838635623455048,0.42212048172950745
1727296966051,7i,8.7005390429913,2.0s : 9.4s,0.18097336030753494,0.2749510655662949,0.3994086980819702,0.311891108751297,-0.26900243759155273,-0.08330380916595459,0.00335732102394104,0.2620062828063965,0.20032740229954243,-2.0140173590015196,2.3432109602970494,-0.8853088021278381,-0.19899019598960876,0.42027509212493896
1727296966061,7i,8.7005390429913,2.0s : 9.4s,0.16912279889800633,0.27072858364326025,0.33027011156082153,0.3043557107448578,-0.23987358808517456,-0.07231801748275757,-0.008780673146247864,0.260743111371994,0.20108297631637917,-2.01169180800488,2.347738088078283,-0.8861474394798279,-0.19973060488700867,0.41815078258514404
1727296966071,7i,8.7005390429913,2.0s : 9.4s,0.15366457726014227,0.26839656393835204,0.2414129674434662,0.3223889470100403,-0.2096896469593048,-0.07903671264648438,-0.02289767563343048,0.2554713487625122,0.20189015510364494,-2.009230681374434,2.3513264697693526,-0.8870276808738708,-0.20052145421504974,0.4159000515937805
1727296966081,7i,8.7005390429913,2.0s : 9.4s,0.13720515499507033,0.24844960129401347,0.16790571808815002,0.29436343908309937,-0.19648143649101257,-0.07272505760192871,-0.014179825782775879,0.2371438443660736,0.20287665374486408,-2.0067136522838958,2.3540880498741252,-0.8878918886184692,-0.20148782432079315,0.41358229517936707
1727296966091,7i,8.7005390429913,2.0s : 9.4s,0.12265698403514386,0.20654672117989076,0.13248834013938904,0.25076261162757874,-0.1628359854221344,-0.05294221639633179,0.01390393078327179,0.1991616189479828,0.2038971610483513,-2.0043928728065366,2.3562124459118388,-0.888662576675415,-0.2024872899055481,0.4114341139793396
1727296966101,7i,8.7005390429913,2.0s : 9.4s,0.11462029348377305,0.1689496016744298,0.10085877031087875,0.22984907031059265,-0.12604734301567078,-0.020017921924591064,0.03480224311351776,0.16410988569259644,0.20471661188934603,-2.0023626780255412,2.3579198878993557,-0.8893446922302246,-0.2032897025346756,0.409559428691864
1727296966111,7i,8.7005390429913,2.0s : 9.4s,0.10633438930844046,0.1545279837319336,0.06385388225317001,0.24081657826900482,-0.10896676033735275,-0.020940661430358887,0.04122796654701233,0.14744707942008972,0.20545101868255045,-2.0002549471073823,2.3591754788461925,-0.8900703191757202,-0.20400871336460114,0.4076218903064728
1727296966121,7i,8.7005390429913,2.0s : 9.4s,0.09450398142661495,0.15858937417988267,0.05584841966629028,0.2276403307914734,-0.0761273205280304,-0.043639421463012695,0.055958136916160583,0.14182692766189575,0.20608005677670566,-1.9980756565747804,2.3601137204844687,-0.8908394575119019,-0.2046244889497757,0.40562787652015686
1727296966131,7i,8.7005390429913,2.0s : 9.4s,0.08712803028335886,0.11030760047853445,0.05142370983958244,0.2005472332239151,-0.012119745835661888,-0.02943319082260132,0.045125529170036316,0.0962556004524231,0.20626822783876106,-1.996065693049797,2.360822263082934,-0.8916177153587341,-0.20480866730213165,0.40382054448127747
1727296966141,7i,8.7005390429913,2.0s : 9.4s,0.08517865637804901,0.06178716936049341,0.004944358952343464,0.20696093142032623,0.025105120614171028,0.0009710192680358887,0.013200268149375916,0.060352832078933716,0.20606160053643463,-1.9940948546687873,2.3610385855405283,-0.8924502730369568,-0.20460641384124756,0.40207985043525696
1727296966151,7i,8.7005390429913,2.0s : 9.4s,0.08096919608631999,0.0551167484788837,-0.04722989723086357,0.20774009823799133,0.03715725615620613,0.007632911205291748,0.0022079050540924072,0.05454099178314209,0.20586842747780726,-1.9919556767544664,2.3607381915850714,-0.8933445811271667,-0.20441733300685883,0.40018606185913086
1727296966161,7i,8.7005390429913,2.0s : 9.4s,0.07574164473676931,0.050265627544673466,-0.08317777514457703,0.2250216156244278,0.025212712585926056,0.001091301441192627,0.020731687545776367,0.04577815532684326,0.2058524403339411,-1.98962016248906,2.3599354241058768,-0.8942797780036926,-0.2044016718864441,0.3980998694896698
1727296966171,7i,8.7005390429913,2.0s : 9.4s,0.07657478860531883,0.04029404327579207,-0.09787429124116898,0.23788924515247345,0.014882875606417656,0.010870873928070068,0.02647535502910614,0.028363525867462158,0.2060615513591658,-1.9871034724505663,2.3590056061029676,-0.8952396512031555,-0.20460636913776398,0.3958306610584259
1727296966181,7i,8.7005390429913,2.0s : 9.4s,0.08474888819854108,0.030921954736871357,-0.09328833222389221,0.2639109790325165,0.011765113100409508,0.02383279800415039,0.01963391900062561,-0.0016353130340576172,0.2063053872688314,-1.9844174589610388,2.358061806988642,-0.8962540626525879,-0.20484504103660583,0.39340460300445557
1727296966191,7i,8.7005390429913,2.0s : 9.4s,0.09365794182970152,0.036139441078095205,-0.11148785054683685,0.2857159674167633,-0.025522004812955856,0.0324254035949707,0.013842970132827759,-0.007938802242279053,0.20679627290929656,-1.98145262638607,2.357104559058662,-0.8973241448402405,-0.20532548427581787,0.3907054364681244
1727296966201,7i,8.7005390429913,2.0s : 9.4s,0.10539493398345232,0.0330451233256482,-0.054148655384778976,0.2994951605796814,-0.012237091548740864,0.02509838342666626,0.011585071682929993,-0.018106281757354736,0.20735797922352184,-1.978365576347641,2.3563811084558193,-0.898419976234436,-0.2058752030134201,0.38788771629333496
1727296966211,7i,8.7005390429913,2.0s : 9.4s,0.11971856206641629,0.06749446130175502,-0.011008508503437042,0.2986903190612793,0.010300274938344955,0.03702962398529053,-0.013644039630889893,-0.05475535988807678,0.20749179114583483,-1.9753026773282485,2.356100483392401,-0.8995783925056458,-0.20600613951683044,0.38512325286865234
1727296966221,7i,8.7005390429913,2.0s : 9.4s,0.13022418969029792,0.08089709306787433,-0.02524550072848797,0.3320099413394928,0.010667524300515652,0.037715256214141846,-0.0396365225315094,-0.0595889687538147,0.20745374216152135,-1.9721427367013769,2.355896640486308,-0.9007982015609741,-0.20596890151500702,0.3822818398475647
1727296966231,7i,8.7005390429913,2.0s : 9.4s,0.13450757333629323,0.05288534087391247,-0.06657309830188751,0.37238579988479614,-0.003556585405021906,0.020767390727996826,-0.041869521141052246,-0.02474910020828247,0.207619887191766,-1.968479975101045,2.355451892105325,-0.90216064453125,-0.2061314880847931,0.3789665400981903
1727296966241,7i,8.7005390429913,2.0s : 9.4s,0.13723837248948037,0.04090518445035135,-0.09942159056663513,0.38556843996047974,0.016820324584841728,0.019634723663330078,-0.03089316189289093,-0.018257170915603638,0.20792159253033868,-1.964493472252901,2.3546286978240247,-0.9036067724227905,-0.2064267098903656,0.3753432333469391
1727296966251,7i,8.7005390429913,2.0s : 9.4s,0.14802026583193034,0.06408227984938658,-0.08824044466018677,0.38684484362602234,0.042992573231458664,0.04896378517150879,-0.007660016417503357,-0.04062524437904358,0.2080090199987159,-1.960399633609865,2.3536081135141873,-0.9051190614700317,-0.2065122425556183,0.37163397669792175
1727296966261,7i,8.7005390429913,2.0s : 9.4s,0.1565764477246927,0.08878677556853636,-0.08763963729143143,0.38366156816482544,0.06277134269475937,0.061271607875823975,0.015863001346588135,-0.06226754188537598,0.20784693928034645,-1.956332177014463,2.3525811343959493,-0.9066542387008667,-0.20635366439819336,0.3679620027542114
1727296966271,7i,8.7005390429913,2.0s : 9.4s,0.16050735665176902,0.08447596150754601,-0.08400894701480865,0.39661529660224915,0.06348167359828949,0.0515286922454834,0.036736682057380676,-0.05595889687538147,0.20758147215759742,-1.9521992253584075,2.351522729449504,-0.9082180261611938,-0.206093892455101,0.36423206329345703
1727296966281,7i,8.7005390429913,2.0s : 9.4s,0.16261126123674735,0.06867367569645597,-0.0674653872847557,0.39980655908584595,0.060974303632974625,0.04004335403442383,0.03683209419250488,-0.04190465807914734,0.20730479133278057,-1.9479952291560467,2.3505430297503165,-0.9097943902015686,-0.20582315325737,0.3604317903518677
1727296966291,7i,8.7005390429913,2.0s : 9.4s,0.16442564646625224,0.060894380635294086,-0.06598161160945892,0.40905433893203735,0.050043195486068726,0.036794841289520264,0.021693676710128784,-0.04340103268623352,0.20702235588702578,-1.9438005029638614,2.349744651026497,-0.9113522171974182,-0.20554675161838531,0.35663339495658875
1727296966301,7i,8.7005390429913,2.0s : 9.4s,0.1631536480014098,0.053662835018466394,-0.1102910190820694,0.4233056902885437,0.015452992171049118,0.03650557994842529,0.026593610644340515,-0.02897968888282776,0.20703982034512725,-1.9394002480163481,2.3487731869535002,-0.912909209728241,-0.20556384325027466,0.35261842608451843
1727296966311,7i,8.7005390429913,2.0s : 9.4s,0.15869748158852226,0.062286509594596556,-0.11362529546022415,0.41058245301246643,0.02067365124821663,0.025673985481262207,0.05615505576133728,-0.008189350366592407,0.20732577399289243,-1.9349723412169,2.347613064799387,-0.9144067764282227,-0.20584368705749512,0.34855180978775024
1727296966321,7i,8.7005390429913,2.0s : 9.4s,0.1580838950506283,0.06869012352951366,-0.08850076794624329,0.3880835473537445,0.033110082149505615,0.03688514232635498,0.05629207193851471,-0.013748526573181152,0.2074190446139113,-1.9307500520901308,2.34656316477878,-0.915852427482605,-0.20593495666980743,0.3446810841560364
1727296966331,7i,8.7005390429913,2.0s : 9.4s,0.15210789223109228,0.05676416697759302,-0.11941074579954147,0.37808558344841003,0.01455816999077797,0.03737056255340576,0.03997069597244263,-0.01509818434715271,0.2075338832120525,-1.9266877206518265,2.3454878191400477,-0.9172229766845703,-0.20604732632637024,0.34094953536987305
1727296966341,7i,8.7005390429913,2.0s : 9.4s,0.1386642812871996,0.050471046165117515,-0.14345963299274445,0.37231478095054626,0.003964914008975029,0.011225283145904541,0.04737643897533417,0.013296335935592651,0.20794463038801478,-1.9226490550387978,2.344184510238467,-0.918512761592865,-0.2064492404460907,0.3372131586074829
1727296966351,7i,8.7005390429913,2.0s : 9.4s,0.12377437515963763,0.056965872454100716,-0.13383935391902924,0.33648979663848877,0.030835576355457306,-0.004313230514526367,0.0539456307888031,0.01778694987297058,0.2082802200053796,-1.91878533788521,2.3427634633758054,-0.9197436571121216,-0.20677758753299713,0.33363813161849976
1727296966361,7i,8.7005390429913,2.0s : 9.4s,0.11310656276457944,0.039340466136139826,-0.11569789797067642,0.28945866227149963,0.05869809910655022,0.0097581148147583,0.037548720836639404,-0.006522655487060547,0.20828664268801267,-1.9153729009283544,2.3414242232320372,-0.920875608921051,-0.20678387582302094,0.33049720525741577
1727296966371,7i,8.7005390429913,2.0s : 9.4s,0.10275898112913243,0.029943151068306847,-0.10584180802106857,0.24967750906944275,0.08359039574861526,0.018364548683166504,0.020510375499725342,-0.011775404214859009,0.2079961645695099,-1.9123906782397009,2.3401137361571642,-0.9219136834144592,-0.20649966597557068,0.32776957750320435
1727296966381,7i,8.7005390429913,2.0s : 9.4s,0.08649465322609574,0.019805257703339282,-0.11355085670948029,0.22087542712688446,0.09583268314599991,0.0024912357330322266,0.01950688660144806,0.0023501813411712646,0.20751640236438734,-1.9097455078291117,2.3387556485943035,-0.9228706955909729,-0.2060302197933197,0.3253626823425293
1727296966391,7i,8.7005390429913,2.0s : 9.4s,0.0648730661315995,0.020679061997638547,-0.1608707159757614,0.1987442821264267,0.11407168209552765,-0.01251155138015747,0.011052355170249939,0.012203693389892578,0.2069851220125672,-1.9072974790270538,2.337094249210589,-0.9237676858901978,-0.20551031827926636,0.32313862442970276
1727296966401,7i,8.7005390429913,2.0s : 9.4s,0.04995157847012794,0.029457032064682667,-0.17920070886611938,0.1935276836156845,0.12897978723049164,-0.012179911136627197,0.002106025815010071,0.02673819661140442,0.20641908540669937,-1.904902886258617,2.3350376858557675,-0.9246488213539124,-0.2049563229084015,0.3209638297557831
1727296966411,7i,8.7005390429913,2.0s : 9.4s,0.03728571715204643,0.034917952538942476,-0.22397936880588531,0.19372449815273285,0.13555480539798737,-0.015051484107971191,-0.0006096065044403076,0.03150150179862976,0.205811511390696,-1.9024644675513644,2.3326552127499696,-0.9255459308624268,-0.20436161756515503,0.3187485635280609
1727296966421,7i,8.7005390429913,2.0s : 9.4s,0.028670552319535244,0.03814544538520014,-0.23767760396003723,0.18699921667575836,0.12972088158130646,-0.01676809787750244,0.004687756299972534,0.03394010663032532,0.20533100376400104,-1.8999943406883624,2.3299828801943043,-0.9264235496520996,-0.20389121770858765,0.3164931833744049
1727296966431,7i,8.7005390429913,2.0s : 9.4s,0.02278793783195942,0.026454674416922005,-0.2699246406555176,0.18751582503318787,0.14349465072155,-0.014835715293884277,0.005008876323699951,0.021322816610336304,0.20486407945178373,-1.8975394337821028,2.327070805880921,-0.9272875785827637,-0.2034340798854828,0.3142484128475189
1727296966441,7i,8.7005390429913,2.0s : 9.4s,0.024142385238607515,0.03039102638869703,-0.27597054839134216,0.212871253490448,0.13756965100765228,-0.010565340518951416,0.012939468026161194,0.02538815140724182,0.20440813492049137,-1.8949017753966189,2.3239723797529854,-0.9282012581825256,-0.2029876559972763,0.311830997467041
1727296966451,7i,8.7005390429913,2.0s : 9.4s,0.023521329801707496,0.03662428753500869,-0.28114745020866394,0.21383139491081238,0.12291014194488525,-0.01928943395614624,0.019770711660385132,0.024049431085586548,0.20407610305252832,-1.8920975790680636,2.3208397598028574,-0.9291359782218933,-0.20266252756118774,0.3092482089996338
1727296966461,7i,8.7005390429913,2.0s : 9.4s,0.02144645536842557,0.03462533100933009,-0.25087636709213257,0.18804773688316345,0.12751075625419617,-0.0165560245513916,0.03038439154624939,-0.0012650489807128906,0.20375788111772294,-1.8894660087071466,2.3178362247705198,-0.9300076961517334,-0.2023508995771408,0.3068222105503082
1727296966471,7i,8.7005390429913,2.0s : 9.4s,0.02144988804387054,0.04186626927777582,-0.2069730907678604,0.1670582890510559,0.1340164691209793,-0.007395923137664795,0.033125028014183044,-0.02451157569885254,0.2032220680417889,-1.8871416045804636,2.3152028808681795,-0.9308211803436279,-0.20182614028453827,0.304693341255188
1727296966481,7i,8.7005390429913,2.0s : 9.4s,0.019416061890656863,0.03992151889647249,-0.19143222272396088,0.14926278591156006,0.11978292465209961,-0.010792315006256104,0.024314463138580322,-0.029766768217086792,0.20263932029086365,-1.8850771628392853,2.3128613446058868,-0.9315600991249084,-0.20125535130500793,0.30280742049217224
1727296966491,7i,8.7005390429913,2.0s : 9.4s,0.01562444779344651,0.03651053868458084,-0.178202286362648,0.13428868353366852,0.1057177409529686,-0.019857823848724365,0.019395530223846436,-0.02371707558631897,0.20215067099484657,-1.8832195089122095,2.3107229995937546,-0.9322142601013184,-0.20077666640281677,0.3011065125465393
1727296966501,7i,8.7005390429913,2.0s : 9.4s,0.013366946560060416,0.03805234026408837,-0.1795879304409027,0.13001511991024017,0.09316972643136978,-0.022421538829803467,0.014672830700874329,-0.027017831802368164,0.20176899531997358,-1.8814814321424396,2.308673545771685,-0.9328091740608215,-0.20040275156497955,0.2995092272758484
1727296966511,7i,8.7005390429913,2.0s : 9.4s,0.012385516309488158,0.03702014645562161,-0.18476951122283936,0.12448935955762863,0.0875508263707161,-0.020485281944274902,0.01261681318283081,-0.028136461973190308,0.20147711557003312,-1.8797829777622057,2.3066156787584813,-0.9333722591400146,-0.20011678338050842,0.29794225096702576
1727296966521,7i,8.7005390429913,2.0s : 9.4s,0.011964279317764098,0.03962624589997186,-0.17691132426261902,0.11839844286441803,0.08146949857473373,-0.02024143934249878,0.012770801782608032,-0.03158211708068848,0.2012293233292709,-1.878145940529818,2.304573829941532,-0.933905839920044,-0.19987399876117706,0.2964288592338562
1727296966531,7i,8.7005390429913,2.0s : 9.4s,0.012434245638561298,0.03906783956427407,-0.16315196454524994,0.12493956834077835,0.06448548287153244,-0.01570451259613037,0.01254206895828247,-0.033501654863357544,0.20104259361008847,-1.8765461083718546,2.3027236466743086,-0.9344144463539124,-0.1996910274028778,0.2949455976486206
1727296966541,7i,8.7005390429913,2.0s : 9.4s,0.012018938895606329,0.03842563025226571,-0.18089580535888672,0.12021484971046448,0.04061290621757507,-0.015466094017028809,0.01937723159790039,-0.029357314109802246,0.20107296741766967,-1.8749383614229278,2.300865206831999,-0.9348818063735962,-0.19972079992294312,0.29344114661216736
1727296966551,7i,8.7005390429913,2.0s : 9.4s,0.011080668521400515,0.050437701557899464,-0.15304261445999146,0.11083360016345978,0.03475794941186905,-0.01952528953552246,0.03411144018173218,-0.03160908818244934,0.20123834048782302,-1.8734243001954816,2.299113671771625,-0.9352933168411255,-0.19988283514976501,0.2920154631137848
1727296966561,7i,8.7005390429913,2.0s : 9.4s,0.00960004982166803,0.056278626085773956,-0.12576119601726532,0.09623974561691284,0.031426865607500076,-0.020678579807281494,0.02906864881515503,-0.043528079986572266,0.20133984675207314,-1.8720789397485211,2.2976592619398755,-0.935666024684906,-0.19998228549957275,0.2907508611679077
1727296966571,7i,8.7005390429913,2.0s : 9.4s,0.008207120229238923,0.04969387262832755,-0.12341973930597305,0.08104614168405533,0.0208766870200634,-0.015224158763885498,0.014609470963478088,-0.044991880655288696,0.20145510012921278,-1.8709274956539075,2.2963811722824463,-0.93597811460495,-0.20009522140026093,0.28966647386550903
1727296966581,7i,8.7005390429913,2.0s : 9.4s,0.009433442653990553,0.04046936522716478,-0.14025011658668518,0.07779309153556824,0.008818158879876137,-0.01581859588623047,0.007678881287574768,-0.03644964098930359,0.20171675293583569,-1.8698546926453465,2.295042904447574,-0.9362384080886841,-0.2003515660762787,0.28864678740501404
1727296966591,7i,8.7005390429913,2.0s : 9.4s,0.01142198979153103,0.032794792934740837,-0.14206479489803314,0.06855503469705582,0.0007045725360512733,-0.017041802406311035,0.007691547274589539,-0.026942819356918335,0.20188542837228887,-1.868479682708544,2.2935649508819673,-0.9366020560264587,-0.20051681995391846,0.28734928369522095
1727296966601,7i,8.7005390429913,2.0s : 9.4s,0.01285692703850746,0.034835655968750254,-0.13435335457324982,0.06128699705004692,-3.765057772397995e-05,-0.015125811100006104,0.007630839943885803,-0.030438512563705444,0.2019480804996587,-1.8669703789369865,2.2921055943419764,-0.9370226860046387,-0.20057819783687592,0.28593167662620544
1727296966611,7i,8.7005390429913,2.0s : 9.4s,0.014652068435262624,0.033639125967968767,-0.1440870612859726,0.05111793801188469,-0.005829992238432169,-0.00982588529586792,0.00984986126422882,-0.030627161264419556,0.2020325127441628,-1.865451103272758,2.2905947873104857,-0.9374396204948425,-0.20066091418266296,0.284502774477005
1727296966621,7i,8.7005390429913,2.0s : 9.4s,0.01741206510077004,0.03337163986222899,-0.13463976979255676,0.044115155935287476,0.007179548963904381,-0.014940321445465088,0.01161356270313263,-0.02748778462409973,0.20193262227961084,-1.8641309073361976,2.2891310107297724,-0.9378335475921631,-0.20056305825710297,0.2832706868648529
1727296966631,7i,8.7005390429913,2.0s : 9.4s,0.019788331862886026,0.034779839992370144,-0.12848760187625885,0.041644807904958725,0.012918926775455475,-0.01768934726715088,0.007563114166259766,-0.028974533081054688,0.20138053557608082,-1.8627864845516626,2.287689215194847,-0.9383195042610168,-0.2000221610069275,0.28204146027565
1727296966641,7i,8.7005390429913,2.0s : 9.4s,0.020256831537262387,0.0276560990978001,-0.1347699910402298,0.048672355711460114,0.011645138263702393,-0.013308465480804443,0.0011362731456756592,-0.024216800928115845,0.20095711353891693,-1.861170605868794,2.2861872246294963,-0.9388551115989685,-0.1996072679758072,0.2805491089820862
1727296966651,7i,8.7005390429913,2.0s : 9.4s,0.018267054628294737,0.019296154420326977,-0.12637650966644287,0.044095270335674286,0.01020030677318573,-0.00877368450164795,0.002115800976753235,-0.017055422067642212,0.2009134202868262,-1.859553956177452,2.284679588826373,-0.9393158555030823,-0.19956445693969727,0.2790334224700928
1727296966661,7i,8.7005390429913,2.0s : 9.4s,0.014867195522385301,0.024462690422675064,-0.09479914605617523,0.02774825692176819,0.021593309938907623,-0.005590677261352539,0.011001229286193848,-0.0211220383644104,0.20091829551395382,-1.8583119723267723,2.283431494307903,-0.9396605491638184,-0.1995692402124405,0.27786627411842346
1727296966671,7i,8.7005390429913,2.0s : 9.4s,0.01101460569434989,0.033399009032917704,-0.07541439682245255,0.018718676641583443,0.033770449459552765,0.003096163272857666,0.005785942077636719,-0.03274798393249512,0.20070361768112374,-1.8574535160468826,2.282441125820234,-0.9399399757385254,-0.19935888051986694,0.27707168459892273
1727296966681,7i,8.7005390429913,2.0s : 9.4s,0.01203877496781548,0.034100540997794644,-0.08947402238845825,0.020601797848939896,0.020523350685834885,-0.0009102225303649902,-0.00862663984298706,-0.03297877311706543,0.20049273698272083,-1.856582567115146,2.2814788377330877,-0.9402213096618652,-0.19915221631526947,0.2762647867202759
1727296966691,7i,8.7005390429913,2.0s : 9.4s,0.01749795105926799,0.02936598077635655,-0.11383701860904694,0.03683256730437279,0.009959423914551735,-0.01639080047607422,-0.013666868209838867,-0.02017223834991455,0.20045666751394592,-1.8555858939940282,2.280332002293786,-0.9405031204223633,-0.19911687076091766,0.2753295600414276
1727296966701,7i,8.7005390429913,2.0s : 9.4s,0.018571420757848418,0.024535295250130915,-0.1073780506849289,0.03646504878997803,0.007636614143848419,-0.017133355140686035,-0.005537286400794983,-0.01666635274887085,0.20046880057661304,-1.8545036945015974,2.2791122882287436,-0.9407979846000671,-0.19912876188755035,0.2743108570575714
1727296966711,7i,8.7005390429913,2.0s : 9.4s,0.01544054501920502,0.034691405908947336,-0.0862317606806755,0.024669907987117767,0.016875585541129112,-0.007077395915985107,-0.0005709230899810791,-0.03395700454711914,0.20044509999855498,-1.8535157477879274,2.2780450689737073,-0.9410731792449951,-0.19910554587841034,0.27338263392448425
1727296966721,7i,8.7005390429913,2.0s : 9.4s,0.012844347891619952,0.04271159232508559,-0.08571697026491165,0.021125774830579758,0.011826498433947563,0.0015062689781188965,-0.004121348261833191,-0.042485594749450684,0.20049677495738763,-1.8527231884496895,2.2770779129604146,-0.9412798285484314,-0.19915618002414703,0.2726338505744934
1727296966731,7i,8.7005390429913,2.0s : 9.4s,0.010307879457338166,0.03719466780134106,-0.08791940659284592,0.03285202756524086,-0.008560597896575928,0.004646003246307373,-0.011843249201774597,-0.03495132923126221,0.20066708491450727,-1.8520561910861522,2.2761795212064215,-0.9414288401603699,-0.19932307302951813,0.27199652791023254
1727296966741,7i,8.7005390429913,2.0s : 9.4s,0.007331255329153424,0.02417321052435461,-0.08480963110923767,0.04716811329126358,-0.0220540352165699,0.004233241081237793,-0.010322779417037964,-0.02144443988800049,0.20086399813653838,-1.851189595142505,2.2753131516470724,-0.9416263699531555,-0.19951602816581726,0.2711697220802307
1727296966751,7i,8.7005390429913,2.0s : 9.4s,0.00654597987808625,0.01766043416023352,-0.07954003661870956,0.06506890803575516,-0.019719243049621582,0.007706642150878906,-0.005857512354850769,-0.014771193265914917,0.20123208959485453,-1.8499904177172513,2.27447696922549,-0.9418802857398987,-0.19987671077251434,0.27002009749412537
1727296966761,7i,8.7005390429913,2.0s : 9.4s,0.011876035296944266,0.026116345046469206,-0.07666914910078049,0.07043544203042984,-0.016855813562870026,0.018934130668640137,-0.006544589996337891,-0.016755014657974243,0.20179227161418978,-1.848695095519736,2.2736590504604566,-0.9421213269233704,-0.20042555034160614,0.2687690556049347
1727296966771,7i,8.7005390429913,2.0s : 9.4s,0.02083530377133937,0.03714704045358831,-0.07232286036014557,0.08468496054410934,-0.012756207957863808,0.028804421424865723,-0.010592013597488403,-0.02092885971069336,0.20231793226260134,-1.847471364934037,2.2729003666755605,-0.9423481225967407,-0.20094051957130432,0.26758715510368347
1727296966781,7i,8.7005390429913,2.0s : 9.4s,0.030020751427607167,0.03680961937774836,-0.0598779134452343,0.09924126416444778,-0.009895972907543182,0.030173778533935547,-0.009858667850494385,-0.018635928630828857,0.2026303685838286,-1.8461737571290335,2.272232194391955,-0.942633867263794,-0.20124657452106476,0.2663469910621643
1727296966791,7i,8.7005390429913,2.0s : 9.4s,0.03587683247970979,0.022448669539503297,-0.05457036942243576,0.11983340233564377,-0.00840556900948286,0.017475366592407227,-0.0008456259965896606,-0.014065533876419067,0.20284346883931467,-1.8444782939365536,2.2715964355951317,-0.9430428743362427,-0.20145530998706818,0.2647368311882019
1727296966801,7i,8.7005390429913,2.0s : 9.4s,0.040060809518122055,0.010025256050323466,-0.06253108382225037,0.14067156612873077,-0.009234078228473663,0.009246468544006348,-0.0014834702014923096,-0.0035788118839263916,0.20315812011685982,-1.8424701619904549,2.270930047354039,-0.943511426448822,-0.20176349580287933,0.26282551884651184
1727296966811,7i,8.7005390429913,2.0s : 9.4s,0.043056593181061656,0.013989872049878328,-0.06908286362886429,0.13990142941474915,-0.004476906731724739,0.01091921329498291,-0.006101071834564209,0.006266117095947266,0.20361589956354703,-1.8405205410194134,2.2702302899198816,-0.9439330697059631,-0.20221184194087982,0.2609609067440033
1727296966821,7i,8.7005390429913,2.0s : 9.4s,0.04616996621432236,0.02360714455129346,-0.07644863426685333,0.13861432671546936,0.0001609879545867443,0.020962238311767578,-0.010581403970718384,-0.00243222713470459,0.20398014451755117,-1.8388290171935744,2.2694774553654584,-0.9443020820617676,-0.20256856083869934,0.25934433937072754
1727296966831,7i,8.7005390429913,2.0s : 9.4s,0.04999974450750076,0.025170392773955254,-0.06946888566017151,0.1480502188205719,-0.002399408258497715,0.02226322889328003,-0.010607749223709106,-0.005037158727645874,0.20426492156245102,-1.837241167362918,2.268754182322379,-0.9446570873260498,-0.202847421169281,0.2578294277191162
1727296966841,7i,8.7005390429913,2.0s : 9.4s,0.05121913047767205,0.014537537364423769,-0.06716232746839523,0.16223794221878052,0.0014073140919208527,0.008309423923492432,-0.010711893439292908,0.005248695611953735,0.20457931754511957,-1.8355455122525752,2.268087177447581,-0.9450312852859497,-0.2031552642583847,0.2562105357646942
1727296966851,7i,8.7005390429913,2.0s : 9.4s,0.05083198373740375,0.017751622359385388,-0.08288189768791199,0.16439473628997803,0.0072662681341171265,0.0061037540435791016,-0.00913277268409729,0.013944774866104126,0.2049453671186178,-1.8337434497441705,2.2673500157239945,-0.9454196691513062,-0.20351366698741913,0.2544877827167511
1727296966861,7i,8.7005390429913,2.0s : 9.4s,0.05229670051491573,0.025702837991364573,-0.09912904351949692,0.1654144525527954,0.01348155364394188,0.01858597993850708,-0.009896531701087952,0.01473960280418396,0.2052561937068854,-1.8319358970888133,2.266434620190286,-0.945816695690155,-0.20381797850131989,0.2527620792388916
1727296966871,7i,8.7005390429913,2.0s : 9.4s,0.055432489508889356,0.03394673919272709,-0.11199384927749634,0.17182321846485138,0.01909852772951126,0.029861807823181152,-0.00846146047115326,0.013749808073043823,0.20539723088798104,-1.8300706337437593,2.265351368445093,-0.9462588429450989,-0.20395605266094208,0.250990092754364
1727296966881,7i,8.7005390429913,2.0s : 9.4s,0.05759317542236545,0.025782257121171624,-0.09990229457616806,0.17854531109333038,0.03198183327913284,0.02188652753829956,0.006128489971160889,0.012171536684036255,0.20543105609532625,-1.8281932696209047,2.2642472483942853,-0.9467217922210693,-0.203989177942276,0.24921144545078278
1727296966891,7i,8.7005390429913,2.0s : 9.4s,0.05707397482773842,0.02797772526711548,-0.0963139459490776,0.1754462867975235,0.04051846265792847,0.013701379299163818,0.021765217185020447,0.011013656854629517,0.20538067951219074,-1.8264161227613804,2.2632415247067863,-0.9471731781959534,-0.20393985509872437,0.24753119051456451
1727296966901,7i,8.7005390429913,2.0s : 9.4s,0.05406498986618437,0.02194947629319507,-0.10451515018939972,0.16543839871883392,0.05228590592741966,0.011908888816833496,0.015536367893218994,0.009928703308105469,0.20531498853278782,-1.8246425649908602,2.262148285561514,-0.947623610496521,-0.20387554168701172,0.24585428833961487
1727296966911,7i,8.7005390429913,2.0s : 9.4s,0.0502809193185146,0.015762175240721224,-0.113364577293396,0.1600959151983261,0.0584634430706501,0.011723220348358154,0.000551372766494751,0.010521799325942993,0.20517385575311536,-1.8228985127226685,2.260960466382134,-0.9480788707733154,-0.20373737812042236,0.2442084103822708
1727296966921,7i,8.7005390429913,2.0s : 9.4s,0.046146582255767885,0.013686707457119923,-0.1225021481513977,0.16428400576114655,0.05973057448863983,0.005573749542236328,-0.0057461559772491455,0.011101394891738892,0.2050068720915485,-1.8212164221386862,2.259664302492678,-0.9485211968421936,-0.20357388257980347,0.24262171983718872
1727296966931,7i,8.7005390429913,2.0s : 9.4s,0.04167923150158625,0.01326285976172394,-0.12609395384788513,0.15840888023376465,0.0629340261220932,-0.00021123886108398438,-0.0002487301826477051,0.01325884461402893,0.2048397845682157,-1.819657229723194,2.258356195633832,-0.9489312767982483,-0.2034102976322174,0.2411508709192276
1727296966941,7i,8.7005390429913,2.0s : 9.4s,0.038762767701699015,0.008884141520783222,-0.12600980699062347,0.15214833617210388,0.07203111797571182,0.002197861671447754,0.0008877068758010864,0.008562088012695312,0.20469135875920685,-1.8182636817282947,2.257032608374065,-0.9492955803871155,-0.2032649666070938,0.23983561992645264
1727296966951,7i,8.7005390429913,2.0s : 9.4s,0.03773384199198203,0.015023076691573144,-0.13784289360046387,0.14766716957092285,0.07587988674640656,0.013099968433380127,-0.003358989953994751,0.006542235612869263,0.20451509518562283,-1.8169748352620207,2.255652076642519,-0.9496387243270874,-0.20309238135814667,0.23862068355083466
1727296966961,7i,8.7005390429913,2.0s : 9.4s,0.03709640111581293,0.02520398027280465,-0.1697600781917572,0.1625390499830246,0.07456028461456299,0.018069863319396973,-0.006039023399353027,0.016500025987625122,0.20413115848650437,-1.8155156214648631,2.2540333437806557,-0.950061559677124,-0.20271643996238708,0.2372535914182663
1727296966971,7i,8.7005390429913,2.0s : 9.4s,0.03609464143973782,0.033645332769444446,-0.18686196208000183,0.17693287134170532,0.07236787676811218,0.010386824607849121,-0.007066607475280762,0.031211942434310913,0.20359597416636982,-1.8137995736145105,2.2521541205880364,-0.9505722522735596,-0.20219233632087708,0.23564890027046204
1727296966981,7i,8.7005390429913,2.0s : 9.4s,0.03410381803656258,0.024701343689331103,-0.20146779716014862,0.1782388836145401,0.07668539136648178,0.006207108497619629,-0.007364943623542786,0.022746115922927856,0.20318235945566243,-1.8119300534680631,2.2501132901462846,-0.9510924220085144,-0.20178724825382233,0.23389136791229248
