timestamp,club,max_speed,tempo,speed,acc,rotation.x,rotation.y,rotation.z,userAcceleration.x,userAcceleration.y,userAcceleration.z,pitch,roll,yaw,gravity.x,gravity.y,gravity.z
1727296857365,7i,7.709245868770292,2.6s : 9.6s,0.009255367898936488,0.017687430043193113,-0.04169771075248718,0.0024204859510064125,-0.002966795116662979,-0.00612950325012207,-0.013275682926177979,0.009951412677764893,-0.25704862054581923,1.4599371262693166,0.23027474562303837,0.9612076282501221,0.25422725081443787,-0.10699739307165146
1727296857375,7i,7.709245868770292,2.6s : 9.6s,0.010229075455823775,0.014070236995723599,-0.03909047693014145,0.004351632669568062,-0.006055861711502075,-0.00708383321762085,-0.011270731687545776,0.004556477069854736,-0.25715280068211144,1.4601176710379622,0.2307008281405102,0.9612006545066833,0.25432801246643066,-0.10682092607021332
1727296857385,7i,7.709245868770292,2.6s : 9.6s,0.01112178338459038,0.015536210592323168,-0.03086264058947563,0.007880320772528648,-0.0058065904304385185,-0.013859391212463379,-0.006861776113510132,-0.0014856457710266113,-0.25729561614801505,1.4603195071577215,0.2310624331859076,0.9611860513687134,0.25446611642837524,-0.10662291198968887
1727296857395,7i,7.709245868770292,2.6s : 9.6s,0.010561428905995594,0.015702246984843682,-0.016784239560365677,0.004110483452677727,-0.008582170121371746,-0.015235304832458496,0.00047403573989868164,-0.0037711188197135925,-0.257488747536331,1.460516727575772,0.2313213523382235,0.9611580967903137,0.25465288758277893,-0.10642792284488678
1727296857405,7i,7.709245868770292,2.6s : 9.6s,0.008204706372481737,0.012478021368840497,-0.012233962304890156,0.005117957480251789,-0.01020270399749279,-0.008313238620758057,0.009283304214477539,0.000641360878944397,-0.2577045549218523,1.46065057954276,0.2314597670477956,0.9611176252365112,0.25486159324645996,-0.106293223798275
1727296857415,7i,7.709245868770292,2.6s : 9.6s,0.025475957034280166,0.01416816453507128,0.0630517303943634,-0.18659500777721405,-0.006038251332938671,-0.0026478171348571777,0.01259949803352356,0.005914270877838135,-0.25765203605913967,1.4604843305996038,0.2315427819812353,0.9611133933067322,0.25481081008911133,-0.10645449906587601
1727296857425,7i,7.709245868770292,2.6s : 9.6s,0.07724031543481918,0.01846190503008583,0.13671477138996124,-0.4984695613384247,0.38261520862579346,0.006920218467712402,0.012037545442581177,0.012167580425739288,-0.25801225184326043,1.4609054293145167,0.2319692067279912,0.9610667824745178,0.2551591098308563,-0.10603968054056168
1727296857435,7i,7.709245868770292,2.6s : 9.6s,0.11748996433016025,0.05198017165639353,-0.02621249482035637,-0.2804844379425049,0.2734815180301666,-0.04974472522735596,0.003394216299057007,0.014692850410938263,-0.2582560389253335,1.4612873433827027,0.23240820112069643,0.9610453248023987,0.2553948163986206,-0.10566581785678864
1727296857445,7i,7.709245868770292,2.6s : 9.6s,0.08970127318820997,0.012572348014862714,-0.07660403102636337,-0.000952674075961113,0.02670527994632721,0.001692652702331543,0.011150330305099487,0.005555987358093262,-0.25818811419435705,1.461413046927205,0.23283032394100436,0.9610759019851685,0.2553291320800781,-0.10554691404104233
1727296857455,7i,7.709245868770292,2.6s : 9.6s,0.04876860992378993,0.014911969317597019,-0.033923543989658356,0.014073280617594719,-0.014686867594718933,0.0042912960052490234,0.010645568370819092,0.009519636631011963,-0.25809471557882835,1.4615783430334606,0.23326539898848642,0.9611170291900635,0.2552388310432434,-0.10539065301418304
1727296857465,7i,7.709245868770292,2.6s : 9.6s,0.030926010056171564,0.021929551370314,-0.022965967655181885,0.01528581790626049,-0.008458532392978668,-0.020323574542999268,0.008179277181625366,-0.0009782463312149048,-0.2581836167734724,1.4616708264183866,0.23360020265597234,0.9611043334007263,0.2553247809410095,-0.10529930889606476
1727296857475,7i,7.709245868770292,2.6s : 9.6s,0.018324673049420842,0.011690947053278606,-0.03095278888940811,0.006029912270605564,-0.014686268754303455,-0.0016625523567199707,0.00994110107421875,-0.005923569202423096,-0.2583341248418921,1.4617474372378363,0.23384865405879207,0.96107417345047,0.25547030568122864,-0.10522148758172989
1727296857485,7i,7.709245868770292,2.6s : 9.6s,0.020169818142610565,0.016618249209717276,-0.0709470808506012,0.0037430557422339916,-0.0032671664375811815,-0.01480191946029663,0.007241278886795044,-0.0021525025367736816,-0.25856985623526213,1.4618971550966697,0.23433583660428847,0.9610299468040466,0.25569820404052734,-0.1050710380077362
1727296857495,7i,7.709245868770292,2.6s : 9.6s,0.02274163105592997,0.008223431074087205,-0.11974018067121506,0.009192949160933495,0.001985519425943494,-0.0024497509002685547,-0.005787491798400879,0.005303628742694855,-0.2588042676458655,1.462245328496406,0.2353524521935722,0.9610068202018738,0.2559248208999634,-0.10472992807626724
1727296857515,7i,7.709245868770292,2.6s : 9.6s,0.02358764923031899,0.02670625092602774,-0.10634101927280426,0.011280867271125317,0.004305132664740086,-0.008373737335205078,-0.02184915542602539,0.012873180210590363,-0.2591928692363556,1.4633760947953092,0.23803807113981434,0.961025595664978,0.2563004791736603,-0.10363250970840454
1727296857525,7i,7.709245868770292,2.6s : 9.6s,0.016777049495209702,0.0073282808074692195,-0.04599325358867645,0.014575463719666004,0.004365852568298578,-0.006700634956359863,-0.0009005367755889893,0.0028274059295654297,-0.25932091739575525,1.4637433514778064,0.23882807311023393,0.9610310792922974,0.2564242482185364,-0.10327606648206711
1727296857535,7i,7.709245868770292,2.6s : 9.6s,0.005540784043393113,0.024129517390597717,0.012121977284550667,0.015803713351488113,-0.00019907159730792046,-0.0017994046211242676,0.023263156414031982,-0.006149902939796448,-0.25939055762793556,1.4640325255293483,0.23901573121686154,0.9610432982444763,0.2564915418624878,-0.10299626737833023
1727296857545,7i,7.709245868770292,2.6s : 9.6s,0.003982223504029999,0.03231816874811264,0.05298658832907677,0.008762315846979618,-0.0008230502717196941,-0.0038473010063171387,0.030481576919555664,-0.010026752948760986,-0.25948415784602735,1.4639992815946736,0.23865070491399218,0.9610158801078796,0.25658202171325684,-0.1030256450176239
1727296857505,7i,7.709245868770292,2.6s : 9.6s,0.010404255374657324,0.025875616838684053,-0.1357404589653015,0.012536813504993916,0.010153167881071568,-0.0002396106719970703,-0.020937412977218628,0.015202462673187256,-0.25897577684463324,1.4628321480765645,0.23672320125234284,0.9610245227813721,0.25609061121940613,-0.10416124761104584
1727296857555,7i,7.709245868770292,2.6s : 9.6s,0.0026479622978904994,0.03154133545522398,0.0314812958240509,0.004848534241318703,0.0013476922176778316,-0.007352590560913086,0.02892601490020752,-0.010202005505561829,-0.259499132341348,1.46384776169256,0.23814207989650432,0.9609964489936829,0.25659647583961487,-0.10317084938287735
1727296857565,7i,7.709245868770292,2.6s : 9.6s,0.020238399133427048,0.013792288832144603,0.05900466442108154,-0.1586805284023285,-0.13315117359161377,-0.0051659345626831055,0.012463569641113281,-0.0028635263442993164,-0.2594814588073877,1.4636111424305636,0.23802361903860259,0.9609764814376831,0.2565793991088867,-0.10339871048927307
1727296857575,7i,7.709245868770292,2.6s : 9.6s,0.08477568851973846,0.18359838594257236,0.10253922641277313,-0.26243218779563904,-0.287280797958374,-0.17632508277893066,-0.0485997200012207,-0.015996865928173065,-0.25993684089645275,1.4643080273659432,0.23890364438198156,0.9609319567680359,0.2570195198059082,-0.10271656513214111
1727296857585,7i,7.709245868770292,2.6s : 9.6s,0.05656084608751324,0.0808487153482077,-0.06626657396554947,-0.06370149552822113,-0.054237671196460724,0.07867330312728882,-0.012375444173812866,0.013923883438110352,-0.25987381506774504,1.4646609280559049,0.24015012422553308,0.9609842896461487,0.25695860385894775,-0.10237916558980942
1727296857595,7i,7.709245868770292,2.6s : 9.6s,0.028950970856109686,0.07335313518541586,-0.13962708413600922,0.026957297697663307,0.05847908928990364,0.06920498609542847,0.001245737075805664,0.024285808205604553,-0.25986306331963066,1.465009311079392,0.24133033951223948,0.9610224962234497,0.25694820284843445,-0.10204464197158813
1727296857605,7i,7.709245868770292,2.6s : 9.6s,0.0259509687127571,0.026969611240646892,-0.07076571136713028,0.01162920892238617,-0.004087086766958237,-0.02493143081665039,0.010152578353881836,-0.0016458556056022644,-0.2597885333914172,1.465320338112063,0.24235354532802073,0.9610733389854431,0.2568762004375458,-0.10174775868654251
1727296857615,7i,7.709245868770292,2.6s : 9.6s,0.008575995945143113,0.03855705529764873,0.010914900340139866,0.01271023042500019,0.010434364899992943,0.007535159587860107,0.03552994132041931,-0.012941837310791016,-0.25981811736844795,1.465435315176178,0.2426496873758904,0.9610775113105774,0.2569047808647156,-0.10163646191358566
1727296857625,7i,7.709245868770292,2.6s : 9.6s,0.003071147471321161,0.033226926798308215,0.029240377247333527,-0.013703534379601479,0.040423158556222916,-0.0033579468727111816,0.031300872564315796,-0.0106305330991745,-0.259678443739328,1.4653681813954853,0.24246939188360078,0.9611062407493591,0.2567697763442993,-0.10170474648475647
1727296857635,7i,7.709245868770292,2.6s : 9.6s,0.007590356013467792,0.01877499438128392,0.03422435000538826,-0.06585261970758438,0.13295012712478638,0.0074999332427978516,0.016999900341033936,0.002693474292755127,-0.25955575477594756,1.4652731818408007,0.24218153058473235,0.9611279368400574,0.25665122270584106,-0.101799376308918
1727296857645,7i,7.709245868770292,2.6s : 9.6s,0.01808756897434149,0.014126815887861077,0.016163857653737068,-0.11457808315753937,0.219442680478096,0.012588858604431152,0.004935324192047119,0.004090249538421631,-0.25939259971483986,1.4652374617802244,0.2420255440905913,0.9611660242080688,0.2564935088157654,-0.1018381267786026
1727296857655,7i,7.709245868770292,2.6s : 9.6s,0.0343857811950565,0.010272872505542057,0.011017697863280773,-0.16726432740688324,0.3053382337093353,0.009145021438598633,-0.003995299339294434,0.002436816692352295,-0.25917597588547836,1.4652492824137817,0.24201430128870918,0.9612224698066711,0.2562841475009918,-0.10183261334896088
1727296857665,7i,7.709245868770292,2.6s : 9.6s,0.051619543843992095,0.011095287228833475,0.02022850513458252,-0.21955576539039612,0.38411614298820496,0.010435640811920166,-0.0018301308155059814,-0.0032944530248641968,-0.2589091854806976,1.4653933274854245,0.2420135476757327,0.9613049030303955,0.2560262382030487,-0.10170132666826248
1727296857675,7i,7.709245868770292,2.6s : 9.6s,0.06977632187940182,0.02049162149179601,0.01497488934546709,-0.2784760594367981,0.4514528512954712,0.01923549175262451,-0.0008840560913085938,-0.0070086270570755005,-0.2587198370519996,1.4655639205503688,0.2420090351998312,0.9613706469535828,0.2558431923389435,-0.10154245048761368
1727296857685,7i,7.709245868770292,2.6s : 9.6s,0.08690658325002197,0.03369568839030489,0.009396099485456944,-0.33350950479507446,0.5219746232032776,0.033614516258239746,-0.002329409122467041,0.00019381940364837646,-0.25868392627714043,1.4657233404584187,0.24209434358418241,0.9613959789276123,0.2558085024356842,-0.10139014571905136
1727296857695,7i,7.709245868770292,2.6s : 9.6s,0.10430468302382614,0.04329996883487552,0.01337938942015171,-0.39363861083984375,0.6005871295928955,0.04268711805343628,-0.006763875484466553,0.002635762095451355,-0.258662049883307,1.4658820767812737,0.2422241881710921,0.9614176154136658,0.25578734278678894,-0.10123812407255173
1727296857705,7i,7.709245868770292,2.6s : 9.6s,0.11909328781146145,0.05448899177764036,0.032608211040496826,-0.44598597288131714,0.673255205154419,0.053743600845336914,-0.007118672132492065,0.005477234721183777,-0.2585871498637815,1.4660552980954722,0.24228743275185946,0.9614542126655579,0.25571492314338684,-0.10107359290122986
1727296857725,7i,7.709245868770292,2.6s : 9.6s,0.13730975560598943,0.07875489856171033,0.03480944782495499,-0.5475709438323975,0.742773175239563,0.07774823904037476,0.005451977252960205,0.011305809020996094,-0.2583846045881971,1.4664262066930558,0.24211973357466465,0.961543083190918,0.2555191218852997,-0.10072235763072968
1727296857735,7i,7.709245868770292,2.6s : 9.6s,0.15029278642323238,0.08219634483618016,0.028291625902056694,-0.5330383777618408,0.701880931854248,0.07990497350692749,0.007866144180297852,0.017594262957572937,-0.2584127913690822,1.4665980440856767,0.2422031408277389,0.9615532159805298,0.25554636120796204,-0.100556381046772
1727296857745,7i,7.709245868770292,2.6s : 9.6s,0.15520598715172174,0.079994714759848,0.005071524530649185,-0.4999725818634033,0.6550942063331604,0.07700330018997192,0.003016829490661621,0.021460309624671936,-0.25839390146668606,1.4668784708148712,0.2424497405203749,0.961586058139801,0.2555280923843384,-0.10028722137212753
1727296857755,7i,7.709245868770292,2.6s : 9.6s,0.1556032803712136,0.07879742245223051,-0.008866794407367706,-0.4851940870285034,0.6003430485725403,0.0766403079032898,0.001414179801940918,0.018256425857543945,-0.25848906399517163,1.4672402802880058,0.24296567300667424,0.9615981578826904,0.2556200921535492,-0.09993679821491241
1727296857765,7i,7.709245868770292,2.6s : 9.6s,0.14913184580802794,0.08232357541887016,0.008461330085992813,-0.46022430062294006,0.5620923042297363,0.08025109767913818,0.013264179229736328,0.01268833875656128,-0.25859008792568344,1.467553479457116,0.24348417496255895,0.9616037607192993,0.25571778416633606,-0.09963295608758926
1727296857805,7i,7.709245868770292,2.6s : 9.6s,0.13311413073090794,0.06509154296517443,0.03819911926984787,-0.3636492192745209,0.41224250197410583,0.0629051923751831,0.013419955968856812,0.009987518191337585,-0.2583658626318622,1.468638491914806,0.24463338342758062,0.9617683291435242,0.25550100207328796,-0.09859539568424225
1727296857815,7i,7.709245868770292,2.6s : 9.6s,0.11515026584633431,0.06350882672635931,0.04916907846927643,-0.33907949924468994,0.38925033807754517,0.061360180377960205,0.014223843812942505,0.00812290608882904,-0.2580867586463156,1.4688872180306363,0.24483011469418234,0.9618638157844543,0.2552311420440674,-0.09836343675851822
1727296857825,7i,7.709245868770292,2.6s : 9.6s,0.09907109478144366,0.06746673136054095,0.06962508708238602,-0.32116416096687317,0.359230101108551,0.06471472978591919,0.018540233373641968,0.004474744200706482,-0.2576626184588516,1.469058610193043,0.24487475125371078,0.9619882106781006,0.2548210322856903,-0.09820955991744995
1727296857835,7i,7.709245868770292,2.6s : 9.6s,0.08689014196931434,0.0710630521303535,0.07225335389375687,-0.30466771125793457,0.33056530356407166,0.06593656539916992,0.02649018168449402,-0.0007726550102233887,-0.25714175202302003,1.469102663878607,0.2447982215196106,0.9621243476867676,0.2543173134326935,-0.0981806293129921
1727296857845,7i,7.709245868770292,2.6s : 9.6s,0.07903512850879378,0.07037246405617849,0.051249004900455475,-0.2864346504211426,0.30174723267555237,0.06676101684570312,0.022237032651901245,-0.0008744746446609497,-0.25653809858580473,1.4690977987992337,0.24483138791028905,0.9622765779495239,0.25373348593711853,-0.09820089489221573
1727296857855,7i,7.709245868770292,2.6s : 9.6s,0.0716132048986462,0.0672021183041624,0.044576987624168396,-0.26081424951553345,0.2708677351474762,0.0648951530456543,0.01674911379814148,0.004920467734336853,-0.25591752599127404,1.4691020626087499,0.24501419786328124,0.9624334573745728,0.2531331479549408,-0.09821275621652603
1727296857865,7i,7.709245868770292,2.6s : 9.6s,0.06125712193559583,0.06582104262234725,0.06396906822919846,-0.23261697590351105,0.24357061088085175,0.0625421404838562,0.020208895206451416,0.0035342425107955933,-0.255243441555977,1.469117585215405,0.24513935932308242,0.9626044034957886,0.25248098373413086,-0.09821510314941406
1727296857875,7i,7.709245868770292,2.6s : 9.6s,0.05003402416937466,0.06334479269543158,0.1053127720952034,-0.21741031110286713,0.2125321328639984,0.05548292398452759,0.030262470245361328,-0.0042884498834609985,-0.25450437851029367,1.469036887237986,0.24491917191663207,0.9627819061279297,0.25176578760147095,-0.09831172227859497
1727296857885,7i,7.709245868770292,2.6s : 9.6s,0.039132745468254314,0.06181986201192302,0.1436694860458374,-0.1984315663576126,0.18463127315044403,0.04765671491622925,0.03714895248413086,-0.013057112693786621,-0.2537269106820361,1.4687511396512516,0.24425116429124108,0.9629481434822083,0.25101327896118164,-0.09860673546791077
1727296857895,7i,7.709245868770292,2.6s : 9.6s,0.028421512968572222,0.053834399966700884,0.18220768868923187,-0.17061960697174072,0.16602745652198792,0.034310758113861084,0.04035469889640808,-0.00961315631866455,-0.25287436635597405,1.46839818667565,0.24317173948230317,0.9631257653236389,0.2501879334449768,-0.09896843135356903
1727296857905,7i,7.709245868770292,2.6s : 9.6s,0.019984649748533072,0.04821981163902647,0.2179694026708603,-0.15268374979496002,0.1496245115995407,0.019589781761169434,0.04316258430480957,-0.008853361010551453,-0.2519127977357583,1.4679517192512777,0.2417124453927362,0.963320255279541,0.24925683438777924,-0.09942307323217392
1727296857915,7i,7.709245868770292,2.6s : 9.6s,0.014351507068145196,0.05102171883479671,0.22951050102710724,-0.1413404643535614,0.13849295675754547,0.024033069610595703,0.04495897889137268,-0.0020778775215148926,-0.2508300497334799,1.4673780948254473,0.239942027774659,0.9635310173034668,0.24820812046527863,-0.1000034511089325
1727296857925,7i,7.709245868770292,2.6s : 9.6s,0.012507902199187737,0.040460990948832785,0.2048959583044052,-0.12186980992555618,0.12213476747274399,0.02507990598678589,0.031644776463508606,-0.0025880932807922363,-0.24968919690081684,1.4667661582040223,0.2382305676777263,0.9637506604194641,0.24710281193256378,-0.10062239319086075
1727296857935,7i,7.709245868770292,2.6s : 9.6s,0.012519371599428383,0.030135466073325436,0.18331170082092285,-0.10200898349285126,0.10509635508060455,0.0243985652923584,0.01666027307510376,0.005940675735473633,-0.24855592935135637,1.4662273674011796,0.23676463515026192,0.9639742374420166,0.24600452184677124,-0.10117080807685852
1727296857945,7i,7.709245868770292,2.6s : 9.6s,0.013004988824253159,0.02599624008393047,0.16358673572540283,-0.08752778172492981,0.09373770654201508,0.02099853754043579,0.013804301619529724,0.006656363606452942,-0.24742529273201186,1.4657366548292396,0.23542118234950357,0.9642003178596497,0.24490848183631897,-0.10167291760444641
1727296857955,7i,7.709245868770292,2.6s : 9.6s,0.011584458467010393,0.02157156692775434,0.12679143249988556,-0.07706652581691742,0.07746359705924988,0.01895374059677124,0.009944319725036621,0.0026830434799194336,-0.24635477338103345,1.4652809285609252,0.23437925179376398,0.9644141793251038,0.24387042224407196,-0.10213988274335861
1727296857965,7i,7.709245868770292,2.6s : 9.6s,0.00844603837948338,0.019395378576419462,0.08130224794149399,-0.06653479486703873,0.06112617254257202,0.018881022930145264,0.001004248857498169,0.004321940243244171,-0.24537773809312313,1.464873345389177,0.2337163698550813,0.964608907699585,0.24292276799678802,-0.10255809873342514
1727296857975,7i,7.709245868770292,2.6s : 9.6s,0.007310607532996574,0.016582508394771284,0.08331279456615448,-0.05797738581895828,0.04398390278220177,0.01564788818359375,0.005422160029411316,0.0008505061268806458,-0.24452002565944697,1.4644770902161561,0.23322358224082979,0.964775025844574,0.24209065735340118,-0.10296238958835602
1727296857985,7i,7.709245868770292,2.6s : 9.6s,0.009793024099513091,0.03325929202979298,0.12600114941596985,-0.058178722858428955,0.029346371069550514,0.010515213012695312,0.031152427196502686,-0.005013689398765564,-0.24394981602027066,1.4639437863577232,0.23243373538744927,0.9648569822311401,0.24153736233711243,-0.10349158942699432
1727296857995,7i,7.709245868770292,2.6s : 9.6s,0.016324727672657774,0.05910149988289093,0.17776034772396088,-0.04819883778691292,0.03767084702849388,0.008237302303314209,0.057022228837013245,-0.013175718486309052,-0.24336176822633454,1.4632147664823871,0.23108047580569538,0.9649224281311035,0.24096669256687164,-0.10421020537614822
1727296858005,7i,7.709245868770292,2.6s : 9.6s,0.02242076562662713,0.05213889351321474,0.19010436534881592,-0.032846514135599136,0.04464859515428543,0.0036568045616149902,0.05092914402484894,-0.01055055856704712,-0.24264355713373656,1.462474412733483,0.2293745214772511,0.9650168418884277,0.24026958644390106,-0.10494325309991837
1727296858015,7i,7.709245868770292,2.6s : 9.6s,0.02352584407137668,0.032372396275729944,0.18266256153583527,-0.02338416874408722,0.05624036863446236,-0.010483086109161377,0.030549123883247375,0.002197265625,-0.24185178099751609,1.4617930638518504,0.227602934243656,0.9651339650154114,0.23950092494487762,-0.10562140494585037
1727296858025,7i,7.709245868770292,2.6s : 9.6s,0.021305764001861672,0.022556967240735092,0.15678834915161133,-0.020181450992822647,0.06876201927661896,-0.015069365501403809,0.015295356512069702,0.006912529468536377,-0.24102945658090466,1.461182602247225,0.22596043352663384,0.9652646780014038,0.2387024462223053,-0.10623206198215485
1727296858035,7i,7.709245868770292,2.6s : 9.6s,0.017319021452148767,0.021377036925368853,0.13267795741558075,-0.01912683993577957,0.0632958859205246,-0.017560124397277832,0.007075861096382141,0.009927332401275635,-0.24027016902977907,1.4606724528305859,0.22456173467551072,0.9653903245925903,0.23796504735946655,-0.10674437880516052
1727296858045,7i,7.709245868770292,2.6s : 9.6s,0.010092075680909628,0.02666810913139483,0.08887800574302673,-0.012742975726723671,0.07331043481826782,-0.022258341312408447,-0.005182042717933655,0.013744115829467773,-0.23947427414766168,1.4603283414821848,0.2235051727358792,0.965541422367096,0.23719193041324615,-0.10709740966558456
1727296858055,7i,7.709245868770292,2.6s : 9.6s,0.001170792410881041,0.038901609186171804,0.02830294519662857,-0.011054843664169312,0.07525776326656342,-0.02249377965927124,-0.02734529972076416,0.01611209660768509,-0.2387123831780534,1.4601405181574343,0.22300154056940974,0.9657005071640015,0.23645171523094177,-0.10729867219924927
1727296858065,7i,7.709245868770292,2.6s : 9.6s,0.01198860316431919,0.04660032210267197,-0.029316674917936325,-0.01719049923121929,0.06384026259183884,-0.024736225605010986,-0.035827890038490295,0.016615398228168488,-0.23820855584289807,1.4600280035560684,0.22309947102465766,0.9658067226409912,0.2359621524810791,-0.10742048919200897
1727296858075,7i,7.709245868770292,2.6s : 9.6s,0.020801928608112755,0.03086010177813867,-0.04494543746113777,-0.023220162838697433,0.060889746993780136,-0.02297055721282959,-0.01974104344844818,0.005915284156799316,-0.23798458511704146,1.459864089025682,0.22354328301625653,0.9658416509628296,0.23574449121952057,-0.107584647834301
1727296858085,7i,7.709245868770292,2.6s : 9.6s,0.02377773061270603,0.022881430221103744,-0.03950086981058121,-0.013497494161128998,0.051616620272397995,-0.021083593368530273,0.002512410283088684,-0.008528172969818115,-0.23777416371453644,1.4597365389788204,0.22405217995017612,0.9658772945404053,0.2355400025844574,-0.10771334916353226
1727296858095,7i,7.709245868770292,2.6s : 9.6s,0.023371392457905184,0.03923901783627878,-0.014534533955156803,0.005366740748286247,0.043092843145132065,-0.034046173095703125,0.019121572375297546,-0.0038631707429885864,-0.23757793898904328,1.4598093642679204,0.22438648526556523,0.9659310579299927,0.23534929752349854,-0.10764812678098679
1727296858105,7i,7.709245868770292,2.6s : 9.6s,0.014470738650357305,0.046580065948006934,0.03692413121461868,0.007589681539684534,0.037565719336271286,-0.027715444564819336,0.03681059181690216,-0.0068218037486076355,-0.2372911336396899,1.4599102414054534,0.2243740238580536,0.9660088419914246,0.23507052659988403,-0.10755813866853714
1727296858115,7i,7.709245868770292,2.6s : 9.6s,0.003436348854259123,0.0660320428853282,0.10916157811880112,0.007226692978292704,0.027187645435333252,-0.006978750228881836,0.06547223031520844,-0.004991471767425537,-0.23693995951679345,1.459857242059394,0.22364846399692395,0.9660851955413818,0.23472918570041656,-0.10761847347021103
1727296858125,7i,7.709245868770292,2.6s : 9.6s,0.02036406904222403,0.07989580625570743,0.17180071771144867,0.0063915252685546875,0.022765465080738068,-0.0029265880584716797,0.07950341701507568,-0.007347218692302704,-0.23655463836737398,1.4596526124583031,0.22226222583153765,0.9661528468132019,0.23435461521148682,-0.10782617330551147
1727296858135,7i,7.709245868770292,2.6s : 9.6s,0.03569920737179671,0.07785761444662259,0.21648603677749634,0.005364477634429932,0.022200709208846092,0.00396418571472168,0.0775185376405716,-0.006080269813537598,-0.23603796714621467,1.4593028443868763,0.22031271290743004,0.9662354588508606,0.2338522970676422,-0.10817757248878479
1727296858145,7i,7.709245868770292,2.6s : 9.6s,0.05054618297517544,0.07139280327421427,0.2565746009349823,0.004081632476300001,0.015402192249894142,0.01440417766571045,0.06991058588027954,0.0014007166028022766,-0.23549804928366475,1.4588234749924145,0.21792014662451142,0.9663086533546448,0.23332731425762177,-0.10865481942892075
1727296858155,7i,7.709245868770292,2.6s : 9.6s,0.06140246379346801,0.06259244622087197,0.28346094489097595,0.006730545777827501,0.0043274699710309505,0.014212250709533691,0.06094992160797119,0.0009660795331001282,-0.23506258387402074,1.4582586456046904,0.21517889979325777,0.9663479924201965,0.232903853058815,-0.1092119961977005
1727296858165,7i,7.709245868770292,2.6s : 9.6s,0.06569456264438239,0.05385651984704249,0.2942366302013397,-0.0068917893804609776,0.010238622315227985,0.008791685104370117,0.053132444620132446,0.00041753053665161133,-0.2347068370115276,1.4575411791330803,0.21220781392156782,0.9663517475128174,0.23255786299705505,-0.10991466045379639
1727296858175,7i,7.709245868770292,2.6s : 9.6s,0.06593009122891032,0.0380658593702756,0.2709624469280243,-0.0063894279301166534,0.010841761715710163,0.01420128345489502,0.035316526889801025,0.0002759099006652832,-0.23437084695520657,1.4567652961986686,0.20931662121381414,0.9663437604904175,0.23223108053207397,-0.11067328602075577
1727296858185,7i,7.709245868770292,2.6s : 9.6s,0.06127953020799915,0.014075562288113106,0.23286859691143036,0.0034046126529574394,0.0126303406432271,0.007127106189727783,0.011099770665168762,0.004911303520202637,-0.23410526331512993,1.456160125887861,0.20677858344322408,0.9663378596305847,0.23197275400161743,-0.11126512289047241
1727296858195,7i,7.709245868770292,2.6s : 9.6s,0.05636911132310989,0.003141195998748388,0.23218363523483276,-0.003557511605322361,0.012466490268707275,-0.002157866954803467,0.0008878260850906372,-0.002102971076965332,-0.23393661946349364,1.4556071543350917,0.20444709754351326,0.966314971446991,0.23180870711803436,-0.11180394887924194
1727296858205,7i,7.709245868770292,2.6s : 9.6s,0.05450410571878165,0.014794192301550425,0.2316158413887024,-0.0012450888752937317,0.017100390046834946,0.0020962953567504883,-0.0003400146961212158,-0.014640972018241882,-0.23377138167469602,1.4550225552609888,0.20209659905996996,0.96628737449646,0.23164796829223633,-0.11237325519323349
1727296858215,7i,7.709245868770292,2.6s : 9.6s,0.05417922194740088,0.015015842330528844,0.23780198395252228,-0.005240674130618572,0.018953384831547737,0.0030774474143981934,0.0007096379995346069,-0.014679960906505585,-0.2335708306573573,1.454436868602807,0.1997102123417826,0.9662675857543945,0.23145286738872528,-0.1129445731639862
1727296858225,7i,7.709245868770292,2.6s : 9.6s,0.04903563009357204,0.017680915019292046,0.2140849381685257,-0.018951693549752235,0.02191375382244587,7.653236389160156e-05,-0.009924635291099548,-0.014632515609264374,-0.23335009542385723,1.4538095833169722,0.197399438892054,0.9662472605705261,0.23123811185359955,-0.1135566309094429
1727296858235,7i,7.709245868770292,2.6s : 9.6s,0.04019958588950207,0.03186745841478619,0.1710117608308792,-0.030067460611462593,0.025351228192448616,0.0023325085639953613,-0.030305057764053345,-0.009575895965099335,-0.2330779942217201,1.4531477867168665,0.19547739989008678,0.9662343263626099,0.23097337782382965,-0.11420345306396484
1727296858245,7i,7.709245868770292,2.6s : 9.6s,0.03104967886657024,0.040418797349816564,0.14681614935398102,-0.028809385374188423,0.02814355306327343,-0.0022267699241638184,-0.04035337269306183,0.0005709528923034668,-0.23277262143163888,1.4525091505840086,0.19391794577083565,0.9662312865257263,0.23067624866962433,-0.11482882499694824
1727296858255,7i,7.709245868770292,2.6s : 9.6s,0.023681740904999273,0.0370112200730972,0.1365860104560852,-0.030237149447202682,0.03521554172039032,-0.007759153842926025,-0.03618699312210083,0.00035703182220458984,-0.23236416164817406,1.4519050874601853,0.19251807608706123,0.966255247592926,0.23027878999710083,-0.11542363464832306
1727296858265,7i,7.709245868770292,2.6s : 9.6s,0.018554251818024756,0.030051802271882682,0.127020463347435,-0.02925311028957367,0.03787470981478691,-0.008553624153137207,-0.02865159511566162,-0.00300540030002594,-0.23186494267787253,1.451324844460076,0.19122612662426813,0.9663021564483643,0.22979295253753662,-0.11599797010421753
1727296858275,7i,7.709245868770292,2.6s : 9.6s,0.015810522012641295,0.02612931888002896,0.1365341991186142,-0.03282436728477478,0.03276047855615616,-0.011724710464477539,-0.022446289658546448,-0.006437122821807861,-0.23136840137165976,1.4507215590473344,0.18993478272601105,0.9663450717926025,0.22930967807769775,-0.11659455299377441
1727296858285,7i,7.709245868770292,2.6s : 9.6s,0.015328431329834316,0.019274905034326363,0.14312206208705902,-0.029552139341831207,0.035688355565071106,-0.010450482368469238,-0.013548731803894043,-0.008873626589775085,-0.23086502654173555,1.4500676363198364,0.18854080763922215,0.9663829803466797,0.22881968319416046,-0.11724031716585159
1727296858295,7i,7.709245868770292,2.6s : 9.6s,0.01812447791993131,0.008161377151585485,0.14744757115840912,-0.025238528847694397,0.04629739001393318,-0.0027547478675842285,-0.007643908262252808,0.0007681846618652344,-0.23028552130364674,1.4494228793226194,0.18708365452817566,0.9664388298988342,0.2282555103302002,-0.11787942796945572
1727296858305,7i,7.709245868770292,2.6s : 9.6s,0.018454946372312236,0.014060040190708886,0.1295306235551834,-0.02784389816224575,0.049069471657276154,-0.0004833340644836426,-0.012604936957359314,0.006210207939147949,-0.229613597961352,1.4488003590139764,0.18571015874909305,0.9665172696113586,0.22760127484798431,-0.11849967390298843
1727296858315,7i,7.709245868770292,2.6s : 9.6s,0.016931785061159083,0.02200905894446397,0.11045879870653152,-0.02764207497239113,0.055946722626686096,0.0014250874519348145,-0.020840421319007874,0.006931424140930176,-0.2287630992192234,1.448204850554819,0.1845470118376439,0.9666382670402527,0.22677302360534668,-0.11909884214401245
1727296858325,7i,7.709245868770292,2.6s : 9.6s,0.016137846645958437,0.02031714542853744,0.1114921048283577,-0.028118513524532318,0.053711000829935074,0.0011520981788635254,-0.017106667160987854,0.010900504887104034,-0.22771831981123375,1.4477594542910028,0.18352857720223406,0.9668195843696594,0.22575533390045166,-0.11955836415290833
1727296858335,7i,7.709245868770292,2.6s : 9.6s,0.01661070841886181,0.008134020178306382,0.13207341730594635,-0.023850930854678154,0.051729507744312286,-0.0050667524337768555,-0.004383683204650879,0.004612334072589874,-0.2267345754875393,1.4472684080260747,0.18234834238920494,0.9669807553291321,0.22479687631130219,-0.12006041407585144
1727296858345,7i,7.709245868770292,2.6s : 9.6s,0.01756784555560503,0.007194426587765044,0.14329011738300323,-0.03160499036312103,0.05621320754289627,-0.005630612373352051,0.004450395703315735,-0.0004999563097953796,-0.22581153082751224,1.4466959528598948,0.18099580867699952,0.9671173691749573,0.22389736771583557,-0.12063958495855331
1727296858355,7i,7.709245868770292,2.6s : 9.6s,0.016568646442604095,0.006917627473140489,0.13045088946819305,-0.026592876762151718,0.05869237706065178,-0.005462229251861572,-0.0006018728017807007,-0.004201829433441162,-0.2249208857255307,1.4460683944618635,0.17967584933321296,0.9672389626502991,0.2230292409658432,-0.12127123773097992
1727296858365,7i,7.709245868770292,2.6s : 9.6s,0.015202170041629319,0.014188509002864483,0.12304889410734177,-0.017533335834741592,0.06014113500714302,-0.010543525218963623,-0.00942334532737732,0.0011612176895141602,-0.22412459431204756,1.4455001376317027,0.1784262609124783,0.9673458337783813,0.22225293517112732,-0.12184302508831024
1727296858375,7i,7.709245868770292,2.6s : 9.6s,0.014621147115656983,0.016937740968945746,0.1288057118654251,-0.017062446102499962,0.055569183081388474,-0.015434026718139648,-0.005516767501831055,-0.00427120178937912,-0.2233887722863995,1.4451114808377523,0.1772452528962179,0.9674603343009949,0.22153545916080475,-0.12223944067955017
1727296858385,7i,7.709245868770292,2.6s : 9.6s,0.01751279689646967,0.01902471275283358,0.15711911022663116,-0.019727472215890884,0.056976400315761566,-0.013697564601898193,0.007455810904502869,-0.01089620590209961,-0.22260379684207507,1.4447267107345654,0.1758856077999032,0.9675855040550232,0.22076991200447083,-0.12263351678848267
1727296858395,7i,7.709245868770292,2.6s : 9.6s,0.021064171712720195,0.02307501737512898,0.16583895683288574,-0.01618639938533306,0.06201333552598953,-0.009869813919067383,0.014656469225883484,-0.014840185642242432,-0.22166670801114993,1.4443194919069737,0.17434407019328776,0.9677402973175049,0.21985585987567902,-0.12305357307195663
1727296858405,7i,7.709245868770292,2.6s : 9.6s,0.027049911653168838,0.020743417012729852,0.18974855542182922,-0.012044650502502918,0.06375078111886978,-0.006418347358703613,0.015691950917243958,-0.011952273547649384,-0.2206991965872357,1.4439489155250909,0.17263015393032105,0.9679051041603088,0.21891191601753235,-0.12343902140855789
1727296858415,7i,7.709245868770292,2.6s : 9.6s,0.032605227614022805,0.01965721597167707,0.20956487953662872,-0.00476818485185504,0.0618644654750824,-0.009463667869567871,0.012857496738433838,-0.011468648910522461,-0.21985109727024185,1.443520832108186,0.17071987460524138,0.9680360555648804,0.21808430552482605,-0.12387688457965851
1727296858425,7i,7.709245868770292,2.6s : 9.6s,0.03725519410261071,0.02476581731774333,0.23561592400074005,-0.005083502735942602,0.05833897367119789,-0.015610814094543457,0.01726613938808441,-0.008457459509372711,-0.21908618129777574,1.4430329601192593,0.16854051275883533,0.9681405425071716,0.2173377424478531,-0.12437035143375397
1727296858435,7i,7.709245868770292,2.6s : 9.6s,0.04136377287578876,0.03147457577222136,0.24508318305015564,-0.014134611003100872,0.06073089316487312,-0.009438395500183105,0.025717273354530334,-0.015497982501983643,-0.21826002299693437,1.4424011244683337,0.16614709530118868,0.9682396650314331,0.21653126180171967,-0.12500499188899994
1727296858445,7i,7.709245868770292,2.6s : 9.6s,0.04018068432894544,0.01855925087894438,0.2075488567352295,-0.01710376888513565,0.06279297173023224,-0.003272116184234619,0.0134926438331604,-0.012316152453422546,-0.21734038826615298,1.4417888880118872,0.16390325704709754,0.9683599472045898,0.2156333476305008,-0.12562331557273865
1727296858455,7i,7.709245868770292,2.6s : 9.6s,0.0325168739909006,0.011545705399741672,0.14523275196552277,-0.012728196568787098,0.05840368568897247,-0.005919516086578369,-0.009102270007133484,-0.003925725817680359,-0.21655565316835643,1.441246063046844,0.16219211411739082,0.9684590101242065,0.2148670107126236,-0.12617076933383942
1727296858465,7i,7.709245868770292,2.6s : 9.6s,0.02322039122363321,0.019061675460917384,0.10261925309896469,-0.019817795604467392,0.05716851353645325,-0.007442831993103027,-0.017388179898262024,0.0023670494556427,-0.21597798636848395,1.4407363767771781,0.1610027017646848,0.9685174822807312,0.21430279314517975,-0.1266804337501526
1727296858475,7i,7.709245868770292,2.6s : 9.6s,0.016787110608713334,0.01391154986365925,0.09659837931394577,-0.027108822017908096,0.05539338290691376,-0.006129324436187744,-0.010581105947494507,-0.006633460521697998,-0.21550773549884053,1.4401804778585707,0.16007068138255806,0.9685469269752502,0.2138434499502182,-0.12723195552825928
1727296858485,7i,7.709245868770292,2.6s : 9.6s,0.01627411965088566,0.019458999144265934,0.12945567071437836,-0.028137333691120148,0.0500449538230896,-0.005540907382965088,-0.0009035617113113403,-0.018631547689437866,-0.2150355405978167,1.439568733021746,0.15901285522928874,0.9685686826705933,0.21338215470314026,-0.12783759832382202
1727296858495,7i,7.709245868770292,2.6s : 9.6s,0.022179055394120507,0.025598806605543346,0.1858275830745697,-0.02378111332654953,0.05181942135095596,-0.005580127239227295,0.016924947500228882,-0.01837681233882904,-0.2145138296805004,1.4388954405892405,0.15748094638382604,0.9685927033424377,0.2128724306821823,-0.12850433588027954
1727296858505,7i,7.709245868770292,2.6s : 9.6s,0.028870360333832713,0.036261523717775024,0.22774095833301544,-0.030839554965496063,0.05350813269615173,-0.007750213146209717,0.030504167079925537,-0.018009111285209656,-0.21395278615722402,1.438122449961032,0.15542182679092428,0.9686113595962524,0.21232420206069946,-0.1292687952518463
1727296858515,7i,7.709245868770292,2.6s : 9.6s,0.03335602115703602,0.030949598052374298,0.24486733973026276,-0.04344736039638519,0.058046258985996246,-0.0043381452560424805,0.026276186108589172,-0.015767693519592285,-0.2133764263018819,1.4371169397604333,0.15304938268601964,0.9686020612716675,0.21176095306873322,-0.1302589774131775
1727296858525,7i,7.709245868770292,2.6s : 9.6s,0.034642689095057494,0.017707117511109077,0.23296675086021423,-0.04437413811683655,0.05952351167798042,0.0006141066551208496,0.01300901174545288,-0.011997103691101074,-0.21263451673000955,1.4360971885299936,0.15066949480132838,0.9686241149902344,0.211035817861557,-0.1312676966190338
1727296858535,7i,7.709245868770292,2.6s : 9.6s,0.030454736664191538,0.012097908662247997,0.2081676572561264,-0.040113791823387146,0.057859037071466446,-0.009545743465423584,0.005752131342887878,-0.0047065019607543945,-0.21172274330498286,1.4352134015336282,0.14851259295995137,0.9686979651451111,0.21014449000358582,-0.13214965164661407
1727296858545,7i,7.709245868770292,2.6s : 9.6s,0.02610377753812297,0.018897948767511275,0.200613871216774,-0.03740881755948067,0.06426473706960678,-0.017130255699157715,-0.004117339849472046,-0.006836250424385071,-0.21073658140798426,1.4344796427206736,0.14656067951744406,0.968805730342865,0.20918023586273193,-0.132888525724411
1727296858555,7i,7.709245868770292,2.6s : 9.6s,0.028461026869480426,0.015291898327548986,0.2236853539943695,-0.04453197494149208,0.07349885255098343,-0.006637871265411377,-0.003122881054878235,-0.013417467474937439,-0.20971966529489824,1.4336323546090757,0.1445152972420522,0.9689028263092041,0.20818571746349335,-0.13373832404613495
1727296858565,7i,7.709245868770292,2.6s : 9.6s,0.03559838145503172,0.020174298798371355,0.25903990864753723,-0.039628561586141586,0.07440432906150818,0.0025418996810913086,0.005597516894340515,-0.01921480894088745,-0.2087135609814247,1.4325900438120132,0.14215441064444134,0.9689699411392212,0.20720155537128448,-0.13477694988250732
1727296858575,7i,7.709245868770292,2.6s : 9.6s,0.04126398584113708,0.023700488373627135,0.2834605276584625,-0.04011201858520508,0.07365398108959198,-0.0016040802001953125,0.012277230620384216,-0.02020914852619171,-0.20781277410607185,1.4315326704559537,0.13949151065672066,0.9690114259719849,0.20632022619247437,-0.13582730293273926
1727296858585,7i,7.709245868770292,2.6s : 9.6s,0.04500612239090381,0.021707790493749192,0.3132154941558838,-0.05604197829961777,0.07583990693092346,-0.00500565767288208,0.012889847159385681,-0.01673389971256256,-0.20701517822691812,1.4303319075002017,0.1365469839929886,0.9690102338790894,0.205539733171463,-0.1370137631893158
1727296858595,7i,7.709245868770292,2.6s : 9.6s,0.045921395985770413,0.02135595596523634,0.3073703944683075,-0.06711771339178085,0.07639823108911514,0.0021816492080688477,0.008798941969871521,-0.019336387515068054,-0.20611248886922276,1.4289976091656584,0.13346872997520867,0.9690096378326416,0.2046562284231186,-0.13833270967006683
1727296858605,7i,7.709245868770292,2.6s : 9.6s,0.04376314986637229,0.014463262184130393,0.2903189957141876,-0.06611370295286179,0.07627439498901367,0.002007782459259033,0.005374282598495483,-0.013276740908622742,-0.2051061906789772,1.4276872469838695,0.1305515053723705,0.9690309166908264,0.20367112755775452,-0.13963165879249573
1727296858615,7i,7.709245868770292,2.6s : 9.6s,0.041999511963902995,0.005991974074337376,0.2959194779396057,-0.06298568099737167,0.08362182974815369,-0.004128932952880859,0.0035549402236938477,-0.0024936050176620483,-0.20403453070121647,1.4264962721614962,0.12773768165736757,0.9690794348716736,0.20262181758880615,-0.14081695675849915
1727296858625,7i,7.709245868770292,2.6s : 9.6s,0.044931564848680994,0.010538809364729352,0.32603079080581665,-0.06854822486639023,0.09666146337985992,-0.00034230947494506836,0.01051226258277893,-0.0006645768880844116,-0.20275769463563834,1.425214200031295,0.1247339864687013,0.9691532850265503,0.20137129724025726,-0.14209668338298798
1727296858635,7i,7.709245868770292,2.6s : 9.6s,0.04974541332704133,0.020576248583569705,0.35975438356399536,-0.07410234212875366,0.10007243603467941,0.0023859739303588867,0.019543662667274475,-0.005977824330329895,-0.2013265932751136,1.4237807222267014,0.12141876025167218,0.9692327976226807,0.1999693065881729,-0.14352789521217346
1727296858645,7i,7.709245868770292,2.6s : 9.6s,0.05329596014378205,0.024127589726756455,0.38812342286109924,-0.07343841344118118,0.108648881316185,-0.0037733912467956543,0.023594960570335388,-0.003343641757965088,-0.1996681812580816,1.422325440127877,0.11778051059146381,0.9693495631217957,0.19834411144256592,-0.1449871063232422
1727296858655,7i,7.709245868770292,2.6s : 9.6s,0.0571602759308613,0.028829612963504836,0.40598180890083313,-0.06746263802051544,0.11531457304954529,-0.005697846412658691,0.028013721108436584,0.0037299543619155884,-0.1978846031623517,1.4208908288472668,0.11396175164368924,0.9694886803627014,0.19659565389156342,-0.14643017947673798
1727296858665,7i,7.709245868770292,2.6s : 9.6s,0.059848549911168225,0.026827327035424897,0.4257757365703583,-0.08106952905654907,0.12314586341381073,-0.008401870727539062,0.02484157681465149,0.005657747387886047,-0.19600017270133993,1.419368758575629,0.10995964680346818,0.9696292281150818,0.194747656583786,-0.14796125888824463
1727296858675,7i,7.709245868770292,2.6s : 9.6s,0.06320642258606694,0.024014835409646804,0.4710873067378998,-0.08236861228942871,0.12807737290859222,-0.014565229415893555,0.019079461693763733,-0.0007352232933044434,-0.19400352107748706,1.417713595083423,0.10563666652411753,0.9697654247283936,0.19278883934020996,-0.14962495863437653
1727296858685,7i,7.709245868770292,2.6s : 9.6s,0.06962746822389711,0.0345025901846219,0.5311447381973267,-0.08513057976961136,0.13670308887958527,-0.019608378410339355,0.02829061448574066,-0.002362489700317383,-0.19184772126356217,1.4159640293753777,0.1008205931856424,0.9699105024337769,0.19067303836345673,-0.1513851284980774
1727296858695,7i,7.709245868770292,2.6s : 9.6s,0.08252885825342654,0.05394853042318705,0.6224985122680664,-0.08875066041946411,0.14420664310455322,-0.01772773265838623,0.05083532631397247,-0.0034555792808532715,-0.189493443385393,1.4140475491677487,0.09521426053296032,0.9700592756271362,0.18836143612861633,-0.1533133089542389
1727296858705,7i,7.709245868770292,2.6s : 9.6s,0.09843344616849072,0.05621213349467631,0.7019872069358826,-0.0855410173535347,0.1474413275718689,-0.015028059482574463,0.053538620471954346,-0.008220553398132324,-0.18694352520061674,1.4119901608635201,0.08878348094784817,0.9702129364013672,0.18585655093193054,-0.15538422763347626
1727296858715,7i,7.709245868770292,2.6s : 9.6s,0.11353551024836674,0.045415979449521436,0.7576716542243958,-0.08253772556781769,0.15930414199829102,-0.014094889163970947,0.04293273389339447,-0.0045525431632995605,-0.18419657309884907,1.4098498561786332,0.08168378552647058,0.9703783988952637,0.18315675854682922,-0.1575416475534439
1727296858725,7i,7.709245868770292,2.6s : 9.6s,0.1313904671416352,0.03538909784625728,0.8144864439964294,-0.07433439046144485,0.1516329050064087,-0.0031639933586120605,0.034458011388778687,0.007417738437652588,-0.18131659106894701,1.4077122968440305,0.07408219805008279,0.9705559611320496,0.1803247332572937,-0.15970051288604736
1727296858735,7i,7.709245868770292,2.6s : 9.6s,0.15480788425559844,0.04581879763246608,0.9272754788398743,-0.06340766698122025,0.1501365751028061,-0.0019484162330627441,0.04260173439979553,0.016752853989601135,-0.17834339079859718,1.4055257876016436,0.0656628662346745,0.970728874206543,0.17739948630332947,-0.16190972924232483
1727296858745,7i,7.709245868770292,2.6s : 9.6s,0.18884402529350064,0.06539937859224797,1.1127982139587402,-0.056119922548532486,0.16824446618556976,-0.00018364191055297852,0.06539253890514374,0.0009278208017349243,-0.1750167856871431,1.4032382373751275,0.05574988113639417,0.9709324240684509,0.17412467300891876,-0.16422739624977112
1727296858755,7i,7.709245868770292,2.6s : 9.6s,0.2300092967534399,0.0918784676534338,1.3330241441726685,-0.07935977727174759,0.19261889159679413,0.006272614002227783,0.0882778912782669,-0.024684429168701172,-0.17110063077562568,1.4005032953757097,0.043837466026975865,0.9711443185806274,0.1702670156955719,-0.1669965237379074
1727296858765,7i,7.709245868770292,2.6s : 9.6s,0.2849580407818234,0.09952849994724082,1.6143783330917358,-0.056350596249103546,0.18606165051460266,0.017544806003570557,0.09060539305210114,-0.03726613521575928,-0.1666189507732643,1.3973925596764036,0.029478778016371884,0.9713620543479919,0.16584907472133636,-0.1701466292142868
1727296858775,7i,7.709245868770292,2.6s : 9.6s,0.3515844982327206,0.12515799902400537,1.9932749271392822,-0.07374844700098038,0.1822492927312851,0.007799625396728516,0.11733938753604889,-0.04283875226974487,-0.16160718577567842,1.393914382881414,0.011899804855544987,0.9715704321861267,0.160904660820961,-0.1736682653427124
1727296858785,7i,7.709245868770292,2.6s : 9.6s,0.42504753792878397,0.18113448669441837,2.3677423000335693,-0.06643620878458023,0.19479358196258545,0.004640161991119385,0.1651971936225891,-0.07414889335632324,-0.1557596219332055,1.3898741004742943,-0.009569505597920473,0.9717697501182556,0.1551305651664734,-0.17775851488113403
1727296858795,7i,7.709245868770292,2.6s : 9.6s,0.5024497809906019,0.21911444808546846,2.7274999618530273,-0.09287992864847183,0.13090550899505615,0.01476067304611206,0.19843369722366333,-0.0917460173368454,-0.14939618971271051,1.3853332172544524,-0.03456931658753347,0.9719030857086182,0.14884106814861298,-0.18234768509864807
1727296858805,7i,7.709245868770292,2.6s : 9.6s,0.5550029007979781,0.2338244615425037,2.9266326427459717,-0.09631247818470001,0.10521639883518219,-0.013173997402191162,0.2168436050415039,-0.0864822268486023,-0.14286428884864588,1.3802571963164032,-0.06258688446611137,0.9718990325927734,0.1423788070678711,-0.18745887279510498
1727296858815,7i,7.709245868770292,2.6s : 9.6s,0.5884991278869054,0.20731539589203984,2.9412879943847656,-0.09435941278934479,0.056956127285957336,0.002725660800933838,0.200900599360466,-0.05109983682632446,-0.1362669281131302,1.3753542920067727,-0.09150826068196585,0.9718684554100037,0.1358456015586853,-0.19239994883537292
1727296858825,7i,7.709245868770292,2.6s : 9.6s,0.5852058578889411,0.21955068814503587,2.808825731277466,-0.09779142588376999,-0.00180519069544971,-0.024258136749267578,0.21311038732528687,0.04688294231891632,-0.13027536450878524,1.3706729018440884,-0.12004514168351062,0.9717373251914978,0.12990717589855194,-0.1971057653427124
1727296858835,7i,7.709245868770292,2.6s : 9.6s,0.5634154956631768,0.2226144121756048,2.6792986392974854,-0.14521709084510803,-0.03726904094219208,-0.029266297817230225,0.20526161789894104,0.0810452252626419,-0.1248506475201314,1.3660751683200942,-0.14711534200407775,0.9714964628219604,0.12452654540538788,-0.2017117440700531
1727296858845,7i,7.709245868770292,2.6s : 9.6s,0.5452866917279008,0.2170628085689781,2.565542221069336,-0.1329500377178192,-0.0375305637717247,0.001254737377166748,0.20493464171886444,0.0715295821428299,-0.11975319706616612,1.3615036929045152,-0.17305556630315963,0.971172571182251,0.11946717649698257,-0.20628002285957336
1727296858855,7i,7.709245868770292,2.6s : 9.6s,0.5207250886195126,0.2203135993529859,2.4358885288238525,-0.10010366886854172,-0.07592422515153885,-0.020404338836669922,0.21700412034988403,0.03210851550102234,-0.1149136160702006,1.357485441935784,-0.1977640827212496,0.9708894491195679,0.11466087400913239,-0.21030068397521973
1727296858865,7i,7.709245868770292,2.6s : 9.6s,0.48814505769763694,0.27479714705641095,2.345165729522705,-0.05545737221837044,-0.14172986149787903,-0.08687692880630493,0.2584245502948761,0.03438928723335266,-0.11078995136869325,1.3540748736828903,-0.22149953806936484,0.9706200957298279,0.11056344211101532,-0.21371059119701385
1727296858875,7i,7.709245868770292,2.6s : 9.6s,0.46580356310567944,0.3344144889950151,2.316312551498413,-0.018174227327108383,-0.196297749876976,-0.12294602394104004,0.30978429317474365,0.027404695749282837,-0.10732221716809234,1.3512148144893914,-0.24477984154035964,0.970373272895813,0.10711631178855896,-0.21656794846057892
1727296858885,7i,7.709245868770292,2.6s : 9.6s,0.4568014569659797,0.37214430960702194,2.2651448249816895,-0.0013076290488243103,-0.27464765310287476,-0.10870128870010376,0.35306981205940247,0.04491241276264191,-0.10451781383889668,1.3487279714909683,-0.2677518943247264,0.970120906829834,0.10432762652635574,-0.2190457582473755
1727296858895,7i,7.709245868770292,2.6s : 9.6s,0.4488822559569831,0.42211912662606677,2.2254557609558105,0.01652165688574314,-0.343593567609787,-0.11686033010482788,0.40085119009017944,0.06202051043510437,-0.10251738781406373,1.3464752920827523,-0.2903900995709028,0.9698265194892883,0.10233791172504425,-0.22127653658390045
1727296858905,7i,7.709245868770292,2.6s : 9.6s,0.4263453328983746,0.4731190938285998,2.1428353786468506,0.015987161546945572,-0.4279153645038605,-0.15933972597122192,0.4429664611816406,0.047257199883461,-0.10130463956119834,1.3444191230168923,-0.3127354555011553,0.9694898724555969,0.10113145411014557,-0.22329792380332947
1727296858915,7i,7.709245868770292,2.6s : 9.6s,0.3849331794763043,0.5233350540224757,2.0133280754089355,0.009802413173019886,-0.5373751521110535,-0.21808642148971558,0.47566673159599304,0.007684528827667236,-0.10130392878428676,1.3423794506650835,-0.33414385312672606,0.9690324664115906,0.10113074630498886,-0.225274920463562
1727296858925,7i,7.709245868770292,2.6s : 9.6s,0.3533416592131861,0.5669949677402835,1.9682807922363281,0.034018803387880325,-0.6270357966423035,-0.24495452642440796,0.5102226734161377,-0.0339616984128952,-0.10242888394354994,1.3404991786769467,-0.3548940883564586,0.9684957265853882,0.1022498682141304,-0.2270704209804535
1727296858935,7i,7.709245868770292,2.6s : 9.6s,0.34282989115720414,0.5925200279239199,2.004189968109131,0.05026208609342575,-0.7425480484962463,-0.24904870986938477,0.5369514226913452,-0.027164191007614136,-0.10448920894383032,1.3388179456537646,-0.37580979594832303,0.9679056406021118,0.10429918020963669,-0.22864948213100433
1727296858945,7i,7.709245868770292,2.6s : 9.6s,0.3580295011818988,0.6588230678638121,2.209054946899414,0.03737238794565201,-0.8946283459663391,-0.2516421675682068,0.6058593988418579,-0.06048506498336792,-0.10760495582809632,1.3368895880575156,-0.39824013386074986,0.9671420454978943,0.1073974221944809,-0.23043908178806305
1727296858955,7i,7.709245868770292,2.6s : 9.6s,0.38455415236642415,0.74780752807735,2.3848321437835693,0.01726645603775978,-1.0240353345870972,-0.23995542526245117,0.7019082903862,-0.09466913342475891,-0.11154003858397825,1.334485802764554,-0.4230094491392389,0.9661670923233032,0.11130890250205994,-0.23266248404979706
1727296858965,7i,7.709245868770292,2.6s : 9.6s,0.39598260283005193,0.7813660801593764,2.4332923889160156,-0.032611358910799026,-1.1825860738754272,-0.24410349130630493,0.7375466227531433,-0.08349500596523285,-0.11655314064134063,1.3314339152628574,-0.4492862073618919,0.9648981094360352,0.11628942936658859,-0.23547473549842834
1727296858975,7i,7.709245868770292,2.6s : 9.6s,0.3879744044991922,0.7669436628575586,2.4041788578033447,-0.050710421055555344,-1.3168946504592896,-0.2649250030517578,0.7163098454475403,-0.07012510299682617,-0.12291237050384922,1.3278237777721549,-0.475983440568163,0.9633045196533203,0.12260311841964722,-0.2387738823890686
1727296858985,7i,7.709245868770292,2.6s : 9.6s,0.37534566709105305,0.7230838032793832,2.322734832763672,-0.057044483721256256,-1.4586714506149292,-0.2561876177787781,0.674720287322998,-0.04439172148704529,-0.13061289620809216,1.3239719537777426,-0.502427713907403,0.9614337086677551,0.13024184107780457,-0.24224473536014557
1727296858995,7i,7.709245868770292,2.6s : 9.6s,0.3698085636629138,0.7349614639091054,2.333237886428833,-0.05900155007839203,-1.6260566711425781,-0.25325262546539307,0.6879968643188477,-0.05188232660293579,-0.13983571084688504,1.3198222579359513,-0.5290039570541526,0.9592157602310181,0.13938042521476746,-0.2459235042333603
1727296859005,7i,7.709245868770292,2.6s : 9.6s,0.37134720246019287,0.811108671980052,2.414134979248047,-0.09245111793279648,-1.7904623746871948,-0.2550983428955078,0.7663945555686951,-0.0739019513130188,-0.150447345891297,1.3151050320483544,-0.5565334757469446,0.9565600752830505,0.14988043904304504,-0.2500573992729187
1727296859015,7i,7.709245868770292,2.6s : 9.6s,0.3723706168663395,0.839878850251653,2.4389569759368896,-0.1457003653049469,-1.920233964920044,-0.23351025581359863,0.8051570057868958,-0.05090814828872681,-0.1621665512748702,1.3094728601618248,-0.5851501654681093,0.9533741474151611,0.16145670413970947,-0.25496959686279297
1727296859025,7i,7.709245868770292,2.6s : 9.6s,0.3653178828807676,0.7656929184466373,2.3369853496551514,-0.1898830085992813,-2.0679285526275635,-0.18805480003356934,0.7422121167182922,-0.006497025489807129,-0.17512448185042062,1.3029972891469248,-0.6138488740720405,0.9496057033538818,0.17423070967197418,-0.26056233048439026
1727296859035,7i,7.709245868770292,2.6s : 9.6s,0.34756441602075994,0.7094553784609168,2.231257915496826,-0.20002564787864685,-2.232417106628418,-0.18191027641296387,0.6857312917709351,0.0028602182865142822,-0.18973361104764325,1.2959140570713823,-0.6420572670698789,0.9451853632926941,0.18859729170799255,-0.2665626108646393
1727296859045,7i,7.709245868770292,2.6s : 9.6s,0.3266119792067511,0.7331389667929561,2.1300649642944336,-0.20831100642681122,-2.4280025959014893,-0.17904597520828247,0.7107958197593689,-0.014303356409072876,-0.2061114150706459,1.288399548569463,-0.6699711455729858,0.9400627613067627,0.20465517044067383,-0.2727602422237396
1727296859055,7i,7.709245868770292,2.6s : 9.6s,0.3089595779907736,0.7878977179097587,2.045398473739624,-0.23541101813316345,-2.600416421890259,-0.1569662094116211,0.772100031375885,-0.0024422407150268555,-0.2243449604986011,1.2803159718629047,-0.6977209437499986,0.9340963363647461,0.22246778011322021,-0.27923500537872314
1727296859065,7i,7.709245868770292,2.6s : 9.6s,0.3106686534225998,0.8185804956799666,2.0458950996398926,-0.2903275489807129,-2.772888422012329,-0.08504283428192139,0.8138066530227661,0.023674368858337402,-0.24415380777855333,1.2711303802627087,-0.7258396415971848,0.9270990490913391,0.2417353093624115,-0.2864460349082947
1727296859075,7i,7.709245868770292,2.6s : 9.6s,0.3312329872532828,0.8432091623397268,2.108616828918457,-0.328009694814682,-2.9351980686187744,-0.002862691879272461,0.843201756477356,0.002072274684906006,-0.2651018547388969,1.2606817327443056,-0.7551355618718167,0.9190309047698975,0.26200756430625916,-0.2945069968700409
1727296859085,7i,7.709245868770292,2.6s : 9.6s,0.35546966023592663,0.9025189915643652,2.1664106845855713,-0.3707478642463684,-3.0736472606658936,0.05303925275802612,0.9009455442428589,-0.00494915246963501,-0.28709463771966043,1.2488347076461364,-0.7859541591433035,0.9097902774810791,0.2831669747829437,-0.30347681045532227
1727296859095,7i,7.709245868770292,2.6s : 9.6s,0.3671317856892863,0.9054240388524136,2.069267511367798,-0.4217459261417389,-3.230760097503662,0.12018424272537231,0.8973950147628784,0.00553402304649353,-0.30998391668047737,1.2355352285148193,-0.8176809136520312,0.8993166089057922,0.3050433099269867,-0.3133343756198883
1727296859105,7i,7.709245868770292,2.6s : 9.6s,0.3862694466888248,0.8626304786059956,2.0235180854797363,-0.4268384277820587,-3.385183095932007,0.2076812982559204,0.8362776041030884,0.040491849184036255,-0.3343616730314474,1.221174043527641,-0.8496745524529375,0.8874724507331848,0.32816624641418457,-0.32357290387153625
1727296859115,7i,7.709245868770292,2.6s : 9.6s,0.39039142305324087,0.8632206477409032,1.9869738817214966,-0.5004221796989441,-3.515009880065918,0.2270510196685791,0.8269546031951904,0.09871071577072144,-0.35964225351358614,1.205469970521575,-0.8824406810344816,0.8742520809173584,0.3519394099712372,-0.3343980312347412
1727296859125,7i,7.709245868770292,2.6s : 9.6s,0.4062156316621244,0.8757317601328208,1.9885516166687012,-0.5623108148574829,-3.661249876022339,0.3253859281539917,0.8067941069602966,0.10056531429290771,-0.38582817153589594,1.1878150097304305,-0.9163774997175254,0.8593674898147583,0.3763265609741211,-0.34621661901474
1727296859135,7i,7.709245868770292,2.6s : 9.6s,0.42842466714381,0.874472088294574,2.035992383956909,-0.6141916513442993,-3.776838779449463,0.3983849287033081,0.7737982273101807,0.08501285314559937,-0.4125319519809031,1.1681823884641391,-0.95195016204207,0.8428565263748169,0.40093016624450684,-0.35895389318466187
1727296859145,7i,7.709245868770292,2.6s : 9.6s,0.44183629600242524,0.8772974554176826,2.0433547496795654,-0.6887599229812622,-3.8853800296783447,0.444494366645813,0.7546658515930176,0.05054736137390137,-0.43947466843623584,1.1463410538882273,-0.9893600533545577,0.824670672416687,0.42546412348747253,-0.37269094586372375
1727296859155,7i,7.709245868770292,2.6s : 9.6s,0.4363242072463765,0.8771542145194522,1.8790464401245117,-0.7695680856704712,-4.0060954093933105,0.5139548778533936,0.7088402509689331,0.052871525287628174,-0.46690618265287187,1.1222150517502465,-1.0278027973006025,0.8046181201934814,0.4501257836818695,-0.38726791739463806
1727296859165,7i,7.709245868770292,2.6s : 9.6s,0.41206593323246987,0.852296278251697,1.6196856498718262,-0.8313142657279968,-4.08644437789917,0.5828981995582581,0.6138707399368286,0.09900176525115967,-0.49541084189503554,1.0966835968420297,-1.0657652299536897,0.7827329039573669,0.475393146276474,-0.40165990591049194
1727296859175,7i,7.709245868770292,2.6s : 9.6s,0.3904286900334242,0.8726052795856999,1.4208366870880127,-0.8895539045333862,-4.137501239776611,0.6686971187591553,0.5505955815315247,0.10549238324165344,-0.5246414773245507,1.0698167659929436,-1.1031726485015543,0.7591440081596375,0.5009027123451233,-0.41568833589553833
1727296859185,7i,7.709245868770292,2.6s : 9.6s,0.3709160928108637,0.9149290457923096,1.2389366626739502,-0.9443358778953552,-4.228545188903809,0.7476838231086731,0.5209574103355408,0.0816543698310852,-0.5544933965406063,1.0414053177910365,-1.140655130224063,0.7337920069694519,0.5265126824378967,-0.4293411672115326
1727296859195,7i,7.709245868770292,2.6s : 9.6s,0.35254196409959776,0.9415087343567474,1.1507298946380615,-0.9694734215736389,-4.324102401733398,0.7778209447860718,0.526138424873352,0.06790900230407715,-0.584964273081259,1.0111470044019641,-1.1790337773395592,0.7065388560295105,0.5521696209907532,-0.44261911511421204
1727296859205,7i,7.709245868770292,2.6s : 9.6s,0.3535596483256312,0.9966786996473734,1.199089765548706,-1.0066077709197998,-4.3792924880981445,0.8212289214134216,0.5622133016586304,0.0535508394241333,-0.6151350929643041,0.9783339443946658,-1.2196477974453288,0.6775046586990356,0.5770688652992249,-0.4560472369194031
1727296859215,7i,7.709245868770292,2.6s : 9.6s,0.3718365558327505,1.0658016540347208,1.2685573101043701,-1.050754189491272,-4.403314590454102,0.890741765499115,0.5844796895980835,0.02992933988571167,-0.6440531084062255,0.9423518520319032,-1.2633054176906122,0.64688640832901,0.6004415154457092,-0.47011494636535645
1727296859225,7i,7.709245868770292,2.6s : 9.6s,0.39107871565511515,1.1081512891703365,1.2660861015319824,-1.0791538953781128,-4.419595718383789,0.9543527960777283,0.5617391467094421,0.04073268175125122,-0.6715568297885128,0.9032631978329168,-1.3097890501794622,0.6148152947425842,0.6222054958343506,-0.4846261739730835
1727296859235,7i,7.709245868770292,2.6s : 9.6s,0.39870009662952105,1.0940413495225112,1.223775029182434,-1.1172727346420288,-4.424471855163574,0.9824350476264954,0.4775891900062561,0.060468316078186035,-0.6978127140349694,0.8614850388972056,-1.3584574695058647,0.5814382433891296,0.6425431966781616,-0.4990669786930084
1727296859245,7i,7.709245868770292,2.6s : 9.6s,0.392674095241218,1.0803170095212915,1.1355156898498535,-1.1533266305923462,-4.4441094398498535,1.0017502307891846,0.3978409767150879,0.07282769680023193,-0.7229193942065966,0.8171078814704278,-1.409120646873402,0.5467879772186279,0.6615766882896423,-0.5131658911705017
1727296859255,7i,7.709245868770292,2.6s : 9.6s,0.37668971006251173,1.0695127981116614,1.0554242134094238,-1.1889114379882812,-4.4352264404296875,1.005250096321106,0.35314124822616577,0.09285002946853638,-0.7469315935379377,0.7701626988593392,-1.4616567355759316,0.510893702507019,0.6793904304504395,-0.5267032384872437
1727296859265,7i,7.709245868770292,2.6s : 9.6s,0.3616037447605089,1.0821973704170489,0.9717456102371216,-1.224198818206787,-4.438521385192871,1.0346263647079468,0.30396080017089844,0.09114420413970947,-0.7695687224561051,0.7207171143837698,-1.5159997177777045,0.47396430373191833,0.6958255767822266,-0.539615273475647
1727296859275,7i,7.709245868770292,2.6s : 9.6s,0.35386703264144204,1.0927575163013508,0.9634233117103577,-1.235564112663269,-4.452926158905029,1.0549277067184448,0.2718864679336548,0.0855819582939148,-0.7906708260725245,0.668542514946962,-1.572669844507706,0.43597808480262756,0.7108252644538879,-0.5519516468048096
1727296859285,7i,7.709245868770292,2.6s : 9.6s,0.35213374634082306,1.0744337821822754,1.07268226146698,-1.2513800859451294,-4.4361252784729,1.028287649154663,0.3031381368637085,0.07169193029403687,-0.8091516607700419,0.6131578057609128,-1.6325385066103892,0.39712730050086975,0.7237020134925842,-0.5643982291221619
1727296859295,7i,7.709245868770292,2.6s : 9.6s,0.3491298903955638,1.0732534433425143,1.0884592533111572,-1.290003776550293,-4.401084899902344,1.0288914442062378,0.30010056495666504,0.05652433633804321,-0.8243994494180793,0.5547943706841832,-1.695183292574236,0.3576747477054596,0.734140157699585,-0.5771542191505432
1727296859305,7i,7.709245868770292,2.6s : 9.6s,0.3378101970867063,1.0820713834072053,0.9817297458648682,-1.3315608501434326,-4.377437114715576,1.056438684463501,0.22770410776138306,0.05446672439575195,-0.8373805128980556,0.4943354997802532,-1.7592875769349512,0.31759998202323914,0.7428921461105347,-0.5892720222473145
1727296859315,7i,7.709245868770292,2.6s : 9.6s,0.3149742088154573,1.0652957489118489,0.8714030385017395,-1.3490079641342163,-4.347063064575195,1.0494619607925415,0.17310422658920288,0.05932581424713135,-0.8486491331774787,0.4324645191029214,-1.8241613898423963,0.27703040838241577,0.7503881454467773,-0.6001430749893188
1727296859325,7i,7.709245868770292,2.6s : 9.6s,0.2948065505422437,1.0444214871343294,0.8685798048973083,-1.3845316171646118,-4.295224666595459,1.0289818048477173,0.16653448343276978,0.0654137134552002,-0.8575716184357614,0.3693516689364431,-1.8898135985147044,0.2362007051706314,0.7562559843063354,-0.610152542591095
1727296859335,7i,7.709245868770292,2.6s : 9.6s,0.29781297809571017,1.0357709313876657,1.0784046649932861,-1.3917148113250732,-4.2496232986450195,1.0183680057525635,0.18458014726638794,0.04096579551696777,-0.862820058600912,0.3048614632159074,-1.956393801163714,0.1951940357685089,0.7596794366836548,-0.6203115582466125
1727296859345,7i,7.709245868770292,2.6s : 9.6s,0.31474716195125824,1.02764871793186,1.3314704895019531,-1.4981797933578491,-4.2274370193481445,1.0063658952713013,0.20438778400421143,-0.0389256477355957,-0.8634042157035747,0.24080586881714372,-2.023735097168175,0.1549805998802185,0.7600591778755188,-0.6311030387878418
1727296859355,7i,7.709245868770292,2.6s : 9.6s,0.33981044279265704,1.1444563794012668,1.6267199516296387,-1.5899032354354858,-4.242225170135498,1.0175251960754395,0.45643001794815063,-0.2570885419845581,-0.8559036184194783,0.17239033299388073,-2.0932003541434954,0.11244924366474152,0.7551635503768921,-0.6458198428153992
1727296859365,7i,7.709245868770292,2.6s : 9.6s,0.31237567502559105,0.9789279012453597,1.4323997497558594,-1.6489149332046509,-4.249419212341309,0.9637313485145569,0.15347778797149658,-0.07724177837371826,-0.8466716406239245,0.10593952754687612,-2.160063431230712,0.07005161792039871,0.7490795850753784,-0.658765971660614
1727296859375,7i,7.709245868770292,2.6s : 9.6s,0.24336098513012386,0.8968777359464513,1.0233802795410156,-1.6972764730453491,-4.2314300537109375,0.8882558345794678,-0.08593952655792236,0.08947426080703735,-0.8378581958461134,0.04079537014843552,-2.224924921088209,0.027286825701594353,0.7432118654251099,-0.6684995293617249
1727296859385,7i,7.709245868770292,2.6s : 9.6s,0.21834181975573078,0.906096100225879,1.1146878004074097,-1.7715858221054077,-4.187422752380371,0.9021302461624146,0.05615854263305664,0.06338280439376831,-0.8276632560548296,-0.022960265147121118,-2.287629371343367,-0.0155335096642375,0.7363523244857788,-0.6764198541641235
1727296859395,7i,7.709245868770292,2.6s : 9.6s,0.20305100990163805,0.9383266241976255,1.056134819984436,-1.8236128091812134,-4.113907337188721,0.9184287786483765,0.18533706665039062,-0.05094707012176514,-0.8145001167455281,-0.08484490304416858,-2.347571283050525,-0.05815346911549568,0.7273826599121094,-0.6837636232376099
1727296859405,7i,7.709245868770292,2.6s : 9.6s,0.18562560612481405,0.8751068967464276,0.9410762786865234,-1.8202431201934814,-4.107894420623779,0.8614467978477478,0.14984172582626343,-0.035622358322143555,-0.7999413285077103,-0.1444675818792623,-2.404905740206565,-0.10030785202980042,0.7173151969909668,-0.6894906163215637
1727296859415,7i,7.709245868770292,2.6s : 9.6s,0.18271150354715196,0.8063699027437526,0.9026529788970947,-1.8342037200927734,-4.06618070602417,0.7917493581771851,0.13874316215515137,-0.06415379047393799,-0.7839399515067392,-0.2020263253222035,-2.4600778997342663,-0.14209114015102386,0.7060748934745789,-0.6937350034713745
1727296859425,7i,7.709245868770292,2.6s : 9.6s,0.1937185805794195,0.8227443092813893,0.8587515354156494,-1.8928521871566772,-4.022019386291504,0.7998820543289185,0.18243932723999023,-0.06174778938293457,-0.7661545287795349,-0.2572329227514507,-2.5123466661993783,-0.18332010507583618,0.6933693885803223,-0.6968734860420227
1727296859435,7i,7.709245868770292,2.6s : 9.6s,0.2038797987829097,0.8556792866522095,0.860276460647583,-1.938170313835144,-4.0286335945129395,0.82903653383255,0.1884058713912964,-0.09689527750015259,-0.746600985737078,-0.31066235222759314,-2.5621981285616156,-0.22437646985054016,0.6791477799415588,-0.6988658905029297
1727296859445,7i,7.709245868770292,2.6s : 9.6s,0.21138045273729764,0.8786907322326547,0.9318987131118774,-1.9850132465362549,-4.020963668823242,0.839451789855957,0.23227912187576294,-0.11603665351867676,-0.7249410602508286,-0.36202783187958715,-2.6094923402471975,-0.26511090993881226,0.6630913019180298,-0.7000187039375305
1727296859455,7i,7.709245868770292,2.6s : 9.6s,0.21964436216459174,0.8787543960042633,0.9728575944900513,-2.017775535583496,-3.9521186351776123,0.8151715397834778,0.30617934465408325,-0.11814761161804199,-0.7010334479151926,-0.41096493140210255,-2.6535885075697023,-0.3052838146686554,0.6450077891349792,-0.7005475163459778
1727296859465,7i,7.709245868770292,2.6s : 9.6s,0.23813941362318133,0.8081653836112354,0.9521659016609192,-2.0640687942504883,-3.9324440956115723,0.7581986784934998,0.2689817547798157,-0.0769081711769104,-0.6756987451667494,-0.45733204901143487,-2.6945435375720663,-0.34453290700912476,0.6254426836967468,-0.7000846862792969
1727296859475,7i,7.709245868770292,2.6s : 9.6s,0.26726984994679914,0.7623907794894804,0.8762050867080688,-2.1233012676239014,-3.920494318008423,0.7242123484611511,0.22011226415634155,-0.0911414623260498,-0.6494103136634197,-0.5022305211023417,-2.7333861548432945,-0.38339197635650635,0.6047168374061584,-0.6980888843536377
1727296859485,7i,7.709245868770292,2.6s : 9.6s,0.28590671506681453,0.7946354623284385,0.8064305186271667,-2.1470789909362793,-3.881666660308838,0.7668589353561401,0.19366049766540527,-0.0766061544418335,-0.6226749962365601,-0.5454440605678034,-2.770166769865985,-0.42143046855926514,0.5832102298736572,-0.6944510340690613
1727296859495,7i,7.709245868770292,2.6s : 9.6s,0.302768863312376,0.8099251369290793,0.8028723001480103,-2.1983585357666016,-3.8778321743011475,0.775312602519989,0.2059011459350586,-0.11168622970581055,-0.5951024548534593,-0.5869936941178937,-2.804818279265224,-0.45864689350128174,0.5605936050415039,-0.689476490020752
1727296859505,7i,7.709245868770292,2.6s : 9.6s,0.3184106580757233,0.8329688094761675,0.7624084949493408,-2.2198524475097656,-3.8548471927642822,0.7779203653335571,0.24488675594329834,-0.1694326400756836,-0.5665742016584455,-0.6269961364227212,-2.837450188931086,-0.49503758549690247,0.5367447137832642,-0.6832590103149414
1727296859515,7i,7.709245868770292,2.6s : 9.6s,0.33168110907049836,0.8643873011256727,0.6325478553771973,-2.2366011142730713,-3.800323009490967,0.8211052417755127,0.2071925401687622,-0.17327100038528442,-0.537937838659154,-0.6654689348073675,-2.8683699178631157,-0.5302269458770752,0.5123661756515503,-0.6755296587944031
1727296859525,7i,7.709245868770292,2.6s : 9.6s,0.3414949460037814,0.8760757075044715,0.6071053147315979,-2.2671308517456055,-3.763455629348755,0.8425565361976624,0.17817345261573792,-0.16081464290618896,-0.5092839870087813,-0.7027277975769599,-2.89779568389687,-0.5642820000648499,0.4875522255897522,-0.666242241859436
1727296859535,7i,7.709245868770292,2.6s : 9.6s,0.35109770162701925,0.8911734257353838,0.6100602149963379,-2.309709072113037,-3.7307846546173096,0.8540213108062744,0.19566592574119568,-0.16294944286346436,-0.4799600039626285,-0.7386008369335876,-2.9251441534859324,-0.5971853137016296,0.46174371242523193,-0.6558676958084106
1727296859545,7i,7.709245868770292,2.6s : 9.6s,0.35746037807365943,0.9372313160603529,0.5841154456138611,-2.369452953338623,-3.6908316612243652,0.907496452331543,0.18746653199195862,-0.1403888463973999,-0.4502252222719067,-0.7735004527177014,-2.9508324581481293,-0.6290234923362732,0.4351683259010315,-0.6441723704338074
1727296859555,7i,7.709245868770292,2.6s : 9.6s,0.364805650990842,0.9461874898396074,0.5518720746040344,-2.395214319229126,-3.6435747146606445,0.9263611435890198,0.16101974248886108,-0.10582268238067627,-0.42014071492132454,-0.8075124840172014,-2.974819086583722,-0.65972900390625,0.4078889489173889,-0.6311768293380737
1727296859565,7i,7.709245868770292,2.6s : 9.6s,0.37395858523445485,0.9307643753711025,0.5254921317100525,-2.411536455154419,-3.5749082565307617,0.9255752563476562,0.09096994996070862,-0.03684067726135254,-0.39005220929898426,-0.8403472153722814,-2.9972304478022322,-0.6889266967773438,0.3802367150783539,-0.6170899868011475
1727296859575,7i,7.709245868770292,2.6s : 9.6s,0.38995883596839365,0.9163820205594365,0.48596423864364624,-2.447192430496216,-3.505950689315796,0.9139235615730286,0.06702196598052979,-0.0027905702590942383,-0.3600326885510329,-0.872339633745391,-3.018192487329641,-0.7167341709136963,0.3523048162460327,-0.6018084287643433
1727296859585,7i,7.709245868770292,2.6s : 9.6s,0.39470211272963823,0.9430346683826983,0.4133736789226532,-2.412306070327759,-3.363461494445801,0.9428175091743469,0.018990695476531982,0.006991684436798096,-0.3305313286234736,-0.9031775365385398,-3.037446522846073,-0.7427899241447449,0.32454565167427063,-0.5856049060821533
1727296859595,7i,7.709245868770292,2.6s : 9.6s,0.3858231070556341,0.960921872094946,0.4202437102794647,-2.364064931869507,-3.210254192352295,0.9574070572853088,-0.06893441081047058,0.04461634159088135,-0.3019248211921305,-0.9325179673159405,-3.0550442433199865,-0.7667942047119141,0.29735851287841797,-0.5688625574111938
1727296859605,7i,7.709245868770292,2.6s : 9.6s,0.37801447693296153,0.9337290483118399,0.4383968710899353,-2.3122780323028564,-3.049028158187866,0.9220894575119019,-0.12008041143417358,0.08474469184875488,-0.27396151899806453,-0.9603223901127561,-3.0704726615528597,-0.7888191938400269,0.2705473303794861,-0.5518772602081299
1727296859615,7i,7.709245868770292,2.6s : 9.6s,0.35416057979104293,0.9765061811064405,0.43466976284980774,-2.2056632041931152,-2.841165781021118,0.938376784324646,-0.21940568089485168,0.15771645307540894,-0.24713647533054756,-0.9864058322291789,-3.0838812443951737,-0.8087074756622314,0.244628444314003,-0.5349289774894714
1727296859625,7i,7.709245868770292,2.6s : 9.6s,0.32399531424916944,1.0244560878156457,0.4184929132461548,-2.0933921337127686,-2.6219050884246826,0.9384749531745911,-0.3335784077644348,0.2397925853729248,-0.2219001330980908,-1.010578843179893,-3.095431372001192,-0.8263685703277588,0.2200835645198822,-0.5183417797088623
1727296859635,7i,7.709245868770292,2.6s : 9.6s,0.2999093273996858,1.0069986171010157,0.4606226682662964,-2.005258798599243,-2.401048421859741,0.885033905506134,-0.39202672243118286,0.277626097202301,-0.19817667584661736,-1.0330705069511807,-3.1049815601104584,-0.8420650959014893,0.19688202440738678,-0.5021591782569885
1727296859645,7i,7.709245868770292,2.6s : 9.6s,0.2628923239507386,1.0838395908649907,0.4720119535923004,-1.8780425786972046,-2.1629655361175537,0.904279887676239,-0.49275487661361694,0.3379034996032715,-0.17612866277156003,-1.0539351700505994,-3.1125808046879437,-0.8559247851371765,0.17521944642066956,-0.48650890588760376
1727296859655,7i,7.709245868770292,2.6s : 9.6s,0.23363732625268802,1.1416325291898168,0.3750019073486328,-1.7182008028030396,-1.9351811408996582,0.8608863949775696,-0.600732147693634,0.448687344789505,-0.15611404534706572,-1.0729663476680056,-3.1188435812021083,-0.8679358959197998,0.15548069775104523,-0.4717128872871399
1727296859665,7i,7.709245868770292,2.6s : 9.6s,0.21233014662328395,1.1400375621722432,0.29402902722358704,-1.54945707321167,-1.6874812841415405,0.7768759727478027,-0.6601056456565857,0.5103037357330322,-0.13863773928936385,-1.0901625908346377,-3.1245602576280134,-0.8781943917274475,0.13819405436515808,-0.4579051434993744
1727296859675,7i,7.709245868770292,2.6s : 9.6s,0.16721195354827045,1.1864663103658386,0.29427778720855713,-1.3416434526443481,-1.4192609786987305,0.7914789915084839,-0.6753720641136169,0.570206880569458,-0.12348530898394275,-1.1052110100335948,-3.129099511773431,-0.8867548704147339,0.12317171692848206,-0.4455273449420929
1727296859685,7i,7.709245868770292,2.6s : 9.6s,0.11336982508936821,1.224221500293687,0.3451651930809021,-1.093670129776001,-1.136272668838501,0.7829276323318481,-0.6958857774734497,0.6336289048194885,-0.11066227588742202,-1.1177425830078616,-3.1319897423711964,-0.8936150074005127,0.11043655127286911,-0.4350358545780182
1727296859695,7i,7.709245868770292,2.6s : 9.6s,0.09260949035357628,1.2326861685868296,0.39233043789863586,-0.8232612609863281,-0.8229668736457825,0.7302615642547607,-0.7127013206481934,0.6915851831436157,-0.10028999638055017,-1.1274438539896598,-3.132943959420541,-0.898779571056366,0.10012196004390717,-0.4268147051334381
1727296859705,7i,7.709245868770292,2.6s : 9.6s,0.14723636839448093,1.282844404995856,0.4265128970146179,-0.5408220887184143,-0.4978764057159424,0.7316350340843201,-0.7559388279914856,0.7341365218162537,-0.0927109818460308,-1.1342001029686175,-3.1320619101002416,-0.9023045897483826,0.09257822483778,-0.42104148864746094
1727296859715,7i,7.709245868770292,2.6s : 9.6s,0.24481700802057152,1.3778082920205783,0.41441136598587036,-0.2411743849515915,-0.15837866067886353,0.7522680163383484,-0.8137164115905762,0.8187271356582642,-0.08810708215604611,-1.1379290031651834,-3.12960087668226,-0.9042456150054932,0.08799313008785248,-0.41784828901290894
1727296859725,7i,7.709245868770292,2.6s : 9.6s,0.35837994002413254,1.4804969571129316,0.41368725895881653,0.10224397480487823,0.2411719262599945,0.7501994371414185,-0.888141930103302,0.9166656732559204,-0.08678293364615827,-1.1382778630359451,-3.125676194035517,-0.9044961929321289,0.0866740420460701,-0.4175812304019928
1727296859735,7i,7.709245868770292,2.6s : 9.6s,0.4929111923271538,1.5784069968291534,0.4403015375137329,0.4367668330669403,0.6356103420257568,0.7816744446754456,-0.9506605863571167,0.9882298111915588,-0.08899214414304855,-1.1350467294698978,-3.1199572694151936,-0.9029665589332581,0.08887472748756409,-0.4204198122024536
1727296859745,7i,7.709245868770292,2.6s : 9.6s,0.6418864905655767,1.697447984847744,0.40799179673194885,0.7819769382476807,1.072876214981079,0.8502138257026672,-1.0231552124023438,1.0543336868286133,-0.09496843547520294,-1.12828357766956,-3.1124873123268593,-0.899606466293335,0.09482574462890625,-0.42628195881843567
1727296859755,7i,7.709245868770292,2.6s : 9.6s,0.8065042041506626,1.8157329316062307,0.39043545722961426,1.1263933181762695,1.5015774965286255,0.9419230222702026,-1.1073061227798462,1.0879063606262207,-0.10485833971997233,-1.1178174327226131,-3.1032568299330343,-0.8942087888717651,0.10466628521680832,-0.4352421462535858
1727296859765,7i,7.709245868770292,2.6s : 9.6s,0.9748684421822339,1.8881011337145341,0.41633284091949463,1.436755895614624,1.9348458051681519,1.0141421556472778,-1.1649633646011353,1.0859566926956177,-0.11847204539828497,-1.1037422133184545,-3.0919790784684427,-0.8866397142410278,0.11819510161876678,-0.44710174202919006
1727296859775,7i,7.709245868770292,2.6s : 9.6s,1.1657835867107402,2.0130795512373894,0.4662977159023285,1.776333212852478,2.399681329727173,1.1530483961105347,-1.2469922304153442,1.0807307958602905,-0.13574494086118838,-1.085910971774451,-3.0780370302637063,-0.8765895962715149,0.13532844185829163,-0.4618191123008728
1727296859785,7i,7.709245868770292,2.6s : 9.6s,1.3791788755409202,2.147687362403976,0.5538235902786255,2.135716676712036,2.8949036598205566,1.3009648323059082,-1.3307238817214966,1.072019338607788,-0.1565270360540579,-1.0638769884087018,-3.060788273916215,-0.8635563254356384,0.1558886468410492,-0.4795510768890381
1727296859795,7i,7.709245868770292,2.6s : 9.6s,1.6073401727907302,2.2637355105188033,0.6723800897598267,2.5406100749969482,3.46907901763916,1.420833706855774,-1.406012773513794,1.0624773502349854,-0.1810635475205651,-1.0369177703937704,-3.0393637527800164,-0.8467674255371094,0.18007583916187286,-0.5005572438240051
1727296859805,7i,7.709245868770292,2.6s : 9.6s,1.8538989866605708,2.439591733184204,0.7679862380027771,2.9738659858703613,4.106592655181885,1.5664249658584595,-1.519884705543518,1.0898950099945068,-0.2095090872414443,-1.0042137393216077,-3.012892678460736,-0.8252902626991272,0.20797975361347198,-0.5250146985054016
1727296859815,7i,7.709245868770292,2.6s : 9.6s,2.117365530555997,2.706450299830327,0.7548615336418152,3.4360029697418213,4.7982940673828125,1.7637324333190918,-1.683427095413208,1.1748167276382446,-0.24234125233855588,-0.9650393515031871,-2.9810910206728742,-0.7980493903160095,0.23997612297534943,-0.5527464151382446
1727296859825,7i,7.709245868770292,2.6s : 9.6s,2.4069421265829423,3.045972715835573,0.6749357581138611,3.9271016120910645,5.58892822265625,2.034794330596924,-1.8431587219238281,1.3192148208618164,-0.28007941423158905,-0.9185199645644893,-2.943472862364477,-0.7637372612953186,0.27643197774887085,-0.5833444595336914
1727296859835,7i,7.709245868770292,2.6s : 9.6s,2.731984176704623,3.441592172228395,0.5460056066513062,4.449760913848877,6.388390064239502,2.38869047164917,-2.0169780254364014,1.4389281272888184,-0.3228182256319454,-0.8634530128487948,-2.8990468551964215,-0.7208285331726074,0.31724047660827637,-0.6162505149841309
1727296859845,7i,7.709245868770292,2.6s : 9.6s,3.0789682470595032,3.907620358274231,0.11974351108074188,5.048904895782471,7.3657145500183105,2.8325464725494385,-2.183199882507324,1.5747430324554443,-0.3711188539836978,-0.7983009234479118,-2.8470874682107454,-0.6674159169197083,0.3626583516597748,-0.6504113674163818
1727296859855,7i,7.709245868770292,2.6s : 9.6s,3.4760457424294815,4.3729194765114565,-0.29453516006469727,5.742917537689209,8.43044376373291,3.3584704399108887,-2.26141095161438,1.6520053148269653,-0.42617223480835276,-0.7205467670468487,-2.785623426697729,-0.6007800698280334,0.4133884608745575,-0.6842319369316101
1727296859865,7i,7.709245868770292,2.6s : 9.6s,3.9313150517357713,4.805572619567466,-0.6448526978492737,6.56512451171875,9.617570877075195,3.897616147994995,-2.2858808040618896,1.636112928390503,-0.48612240000344065,-0.6258823057792035,-2.710400704375314,-0.5179468393325806,0.46720102429389954,-0.7165572643280029
1727296859875,7i,7.709245868770292,2.6s : 9.6s,4.4696201228597925,5.346956625140265,-0.907016932964325,7.364032745361328,10.893505096435547,4.583665370941162,-2.318020820617676,1.4855087995529175,-0.5479606876423704,-0.5093664566657435,-2.615885407889626,-0.4162304997444153,0.5209475755691528,-0.74522864818573
1727296859885,7i,7.709245868770292,2.6s : 9.6s,5.128969442081097,6.080649662836709,-0.9557842016220093,8.101295471191406,12.248693466186523,5.520061492919922,-2.21990704536438,1.2550833225250244,-0.6053791043237495,-0.3661519682065422,-2.495587487830849,-0.2943992018699646,0.5690738558769226,-0.7677786350250244
1727296859895,7i,7.709245868770292,2.6s : 9.6s,5.846689096257308,7.031724248436423,-1.4061977863311768,8.792741775512695,13.536425590515137,6.634089946746826,-2.0672507286071777,1.0772515535354614,-0.651972580291371,-0.19368307059600942,-2.34613730885118,-0.15299567580223083,0.6067555546760559,-0.7800256609916687
1727296859905,7i,7.709245868770292,2.6s : 9.6s,6.57028771217263,8.207323977962817,-2.1186211109161377,9.195405960083008,14.68557071685791,7.901098728179932,-1.9019309282302856,1.1469370126724243,-0.6822855584272157,0.00634229738970048,-2.1689547263931543,0.0049224370159208775,0.6305685639381409,-0.7761179208755493
1727296859915,7i,7.709245868770292,2.6s : 9.6s,7.1826427099144246,9.67157573239793,-3.941641092300415,9.196845054626465,15.178080558776855,9.432806015014648,-1.6412203311920166,1.366727352142334,-0.6947954975010993,0.22401418643197257,-1.9716112498256657,0.17064860463142395,0.6402283310890198,-0.7489904761314392
1727296859925,7i,7.709245868770292,2.6s : 9.6s,7.610483498316123,11.1244075609925,-6.406505584716797,8.918834686279297,15.063737869262695,10.96853256225586,-0.8590304255485535,1.644932746887207,-0.6933544511897338,0.44830781370696837,-1.7633915388436343,0.3333624005317688,0.6391206979751587,-0.6931047439575195
1727296859935,7i,7.709245868770292,2.6s : 9.6s,7.709245868770292,12.376508242484864,-9.218510627746582,7.692848205566406,14.97806167602539,12.240517616271973,0.5546048879623413,1.7435877323150635,-0.6795062067953007,0.6708507181205559,-1.544918154244052,0.4835730493068695,0.6284089684486389,-0.6093104481697083
1727296859945,7i,7.709245868770292,2.6s : 9.6s,7.5030840677961,13.965507316034484,-12.100738525390625,5.853546619415283,14.58714485168457,13.555750846862793,2.786255121231079,1.8745121955871582,-0.6513708878253772,0.880667855148266,-1.3158469236445294,0.6132710576057434,0.6062771677970886,-0.5062872171401978
1727296859955,7i,7.709245868770292,2.6s : 9.6s,6.894495875793855,15.197779917401173,-14.154452323913574,3.7832047939300537,13.740421295166016,13.855663299560547,5.73673152923584,2.4663779735565186,-0.6073424581548007,1.0669435738444535,-1.0809594245763339,0.7191201448440552,0.5706871747970581,-0.39646220207214355
1727296859965,7i,7.709245868770292,2.6s : 9.6s,5.844185758883123,15.876956776124642,-15.294991493225098,2.04783296585083,11.991937637329102,12.811685562133789,8.830846786499023,3.1550934314727783,-0.547974455819514,1.2168850068544326,-0.8546740858023862,0.8006802201271057,0.5209593176841736,-0.29582518339157104
1727296859975,7i,7.709245868770292,2.6s : 9.6s,4.245461534655683,15.858568108668196,-16.09444808959961,-0.2980155050754547,11.918473243713379,10.554936408996582,11.174968719482422,3.899688959121704,-0.4697411187013188,1.324832455334986,-0.6391440939186387,0.8648484945297241,0.45265546441078186,-0.21711766719818115
1727296859985,7i,7.709245868770292,2.6s : 9.6s,2.398890629809511,15.785593137020363,-16.50737953186035,-2.5175673961639404,12.064899444580078,8.381355285644531,12.457334518432617,4.873669147491455,-0.3811581273604287,1.391399136646524,-0.4345034731890816,0.9133375883102417,0.371995747089386,-0.16563087701797485
1727296859995,7i,7.709245868770292,2.6s : 9.6s,0.6266214239832023,14.915078891058284,-15.016008377075195,-3.8055436611175537,12.361266136169434,5.4537739753723145,12.76828384399414,5.448564529418945,-0.28582385961885165,1.419559733054186,-0.24855321211149817,0.9484782218933105,0.2819479703903198,-0.14454835653305054
1727296860005,7i,7.709245868770292,2.6s : 9.6s,1.435138192972327,11.89096874744084,-14.290098190307617,-4.805647373199463,10.841981887817383,2.6357784271240234,10.742873191833496,4.363311290740967,-0.19303051207893504,1.4185271288054533,-0.08039891148083038,0.9700716733932495,0.1918340027332306,-0.14886432886123657
1727296860015,7i,7.709245868770292,2.6s : 9.6s,4.206453380714557,6.7061264904804485,-16.26320457458496,-13.615939140319824,12.429108619689941,0.9141098856925964,6.210494041442871,2.3593006134033203,-0.10641835556677852,1.3620704049311567,0.08202006374772733,0.972761332988739,0.10621760785579681,-0.2060413956642151
1727296860025,7i,7.709245868770292,2.6s : 9.6s,3.16531831337927,4.676219452028809,-2.51432728767395,-6.549829006195068,20.413000106811523,3.8947348594665527,0.9161440134048462,-2.420485258102417,0.031429291949112946,1.2982418676608007,0.19252442962977484,0.9626107215881348,-0.03142411634325981,-0.26905950903892517
1727296860035,7i,7.709245868770292,2.6s : 9.6s,3.8946999446375217,13.498297780646336,-34.209877014160156,-8.659120559692383,-4.462522983551025,11.100929260253906,-7.635013103485107,0.8246135115623474,0.0024381342677053702,1.2560562357183744,0.4566388392091889,0.9508740305900574,-0.0024381319526582956,-0.3095684349536896
1727296860045,7i,7.709245868770292,2.6s : 9.6s,2.3455321305597128,17.3604723444821,-12.561948776245117,-10.788541793823242,12.175616264343262,11.824203491210938,-0.9431445002555847,12.676146507263184,-0.03752896572525276,1.1694198527727708,0.6874303503141501,0.9198759198188782,0.0375201553106308,-0.3904106914997101
1727296860055,7i,7.709245868770292,2.6s : 9.6s,2.7867980329458053,11.415218212513432,-15.066590309143066,-14.016489028930664,0.6543785929679871,9.975126266479492,5.545916557312012,-0.21650022268295288,-0.04152827960800285,1.0535924876461744,0.8342761308631275,0.8684557676315308,0.041516344994306564,-0.4940253496170044
1727296860065,7i,7.709245868770292,2.6s : 9.6s,3.6955859141614873,16.233605231515547,-11.377324104309082,-12.908224105834961,-1.3895472288131714,5.549380779266357,8.208940505981445,12.858756065368652,-0.1347131444144488,0.94442977929959,0.9615338160363311,0.8028226494789124,0.13430605828762054,-0.580893874168396
1727296860075,7i,7.709245868770292,2.6s : 9.6s,4.370310861533574,9.485937636121927,-4.985484600067139,-18.233293533325195,0.16599668562412262,4.9492363929748535,6.8486409187316895,4.310938358306885,-0.18557980669828697,0.785718555898665,0.9940786746115721,0.6951879858970642,0.18451641499996185,-0.6947426795959473
1727296860085,7i,7.709245868770292,2.6s : 9.6s,4.854523225189701,9.33444794806075,-11.971050262451172,-16.036401748657227,-0.80125492811203,7.184153079986572,3.2432000637054443,5.000151634216309,-0.2599938823454537,0.6324405320133597,1.062619744509587,0.5712485313415527,0.25707465410232544,-0.7794791460037231
1727296860095,7i,7.709245868770292,2.6s : 9.6s,5.3222066374520365,9.919347265585833,-6.050467491149902,-17.04229164123535,-0.7478913068771362,3.9840941429138184,2.822213649749756,8.63455581665039,-0.3367324850058189,0.47511868544465435,1.0962245298516995,0.43175363540649414,0.3304048478603363,-0.8392981886863708
1727296860105,7i,7.709245868770292,2.6s : 9.6s,5.539611357438204,6.0115930702323395,-5.390775203704834,-15.25161075592041,-2.049747943878174,3.1356472969055176,3.110537528991699,4.078176498413086,-0.3986236883856264,0.3208043369244594,1.1124441250416275,0.29060685634613037,0.38815030455589294,-0.8745781779289246
1727296860115,7i,7.709245868770292,2.6s : 9.6s,5.42061964747945,6.628013390480729,-2.2348382472991943,-14.875495910644531,-2.9826419353485107,2.1845321655273438,2.6573989391326904,5.665387153625488,-0.43751108426085455,0.16158497032863767,1.0933362945877885,0.14572902023792267,0.42368629574775696,-0.894009530544281
1727296860125,7i,7.709245868770292,2.6s : 9.6s,5.143285166783161,6.040335916400864,-2.017360210418701,-13.784221649169922,-2.9255030155181885,2.3100619316101074,1.3841552734375,5.406790733337402,-0.4624267291219624,0.007156995348573952,1.0663350718865177,0.006405259482562542,0.4461212754249573,-0.8949496150016785
1727296860135,7i,7.709245868770292,2.6s : 9.6s,4.715267059485741,7.12098523169743,-1.7995117902755737,-12.765655517578125,-4.873879432678223,2.571300506591797,0.8602182865142822,6.584593296051025,-0.47782638756109963,-0.14631828239852576,1.0265754108183271,-0.12946701049804688,0.45985010266304016,-0.8785079121589661
1727296860145,7i,7.709245868770292,2.6s : 9.6s,4.521741692360881,5.667870754183113,-0.5833641886711121,-12.198612213134766,-4.96303653717041,1.40179443359375,0.2097015082836151,5.4877824783325195,-0.4824761233171608,-0.2957580385671681,0.9790968069958998,-0.2581939697265625,0.4639740586280823,-0.8473865389823914
1727296860155,7i,7.709245868770292,2.6s : 9.6s,4.279745370827571,4.611447436067202,-0.1439652144908905,-11.772258758544922,-3.9703269004821777,1.4298946857452393,0.055224865674972534,4.383810997009277,-0.4713427673831496,-0.4375787340608621,0.9364101071916301,-0.3775418698787689,0.45408305525779724,-0.8070134520530701
1727296860165,7i,7.709245868770292,2.6s : 9.6s,4.009165777786477,3.853042323899458,1.0292017459869385,-10.798892974853516,-3.3294320106506348,0.9206162691116333,-0.06300491094589233,3.740913152694702,-0.4499015813789388,-0.5649841574308464,0.9029463610227731,-0.4821244776248932,0.4348769187927246,-0.7605511546134949
1727296860175,7i,7.709245868770292,2.6s : 9.6s,3.8685448393091066,3.1124522371446,1.0365521907806396,-9.693867683410645,-2.7723612785339355,0.10875964164733887,-0.45603421330451965,3.0769405364990234,-0.4236572092687225,-0.6760083772263961,0.8830662079802025,-0.5703684687614441,0.41109707951545715,-0.7111110687255859
1727296860185,7i,7.709245868770292,2.6s : 9.6s,3.6424343750504873,2.7972069445945573,1.1574748754501343,-8.896989822387695,-2.8589870929718018,-0.00144273042678833,-0.6380738615989685,2.7234585285186768,-0.3967368013532424,-0.7745990673756407,0.8680971321854605,-0.6451026797294617,0.3864106833934784,-0.6591883897781372
1727296860195,7i,7.709245868770292,2.6s : 9.6s,3.3840307971267887,2.16540025787283,1.1902462244033813,-8.383129119873047,-2.848396062850952,0.08712607622146606,-0.6688754558563232,2.057662010192871,-0.36806289120361785,-0.8652864591821914,0.8560886129321372,-0.7102950811386108,0.3598087430000305,-0.6049947142601013
1727296860205,7i,7.709245868770292,2.6s : 9.6s,3.03269658056155,1.6645101418465733,0.9861069321632385,-7.934245586395264,-3.287449598312378,0.6799914836883545,-0.3807230293750763,1.4708009958267212,-0.3370825926495602,-0.950525679603938,0.8455222369075477,-0.767927885055542,0.3307352662086487,-0.5485444664955139
1727296860215,7i,7.709245868770292,2.6s : 9.6s,2.6422885874518522,1.5213263699463047,1.334821343421936,-7.555099010467529,-3.7594032287597656,1.0607802867889404,-0.10036253929138184,1.0858666896820068,-0.30110461454276993,-1.031338951684386,0.8349320670628725,-0.8193861842155457,0.29657530784606934,-0.4905601739883423
1727296860225,7i,7.709245868770292,2.6s : 9.6s,2.248632143149132,1.551096427380638,1.7539706230163574,-7.246992588043213,-4.019491672515869,1.4038445949554443,0.044141173362731934,0.6581580638885498,-0.25954427755651854,-1.1065999654732053,0.8296602391657935,-0.8642328381538391,0.25664010643959045,-0.43270939588546753
1727296860235,7i,7.709245868770292,2.6s : 9.6s,1.875102896546026,1.8503688743761726,2.1815710067749023,-7.075807094573975,-4.305008888244629,1.759304165840149,0.20619940757751465,0.5349725484848022,-0.2135255534577128,-1.178114613797873,0.8300407360995086,-0.9029045701026917,0.21190670132637024,-0.3739769458770752
1727296860245,7i,7.709245868770292,2.6s : 9.6s,1.5707295797753775,2.0108439310379986,2.568171977996826,-6.850785732269287,-4.350762367248535,1.904362440109253,0.33004358410835266,0.5549488663673401,-0.16451778990786875,-1.2464089391546553,0.8376898747500293,-0.9350478053092957,0.16377665102481842,-0.3144245445728302
1727296860255,7i,7.709245868770292,2.6s : 9.6s,1.3195502675861666,2.080009406098176,2.744807481765747,-6.473056793212891,-4.52375602722168,1.9696850776672363,0.3579545319080353,0.564489483833313,-0.11450934486170737,-1.311437013559993,0.850002672126679,-0.9602245688438416,0.1142592579126358,-0.2547817826271057
1727296860265,7i,7.709245868770292,2.6s : 9.6s,1.0784506051496243,2.066965202761808,3.463970184326172,-6.080598831176758,-4.270782470703125,1.8667593002319336,0.5166226625442505,0.7215648889541626,-0.06436973403817485,-1.3725208523268069,0.8702189871791248,-0.9783773422241211,0.06432528793811798,-0.19657094776630402
1727296860275,7i,7.709245868770292,2.6s : 9.6s,0.8215805608102956,2.008847058802154,3.827704668045044,-5.34561824798584,-3.9804718494415283,1.8053438663482666,0.5955114364624023,0.6492812633514404,-0.017755511374338857,-1.4285668019168776,0.8995645931151148,-0.9897465109825134,0.017754578962922096,-0.14172814786434174
1727296860285,7i,7.709245868770292,2.6s : 9.6s,0.6099979594096586,2.067165869931594,4.311585426330566,-4.949956893920898,-3.845480442047119,1.7139339447021484,0.6224685311317444,0.973723828792572,0.0259443258075221,-1.479713289225124,0.9351303879520461,-0.9955196976661682,-0.02594141475856304,-0.09092654287815094
1727296860295,7i,7.709245868770292,2.6s : 9.6s,0.49817476918793036,2.1067910145972206,4.811748504638672,-4.91023588180542,-3.5030484199523926,1.8458316326141357,0.6568889617919922,0.7745778560638428,0.06558152578114469,-1.5310315991030385,0.9784144555826925,-0.997061550617218,-0.06553452461957932,-0.039668794721364975
1727296860305,7i,7.709245868770292,2.6s : 9.6s,0.493698792095054,2.2861989193041237,5.156400203704834,-4.714879035949707,-3.2713215351104736,2.0502090454101562,0.7099112868309021,0.7206763029098511,0.09997025112661109,-1.5835212824029858,1.02827852022564,-0.9949266910552979,-0.09980381280183792,0.012661081738770008
1727296860315,7i,7.709245868770292,2.6s : 9.6s,0.5294184194635232,2.250404790817491,5.014162540435791,-4.467016696929932,-3.1953957080841064,1.9503018856048584,0.5915861129760742,0.9542903900146484,0.1302998362054589,-1.6353779641517623,1.0807840283903112,-0.9894561171531677,-0.12993144989013672,0.06398968398571014
1727296860325,7i,7.709245868770292,2.6s : 9.6s,0.5402703162509763,2.1661009572797774,4.996303558349609,-4.2824387550354,-2.94079327583313,1.7061548233032227,0.5417838096618652,1.2196308374404907,0.15646557335670672,-1.6866376675773518,1.133703531544728,-0.9811639785766602,-0.15582793951034546,0.11417049914598465
1727296860335,7i,7.709245868770292,2.6s : 9.6s,0.5266915184909889,1.8826292684579473,5.101139068603516,-4.0189056396484375,-2.583483934402466,1.4510159492492676,0.5036022663116455,1.0886828899383545,0.17662294601641432,-1.737338107294985,1.188577067524474,-0.9708217978477478,-0.17570605874061584,0.1631939709186554
1727296860345,7i,7.709245868770292,2.6s : 9.6s,0.4589285494413736,1.4949478268100589,4.70587682723999,-3.595579147338867,-2.4736931324005127,1.1262612342834473,0.38964831829071045,0.9025402069091797,0.19201931520872892,-1.7853375560140474,1.2423264708701798,-0.9591163396835327,-0.19084148108959198,0.2089862823486328
1727296860355,7i,7.709245868770292,2.6s : 9.6s,0.3813984865543923,1.2463750921949104,4.699006080627441,-3.13980770111084,-2.316365957260132,0.6664124131202698,0.42366111278533936,0.9642907381057739,0.2044245365253281,-1.8293134466404397,1.2945090387252385,-0.9466400742530823,-0.20300371944904327,0.25032415986061096
1727296860365,7i,7.709245868770292,2.6s : 9.6s,0.3613042477116392,1.1398828273799044,4.931887626647949,-2.710953712463379,-2.0122134685516357,0.48822659254074097,0.448030948638916,0.9274890422821045,0.2120368790865571,-1.869597433121925,1.3480049141900388,-0.934286892414093,-0.21045160293579102,0.2877819538116455
1727296860375,7i,7.709245868770292,2.6s : 9.6s,0.4234136254868708,1.236123204280054,4.850269794464111,-2.278446674346924,-1.7296218872070312,0.6309313774108887,0.4076109528541565,0.9817227125167847,0.2144417383778839,-1.9059634848018157,1.4016426858184308,-0.9227253198623657,-0.212801992893219,0.32139310240745544
1727296860385,7i,7.709245868770292,2.6s : 9.6s,0.47937791812592695,1.3621463414889197,4.4448041915893555,-1.9365023374557495,-1.5158944129943848,0.6047501564025879,0.3726341724395752,1.1622666120529175,0.21370406353464777,-1.9376826493389538,1.452054529716332,-0.9122147560119629,-0.2120811492204666,0.3505508005619049
1727296860395,7i,7.709245868770292,2.6s : 9.6s,0.5229322048589692,1.35133441326659,4.453958988189697,-1.606025218963623,-1.169825553894043,0.42714303731918335,0.36096125841140747,1.230187177658081,0.20967748538694678,-1.9654077529734608,1.4992929876102474,-0.9029274582862854,-0.20814445614814758,0.376029372215271
1727296860405,7i,7.709245868770292,2.6s : 9.6s,0.5495718832766796,1.2547045615451353,4.1644744873046875,-1.1387085914611816,-1.0183813571929932,0.29174768924713135,0.32337290048599243,1.1766889095306396,0.20248504210037907,-1.9883322270373185,1.5442451812497877,-0.8954160213470459,-0.20110422372817993,0.39722469449043274
1727296860415,7i,7.709245868770292,2.6s : 9.6s,0.5761194013811998,1.3377424544169694,4.048672676086426,-0.732674777507782,-0.915718674659729,0.08524775505065918,0.3720105290412903,1.2821450233459473,0.19436846369159755,-2.00589646005742,1.5864530908209786,-0.8897520899772644,-0.19314692914485931,0.4135642349720001
1727296860425,7i,7.709245868770292,2.6s : 9.6s,0.6177284276774487,1.168724313982958,3.9493937492370605,-0.47604459524154663,-0.7126177549362183,0.004961133003234863,0.32883313298225403,1.1214993000030518,0.184725017660769,-2.0194950725213365,1.6266817636232551,-0.8856832981109619,-0.18367624282836914,0.42641326785087585
1727296860435,7i,7.709245868770292,2.6s : 9.6s,0.6812863184335949,0.9740693504869422,4.00943660736084,-0.29282906651496887,-0.4323243796825409,-0.009733259677886963,0.15094929933547974,0.9622529149055481,0.17237039949021038,-2.030215004977945,1.665723219862003,-0.8830280900001526,-0.17151810228824615,0.4368560314178467
1727296860445,7i,7.709245868770292,2.6s : 9.6s,0.680812395154066,0.8026630496968783,3.6710219383239746,-0.08077457547187805,-0.2918197214603424,-0.14461547136306763,-0.08954264223575592,0.7844338417053223,0.15818648503179458,-2.038156145900618,1.7022766428921043,-0.8816143274307251,-0.1575275957584381,0.44490569829940796
1727296860455,7i,7.709245868770292,2.6s : 9.6s,0.6368815863119869,0.8568910054380094,3.180333137512207,0.1601349264383316,-0.2791776657104492,-0.2755194902420044,-0.22362856566905975,0.7799624800682068,0.14527477384843163,-2.0425902881472577,1.734475983214392,-0.881371259689331,-0.14476431906223297,0.44969749450683594
1727296860465,7i,7.709245868770292,2.6s : 9.6s,0.602914619713429,0.8633404100716717,2.792729377746582,0.36027655005455017,-0.19289472699165344,-0.3133503794670105,-0.26769769191741943,0.7586212158203125,0.13376281367692192,-2.0437994740096754,1.7624416755014767,-0.8822520971298218,-0.13336427509784698,0.4514922499656677
1727296860475,7i,7.709245868770292,2.6s : 9.6s,0.5839043719276151,0.7844832977955756,2.437516927719116,0.35463643074035645,-0.0912507176399231,-0.22652792930603027,-0.24709582328796387,0.7092550992965698,0.12330301580772197,-2.0431990484362954,1.7863967602920698,-0.8837170600891113,-0.12299080938100815,0.45157259702682495
1727296860485,7i,7.709245868770292,2.6s : 9.6s,0.5764167195657602,0.5906956424917621,2.3540735244750977,0.3866444230079651,0.030319921672344208,-0.19430041313171387,-0.13503922522068024,0.5412329435348511,0.11243561383497831,-2.0420680236846245,1.8082129109874931,-0.8853656649589539,-0.11219886690378189,0.4511529207229614
1727296860495,7i,7.709245868770292,2.6s : 9.6s,0.5450976076022702,0.567456715049924,2.232611894607544,0.3895628750324249,0.07855363190174103,-0.26142948865890503,-0.06275630742311478,0.49972331523895264,0.10157222938694513,-2.040447974977561,1.8284776678449708,-0.8871299028396606,-0.10139767080545425,0.4502430260181427
1727296860505,7i,7.709245868770292,2.6s : 9.6s,0.49481440693721473,0.6603703898046464,2.0502896308898926,0.44857266545295715,0.08268392831087112,-0.344623327255249,0.010260254144668579,0.5632215738296509,0.09118179096581154,-2.038059688808256,1.8473411735830585,-0.8890955448150635,-0.0910554975271225,0.448573499917984
1727296860515,7i,7.709245868770292,2.6s : 9.6s,0.44365312182359645,0.6882765500405768,1.817262887954712,0.47238004207611084,0.1338316947221756,-0.3718069791793823,-0.009763307869434357,0.5791276693344116,0.08155932807728658,-2.0349253931076996,1.864184320668551,-0.8912392854690552,-0.08146893978118896,0.4461561441421509
1727296860525,7i,7.709245868770292,2.6s : 9.6s,0.426041219294575,0.6103417787156695,1.67067551612854,0.5506226420402527,0.19828897714614868,-0.31626570224761963,-0.06577492505311966,0.5178481936454773,0.07225786441824963,-2.0310804239187426,1.8791176939573053,-0.8935885429382324,-0.07219500094652176,0.4430435597896576
1727296860535,7i,7.709245868770292,2.6s : 9.6s,0.4256058033293951,0.5727722832295593,1.3993966579437256,0.6889522075653076,0.15435296297073364,-0.2552459239959717,-0.09563258290290833,0.503757894039154,0.06381925755030962,-2.02577502915638,1.89212557317593,-0.8964418172836304,-0.0637759417295456,0.43854862451553345
1727296860545,7i,7.709245868770292,2.6s : 9.6s,0.4305502315701904,0.5766143557549541,1.2519155740737915,0.7714462876319885,0.16038288176059723,-0.2500242590904236,-0.05241531878709793,0.5169377326965332,0.05666952602291856,-2.019232448944549,1.903368085280353,-0.8996797204017639,-0.05663919821381569,0.4328608810901642
1727296860555,7i,7.709245868770292,2.6s : 9.6s,0.4400016762823017,0.4757733338659509,1.1540919542312622,0.7661440968513489,0.21805086731910706,-0.2018851637840271,-0.009696222841739655,0.4307071268558502,0.04978778489163011,-2.0120529697499907,1.9134061477392263,-0.9030951857566833,-0.04976721853017807,0.4265468418598175
1727296860565,7i,7.709245868770292,2.6s : 9.6s,0.43568096939226697,0.38746212459330326,1.0516387224197388,0.7091607451438904,0.24615174531936646,-0.16855144500732422,-0.012235812842845917,0.3486654460430145,0.042998937826740705,-2.0051032001895757,1.922436590420664,-0.9063233733177185,-0.042985688894987106,0.420392781496048
1727296860575,7i,7.709245868770292,2.6s : 9.6s,0.4063687927274918,0.37264968938952386,0.8743841648101807,0.6816886067390442,0.2551213502883911,-0.17466288805007935,-0.03685956448316574,0.3271116614341736,0.036650171047479425,-1.998508083541477,1.9301479255053873,-0.9093061685562134,-0.03664196655154228,0.41451120376586914
1727296860585,7i,7.709245868770292,2.6s : 9.6s,0.3687692192826886,0.4013573801870805,0.6998499035835266,0.7110893726348877,0.22013379633426666,-0.19716143608093262,-0.007623307406902313,0.34950965642929077,0.031230602817430866,-1.9917758707214495,1.93630922550618,-0.9122442007064819,-0.031225526705384254,0.4084554612636566
1727296860595,7i,7.709245868770292,2.6s : 9.6s,0.3402359027631842,0.40394121234847624,0.6432109475135803,0.7469170093536377,0.16105446219444275,-0.23335784673690796,0.03937619924545288,0.3273562788963318,0.02682137442706113,-1.9846528192579185,1.9416504068794602,-0.9152473211288452,-0.026818158105015755,0.40199851989746094
1727296860605,7i,7.709245868770292,2.6s : 9.6s,0.3244328064220167,0.3813477494745851,0.5845655202865601,0.7464554905891418,0.12634548544883728,-0.220939040184021,0.07643426954746246,0.30128034949302673,0.02309153783891246,-1.9772541121657516,1.94670988144329,-0.918282151222229,-0.023089485242962837,0.3952527940273285
1727296860615,7i,7.709245868770292,2.6s : 9.6s,0.340206201869867,0.3036149843082304,0.6272508502006531,0.7397634983062744,0.15020930767059326,-0.13855260610580444,0.08564156293869019,0.25622403621673584,0.019450104942355446,-1.9700675136693027,1.9517884850598548,-0.9211702942848206,-0.01944887824356556,0.38867342472076416
1727296860625,7i,7.709245868770292,2.6s : 9.6s,0.35398670582634434,0.22889350641664807,0.48468753695487976,0.8137596845626831,0.09049271792173386,-0.09344029426574707,0.010793689638376236,0.20867353677749634,0.01607386260721933,-1.9623075266044863,1.9565000181314054,-0.9242140054702759,-0.01607317104935646,0.3815363943576813
1727296860635,7i,7.709245868770292,2.6s : 9.6s,0.34425830671463076,0.27560251590324625,0.3426961600780487,0.8430256843566895,0.04533678665757179,-0.1364172101020813,-0.020624902099370956,0.23858270049095154,0.013982434076212562,-1.9540845951964587,1.9600457565521807,-0.9273491501808167,-0.01398197840899229,0.3739355504512787
1727296860645,7i,7.709245868770292,2.6s : 9.6s,0.3393868686960793,0.2381031564163431,0.269265353679657,0.8351699113845825,0.08558887243270874,-0.10839211940765381,-0.00577883142977953,0.2119218409061432,0.012272570441281709,-1.945702118150762,1.9626292751931544,-0.9304721355438232,-0.012272262014448643,0.36615732312202454
1727296860655,7i,7.709245868770292,2.6s : 9.6s,0.34554946270807846,0.13312765762015666,0.24815607070922852,0.8106335997581482,0.10355301946401596,-0.05045574903488159,0.005372145213186741,0.12307855486869812,0.010453461650834786,-1.9375476996877417,1.9645878718880947,-0.9334461092948914,-0.010453271679580212,0.3585651218891144
1727296860665,7i,7.709245868770292,2.6s : 9.6s,0.3523148770622659,0.10757829258679065,0.2862699329853058,0.795546293258667,0.1392716020345688,-0.03866320848464966,0.008289000019431114,0.10004767775535583,0.008380599663668662,-1.9295646316228274,1.9667403947443074,-0.9362971186637878,-0.00838050153106451,0.3511088788509369
1727296860675,7i,7.709245868770292,2.6s : 9.6s,0.35301253313306774,0.09495931838255135,0.25148582458496094,0.8010505437850952,0.18887531757354736,-0.03498023748397827,-0.026654710993170738,0.08416163921356201,0.005877005967781284,-1.9216024581706102,1.9687293842638232,-0.9390798211097717,-0.0058769723400473595,0.3436490595340729
1727296860685,7i,7.709245868770292,2.6s : 9.6s,0.3369828862298705,0.1136938077455908,0.1165144294500351,0.7632637619972229,0.24325652420520782,-0.027791857719421387,-0.06226274371147156,0.09097936749458313,0.0031974224841019366,-1.9137318305949165,1.9697917306142576,-0.9417669773101807,-0.003197417128831148,0.336251437664032
1727296860695,7i,7.709245868770292,2.6s : 9.6s,0.3209913387216939,0.10164983823422451,0.033201295882463455,0.7231088280677795,0.2879215180873871,0.005775392055511475,-0.07799786329269409,0.06492817401885986,0.0004475193558065023,-1.9063239480670848,1.969527758048768,-0.944236695766449,-0.00044751932728104293,0.3292674124240875
1727296860705,7i,7.709245868770292,2.6s : 9.6s,0.30337297220851733,0.09551361249129309,-0.04271423816680908,0.6813621520996094,0.31957024335861206,0.03110814094543457,-0.056048229336738586,0.07080769538879395,-0.002428904682782462,-1.8993309185416933,1.9685259448647747,-0.9465134143829346,0.0024289023131132126,0.3226553797721863
1727296860715,7i,7.709245868770292,2.6s : 9.6s,0.28181325211048136,0.07438035147118897,-0.0674855038523674,0.6393393874168396,0.3450159728527069,0.02372032403945923,-0.022173911333084106,0.06691861152648926,-0.005389322191417582,-1.8927144889518768,1.9669157599396516,-0.9486165642738342,0.005389295984059572,0.31638219952583313
1727296860725,7i,7.709245868770292,2.6s : 9.6s,0.2486006860193519,0.05467691613002446,-0.17851801216602325,0.5811111927032471,0.3664272725582123,0.021591007709503174,-0.0013578422367572784,0.05021503567695618,-0.008453328028682476,-1.8866903554635661,1.9647747177072035,-0.9504851698875427,0.008453227579593658,0.3106553256511688
1727296860735,7i,7.709245868770292,2.6s : 9.6s,0.23121299627573397,0.054502771696501445,-0.11302421987056732,0.4986051619052887,0.4005696475505829,0.05105769634246826,0.0011794483289122581,0.019033461809158325,-0.011684023426545813,-1.8813839025146364,1.9623110538635764,-0.9520893096923828,0.011683757416903973,0.30559733510017395
1727296860745,7i,7.709245868770292,2.6s : 9.6s,0.20800953038205608,0.059526303493135695,-0.2168872356414795,0.49658700823783875,0.3815365731716156,0.059355199337005615,0.003472389653325081,-0.002878129482269287,-0.014884534642559127,-1.8764809195352992,1.9594862196010876,-0.9535357356071472,0.014883984811604023,0.30091285705566406
1727296860755,7i,7.709245868770292,2.6s : 9.6s,0.1857545857062618,0.04939010030513201,-0.22881846129894257,0.46614477038383484,0.3632512390613556,0.040026724338531494,0.011386459693312645,0.02660059928894043,-0.017789340092786533,-1.8717159022270726,1.9563044329015564,-0.9549132585525513,0.01778840273618698,0.29635170102119446
1727296860765,7i,7.709245868770292,2.6s : 9.6s,0.1695972308009236,0.057808618172123176,-0.25006088614463806,0.43242543935775757,0.3370148539543152,0.055720627307891846,0.014437537640333176,0.005348414182662964,-0.020430263206210168,-1.8672726503367383,1.9529605459785868,-0.9561721682548523,0.020428841933608055,0.2920910716056824
1727296860775,7i,7.709245868770292,2.6s : 9.6s,0.16648064144056535,0.09495459236614841,-0.218006432056427,0.39113718271255493,0.3332035541534424,0.09351658821105957,0.014731807634234428,-0.007348209619522095,-0.02292894197556352,-1.8632554237803096,1.9497233686957613,-0.9572860598564148,0.02292693220078945,0.2882319688796997
1727296860785,7i,7.709245868770292,2.6s : 9.6s,0.16289266931231836,0.11697533657574793,-0.2653641104698181,0.3885810673236847,0.3221493065357208,0.11656129360198975,0.009630527347326279,0.0019867420196533203,-0.025436968925867484,-1.8594695870998423,1.9465405182847781,-0.9583123922348022,0.025434225797653198,0.2845885753631592
1727296860795,7i,7.709245868770292,2.6s : 9.6s,0.15231527452099383,0.10821945759770533,-0.31564566493034363,0.39607688784599304,0.29890844225883484,0.09917956590652466,0.010097241029143333,0.04210594296455383,-0.027564995266474036,-1.8556151365631797,1.9428615264660825,-0.9593481421470642,0.027561504393815994,0.28087687492370605
1727296860805,7i,7.709245868770292,2.6s : 9.6s,0.13660110933754985,0.10249428138569715,-0.377640038728714,0.37806805968284607,0.31903979182243347,0.09114658832550049,0.005878705531358719,0.04650610685348511,-0.029556570263694234,-1.8518899747892785,1.9386430974025424,-0.9603332281112671,0.029552267864346504,0.27728545665740967
1727296860815,7i,7.709245868770292,2.6s : 9.6s,0.13278359401385692,0.12314584382870108,-0.3745039105415344,0.370563268661499,0.31856516003608704,0.11629551649093628,0.014715246856212616,0.03773212432861328,-0.031585221061649696,-1.848286955150802,1.9341162451551008,-0.9612662196159363,0.03157997131347656,0.27380651235580444
1727296860825,7i,7.709245868770292,2.6s : 9.6s,0.13151341655999096,0.11607610797024356,-0.29077038168907166,0.3248594403266907,0.336946040391922,0.11016267538070679,0.029359620064496994,0.02181422710418701,-0.03377246137347193,-1.8449465819534474,1.9299326683661198,-0.9621066451072693,0.033766042441129684,0.2705746293067932
1727296860835,7i,7.709245868770292,2.6s : 9.6s,0.12168869495349804,0.10413570366112816,-0.3111717998981476,0.3176562190055847,0.3131837248802185,0.09635341167449951,0.037011146545410156,-0.013799995183944702,-0.03616268240586767,-1.8419263089837534,1.9261530921633314,-0.9628391265869141,0.03615479916334152,0.2676452398300171
1727296860845,7i,7.709245868770292,2.6s : 9.6s,0.11291089312694882,0.09155472058069578,-0.33139559626579285,0.3649187982082367,0.29920825362205505,0.06698393821716309,0.05129876732826233,0.03555074334144592,-0.038249191232559904,-1.8386487868453572,1.922271884934178,-0.9636362791061401,0.038239866495132446,0.2644675374031067
1727296860855,7i,7.709245868770292,2.6s : 9.6s,0.10993912273868094,0.09874550508724979,-0.3863806426525116,0.42308351397514343,0.26992180943489075,0.05305933952331543,0.03650285303592682,0.07485267519950867,-0.04007652704365691,-1.8348746891120087,1.9181010928567492,-0.9645583629608154,0.04006579890847206,0.26081010699272156
1727296860865,7i,7.709245868770292,2.6s : 9.6s,0.10524746021988,0.10713766515804321,-0.4511308968067169,0.45264193415641785,0.2514280378818512,0.0364571213722229,0.025302909314632416,0.09751471877098083,-0.041481503102854894,-1.8307130873496518,1.913309415588985,-0.9655799269676208,0.04146960750222206,0.2567789852619171
1727296860875,7i,7.709245868770292,2.6s : 9.6s,0.10080587789059338,0.09357628712356526,-0.47332248091697693,0.4838191270828247,0.2761661410331726,0.011978447437286377,0.03569480776786804,0.08566749095916748,-0.04287061390946206,-1.8262497646281826,1.9081531160958747,-0.9666598439216614,0.04285748302936554,0.25245198607444763
1727296860885,7i,7.709245868770292,2.6s : 9.6s,0.10765090463391219,0.09063452432530503,-0.465170294046402,0.529303789138794,0.2660714387893677,0.015228450298309326,0.040330398827791214,0.07972559332847595,-0.04432466776098603,-1.821429427177735,1.9029240926081543,-0.9678040146827698,0.044310156255960464,0.24777370691299438
1727296860895,7i,7.709245868770292,2.6s : 9.6s,0.11110379517411682,0.08718145007119163,-0.4683530330657959,0.5548511743545532,0.2788611054420471,-0.008435189723968506,0.03343924134969711,0.08007040619850159,-0.04581572921602168,-1.8162374667780457,1.8977772755313143,-0.969012439250946,0.045799702405929565,0.2427293062210083
1727296860905,7i,7.709245868770292,2.6s : 9.6s,0.11436750881165253,0.07840737412788136,-0.47187185287475586,0.6014540791511536,0.29419347643852234,-0.034606099128723145,0.037993162870407104,0.05921700596809387,-0.047443397533787374,-1.810727189212139,1.892506705255517,-0.9702615737915039,0.04742560163140297,0.23736810684204102
1727296860915,7i,7.709245868770292,2.6s : 9.6s,0.12096902227913474,0.07513209557268614,-0.49808722734451294,0.6439968347549438,0.31847071647644043,-0.037032365798950195,0.03616488724946976,0.054456740617752075,-0.04928908245197286,-1.8047605695339202,1.8870789327555777,-0.9715737104415894,0.04926912859082222,0.2315540313720703
1727296860925,7i,7.709245868770292,2.6s : 9.6s,0.1276560915373315,0.0725816981613961,-0.5442783832550049,0.6827013492584229,0.33574530482292175,-0.035684943199157715,0.019897498190402985,0.0599898099899292,-0.05129203502607804,-1.7984340038296183,1.8812770148473983,-0.9729210734367371,0.051269546151161194,0.22537998855113983
1727296860935,7i,7.709245868770292,2.6s : 9.6s,0.12849699098819697,0.06947400397858292,-0.5849084258079529,0.7003702521324158,0.3545427620410919,-0.049436867237091064,0.0126313716173172,0.04714956879615784,-0.05340358715145561,-1.791853332421967,1.8749793197082179,-0.9742754101753235,0.05337820574641228,0.21894846856594086
1727296860945,7i,7.709245868770292,2.6s : 9.6s,0.12833600693160307,0.065126688539149,-0.5881758332252502,0.6920998096466064,0.3695717751979828,-0.04840648174285889,0.031640779227018356,0.02995261549949646,-0.05566828928437109,-1.7852448937259746,1.8684109622511638,-0.9755802154541016,0.055639542639255524,0.21247898042201996
1727296860955,7i,7.709245868770292,2.6s : 9.6s,0.13005234112899236,0.06645735300032614,-0.561478853225708,0.6872996687889099,0.36875370144844055,-0.04660987854003906,0.04722820222377777,0.003687262535095215,-0.05809016791666704,-1.7787145521282413,1.8620507617984314,-0.9768123626708984,0.058057501912117004,0.20607523620128632
1727296860965,7i,7.709245868770292,2.6s : 9.6s,0.12078185942089797,0.07822117903597198,-0.6172673106193542,0.6787847280502319,0.34967800974845886,-0.06447041034698486,0.03663790225982666,-0.02489544451236725,-0.06041427546713485,-1.772298652448833,1.855532781371836,-0.9779794812202454,0.06037753075361252,0.19977633655071259
1727296860975,7i,7.709245868770292,2.6s : 9.6s,0.11541893929755888,0.08657745741979656,-0.6258143782615662,0.694445013999939,0.321551114320755,-0.0730053186416626,0.03405538946390152,-0.03171923756599426,-0.06248188547644084,-1.7658718529140842,1.8487424891851245,-0.9791185855865479,0.06244123727083206,0.19346235692501068
1727296860985,7i,7.709245868770292,2.6s : 9.6s,0.11654235422530249,0.0799882927103548,-0.6422072052955627,0.7071930766105652,0.2950987219810486,-0.0584416389465332,0.035503536462783813,-0.04149940609931946,-0.06430277924970648,-1.7593052767051898,1.841897236605169,-0.9802544713020325,0.06425847113132477,0.1870071440935135
1727296860995,7i,7.709245868770292,2.6s : 9.6s,0.12038486153901007,0.0837486192505942,-0.6112638711929321,0.6761782765388489,0.2799495756626129,-0.03630638122558594,0.05211140215396881,-0.05459010601043701,-0.06593262391409474,-1.7527897206083674,1.8351811990554274,-0.9813480377197266,0.06588486582040787,0.18059717118740082
1727296861005,7i,7.709245868770292,2.6s : 9.6s,0.12806789969406088,0.11038565982728782,-0.5302779674530029,0.633054792881012,0.3016034662723541,-0.011751651763916016,0.06632693856954575,-0.08745072782039642,-0.067758157483242,-1.7466817052495858,1.8289906434888905,-0.982312798500061,0.06770632416009903,0.17457841336727142
1727296861015,7i,7.709245868770292,2.6s : 9.6s,0.13719615428340085,0.11119492970824173,-0.4975801408290863,0.615583062171936,0.2990075945854187,0.014329612255096436,0.046035654842853546,-0.10019826889038086,-0.06988124913229156,-1.7408447732095458,1.8234487969603452,-0.9831711649894714,0.06982439011335373,0.16881707310676575
1727296861025,7i,7.709245868770292,2.6s : 9.6s,0.13453403159147773,0.0709088168948052,-0.502788782119751,0.6022262573242188,0.29629331827163696,-0.00522458553314209,0.00803907960653305,-0.07025764882564545,-0.07196388598930263,-1.7351423009153,1.818051675028039,-0.9839723110198975,0.07190179079771042,0.16318371891975403
1727296861035,7i,7.709245868770292,2.6s : 9.6s,0.12367442029586798,0.07938194365284705,-0.5185853242874146,0.5771527886390686,0.29878509044647217,-0.022333204746246338,-0.00995875895023346,-0.0755218118429184,-0.07408296327944273,-1.729648848569167,1.8124714824594534,-0.9847012162208557,0.07401521503925323,0.1577514111995697
1727296861045,7i,7.709245868770292,2.6s : 9.6s,0.11784075073262718,0.09883378525891466,-0.5078807473182678,0.5517851114273071,0.30052706599235535,-0.006926238536834717,-0.012670591473579407,-0.09777320921421051,-0.07625159544613584,-1.724411949044673,1.8069667089092232,-0.9853526949882507,0.07617772370576859,0.1525675356388092
1727296861055,7i,7.709245868770292,2.6s : 9.6s,0.1103631194648991,0.0994087033900495,-0.5562365651130676,0.5428993701934814,0.27528485655784607,0.003644406795501709,-0.0215945765376091,-0.09696640074253082,-0.07831528032104774,-1.7194223492439578,1.8012218593146043,-0.9859440922737122,0.07823524624109268,0.14762555062770844
1727296861065,7i,7.709245868770292,2.6s : 9.6s,0.10002939312685774,0.05422593516729236,-0.5829315185546875,0.540009081363678,0.25244370102882385,-0.011172175407409668,-0.008257724344730377,-0.05241607129573822,-0.08007489139893452,-1.7144818999634803,1.7952093776032614,-0.9865238666534424,0.07998934388160706,0.1427328735589981
1727296861075,7i,7.709245868770292,2.6s : 9.6s,0.08619656302867172,0.058009054596665915,-0.6289817094802856,0.5171091556549072,0.2639259099960327,-0.016821205615997314,-0.012259334325790405,-0.05414615571498871,-0.08177799893303404,-1.7097293488972196,1.7888155150736393,-0.9870546460151672,0.08168687671422958,0.13802368938922882
