timestamp,club,max_speed,tempo,speed,acc,rotation.x,rotation.y,rotation.z,userAcceleration.x,userAcceleration.y,userAcceleration.z,pitch,roll,yaw,gravity.x,gravity.y,gravity.z
1727297076737,7i,9.149681527957794,2.2s : 7.0s,0.005907439080197619,0.07537134689713254,0.0778794214129448,-0.035607367753982544,-0.0950339064002037,0.0019896626472473145,0.045795291662216187,-0.05983036383986473,-0.3450924509674565,1.5108799704586184,0.3253743942628877,0.9393554925918579,0.3382836878299713,-0.05635020509362221
1727297076747,7i,9.149681527957794,2.2s : 7.0s,0.006485542777511832,0.06491299604028658,0.045602571219205856,-0.04567611590027809,-0.08083602786064148,0.00212174654006958,0.049320340156555176,-0.04215091094374657,-0.3459354143724061,1.5098114513460696,0.32436188049202497,0.9390097260475159,0.33907681703567505,-0.05733649060130119
1727297076757,7i,9.149681527957794,2.2s : 7.0s,0.011093335324050848,0.036514458958166206,-0.012395748868584633,-0.02617271989583969,-0.06789280474185944,-0.0031880736351013184,0.01923394203186035,-0.030873894691467285,-0.3467910645434481,1.5087513765467073,0.32399152378326795,0.9386586546897888,0.33988165855407715,-0.05831387639045715
1727297076767,7i,9.149681527957794,2.2s : 7.0s,0.008780109439764877,0.018736857592754053,0.019437948241829872,-0.03220207616686821,-0.04815234988927841,0.0033167004585266113,-0.0184403657913208,-0.00014913082122802734,-0.3473593742473745,1.5078024005084527,0.3237493257185319,0.9384099245071411,0.3404160737991333,-0.059192441403865814
1727297076777,7i,9.149681527957794,2.2s : 7.0s,0.00966474539917201,0.04998526897317166,0.1772558093070984,-0.03365349769592285,-0.04186089709401131,0.002664506435394287,-0.0422634482383728,0.026556137949228287,-0.34746105423420226,1.5065291174720408,0.3225299428769697,0.9382991194725037,0.340511679649353,-0.060385022312402725
1727297076787,7i,9.149681527957794,2.2s : 7.0s,0.025760003119813798,0.03245634047778029,0.31408077478408813,-0.1373237818479538,0.34192144870758057,0.003076791763305664,-0.003453165292739868,-0.032125115394592285,-0.3469017199311327,1.5044240501176858,0.3195967756307922,0.9383599162101746,0.339985728263855,-0.06237269937992096
1727297076797,7i,9.149681527957794,2.2s : 7.0s,0.017268541513922823,0.07643926017985324,0.24160417914390564,-0.15608549118041992,0.6787455677986145,-0.010935842990875244,0.05284932255744934,-0.05413240194320679,-0.347602148824615,1.5024759122361204,0.3158591266521847,0.9379987716674805,0.34064435958862305,-0.06418436020612717
1727297076807,7i,9.149681527957794,2.2s : 7.0s,0.011339430136279291,0.06341777058324288,0.17379915714263916,-0.08516661822795868,0.28525054454803467,0.023116648197174072,0.042043715715408325,-0.0414699912071228,-0.34896829145580366,1.5005564066026706,0.3126445705991701,0.9374088048934937,0.3419284522533417,-0.06595201790332794
1727297076817,7i,9.149681527957794,2.2s : 7.0s,0.004689084899348202,0.013761827371766596,0.05560540780425072,-0.02584950253367424,-0.06587499380111694,0.012532830238342285,-0.0044831037521362305,-0.0034954026341438293,-0.34953958709319966,1.4988207054722538,0.31127368248945886,0.93709796667099,0.34246528148651123,-0.06756491959095001
1727297076827,7i,9.149681527957794,2.2s : 7.0s,0.015139885046655787,0.06588493885625891,-0.064937524497509,-0.0679498165845871,-0.02884732559323311,0.0010085701942443848,-0.06213414669036865,0.02188962697982788,-0.3502090686609624,1.4979784179940838,0.3114209739047343,0.9368118047714233,0.34309419989585876,-0.06833750009536743
1727297076837,7i,9.149681527957794,2.2s : 7.0s,0.03185498725471683,0.08986205696502542,-0.12834711372852325,-0.06558652967214584,-0.053379569202661514,0.006009221076965332,-0.08170092105865479,0.03693288564682007,-0.35081553770047247,1.4975080867625514,0.3123929279852184,0.9365718960762024,0.3436637818813324,-0.06876286119222641
1727297076847,7i,9.149681527957794,2.2s : 7.0s,0.03918946169538994,0.07473781743037598,-0.12672337889671326,-0.059994954615831375,-0.0455041341483593,0.00945061445236206,-0.0644700825214386,0.036606498062610626,-0.35126663368387706,1.4974208372060474,0.3137679010046915,0.9364110827445984,0.3440873622894287,-0.06883319467306137
1727297076857,7i,9.149681527957794,2.2s : 7.0s,0.045611321718535686,0.06583008231366003,-0.10019723325967789,-0.06656710803508759,-0.043258290737867355,-0.009679913520812988,-0.051124900579452515,0.04032547026872635,-0.35158210180058075,1.4973842481432642,0.3149863007618997,0.9363002777099609,0.34438356757164,-0.06885949522256851
1727297076867,7i,9.149681527957794,2.2s : 7.0s,0.05027893628244301,0.06555564058344958,-0.12936857342720032,-0.05767805129289627,-0.047157857567071915,-0.00491940975189209,-0.043589502573013306,0.04871649295091629,-0.35203981274441665,1.4970146811502667,0.31609556510632986,0.93611741065979,0.3448132276535034,-0.06919388473033905
1727297076877,7i,9.149681527957794,2.2s : 7.0s,0.0556166802985724,0.0690369982269235,-0.19629168510437012,-0.0505109503865242,-0.059426240622997284,0.005796551704406738,-0.04171296954154968,0.05470407009124756,-0.35293437223931434,1.4967718037653484,0.3176856872322589,0.9357927441596985,0.3456527888774872,-0.0693984180688858
1727297076887,7i,9.149681527957794,2.2s : 7.0s,0.0593755057086483,0.09603977780002604,-0.22590908408164978,-0.029480010271072388,-0.030321121215820312,0.0033113956451416016,-0.05273720622062683,0.08019638806581497,-0.35369028577026335,1.4969849557398007,0.31986582780611683,0.9355465173721313,0.34636202454566956,-0.06917964667081833
1727297076897,7i,9.149681527957794,2.2s : 7.0s,0.058362327724979485,0.11343001391833699,-0.23731566965579987,-0.015000938437879086,-0.0190516896545887,0.007726192474365234,-0.07089945673942566,0.08820397406816483,-0.3540039551731386,1.497599698507543,0.32230143329224814,0.9354804754257202,0.34665626287460327,-0.06859657168388367
1727297076907,7i,9.149681527957794,2.2s : 7.0s,0.05296259743507062,0.10105570549926496,-0.2256651520729065,-0.0065180594101548195,-0.034168656915426254,0.014194011688232422,-0.06895646452903748,0.07249683886766434,-0.3541286468635321,1.4984833968835778,0.3248267259576046,0.9354976415634155,0.3467732071876526,-0.06776673346757889
1727297076917,7i,9.149681527957794,2.2s : 7.0s,0.05036496523700252,0.07793079073368317,-0.20153184235095978,0.007223585620522499,-0.026709141209721565,-0.004803061485290527,-0.04728981852531433,0.06175606697797775,-0.3541458450545979,1.4994763574218382,0.32712860653420683,0.9355587363243103,0.34678933024406433,-0.0668373852968216
1727297076927,7i,9.149681527957794,2.2s : 7.0s,0.04248991250601924,0.061152959343094754,-0.17472819983959198,0.02711597830057144,0.0007241468410938978,-0.0023427605628967285,-0.03296846151351929,0.05145169049501419,-0.3540552525865796,1.5005601719482977,0.3292483952107117,0.9356617331504822,0.346704363822937,-0.06582555919885635
1727297076937,7i,9.149681527957794,2.2s : 7.0s,0.04717839778069226,0.07090146372194546,-0.1328398734331131,-0.11295910179615021,0.5302937030792236,0.0016630291938781738,-0.03914034366607666,0.059095561504364014,-0.353233548983925,1.5014626859611044,0.3309589395840953,0.9360048174858093,0.3459335267543793,-0.06500080972909927
1727297076947,7i,9.149681527957794,2.2s : 7.0s,0.0827057256581844,0.08280365408235442,-0.17411646246910095,-0.3516191840171814,1.3137683868408203,0.050530076026916504,-0.03992164134979248,0.052052080631256104,-0.35352962620948597,1.5024430565617464,0.33206863515664964,0.9359658360481262,0.3462112843990326,-0.06407614797353745
1727297076957,7i,9.149681527957794,2.2s : 7.0s,0.12632168228990334,0.09705044065489273,-0.08957548439502716,-0.2489471286535263,0.6137487888336182,-0.0853508710861206,-0.0207902193069458,0.041252680122852325,-0.3541347570919015,1.5035976690245116,0.33235803188342594,0.9358298778533936,0.346778929233551,-0.06298134475946426
1727297076967,7i,9.149681527957794,2.2s : 7.0s,0.10039720045622177,0.08109214372095207,-0.026029270142316818,0.06356355547904968,0.028259234502911568,-0.07522237300872803,-0.021911680698394775,0.020914316177368164,-0.35370364608099725,1.5041935684530192,0.33267160548220337,0.9360163807868958,0.3463745415210724,-0.06243361905217171
1727297076977,7i,9.149681527957794,2.2s : 7.0s,0.048793447236106784,0.08358496682943863,-0.06165197864174843,0.05334421247243881,0.05844376981258392,0.003318190574645996,-0.07247048616409302,0.04151463508605957,-0.35317377019627993,1.5048738555364767,0.33319630622813196,0.9362416863441467,0.34587743878364563,-0.06180892884731293
1727297076987,7i,9.149681527957794,2.2s : 7.0s,0.02172392712144207,0.10631120839181027,-0.14866091310977936,0.06399889290332794,0.03081367164850235,0.0387113094329834,-0.09566804766654968,0.025517292320728302,-0.3528367647740514,1.5058337208324448,0.33435264796210035,0.936416745185852,0.3455612063407898,-0.06091778725385666
1727297076997,7i,9.149681527957794,2.2s : 7.0s,0.013770994885301978,0.06252543681047842,-0.12533214688301086,0.06681092828512192,0.01480807363986969,0.0013976097106933594,-0.05993208289146423,0.017765764147043228,-0.35267430140291334,1.5070270745146297,0.3358564453263973,0.9365447759628296,0.34540873765945435,-0.05980384722352028
1727297077007,7i,9.149681527957794,2.2s : 7.0s,0.010993318469384743,0.024698420125822504,-0.13198472559452057,0.09114529192447662,0.006033091805875301,-0.001838386058807373,-0.023446619510650635,0.0075424350798130035,-0.3524611163550643,1.5081235267760704,0.3372334250681727,0.9366832971572876,0.34520867466926575,-0.058781545609235764
1727297077027,7i,9.149681527957794,2.2s : 7.0s,0.020883870803781717,0.08405756762268528,-0.08082567155361176,0.17899534106254578,0.027970947325229645,-0.011093199253082275,-0.07895740866661072,0.0266147181391716,-0.3515663580542862,1.5103274424152215,0.3400533679022635,0.937118649482727,0.3443687856197357,-0.05673568695783615
1727297077037,7i,9.149681527957794,2.2s : 7.0s,0.05212830264478828,0.06438559684265949,0.0706205740571022,0.22876130044460297,0.028992004692554474,-0.014729738235473633,-0.0626668930053711,0.0011833906173706055,-0.35082510715743237,1.5113151130373008,0.3401470751573068,0.9374286532402039,0.3436727821826935,-0.05582524836063385
1727297077017,7i,9.149681527957794,2.2s : 7.0s,0.039409390400410194,0.051876463276871676,-0.1470734030008316,0.12246619910001755,0.012701114639639854,-0.008136093616485596,-0.048701077699661255,0.015911519527435303,-0.3521209967701111,1.5091822747575954,0.3387106163104424,0.9368622303009033,0.34488943219184875,-0.057797033339738846
1727297077047,7i,9.149681527957794,2.2s : 7.0s,0.07456534060350432,0.07223552360658896,0.22758862376213074,0.2435852587223053,-0.002141747158020735,-0.03142857551574707,0.00568196177482605,-0.06479144096374512,-0.35021887404238367,1.5117957759635983,0.33855855923365796,0.9376632571220398,0.34310340881347656,-0.05538693070411682
1727297077057,7i,9.149681527957794,2.2s : 7.0s,0.10579988945535014,0.11854415770565388,0.2957381010055542,0.2778167128562927,0.00954606756567955,-0.054392337799072266,0.06419989466667175,-0.08350188285112381,-0.34977987573247077,1.5118249192323823,0.3356864220099022,0.937815248966217,0.342691034078598,-0.05536848306655884
1727297077067,7i,9.149681527957794,2.2s : 7.0s,0.12006140505146111,0.08906225407503775,0.22874270379543304,0.29138869047164917,0.04959811270236969,-0.05194127559661865,0.03639116883277893,-0.06252896785736084,-0.34918659836306704,1.511846155359105,0.3328310704692689,0.9380190968513489,0.34213361144065857,-0.05536052957177162
1727297077077,7i,9.149681527957794,2.2s : 7.0s,0.11273098383933794,0.07767251420832162,0.08273649215698242,0.27968862652778625,0.0950007438659668,-0.049352943897247314,-0.04485955834388733,-0.039811134338378906,-0.34840474589346204,1.5120932191624603,0.3311640233399309,0.9382994174957275,0.34139883518218994,-0.05514444783329964
1727297077087,7i,9.149681527957794,2.2s : 7.0s,0.09709462604452312,0.09403513621392387,-0.014573548920452595,0.2814192473888397,0.11869382858276367,-0.05498385429382324,-0.06708532571792603,-0.036317236721515656,-0.3476676706817859,1.5125320111459957,0.3308671668925945,0.9385746121406555,0.3407059609889984,-0.05474737286567688
1727297077097,7i,9.149681527957794,2.2s : 7.0s,0.0813398903879144,0.10505979543520912,-0.02251056768000126,0.2813992500305176,0.1469947099685669,-0.08317148685455322,-0.027241528034210205,-0.0581202507019043,-0.34704769766227767,1.5129495309824688,0.3310389927006834,0.938808023929596,0.3401229977607727,-0.05436769500374794
1727297077107,7i,9.149681527957794,2.2s : 7.0s,0.06538751936117361,0.1323756386207651,-0.030598055571317673,0.2820695638656616,0.17051906883716583,-0.1131470799446106,-0.0015103816986083984,-0.06869328022003174,-0.34662066248281515,1.5135096408145177,0.33134802339943686,0.938983142375946,0.3397214114665985,-0.05385015159845352
1727297077117,7i,9.149681527957794,2.2s : 7.0s,0.054736810452084554,0.1122514054881551,-0.0008010115707293153,0.2382264882326126,0.22380013763904572,-0.10980784893035889,0.007311075925827026,-0.022117018699645996,-0.3459211909333096,1.5139721515435625,0.33144686769187054,0.9392451047897339,0.339063435792923,-0.05342934653162956
1727297077127,7i,9.149681527957794,2.2s : 7.0s,0.04913946526590973,0.1000269657403533,0.022369954735040665,0.1943226307630539,0.25912266969680786,-0.08464407920837402,-0.017863571643829346,-0.0502161979675293,-0.3452861768360882,1.5139121510257367,0.331263504924686,0.9394567012786865,0.33846598863601685,-0.053497932851314545
1727297077137,7i,9.149681527957794,2.2s : 7.0s,0.05120648945325301,0.09709169191888206,0.09273679554462433,0.17592072486877441,0.27997228503227234,-0.07298606634140015,-0.027173101902008057,-0.05797804147005081,-0.34473668532538854,1.5135771980046293,0.33049924787160945,0.9396243095397949,0.33794885873794556,-0.053823236376047134
1727297077147,7i,9.149681527957794,2.2s : 7.0s,0.05402452545505277,0.11345218697693311,0.17814622819423676,0.16524499654769897,0.2700091004371643,-0.09133291244506836,-0.008214861154556274,-0.06679980456829071,-0.344291604624352,1.5131665247226014,0.32893455466011756,0.9397518634796143,0.3375299274921417,-0.05421775206923485
1727297077177,7i,9.149681527957794,2.2s : 7.0s,0.0455285427372737,0.09137801663307217,0.11725226044654846,0.05337856709957123,0.35494041442871094,-0.04904884099960327,-0.047830432653427124,-0.060468196868896484,-0.34236737899075914,1.510821643350833,0.3214359325310034,0.940268874168396,0.3357180058956146,-0.05646004155278206
1727297077197,7i,9.149681527957794,2.2s : 7.0s,0.005914788516612363,0.1359029367695404,-0.09447317570447922,0.01631326414644718,0.40567365288734436,-0.05502277612686157,-0.12400826811790466,-0.00800323486328125,-0.34054380816687657,1.5104333335750482,0.32147343209413204,0.9408564567565918,0.33399972319602966,-0.0568619929254055
1727297077207,7i,9.149681527957794,2.2s : 7.0s,0.021788539497681454,0.12160747398295259,-0.08626104891300201,-0.006055068224668503,0.42935141921043396,-0.06349581480026245,-0.10350155830383301,-0.0066397786140441895,-0.33954146441939714,1.51054627932771,0.3224378021691577,0.9411965608596802,0.333054780960083,-0.05677585303783417
1727297077227,7i,9.149681527957794,2.2s : 7.0s,0.008998752190010088,0.06430978604711694,0.12929226458072662,-0.01480017974972725,0.46721333265304565,-0.03472459316253662,-0.03502768278121948,-0.041267573833465576,-0.33676743049324986,1.5100765702674042,0.3220128893645652,0.9420884847640991,0.3304378390312195,-0.05727378651499748
1727297077237,7i,9.149681527957794,2.2s : 7.0s,0.0015227020613999345,0.06428108681533523,0.18982991576194763,-0.013245958834886551,0.45188844203948975,-0.04676187038421631,-0.027414947748184204,-0.03455150127410889,-0.3352334785905565,1.5094916118359611,0.3201514049798659,0.942559540271759,0.3289896547794342,-0.057855840772390366
1727297077247,7i,9.149681527957794,2.2s : 7.0s,0.002121804604396032,0.06503316072316288,0.17276279628276825,-0.015645377337932587,0.441509485244751,-0.05654096603393555,-0.019887477159500122,-0.02523726224899292,-0.3338066921922017,1.5090298405064997,0.3181905471107102,0.943000316619873,0.32764196395874023,-0.058319997042417526
1727297077257,7i,9.149681527957794,2.2s : 7.0s,0.0081385400399897,0.042659124062807065,0.2096981704235077,-0.031877875328063965,0.4522276520729065,-0.04224705696105957,-0.00215718150138855,-0.0055075958371162415,-0.3323055675734339,1.5085443881564566,0.3161096348668522,0.9434617161750793,0.32622334361076355,-0.058808308094739914
1727297077267,7i,9.149681527957794,2.2s : 7.0s,0.020349523747761177,0.03657967814527582,0.27103474736213684,-0.03230123221874237,0.4519154131412506,-0.02592402696609497,0.008267700672149658,-0.024447143077850342,-0.3306239928808946,1.5078889421114658,0.31355734618999187,0.9439690113067627,0.32463330030441284,-0.0594610795378685
1727297077277,7i,9.149681527957794,2.2s : 7.0s,0.03379393252525374,0.06304259394164106,0.3791862726211548,-0.020786788314580917,0.4316159784793854,-0.047807276248931885,0.03328874707221985,-0.024097558110952377,-0.3289018898634145,1.507039002908942,0.3100549386691242,0.9444746971130371,0.32300397753715515,-0.06029890477657318
1727297077287,7i,9.149681527957794,2.2s : 7.0s,0.04746618373276136,0.0895825006322187,0.4878200888633728,-0.03058651089668274,0.43234989047050476,-0.06691330671310425,0.05598124861717224,-0.020340442657470703,-0.32707770359146887,1.5059608583603354,0.30547222295056725,0.9449955224990845,0.32127702236175537,-0.06135522574186325
1727297077297,7i,9.149681527957794,2.2s : 7.0s,0.07263827403170148,0.07615809373699482,0.5991101264953613,-0.04399925470352173,0.4487309753894806,-0.03460580110549927,0.06618529558181763,-0.014899678528308868,-0.32492366159034664,1.5043853577051935,0.2996784007889242,0.945586085319519,0.3192364573478699,-0.06288976967334747
1727297077307,7i,9.149681527957794,2.2s : 7.0s,0.09299811943864557,0.05596696056364883,0.6195871233940125,-0.04439349099993706,0.4470106065273285,-0.011535227298736572,0.04036840796470642,-0.03700852394104004,-0.3224440764212981,1.502585184686861,0.2932399164330653,0.9462580680847168,0.3168856203556061,-0.06464563310146332
1727297077317,7i,9.149681527957794,2.2s : 7.0s,0.09982055292725356,0.04030440732439761,0.6131622791290283,-0.05324344336986542,0.4227966070175171,-0.02094358205795288,0.012779444456100464,-0.03197651356458664,-0.319904343542289,1.5007612574249352,0.2867796145920929,0.9469383955001831,0.31447574496269226,-0.06642753630876541
1727297077327,7i,9.149681527957794,2.2s : 7.0s,0.09660849120569877,0.040801222665404376,0.5679237246513367,-0.0652289092540741,0.4039154648780823,-0.021749794483184814,0.0034258663654327393,-0.03435039520263672,-0.3173656413933613,1.4989131676527747,0.2805919147633278,0.9476072788238525,0.31206485629081726,-0.06823457032442093
1727297077337,7i,9.149681527957794,2.2s : 7.0s,0.08616768005863251,0.04655652054412857,0.4540237486362457,-0.08503483980894089,0.36011338233947754,0.001934647560119629,-0.008844614028930664,-0.04566770792007446,-0.314960000761882,1.497130489213022,0.27520723444976464,0.9482301473617554,0.30977845191955566,-0.06997879594564438
1727297077347,7i,9.149681527957794,2.2s : 7.0s,0.06298180681378446,0.05231633125244093,0.30961623787879944,-0.10161487758159637,0.322969526052475,0.003954529762268066,-0.019018948078155518,-0.048576124012470245,-0.3128389830535809,1.495582900087912,0.27131655266110954,0.9487738013267517,0.3077610731124878,-0.07149539887905121
1727297077357,7i,9.149681527957794,2.2s : 7.0s,0.04217233920618216,0.04923858103075532,0.2108481228351593,-0.11717892438173294,0.3042706847190857,0.02025282382965088,-0.01896345615386963,-0.04067736864089966,-0.3108247010943982,1.4942068464946412,0.2686536461965406,0.9492905735969543,0.30584391951560974,-0.07284817099571228
1727297077367,7i,9.149681527957794,2.2s : 7.0s,0.023908327652870296,0.05904822574819902,0.10945305973291397,-0.124503955245018,0.2741810083389282,0.0360109806060791,-0.00896388292312622,-0.04592984914779663,-0.3088487621495515,1.4929417461966847,0.26705360178453164,0.9497982859611511,0.3039620816707611,-0.07409591227769852
1727297077377,7i,9.149681527957794,2.2s : 7.0s,0.01157218967723801,0.048135106129003354,0.045810166746377945,-0.11477355659008026,0.25157052278518677,0.029593229293823242,-0.007851719856262207,-0.03714269399642944,-0.30694511550156045,1.4918991300869984,0.2663935139425468,0.950295627117157,0.3021479547023773,-0.0751316174864769
1727297077387,7i,9.149681527957794,2.2s : 7.0s,0.014494451093116334,0.030480283872027197,0.03995786979794502,-0.10178372263908386,0.24467332661151886,0.01458585262298584,-0.022832781076431274,-0.013962976634502411,-0.30490965631483,1.490985415384801,0.2661249378458664,0.9508375525474548,0.3002069890499115,-0.07604875415563583
1727297077397,7i,9.149681527957794,2.2s : 7.0s,0.01417895438789804,0.023723160454994827,0.09327195584774017,-0.08801012486219406,0.20631635189056396,0.005587518215179443,-0.023010969161987305,-0.0014364123344421387,-0.30277769212067784,1.4899974022346885,0.26560995471136417,0.9513978958129883,0.2981726825237274,-0.07703965157270432
1727297077407,7i,9.149681527957794,2.2s : 7.0s,0.008054687798853922,0.010470342569862063,0.18308347463607788,-0.07832779735326767,0.1987767219543457,-0.0021560192108154297,0.005749613046646118,-0.008480660617351532,-0.3006385772912789,1.488811521999651,0.26436787246249577,0.9519392251968384,0.2961302101612091,-0.07821988314390182
1727297077417,7i,9.149681527957794,2.2s : 7.0s,0.009664883577489293,0.04251132934509343,0.24239766597747803,-0.0696544200181961,0.1775585114955902,-0.017560958862304688,0.036842912435531616,-0.011892251670360565,-0.2985827647391188,1.4874472116558786,0.2622428097211184,0.9524363279342651,0.2941659688949585,-0.07956907153129578
1727297077427,7i,9.149681527957794,2.2s : 7.0s,0.009843290582005193,0.04388373525423745,0.22784921526908875,-0.06217941641807556,0.16510772705078125,-0.031756579875946045,0.029883593320846558,-0.004926733672618866,-0.2966848206522209,1.486110907241694,0.2599166278781697,0.952883780002594,0.29235148429870605,-0.08088882267475128
1727297077437,7i,9.149681527957794,2.2s : 7.0s,0.012959908056524444,0.03258707728613374,0.22475142776966095,-0.06059829890727997,0.16392555832862854,-0.020393192768096924,0.006060928106307983,0.024684011936187744,-0.2948542730073242,1.4848847153625386,0.2577489531552371,0.9533155560493469,0.29060041904449463,-0.08210296928882599
1727297077447,7i,9.149681527957794,2.2s : 7.0s,0.02362420836280652,0.03118071375617793,0.29144150018692017,-0.05467968434095383,0.15666091442108154,-0.01368570327758789,-0.0010809600353240967,0.027995891869068146,-0.29303763477643424,1.4836034614667832,0.255253428585837,0.9537337422370911,0.2888616919517517,-0.0833701640367508
1727297077457,7i,9.149681527957794,2.2s : 7.0s,0.03636311678899273,0.029402608245080834,0.36480867862701416,-0.05540592968463898,0.1535085290670395,-0.018638134002685547,0.020564526319503784,0.00970739871263504,-0.29119631102618027,1.4821415635674395,0.2519743446920376,0.9541391134262085,0.28709837794303894,-0.08481128513813019
1727297077467,7i,9.149681527957794,2.2s : 7.0s,0.050674210494008755,0.033160188423419557,0.416197270154953,-0.050961025059223175,0.1584029644727707,-0.01175469160079956,0.03067117929458618,0.004550173878669739,-0.28931161741166217,1.4804810326154114,0.24804253600291468,0.9545340538024902,0.28529250621795654,-0.0864441841840744
1727297077477,7i,9.149681527957794,2.2s : 7.0s,0.06217564227294343,0.009963477138734793,0.41898399591445923,-0.04212545230984688,0.19422806799411774,-0.002540886402130127,-0.008543223142623901,0.0044528767466545105,-0.28717829693115204,1.478834807005171,0.24386057913877532,0.9549945592880249,0.2832472026348114,-0.08807116001844406
1727297077487,7i,9.149681527957794,2.2s : 7.0s,0.07458572295610699,0.0546796585723028,0.421604186296463,-0.03490327298641205,0.20821768045425415,0.01534801721572876,-0.05205532908439636,-0.006674289703369141,-0.28475452255740513,1.4772914076472008,0.23967524312973554,0.9555381536483765,0.2809218764305115,-0.0896088257431984
1727297077497,7i,9.149681527957794,2.2s : 7.0s,0.07561520478530791,0.05346793062489664,0.36540907621383667,-0.05144203454256058,0.1693483144044876,0.020821034908294678,-0.04281839728355408,-0.024328768253326416,-0.2824920352098981,1.4757733181537953,0.23573722264352942,0.956031322479248,0.2787497639656067,-0.09111938625574112
1727297077507,7i,9.149681527957794,2.2s : 7.0s,0.071218163401264,0.03463387303949411,0.32319343090057373,-0.051436085253953934,0.17441357672214508,0.023930609226226807,-0.011924564838409424,-0.022014446556568146,-0.2805119921324094,1.4743335938222288,0.23238664065898826,0.956446647644043,0.2768476605415344,-0.09254869073629379
1727297077517,7i,9.149681527957794,2.2s : 7.0s,0.07800193863696554,0.06658146710343671,0.31652912497520447,-0.039841216057538986,0.23339593410491943,0.057789385318756104,-0.031636565923690796,-0.009623222053050995,-0.27817600221927014,1.4730261202461246,0.22928413997968825,0.9569658041000366,0.2746022343635559,-0.09386201202869415
1727297077527,7i,9.149681527957794,2.2s : 7.0s,0.07791215672472973,0.10162483694225159,0.2761530876159668,-0.04001578688621521,0.23722806572914124,0.05643552541732788,-0.08448737859725952,-0.002126455307006836,-0.27548939648078113,1.4718691514255966,0.22644794152909964,0.9575872421264648,0.2720179259777069,-0.09504164755344391
1727297077537,7i,9.149681527957794,2.2s : 7.0s,0.06512801471467201,0.08431456468098039,0.2819611728191376,-0.05522536486387253,0.20554789900779724,0.010216772556304932,-0.08331674337387085,-0.00792992115020752,-0.27303686627498697,1.4707008422621566,0.22387140418598203,0.9581364989280701,0.26965704560279846,-0.09622671455144882
1727297077547,7i,9.149681527957794,2.2s : 7.0s,0.059653650767211075,0.04701332883796579,0.38458821177482605,-0.08255162090063095,0.19990839064121246,-0.012187004089355469,-0.03505581617355347,-0.028858616948127747,-0.2706952303177707,1.4691681420392582,0.2206828799164635,0.9586134552955627,0.26740142703056335,-0.0977589413523674
1727297077557,7i,9.149681527957794,2.2s : 7.0s,0.061951657570605535,0.05257830892873131,0.456055223941803,-0.08438893407583237,0.2060275375843048,-0.01172572374343872,-0.026994824409484863,-0.043569087982177734,-0.2682528772764514,1.4672175893862294,0.21650261740560015,0.9590675830841064,0.26504719257354736,-0.09969579428434372
1727297077567,7i,9.149681527957794,2.2s : 7.0s,0.06491457682715439,0.06569556079966736,0.49535855650901794,-0.08203882724046707,0.1858469396829605,-0.02124762535095215,-0.049286484718322754,-0.037885189056396484,-0.26578357472758357,1.4651809299492449,0.21181780002859793,0.9595105648040771,0.26266542077064514,-0.10171757638454437
1727297077577,7i,9.149681527957794,2.2s : 7.0s,0.06826328839659242,0.05800294930718829,0.533499002456665,-0.0905098095536232,0.15841610729694366,-0.027676045894622803,-0.04487806558609009,-0.024173080921173096,-0.26354004111923374,1.462962273960147,0.2066597945396456,0.9598659873008728,0.2604999840259552,-0.10390930622816086
1727297077587,7i,9.149681527957794,2.2s : 7.0s,0.07651354509723933,0.023668943736554,0.5442968010902405,-0.08279117196798325,0.1668609231710434,-0.0067958831787109375,-0.022380352020263672,-0.0036269426345825195,-0.2613531644668008,1.4607296249443404,0.20130508648531875,0.9601955413818359,0.2583880126476288,-0.10611441731452942
1727297077597,7i,9.149681527957794,2.2s : 7.0s,0.08903414363949386,0.047659003505442374,0.5253676176071167,-0.08893188834190369,0.18932762742042542,0.0325283408164978,-0.017321377992630005,0.0302201509475708,-0.25899183524208946,1.458492774594779,0.19597080233536834,0.9605593681335449,0.2561061382293701,-0.10833003371953964
1727297077607,7i,9.149681527957794,2.2s : 7.0s,0.09682737322221181,0.059299620948383404,0.5036248564720154,-0.06890203058719635,0.20701029896736145,0.040329694747924805,-0.031884968280792236,0.029551811516284943,-0.25642661720472987,1.4564225337550325,0.19095203853560283,0.9609824419021606,0.25362563133239746,-0.1103929951786995
1727297077617,7i,9.149681527957794,2.2s : 7.0s,0.10656271934273687,0.05466740744012041,0.5562329888343811,-0.048358939588069916,0.20370826125144958,0.026384949684143066,-0.035199522972106934,0.032455407083034515,-0.2537809312618227,1.4545611472066127,0.18581111114373797,0.9614382982254028,0.25106558203697205,-0.11225897818803787
1727297077627,7i,9.149681527957794,2.2s : 7.0s,0.12021973470789683,0.011890772477979325,0.6698323488235474,-0.052147772163152695,0.2033969610929489,0.007986009120941162,-0.007428884506225586,-0.004735589027404785,-0.25103938687666805,1.4525713787203764,0.1797946898506865,0.9618930816650391,0.2484108954668045,-0.11425256729125977
1727297077637,7i,9.149681527957794,2.2s : 7.0s,0.13033364824390803,0.05042753836357833,0.7224110960960388,-0.07241256535053253,0.19082337617874146,0.006544649600982666,0.028122544288635254,-0.04134279489517212,-0.2482380702769464,1.4502477924608037,0.1728200865695467,0.9623121023178101,0.24569642543792725,-0.11657052487134933
1727297077647,7i,9.149681527957794,2.2s : 7.0s,0.13133080233876476,0.059983999518638545,0.7171462178230286,-0.09448258578777313,0.17879246175289154,0.006256401538848877,0.023229658603668213,-0.0549483448266983,-0.24554186784853507,1.4476621060765795,0.16568123153113937,0.9626615047454834,0.2430819720029831,-0.11913931369781494
1727297077657,7i,9.149681527957794,2.2s : 7.0s,0.12585351499023692,0.05839323622233753,0.6550615429878235,-0.09733375906944275,0.19293516874313354,0.016163766384124756,-0.016234785318374634,-0.05371158570051193,-0.24285816302576096,1.4450665989716729,0.15886453878250945,0.9629926085472107,0.24047788977622986,-0.12171885371208191
1727297077667,7i,9.149681527957794,2.2s : 7.0s,0.1090476644469076,0.08201814993714165,0.5364234447479248,-0.09660365432500839,0.20183596014976501,0.011169493198394775,-0.05945780873298645,-0.05538039654493332,-0.24013422312829252,1.4427024998752525,0.15299327342698418,0.9633482098579407,0.23783299326896667,-0.12407833337783813
1727297077677,7i,9.149681527957794,2.2s : 7.0s,0.07989745119755833,0.08383777480743156,0.40239983797073364,-0.08998969942331314,0.19015640020370483,-0.015640735626220703,-0.07324670255184174,-0.03767041862010956,-0.2375848972421686,1.4407300473846547,0.14847669660148918,0.9636996388435364,0.23535604774951935,-0.1260564774274826
1727297077687,7i,9.149681527957794,2.2s : 7.0s,0.055812196779077256,0.06597285486783909,0.32117435336112976,-0.09062676131725311,0.19410088658332825,-0.0181998610496521,-0.06075224280357361,-0.01817546784877777,-0.23523314597251743,1.4390375529345985,0.14508604893376836,0.9640309810638428,0.23306971788406372,-0.12775970995426178
1727297077697,7i,9.149681527957794,2.2s : 7.0s,0.04436845319730658,0.05072008499927829,0.2702864110469818,-0.08564957976341248,0.19324681162834167,0.006224691867828369,-0.04815036058425903,-0.014673888683319092,-0.23291348226614478,1.4375370320941148,0.14233342717195505,0.9643715620040894,0.23081330955028534,-0.12927761673927307
1727297077707,7i,9.149681527957794,2.2s : 7.0s,0.03270882686347895,0.03237383385480226,0.22188718616962433,-0.07958681136369705,0.16593198478221893,5.823373794555664e-05,-0.03141704201698303,-0.007812246680259705,-0.23080261756392276,1.4362011503731822,0.14007439239016106,0.9646785259246826,0.22875893115997314,-0.13063086569309235
1727297077717,7i,9.149681527957794,2.2s : 7.0s,0.013829757714757524,0.03848690777929559,0.16052289307117462,-0.08963651210069656,0.16614530980587006,-0.030432939529418945,-0.01885642111301422,0.014124929904937744,-0.2289194222617687,1.4349693849139873,0.13836606892165082,0.964942216873169,0.22692526876926422,-0.131877139210701
1727297077727,7i,9.149681527957794,2.2s : 7.0s,0.012641833205520125,0.05745104716042086,0.09907565265893936,-0.10079387575387955,0.16997070610523224,-0.02505713701248169,-0.041956543922424316,0.030206143856048584,-0.22706931738361816,1.4337650197105472,0.13726708712239158,0.9651969075202942,0.22512304782867432,-0.13309630751609802
1727297077737,7i,9.149681527957794,2.2s : 7.0s,0.021580472499061507,0.06325546999597319,0.05978337302803993,-0.08796915411949158,0.14723236858844757,-0.019873201847076416,-0.056560859084129333,0.020178690552711487,-0.22537998048509889,1.4326991239837816,0.13674478330602735,0.9654297232627869,0.22347675263881683,-0.13417719304561615
1727297077747,7i,9.149681527957794,2.2s : 7.0s,0.022206478417189594,0.048040623838207445,0.1378624588251114,-0.061819665133953094,0.11895771324634552,-0.047681570053100586,-0.0008807927370071411,-0.005796000361442566,-0.22397045869776508,1.4318001432966643,0.13606826689210716,0.9656196236610413,0.22210265696048737,-0.13508853316307068
1727297077757,7i,9.149681527957794,2.2s : 7.0s,0.0054155243581861185,0.09215465254122024,0.3384823799133301,-0.05419210344552994,0.16404396295547485,-0.05639660358428955,0.07287131249904633,-0.0012941807508468628,-0.2222741194003939,1.4307635141021622,0.13381203621702312,0.9658507704734802,0.2204483598470688,-0.136141836643219
1727297077767,7i,9.149681527957794,2.2s : 7.0s,0.01957516462239078,0.06844864944289797,0.35068538784980774,-0.0657610073685646,0.14687100052833557,-0.028264224529266357,0.05583104491233826,-0.027735278010368347,-0.2201431990072567,1.429423111821816,0.13043525884941004,0.9661303162574768,0.21836936473846436,-0.13750223815441132
1727297077777,7i,9.149681527957794,2.2s : 7.0s,0.03159735821166313,0.06311279592297514,0.40619951486587524,-0.06692028045654297,0.11180249601602554,-0.037943482398986816,0.027486637234687805,-0.0422847718000412,-0.21841697792512618,1.427985956394274,0.1268834456472759,0.9663033485412598,0.216684490442276,-0.13894400000572205
1727297077787,7i,9.149681527957794,2.2s : 7.0s,0.037081970242010036,0.08940091155989532,0.455606073141098,-0.035340119153261185,0.13912416994571686,-0.07293307781219482,0.03766961395740509,-0.03541594743728638,-0.21648941584670223,1.4265766849154269,0.12258251882744504,0.966518223285675,0.2148023098707199,-0.14036543667316437
1727297077797,7i,9.149681527957794,2.2s : 7.0s,0.043051684816279745,0.06256651336276904,0.425871878862381,-0.04418128356337547,0.1083444133400917,-0.05595344305038452,0.010034039616584778,-0.026136159896850586,-0.21467938383612278,1.4252902119735165,0.11834204059861271,0.9667199850082397,0.21303418278694153,-0.14166486263275146
1727297077807,7i,9.149681527957794,2.2s : 7.0s,0.046536358259300595,0.05089210973992454,0.4226076304912567,-0.04594411700963974,0.1523333191871643,-0.04995286464691162,-0.009728580713272095,-0.0002699345350265503,-0.2127769718155547,1.4239594639538022,0.11420742845485948,0.9669296741485596,0.21117505431175232,-0.143010213971138
1727297077817,7i,9.149681527957794,2.2s : 7.0s,0.05056202359269048,0.03982175231165221,0.3773392140865326,-0.05434985086321831,0.15063342452049255,-0.019258439540863037,-0.03479897975921631,-0.001978754997253418,-0.21067023675839677,1.4226538597106226,0.11040677960057554,0.9671801328659058,0.20911537110805511,-0.14433787763118744
1727297077827,7i,9.149681527957794,2.2s : 7.0s,0.055358483245338326,0.059008739373342646,0.3622898459434509,-0.042054880410432816,0.16435904800891876,-0.004605293273925781,-0.05201981961727142,0.02747291326522827,-0.2085889001259938,1.421455967378711,0.10691741288330842,0.967434823513031,0.20707958936691284,-0.14556080102920532
1727297077837,7i,9.149681527957794,2.2s : 7.0s,0.07022528201502788,0.07202823205345811,0.41247525811195374,-0.03448963910341263,0.20111626386642456,0.016056299209594727,-0.057567447423934937,0.04020261764526367,-0.20621207455758883,1.420329013756672,0.10335357334776163,0.967754065990448,0.20475371181964874,-0.14672432839870453
1727297077847,7i,9.149681527957794,2.2s : 7.0s,0.09355012292767219,0.08354176309738007,0.5134261846542358,-0.024826936423778534,0.21824562549591064,0.02856433391571045,-0.07107442617416382,0.0333426296710968,-0.2034410215069958,1.4191645383255183,0.09904774075391037,0.9681394696235657,0.20204058289527893,-0.14793625473976135
1727297077857,7i,9.149681527957794,2.2s : 7.0s,0.11679411262365103,0.07506067613212025,0.6605096459388733,-0.026565980166196823,0.23309195041656494,0.008217990398406982,-0.07353784143924713,0.012599825859069824,-0.20033287378327302,1.4178345944097577,0.09350209645600989,0.9685580730438232,0.19899556040763855,-0.14931869506835938
1727297077867,7i,9.149681527957794,2.2s : 7.0s,0.14105585016521255,0.050955787181872464,0.8272334337234497,-0.04167542606592178,0.24331700801849365,-0.007292985916137695,-0.047564685344696045,-0.01676023006439209,-0.19684364180962513,1.4161028410925525,0.08638995142087905,0.9689781069755554,0.19557490944862366,-0.15110182762145996
1727297077877,7i,9.149681527957794,2.2s : 7.0s,0.16405272942900725,0.05073514239556834,0.9739038348197937,-0.07016591727733612,0.2397635579109192,-0.012379229068756104,-0.030451104044914246,-0.03864634037017822,-0.1930555287745323,1.4138795938970554,0.07766776828772319,0.9693646430969238,0.19185854494571686,-0.15337041020393372
1727297077887,7i,9.149681527957794,2.2s : 7.0s,0.17966150769335743,0.08321270913007513,1.0632351636886597,-0.09092078357934952,0.27602991461753845,-0.019116222858428955,-0.04994262754917145,-0.06375467777252197,-0.1889277005321402,1.4111977864125385,0.06781782633711919,0.9697234630584717,0.18780578672885895,-0.156094029545784
1727297077897,7i,9.149681527957794,2.2s : 7.0s,0.19527303265118287,0.09159615981859043,1.1040805578231812,-0.10913494229316711,0.31988656520843506,0.005997717380523682,-0.07442519068717957,-0.05305445194244385,-0.18423020566832188,1.4082701666619002,0.05734396663005111,0.970122218132019,0.18318982422351837,-0.1590733379125595
1727297077907,7i,9.149681527957794,2.2s : 7.0s,0.21488324021181554,0.0966637373539523,1.166326880455017,-0.09645376354455948,0.35066094994544983,0.025229036808013916,-0.0853375643491745,-0.03774750232696533,-0.17908189844384712,1.4052791928963158,0.046637386245869744,0.9705594778060913,0.1781262308359146,-0.16212747991085052
1727297077917,7i,9.149681527957794,2.2s : 7.0s,0.25535929677431835,0.06795680662315746,1.4344992637634277,-0.10393910855054855,0.37596654891967773,0.03132873773574829,-0.049872979521751404,-0.033901676535606384,-0.1733596361760389,1.4021496416811452,0.03437736188578349,0.9710362553596497,0.1724925935268402,-0.16533246636390686
1727297077927,7i,9.149681527957794,2.2s : 7.0s,0.32172321076163946,0.06962561581142587,1.8764175176620483,-0.11507769674062729,0.4016772508621216,0.03138422966003418,0.0236700177192688,-0.0574672669172287,-0.16672221866801054,1.3983931749686775,0.01855362270703857,0.9715147614479065,0.16595090925693512,-0.16917163133621216
1727297077937,7i,9.149681527957794,2.2s : 7.0s,0.40384653901656936,0.12845529180963375,2.355816125869751,-0.15451404452323914,0.41562822461128235,0.03604471683502197,0.09528271853923798,-0.07824796438217163,-0.15901818763933345,1.393762707764237,-0.001861829224653474,0.9719508290290833,0.15834885835647583,-0.17388838529586792
1727297077947,7i,9.149681527957794,2.2s : 7.0s,0.497819855362574,0.1672000108789242,2.7626192569732666,-0.11526287347078323,0.4537282884120941,0.061611950397491455,0.1255115121603012,-0.09168790280818939,-0.15015271796689927,1.3886111182314556,-0.026669459121861847,0.9723845720291138,0.14958913624286652,-0.17914046347141266
1727297077957,7i,9.149681527957794,2.2s : 7.0s,0.5870062320049637,0.17364614874548498,3.0750648975372314,-0.10335641354322433,0.3991848826408386,0.06959211826324463,0.11572623252868652,-0.10916666686534882,-0.14056499502206227,1.3834528073919297,-0.0548385289970115,0.9728119373321533,0.1401025652885437,-0.18441255390644073
1727297077967,7i,9.149681527957794,2.2s : 7.0s,0.651367120146066,0.14370862322440553,3.3031961917877197,-0.07239179313182831,0.38905125856399536,0.02608734369277954,0.13101990520954132,-0.05296605825424194,-0.13068906496966287,1.3784086731870901,-0.08585785062230296,0.9731801748275757,0.13031736016273499,-0.1895725280046463
1727297077977,7i,9.149681527957794,2.2s : 7.0s,0.712246661333244,0.16313175157177126,3.4581315517425537,-0.03498183563351631,0.33488762378692627,0.04203963279724121,0.1558767855167389,-0.023389428853988647,-0.12053792451217984,1.3737808776801474,-0.1185609101936719,0.9735396504402161,0.12024624645709991,-0.1943231076002121
1727297077987,7i,9.149681527957794,2.2s : 7.0s,0.7717614209726185,0.24769762022484224,3.7170398235321045,-0.05860087648034096,0.24987471103668213,0.03995746374130249,0.24170923233032227,0.0365261435508728,-0.11061273136016106,1.3694276759268846,-0.15323441454604061,0.9738059043884277,0.11038731038570404,-0.19878818094730377
1727297077997,7i,9.149681527957794,2.2s : 7.0s,0.8159227850596609,0.36498871765836766,4.015439510345459,-0.1386730819940567,0.1763235330581665,0.005482316017150879,0.36247023940086365,-0.04245036840438843,-0.10071261099260115,1.364376836303619,-0.19096076271944237,0.9738114476203918,0.10054244101047516,-0.20391817390918732
1727297078007,7i,9.149681527957794,2.2s : 7.0s,0.8434368886437323,0.4553125819869514,4.103720188140869,-0.173150897026062,0.12717223167419434,0.02263951301574707,0.4400314688682556,-0.11475759744644165,-0.090732582809397,1.359091250450715,-0.23078194392887774,0.9736526012420654,0.0906081423163414,-0.2092628926038742
1727297078017,7i,9.149681527957794,2.2s : 7.0s,0.8276864623546754,0.41648660994487957,3.881516695022583,-0.18393456935882568,0.05112886428833008,0.010163605213165283,0.4028981924057007,-0.10502782464027405,-0.08136815906477395,1.3539119477579826,-0.2698730688471959,0.9733415246009827,0.08127839863300323,-0.2144760638475418
1727297078027,7i,9.149681527957794,2.2s : 7.0s,0.7622842002799819,0.30083555314884997,3.4982635974884033,-0.24147562682628632,-0.009758721105754375,-0.028695344924926758,0.29844146966934204,-0.024724408984184265,-0.07314470167110863,1.3489928345055482,-0.30598194014431723,0.9728938937187195,0.07307949662208557,-0.2194010615348816
1727297078037,7i,9.149681527957794,2.2s : 7.0s,0.6850189398357837,0.24976043307611273,3.1918423175811768,-0.25645992159843445,-0.040225014090538025,-0.04536449909210205,0.24017086625099182,0.051383763551712036,-0.06598353371871608,1.3441517435037393,-0.3386544933066233,0.9723055362701416,0.0659356638789177,-0.22422021627426147
1727297078047,7i,9.149681527957794,2.2s : 7.0s,0.6285802891870632,0.2981966201009562,3.042365550994873,-0.24441571533679962,-0.09386543929576874,-0.04413759708404541,0.29417353868484497,-0.020857274532318115,-0.05956034686837131,1.3397622218735037,-0.36910676835947426,0.9717040657997131,0.05952513962984085,-0.22857823967933655
1727297078057,7i,9.149681527957794,2.2s : 7.0s,0.5833849654317776,0.4242463914624837,2.930919885635376,-0.14594799280166626,-0.16124820709228516,-0.09995758533477783,0.4017958641052246,-0.09248548746109009,-0.05388810747003167,1.3361666340556932,-0.3985981120402342,0.9711885452270508,0.05386203154921532,-0.23214533925056458
1727297078067,7i,9.149681527957794,2.2s : 7.0s,0.5290913470944189,0.5039865671300773,2.7027587890625,-0.08008233457803726,-0.3106994032859802,-0.1801416277885437,0.4612104892730713,-0.09400179982185364,-0.049567188761190435,1.3337277140254518,-0.42657433589364746,0.9708366394042969,0.04954689368605614,-0.23456576466560364
1727297078077,7i,9.149681527957794,2.2s : 7.0s,0.4715644549868335,0.6011474574241116,2.5757877826690674,-0.09627408534288406,-0.46814417839050293,-0.25293534994125366,0.5451187491416931,-0.015732884407043457,-0.0472143851972064,1.3314848174647396,-0.4530776358344038,0.9704187512397766,0.04719684645533562,-0.2367696613073349
1727297078087,7i,9.149681527957794,2.2s : 7.0s,0.4410105811826892,0.7327096393877621,2.560842514038086,-0.09375429898500443,-0.5839362740516663,-0.24290019273757935,0.6889278292655945,-0.056932926177978516,-0.04621122130328177,1.329390174280957,-0.47924840283434056,0.9699661731719971,0.04619477689266205,-0.23881301283836365
1727297078097,7i,9.149681527957794,2.2s : 7.0s,0.43264982081609177,0.856592772437284,2.5647261142730713,-0.061539631336927414,-0.7677358984947205,-0.22743737697601318,0.815066397190094,-0.13300445675849915,-0.04662951998391048,1.32747234738548,-0.505785614732743,0.9694876074790955,0.04661262407898903,-0.2406681478023529
1727297078107,7i,9.149681527957794,2.2s : 7.0s,0.40707022471174814,0.9477097995777569,2.548358917236328,-0.10577833652496338,-0.9405697584152222,-0.29501742124557495,0.8902806043624878,-0.136084645986557,-0.048764565155292684,1.3253508596499626,-0.5326814177489725,0.9688761234283447,0.04874524101614952,-0.24269963800907135
1727297078117,7i,9.149681527957794,2.2s : 7.0s,0.3809203816002292,0.9997736251081172,2.5475833415985107,-0.1362648755311966,-1.0783425569534302,-0.3183261752128601,0.9327623844146729,-0.16783945262432098,-0.052323082311637896,1.322722875609992,-0.5599201632175786,0.9680605530738831,0.05229921266436577,-0.24520081281661987
1727297078127,7i,9.149681527957794,2.2s : 7.0s,0.35393798742955135,0.9874246991219916,2.434936761856079,-0.15051725506782532,-1.2697762250900269,-0.3083342909812927,0.9223693609237671,-0.1707988977432251,-0.057490155483268725,1.3197637469464834,-0.587083652986049,0.967056155204773,0.05745849385857582,-0.24799393117427826
1727297078137,7i,9.149681527957794,2.2s : 7.0s,0.32824140698358883,0.9490577675744915,2.4097888469696045,-0.1937856376171112,-1.4738293886184692,-0.32126522064208984,0.8836721181869507,-0.12892979383468628,-0.06478312993340529,1.3164443664313108,-0.6139061618696108,0.9657964110374451,0.06473782658576965,-0.25109046697616577
1727297078147,7i,9.149681527957794,2.2s : 7.0s,0.29090711431121,1.0072397825997461,2.404378652572632,-0.25754818320274353,-1.6945184469223022,-0.3741984963417053,0.9221322536468506,-0.15549781918525696,-0.07396783480551011,1.3122473107881099,-0.6413404863400161,0.9641184210777283,0.07390040159225464,-0.2549789249897003
1727297078157,7i,9.149681527957794,2.2s : 7.0s,0.242770853429393,1.058124022805745,2.3035995960235596,-0.3392009735107422,-1.939218521118164,-0.3946079611778259,0.967137336730957,-0.16898632049560547,-0.08545681568372991,1.3070581461928967,-0.6688402028287735,0.9618991613388062,0.0853528380393982,-0.2597399652004242
1727297078167,7i,9.149681527957794,2.2s : 7.0s,0.20765872608219016,1.0317570546551236,2.258547782897949,-0.3686562478542328,-2.1340949535369873,-0.3781299591064453,0.9535478949546814,-0.11084568500518799,-0.09911975752537787,1.3010522986032438,-0.6963376416646541,0.9591083526611328,0.09895753115415573,-0.2651767432689667
1727297078177,7i,9.149681527957794,2.2s : 7.0s,0.1841918541356006,1.022690978965207,2.2930736541748047,-0.45653071999549866,-2.4138576984405518,-0.37419700622558594,0.943597674369812,-0.12448641657829285,-0.11489770212657464,1.293978027672629,-0.7244514454931668,0.9555873870849609,0.11464506387710571,-0.2714945077896118
1727297078187,7i,9.149681527957794,2.2s : 7.0s,0.16766998972033156,1.11711012218161,2.3849782943725586,-0.543813943862915,-2.641313314437866,-0.37402230501174927,1.039943814277649,-0.1629699468612671,-0.13277873227698164,1.2853654226412583,-0.7541638200069117,0.9510944485664368,0.1323889195919037,-0.2790925204753876
1727297078197,7i,9.149681527957794,2.2s : 7.0s,0.16564801263484438,1.142591121973957,2.382563352584839,-0.6567375659942627,-2.8287172317504883,-0.28571999073028564,1.0898504257202148,-0.190012127161026,-0.1521450516101459,1.274964537490361,-0.7852290265349998,0.9455100893974304,0.1515587568283081,-0.28816789388656616
1727297078207,7i,9.149681527957794,2.2s : 7.0s,0.1647554764118568,1.0700797358409004,2.3220674991607666,-0.7651050090789795,-3.0191917419433594,-0.19392120838165283,1.0359526872634888,-0.18511411547660828,-0.17310135037126326,1.262701743300709,-0.8168118725388961,0.9386721253395081,0.17223817110061646,-0.2987115979194641
1727297078217,7i,9.149681527957794,2.2s : 7.0s,0.1560875874829007,1.0066299839097186,2.2631418704986572,-0.8467162847518921,-3.2282066345214844,-0.1492595672607422,0.9742751717567444,-0.2044832408428192,-0.1956877515208152,1.24877962457931,-0.8488046213459982,0.9304943680763245,0.19444119930267334,-0.31043997406959534
1727297078227,7i,9.149681527957794,2.2s : 7.0s,0.14623152085375507,0.9987035018313994,2.1847481727600098,-0.9798102974891663,-3.4571902751922607,-0.09576350450515747,0.9719202518463135,-0.20882782340049744,-0.22014592115277445,1.2329463349901788,-0.8813808091805307,0.9206993579864502,0.21837203204631805,-0.32345980405807495
1727297078237,7i,9.149681527957794,2.2s : 7.0s,0.14476767367807622,1.0023793347859424,2.127791404724121,-1.0768489837646484,-3.618628978729248,0.007330834865570068,0.9827821850776672,-0.19710344076156616,-0.24615164818756882,1.2149473101968475,-0.9145980053312787,0.9090967774391174,0.2436734139919281,-0.3378850221633911
1727297078247,7i,9.149681527957794,2.2s : 7.0s,0.15517320863774844,0.992247763409628,2.0907435417175293,-1.1787734031677246,-3.794342041015625,0.13312655687332153,0.9673348665237427,-0.17634114623069763,-0.27321889150413403,1.194916574262996,-0.9486842835758856,0.8956819176673889,0.2698323130607605,-0.35347458720207214
1727297078257,7i,9.149681527957794,2.2s : 7.0s,0.16118022443339253,1.0124355421496845,2.0474836826324463,-1.2662454843521118,-3.9569082260131836,0.20351046323776245,0.9763171076774597,-0.17439645528793335,-0.3013397653527022,1.1726896937649092,-0.9839694599226229,0.8802602291107178,0.2967998683452606,-0.3702050447463989
1727297078267,7i,9.149681527957794,2.2s : 7.0s,0.16736565870731349,1.0450567854753066,1.9553943872451782,-1.3551948070526123,-4.134301662445068,0.3000366687774658,0.9847133755683899,-0.18017005920410156,-0.33048930638214763,1.1483473849822556,-1.020213886537842,0.8627288341522217,0.32450589537620544,-0.3878079354763031
1727297078277,7i,9.149681527957794,2.2s : 7.0s,0.18139195345591558,1.0654442370528892,1.9160581827163696,-1.4883103370666504,-4.30225944519043,0.42114007472991943,0.9682450890541077,-0.14252686500549316,-0.36061049900361164,1.1213591829336689,-1.0578106615774572,0.8427608013153076,0.35284551978111267,-0.406514972448349
1727297078287,7i,9.149681527957794,2.2s : 7.0s,0.20160046759957298,1.1575814552598516,1.970718264579773,-1.5584142208099365,-4.4560370445251465,0.5485734343528748,1.0054528713226318,-0.16770967841148376,-0.39116511284179223,1.091526793291436,-1.0975113010801771,0.820307731628418,0.381265789270401,-0.4262997806072235
1727297078297,7i,9.149681527957794,2.2s : 7.0s,0.22728478262550272,1.2545202733441985,1.9427505731582642,-1.6666139364242554,-4.56826114654541,0.6783292889595032,1.0448956489562988,-0.14793097972869873,-0.42156685201997585,1.0587247085968792,-1.1397724289624582,0.7954103350639343,0.4091906249523163,-0.44708555936813354
1727297078307,7i,9.149681527957794,2.2s : 7.0s,0.24570991757413468,1.2718162747036046,1.8049904108047485,-1.765803337097168,-4.636341571807861,0.8155739903450012,0.9684816002845764,-0.11999621987342834,-0.4519612149973477,1.023051952905517,-1.183357368219311,0.767983078956604,0.43673065304756165,-0.46847426891326904
1727297078317,7i,9.149681527957794,2.2s : 7.0s,0.255449007291348,1.279086320312886,1.6185486316680908,-1.8683054447174072,-4.73221492767334,0.9425144195556641,0.8587468862533569,-0.10140103101730347,-0.48304731586768357,0.9844471697998083,-1.2279195094618816,0.7376613616943359,0.4644799828529358,-0.4900144040584564
1727297078327,7i,9.149681527957794,2.2s : 7.0s,0.2566414092815215,1.3121422248264805,1.4708524942398071,-1.9594961404800415,-4.8471856117248535,1.0308928489685059,0.8026813268661499,-0.12116038799285889,-0.5137329307381595,0.9434521132744496,-1.2734781705918818,0.7050843238830566,0.49143174290657043,-0.5112248659133911
1727297078337,7i,9.149681527957794,2.2s : 7.0s,0.26059072442944603,1.372465481495244,1.4245901107788086,-2.0149662494659424,-4.91934061050415,1.1148719787597656,0.7857609987258911,-0.1526486873626709,-0.543953087764986,0.8995697652819324,-1.3209622293343308,0.6700400710105896,0.5175225734710693,-0.5321810245513916
1727297078347,7i,9.149681527957794,2.2s : 7.0s,0.2816992609037384,1.466725739349104,1.522876501083374,-2.081695079803467,-4.970831394195557,1.2140347957611084,0.8138971328735352,-0.12237387895584106,-0.5726504157993174,0.852253698009646,-1.3715774324079621,0.6326755285263062,0.5418615341186523,-0.553270161151886
1727297078357,7i,9.149681527957794,2.2s : 7.0s,0.30801841028314864,1.5679545509332886,1.5837523937225342,-2.1579198837280273,-4.961641788482666,1.3055570125579834,0.8610411286354065,-0.11229664087295532,-0.5986766799202523,0.8010001545888905,-1.4258059163870238,0.5931703448295593,0.563549816608429,-0.5749439597129822
1727297078367,7i,9.149681527957794,2.2s : 7.0s,0.3238860292718607,1.613015747982556,1.4823191165924072,-2.212664842605591,-4.893167495727539,1.3950049877166748,0.805288553237915,-0.08538872003555298,-0.6220240182029594,0.7469272324006468,-1.4819993892207974,0.5521385073661804,0.5826812982559204,-0.596343457698822
1727297078377,7i,9.149681527957794,2.2s : 7.0s,0.31323042315189126,1.527823821872916,1.2811225652694702,-2.256040573120117,-4.922382354736328,1.402449131011963,0.6038022637367249,-0.05296123027801514,-0.644046829388196,0.6908632275031117,-1.5389788554706885,0.5095534324645996,0.6004365086555481,-0.6163045167922974
1727297078387,7i,9.149681527957794,2.2s : 7.0s,0.30815930274655823,1.4597528308877175,1.411864995956421,-2.2016594409942627,-4.958608150482178,1.3723703622817993,0.4940747022628784,-0.05803537368774414,-0.6637737105483383,0.6322828148645732,-1.5985364746661173,0.46550503373146057,0.6160936951637268,-0.6354002952575684
1727297078397,7i,9.149681527957794,2.2s : 7.0s,0.35083123954031614,1.605798551186175,1.7703653573989868,-2.436842679977417,-4.9227447509765625,1.4515334367752075,0.6478010416030884,-0.2280207872390747,-0.6785903486527114,0.5691591613983822,-1.6619717899493882,0.41952982544898987,0.6276962757110596,-0.6557378172874451
1727297078407,7i,9.149681527957794,2.2s : 7.0s,0.35178022326581454,1.7119361200197514,1.5703539848327637,-2.532947063446045,-4.9204840660095215,1.5342258214950562,0.7287731170654297,-0.21393024921417236,-0.6892883716312245,0.5027168197096358,-1.7278257042418992,0.371810644865036,0.635988175868988,-0.6762217283248901
1727297078417,7i,9.149681527957794,2.2s : 7.0s,0.314587240824989,1.533872177612522,1.1966006755828857,-2.633199453353882,-4.877740859985352,1.4960389137268066,0.33567750453948975,-0.044181883335113525,-0.6989946051993222,0.4351682140454565,-1.7929941915351741,0.322702020406723,0.6434484124183655,-0.6941452026367188
1727297078427,7i,9.149681527957794,2.2s : 7.0s,0.2849863329875708,1.5094608049722917,0.935303270816803,-2.704355478286743,-4.7981953620910645,1.4969791173934937,0.19173496961593628,-0.027625083923339844,-0.7082683505665814,0.36715634370662004,-1.856706936582703,0.27262842655181885,0.6505195498466492,-0.7088709473609924
1727297078437,7i,9.149681527957794,2.2s : 7.0s,0.2753096854958012,1.5692348260176567,0.9222593903541565,-2.714001417160034,-4.758899688720703,1.5366960763931274,0.3089001178741455,-0.07512539625167847,-0.7152096686007247,0.2984496765763282,-1.9203586677305102,0.22198626399040222,0.6557757258415222,-0.721581757068634
1727297078447,7i,9.149681527957794,2.2s : 7.0s,0.2771922031333531,1.5672571471884191,0.9343775510787964,-2.7790448665618896,-4.70437479019165,1.5121285915374756,0.39270681142807007,-0.12467336654663086,-0.718501642389863,0.2290604792047589,-1.9841367175176086,0.1709311306476593,0.6582574844360352,-0.7331300377845764
1727297078457,7i,9.149681527957794,2.2s : 7.0s,0.279058490361043,1.5335595192972213,0.9190340638160706,-2.801295042037964,-4.654163837432861,1.484180212020874,0.3595702648162842,-0.14043903350830078,-0.7185145559092834,0.15938177870375397,-2.0474938651522736,0.11947278678417206,0.6582671999931335,-0.7432432770729065
1727297078467,7i,9.149681527957794,2.2s : 7.0s,0.28625801749626417,1.4833604853420501,0.9338283538818359,-2.8369176387786865,-4.605029582977295,1.4390586614608765,0.33819282054901123,-0.12285810708999634,-0.7150534603128029,0.09018973101460859,-2.109949773072158,0.06800621002912521,0.6556577682495117,-0.7519893646240234
1727297078477,7i,9.149681527957794,2.2s : 7.0s,0.2949568948428403,1.4484564071911556,0.9092302918434143,-2.8526103496551514,-4.551670074462891,1.4087629318237305,0.3145011067390442,-0.12042433023452759,-0.7084371079996579,0.0218097371714043,-2.171032595809355,0.01656055822968483,0.650647759437561,-0.7591990828514099
1727297078487,7i,9.149681527957794,2.2s : 7.0s,0.31321878040245826,1.4297261621889863,0.7877454161643982,-2.9055540561676025,-4.528450965881348,1.3953930139541626,0.2852247953414917,-0.12506818771362305,-0.6993229473573958,-0.04542583130961824,-2.2304228983234475,-0.034751441329717636,0.6436997056007385,-0.7644887566566467
1727297078497,7i,9.149681527957794,2.2s : 7.0s,0.33358095612702415,1.3924352747960633,0.7020259499549866,-2.9131875038146973,-4.4985480308532715,1.3591864109039307,0.25383251905441284,-0.1644911766052246,-0.6884918881490913,-0.11151224957109043,-2.288215669576832,-0.08593197911977768,0.6353733539581299,-0.7674089074134827
1727297078507,7i,9.149681527957794,2.2s : 7.0s,0.3487732758470998,1.3631766668025846,0.7425507307052612,-2.922956943511963,-4.450690269470215,1.3342896699905396,0.2459896206855774,-0.1319500207901001,-0.6749521068278089,-0.17582413962343255,-2.3439159638769826,-0.13656620681285858,0.6248599290847778,-0.7687000632286072
1727297078517,7i,9.149681527957794,2.2s : 7.0s,0.3603734510115613,1.3460606001516024,0.8170846104621887,-2.9469101428985596,-4.43770170211792,1.306862235069275,0.2958625555038452,-0.12827932834625244,-0.6582073045745249,-0.23811112180207822,-2.397217860126808,-0.18659241497516632,0.611699640750885,-0.7687696218490601
1727297078527,7i,9.149681527957794,2.2s : 7.0s,0.38136508804267294,1.31594101463124,0.7905098795890808,-3.0014002323150635,-4.391905784606934,1.2744276523590088,0.32194679975509644,-0.06233114004135132,-0.6383665912265126,-0.29834273959284974,-2.4478060044015986,-0.23605166375637054,0.5958845019340515,-0.7675944566726685
1727297078537,7i,9.149681527957794,2.2s : 7.0s,0.40389758545749327,1.2923301643039704,0.7920191287994385,-3.061038017272949,-4.395383358001709,1.262031078338623,0.2733337879180908,-0.05180203914642334,-0.6167990576867026,-0.35690181922951525,-2.495968237572947,-0.2849954664707184,0.5784270167350769,-0.7643296122550964
1727297078547,7i,9.149681527957794,2.2s : 7.0s,0.4127925974380722,1.3001526297454613,0.8661192059516907,-3.074411153793335,-4.346990585327148,1.2665053606033325,0.2875441312789917,-0.06065809726715088,-0.5926435439560427,-0.4133985536051808,-2.5414231770891025,-0.33321672677993774,0.5585557222366333,-0.7595934271812439
1727297078557,7i,9.149681527957794,2.2s : 7.0s,0.43666255002719456,1.2880615669969346,0.7633249163627625,-3.1461269855499268,-4.352177143096924,1.2601913213729858,0.26024872064590454,-0.057367563247680664,-0.5666508327505335,-0.46804283347730835,-2.5842575671554524,-0.3806288242340088,0.5368093848228455,-0.7529657483100891
1727297078567,7i,9.149681527957794,2.2s : 7.0s,0.4518256815440427,1.268284020104914,0.7601897716522217,-3.128124713897705,-4.281379699707031,1.241943120956421,0.24200445413589478,-0.086922287940979,-0.5394410701933631,-0.5206681486860214,-2.624702817872313,-0.4268185496330261,0.513656497001648,-0.7443003058433533
1727297078577,7i,9.149681527957794,2.2s : 7.0s,0.46520546579703387,1.2225988867710125,0.7240046262741089,-3.0920064449310303,-4.1819939613342285,1.201195478439331,0.2144646942615509,-0.07669651508331299,-0.5111657731154559,-0.5705984313423264,-2.6621154476695477,-0.4710928201675415,0.4891943335533142,-0.7340030670166016
1727297078587,7i,9.149681527957794,2.2s : 7.0s,0.47949651243380087,1.1966387256661992,0.6457768082618713,-3.0841822624206543,-4.084008693695068,1.1879081726074219,0.14388155937194824,-0.010793983936309814,-0.48217598591825017,-0.61793753888922,-2.696637486972577,-0.5133019089698792,0.46370816230773926,-0.72214674949646
1727297078597,7i,9.149681527957794,2.2s : 7.0s,0.4954180099997005,1.1553305545446444,0.6136492490768433,-3.0727286338806152,-3.9784858226776123,1.1511929035186768,0.0972028374671936,-0.009756922721862793,-0.45308322142835106,-0.6631093661317404,-2.7286208446800204,-0.5534602999687195,0.4377397298812866,-0.708565890789032
1727297078607,7i,9.149681527957794,2.2s : 7.0s,0.5151828993620019,1.1522593848193718,0.5110822319984436,-3.085482120513916,-3.8806591033935547,1.1463160514831543,0.09681889414787292,-0.06547749042510986,-0.4238282602859101,-0.7065192562928524,-2.7583162327544004,-0.5917506217956543,0.4112530052661896,-0.6933268904685974
1727297078617,7i,9.149681527957794,2.2s : 7.0s,0.5131098359441448,1.169503863127262,0.517855703830719,-3.0139551162719727,-3.7291128635406494,1.157449722290039,0.0628288984298706,-0.15524804592132568,-0.3947132447512638,-0.7479393043890262,-2.7856429010229595,-0.6278322339057922,0.3845435082912445,-0.6767222285270691
1727297078627,7i,9.149681527957794,2.2s : 7.0s,0.49264890031322767,1.1653482092559282,0.5951999425888062,-2.9430413246154785,-3.583831310272217,1.1597943305969238,0.01287892460823059,-0.11290568113327026,-0.36537466295317594,-0.7866995946764036,-2.809793410805089,-0.6612895727157593,0.35729923844337463,-0.659570574760437
1727297078637,7i,9.149681527957794,2.2s : 7.0s,0.48029051702437675,1.140414677784858,0.6273576021194458,-2.934330701828003,-3.484945058822632,1.1380159854888916,-0.030331730842590332,-0.06741839647293091,-0.3356561225265385,-0.8233611573214935,-2.8311571186856175,-0.6925050020217896,0.32938873767852783,-0.6418254971504211
1727297078647,7i,9.149681527957794,2.2s : 7.0s,0.4718803929712905,1.1410211091978875,0.6358053088188171,-2.929774045944214,-3.3300068378448486,1.1395409107208252,-0.025325149297714233,-0.05229073762893677,-0.3060031497393951,-0.8587058156534645,-2.8501589019331095,-0.7218314409255981,0.3012498617172241,-0.6230633854866028
1727297078657,7i,9.149681527957794,2.2s : 7.0s,0.44500263009985463,1.2157380986728026,0.6242319941520691,-2.8692212104797363,-3.154219627380371,1.2126977443695068,-0.055433809757232666,-0.06565362215042114,-0.2770269121634418,-0.8924698296845657,-2.866754792138546,-0.74893718957901,0.2734971344470978,-0.6035664081573486
1727297078667,7i,9.149681527957794,2.2s : 7.0s,0.41196254858047243,1.2709375436302104,0.6112149953842163,-2.799354314804077,-2.959472417831421,1.2575281858444214,-0.180232971906662,0.03769850730895996,-0.24913206854274975,-0.9245764497152951,-2.881217169698189,-0.7737176418304443,0.2465629130601883,-0.5835817456245422
1727297078677,7i,9.149681527957794,2.2s : 7.0s,0.3885883491609766,1.2775059982213433,0.6109731793403625,-2.733391523361206,-2.7425029277801514,1.2331116199493408,-0.300273597240448,0.1459214687347412,-0.2225310877759656,-0.9551465039266754,-2.893469849001461,-0.796267569065094,0.2206989973783493,-0.563249409198761
1727297078687,7i,9.149681527957794,2.2s : 7.0s,0.35156837686362097,1.2909715233050743,0.7121132016181946,-2.6041884422302246,-2.5105509757995605,1.2213925123214722,-0.3516465723514557,0.2261691689491272,-0.19712852567126596,-0.9838884490811501,-2.9031558706009934,-0.8165309429168701,0.1958542764186859,-0.543063759803772
1727297078697,7i,9.149681527957794,2.2s : 7.0s,0.30948429370693153,1.3650044466111289,0.7110066413879395,-2.4594249725341797,-2.2275073528289795,1.229689359664917,-0.44438207149505615,0.3919512629508972,-0.17335264829069763,-1.0104879905119222,-2.910083847433435,-0.8343950510025024,0.17248570919036865,-0.523482084274292
1727297078707,7i,9.149681527957794,2.2s : 7.0s,0.26752612226455413,1.3967931023980913,0.7093592882156372,-2.2606728076934814,-1.9519678354263306,1.1810945272445679,-0.5544823408126831,0.4985940456390381,-0.1518054319957679,-1.0349495246342788,-2.9150146425098957,-0.8499482274055481,0.1512230485677719,-0.5046976208686829
1727297078717,7i,9.149681527957794,2.2s : 7.0s,0.22608197619747178,1.426123611719465,0.6893330812454224,-2.023338794708252,-1.6650599241256714,1.105217695236206,-0.6663990616798401,0.6068234443664551,-0.13271540939543455,-1.0567535285793273,-2.918043606247071,-0.8631064295768738,0.1323261559009552,-0.4873776435852051
1727297078727,7i,9.149681527957794,2.2s : 7.0s,0.17950590933040994,1.536402228038003,0.7122235894203186,-1.7712578773498535,-1.3768242597579956,1.1040964126586914,-0.7873190641403198,0.722240686416626,-0.11600925633898512,-1.0758949641598636,-2.919324029434987,-0.8741004467010498,0.11574921756982803,-0.47175246477127075
1727297078737,7i,9.149681527957794,2.2s : 7.0s,0.15287585746969293,1.5727337217200015,0.7075196504592896,-1.4787218570709229,-1.0752990245819092,1.0655739307403564,-0.8264604210853577,0.8093248605728149,-0.10193593636801679,-1.092129854972623,-2.9187929152933165,-0.8830023407936096,0.10175949335098267,-0.458204984664917
1727297078747,7i,9.149681527957794,2.2s : 7.0s,0.178552137177303,1.632356404917271,0.7645013332366943,-1.1422044038772583,-0.7235903739929199,1.0366989374160767,-0.8616735935211182,0.9205223321914673,-0.09060302955877951,-1.1050066061342159,-2.9163152598624706,-0.8898024559020996,0.09047912061214447,-0.44728636741638184
1727297078757,7i,9.149681527957794,2.2s : 7.0s,0.27128396483494494,1.7552172836163578,0.7884191870689392,-0.7384491562843323,-0.3568509519100189,1.045071005821228,-0.9320604801177979,1.058242678642273,-0.08237641637645947,-1.11405597124745,-2.91175413991185,-0.894451379776001,0.08228328078985214,-0.4395293891429901
1727297078767,7i,9.149681527957794,2.2s : 7.0s,0.40504091309632617,1.858880391874704,0.8091670870780945,-0.26943349838256836,0.039523206651210785,1.0282068252563477,-0.9567971229553223,1.2176889181137085,-0.0774035734929176,-1.1186039960235414,-2.9052746758876293,-0.8967980742454529,0.07732630521059036,-0.43563029170036316
1727297078777,7i,9.149681527957794,2.2s : 7.0s,0.5716566264258309,1.9735698674081636,0.8358601927757263,0.22768601775169373,0.4690873622894287,1.0312886238098145,-0.988795280456543,1.3615086078643799,-0.07610323128337548,-1.118186908690187,-2.896761177938351,-0.8967059850692749,0.07602979242801666,-0.43604788184165955
1727297078787,7i,9.149681527957794,2.2s : 7.0s,0.7813905970676679,2.094806061210667,0.8517730236053467,0.776422917842865,0.923944890499115,1.1127302646636963,-1.0201575756072998,1.4523506164550781,-0.07855742935811201,-1.112360310323078,-2.8860178881136496,-0.893980085849762,0.07847665250301361,-0.4411813020706177
1727297078797,7i,9.149681527957794,2.2s : 7.0s,1.0173578392835196,2.229264042208441,0.8859160542488098,1.2952958345413208,1.3935128450393677,1.200505256652832,-1.0880820751190186,1.53117036819458,-0.08513310366968405,-1.100935060525236,-2.8731427525082824,-0.888401985168457,0.08503030240535736,-0.45112285017967224
1727297078807,7i,9.149681527957794,2.2s : 7.0s,1.2738710483342828,2.336368488679451,0.9843073487281799,1.8043982982635498,1.8723324537277222,1.3018821477890015,-1.1405246257781982,1.5693706274032593,-0.09525845407012613,-1.084021778378763,-2.8572066062260157,-0.8798391222953796,0.09511445462703705,-0.46565675735473633
1727297078817,7i,9.149681527957794,2.2s : 7.0s,1.5565360421430485,2.4794166022553092,1.0386278629302979,2.3792104721069336,2.3806817531585693,1.453749179840088,-1.2312113046646118,1.5868959426879883,-0.10905179478349486,-1.061188910389279,-2.8380380735465884,-0.8677505850791931,0.10883577913045883,-0.4849366843700409
1727297078827,7i,9.149681527957794,2.2s : 7.0s,1.8644747816769738,2.7020288739780236,1.0421481132507324,2.9474897384643555,2.948176860809326,1.6568571329116821,-1.3508317470550537,1.6525852680206299,-0.12691374388607196,-1.031846713224142,-2.8155354349563484,-0.8513455390930176,0.12657330930233002,-0.5091069340705872
1727297078837,7i,9.149681527957794,2.2s : 7.0s,2.20412878298373,2.9353557885221453,1.0637836456298828,3.55153489112854,3.591107130050659,1.9097251892089844,-1.4442965984344482,1.6980196237564087,-0.14907177340764202,-0.9957790397621422,-2.789108203985227,-0.8298757672309875,0.14852026104927063,-0.537817656993866
1727297078847,7i,9.149681527957794,2.2s : 7.0s,2.576936105414611,3.213091430235861,1.0304776430130005,4.2599663734436035,4.3467912673950195,2.1910436153411865,-1.5810215473175049,1.7388660907745361,-0.17595271170725224,-0.9516617830625792,-2.7577120588539534,-0.801807165145874,0.17504622042179108,-0.5713703632354736
1727297078857,7i,9.149681527957794,2.2s : 7.0s,2.966555215043494,3.5047339622304183,0.947140634059906,4.99240255355835,5.168334007263184,2.451022148132324,-1.722385048866272,1.8190767765045166,-0.2078879295504585,-0.8982804724890401,-2.7204487828000605,-0.7654141187667847,0.206393763422966,-0.6095431447029114
1727297078867,7i,9.149681527957794,2.2s : 7.0s,3.3670284376656094,3.8152882239002306,0.7058038115501404,5.754038333892822,6.062543869018555,2.763319253921509,-1.8370165824890137,1.8830456733703613,-0.2452602700551425,-0.8346749269868636,-2.6765860082205744,-0.7189009189605713,0.24280881881713867,-0.6513258814811707
1727297078877,7i,9.149681527957794,2.2s : 7.0s,3.7941554858977558,4.256241002621623,0.31573963165283203,6.5553131103515625,7.068958282470703,3.1927103996276855,-2.0118443965911865,1.9684181213378906,-0.2886638342477633,-0.7596342946739165,-2.6253250955846963,-0.6601632237434387,0.2846716046333313,-0.6950874924659729
1727297078887,7i,9.149681527957794,2.2s : 7.0s,4.288922233800854,4.70445807066954,0.09578664600849152,7.546090602874756,8.064638137817383,3.663534164428711,-2.1748671531677246,1.9950929880142212,-0.3367435858775226,-0.6702092794163447,-2.56381370656498,-0.5862635374069214,0.3304153382778168,-0.7396761775016785
1727297078897,7i,9.149681527957794,2.2s : 7.0s,4.8941111216186,5.136124515218251,0.10693730413913727,8.645526885986328,9.144744873046875,4.233198642730713,-2.2170662879943848,1.882663369178772,-0.3857245462969497,-0.5626232698486892,-2.4883287869254627,-0.4942154288291931,0.37623053789138794,-0.7837101817131042
1727297078907,7i,9.149681527957794,2.2s : 7.0s,5.6239306750859965,5.743254397124316,0.019197996705770493,9.763413429260254,10.220511436462402,5.06709623336792,-2.14847993850708,1.6412010192871094,-0.43132195237426046,-0.43339003563616557,-2.3952180891782096,-0.38148826360702515,0.41807204484939575,-0.8244285583496094
1727297078917,7i,9.149681527957794,2.2s : 7.0s,6.445176176296449,6.640720796226708,-0.32287946343421936,10.76163101196289,11.425503730773926,6.1559038162231445,-2.0434393882751465,1.424210786819458,-0.47052170374810304,-0.28174908330657294,-2.283160099936097,-0.24782252311706543,0.45335134863853455,-0.8561872243881226
1727297078927,7i,9.149681527957794,2.2s : 7.0s,7.308956683241173,7.8361606559233845,-1.107698678970337,11.65266227722168,12.461522102355957,7.482669830322266,-1.8893646001815796,1.358443021774292,-0.5004480059652547,-0.10819954916525545,-2.152025407511672,-0.09474566578865051,0.4798186421394348,-0.872236967086792
1727297078937,7i,9.149681527957794,2.2s : 7.0s,8.126275801048951,9.2481385302113,-2.6426215171813965,12.2420072555542,13.284744262695312,9.012505531311035,-1.5593321323394775,1.3679523468017578,-0.5201027939171164,0.08387553245627383,-2.004412995773944,0.07269919663667679,0.4969693422317505,-0.8647174835205078
1727297078947,7i,9.149681527957794,2.2s : 7.0s,8.768461187666361,10.81328799200331,-4.9348249435424805,12.077871322631836,13.796177864074707,10.686963081359863,-0.8236722350120544,1.427438735961914,-0.5321685500161997,0.2877765407788279,-1.8421295901587689,0.24457095563411713,0.5074031949043274,-0.8262729644775391
1727297078957,7i,9.149681527957794,2.2s : 7.0s,9.149681527957794,12.442427143579705,-7.40974760055542,11.039419174194336,13.977679252624512,12.372383117675781,0.4641786813735962,1.2339640855789185,-0.5356321715670372,0.49382972935468655,-1.6658376639460397,0.4076157808303833,0.5103847980499268,-0.757203221321106
1727297078967,7i,9.149681527957794,2.2s : 7.0s,9.016419148081429,14.006378807452458,-11.040108680725098,8.857644081115723,14.688767433166504,13.80105209350586,2.3016247749328613,0.641974925994873,-0.5306912382838085,0.694570665879637,-1.4679673721515747,0.5520206689834595,0.5061296224594116,-0.6626506447792053
1727297078977,7i,9.149681527957794,2.2s : 7.0s,8.302201338440183,15.616397605510551,-14.83657455444336,5.912451267242432,14.144501686096191,14.732934951782227,5.146600723266602,0.5700902342796326,-0.5194697085368067,0.8815615336954236,-1.2428842068698667,0.6699277758598328,0.49641987681388855,-0.5520542860031128
1727297078987,7i,9.149681527957794,2.2s : 7.0s,7.062503942977117,16.44426564495901,-16.865184783935547,3.699424982070923,13.043394088745117,13.984038352966309,8.596128463745117,0.9834222793579102,-0.4961352864949445,1.0472086679227872,-1.0036002533682422,0.761612594127655,0.4760303497314453,-0.4397059381008148
1727297078997,7i,9.149681527957794,2.2s : 7.0s,5.431719924762798,16.908864652074808,-16.691619873046875,1.3948240280151367,13.189959526062012,11.727300643920898,12.104596138000488,1.3634059429168701,-0.4518357118257744,1.18423153361066,-0.7666045619457725,0.8332618474960327,0.43661776185035706,-0.3391749858856201
1727297079007,7i,9.149681527957794,2.2s : 7.0s,3.487184338748989,16.867282184745562,-16.79420280456543,-0.4347299039363861,13.41244125366211,8.988707542419434,14.128374099731445,2.0242011547088623,-0.3800856948724425,1.2805335269974714,-0.5459958898082724,0.8897868990898132,0.3710000514984131,-0.26577848196029663
1727297079017,7i,9.149681527957794,2.2s : 7.0s,1.6408993792895474,15.841871941967463,-14.622476577758789,-1.3823624849319458,13.363308906555176,5.836337566375732,14.44151496887207,2.8887221813201904,-0.2917312839565064,1.3383436104364366,-0.34667140347771586,0.9319881200790405,0.287610799074173,-0.2206314355134964
1727297079027,7i,9.149681527957794,2.2s : 7.0s,0.42517015755554266,14.179402957121143,-13.223945617675781,-2.99621319770813,12.252490043640137,2.4852161407470703,13.619841575622559,3.0625290870666504,-0.19617278562858737,1.3580546592645408,-0.1797928780282426,0.958707869052887,0.1949169635772705,-0.207090824842453
1727297079037,7i,9.149681527957794,2.2s : 7.0s,2.740204151936481,9.782583339744155,-12.780424118041992,-8.648710250854492,11.689552307128906,0.13801103830337524,9.546830177307129,2.1302402019500732,-0.10877923980890576,1.3305999152533687,-0.025587839983668113,0.9655502438545227,0.1085648387670517,-0.2364872843027115
1727297079047,7i,9.149681527957794,2.2s : 7.0s,1.0598792940441346,3.5399355022594654,6.397358417510986,0.9327161312103271,18.994234085083008,0.8268606662750244,3.4161720275878906,-0.42096731066703796,0.025061343943711862,1.2984599693840633,0.03293801840867048,0.9628425240516663,-0.025058720260858536,-0.2688979208469391
1727297079057,7i,9.149681527957794,2.2s : 7.0s,2.824509039810289,9.742583634208343,-30.77747917175293,-5.140660285949707,-2.495157480239868,5.8035173416137695,-7.261235237121582,-2.917462110519409,0.07126827218059835,1.2781673643944795,0.21069043269830465,0.955058217048645,-0.07120795547962189,-0.2877381443977356
1727297079067,7i,9.149681527957794,2.2s : 7.0s,1.602634934493074,16.286609735443935,-17.43098258972168,-7.483774662017822,14.91405963897705,11.923051834106445,-7.751171588897705,7.938125133514404,0.03669382149159274,1.1868190904679847,0.4920733453828705,0.9265578985214233,-0.03668558597564697,-0.3743588626384735
1727297079077,7i,9.149681527957794,2.2s : 7.0s,1.2855790362935602,15.244887383913074,-21.79813003540039,-8.405159950256348,4.303905487060547,13.693238258361816,3.9017481803894043,5.447768211364746,0.06706642234756835,1.1010484922855066,0.6854401969087303,0.8896778225898743,-0.06701615452766418,-0.45164379477500916
1727297079087,7i,9.149681527957794,2.2s : 7.0s,2.7271247658190174,11.603432341733305,-25.522600173950195,-8.381536483764648,-0.03254036605358124,8.264825820922852,5.564600944519043,5.947059154510498,-0.04828729214894435,0.9898457793460868,0.9283794543332049,0.8349669575691223,0.048268530517816544,-0.5481790900230408
1727297079097,7i,9.149681527957794,2.2s : 7.0s,3.7657411211261453,21.21514616487641,-7.364354610443115,-17.87567901611328,-1.401025414466858,5.200161933898926,13.576638221740723,15.450425148010254,-0.1401130332715044,0.8641420115106195,1.0481037041582795,0.7530853152275085,0.13965503871440887,-0.6429299712181091
1727297079107,7i,9.149681527957794,2.2s : 7.0s,4.710489675465057,11.800357031944403,-7.224155426025391,-15.290131568908691,-0.6460477113723755,3.964934825897217,11.03742790222168,-1.3049533367156982,-0.19934834008596955,0.7010731169859272,1.0958030824816287,0.6322636604309082,0.19803062081336975,-0.749017059803009
1727297079117,7i,9.149681527957794,2.2s : 7.0s,5.0552675921082,7.953788538348447,-0.9363577961921692,-15.116862297058105,1.5640592575073242,1.4740744829177856,5.7754974365234375,5.26625919342041,-0.22763832673586049,0.5526646991117186,1.121513017680057,0.5114142894744873,0.22567740082740784,-0.829171359539032
1727297079127,7i,9.149681527957794,2.2s : 7.0s,5.586256334649029,2.5997255358636684,-6.457732200622559,-13.577657699584961,2.272034168243408,1.5125490427017212,0.9610386490821838,1.8833940029144287,-0.24890579717874467,0.41752060709352296,1.1588966470396749,0.39299896359443665,0.24634362757205963,-0.8859270215034485
1727297079137,7i,9.149681527957794,2.2s : 7.0s,5.289835215910432,6.450032815044145,-5.182094573974609,-13.083900451660156,0.4626879096031189,2.7037482261657715,0.26908567547798157,5.849808692932129,-0.3017732866921694,0.2948540548715857,1.1921508279306,0.2774682641029358,0.2972138226032257,-0.9136056900024414
1727297079147,7i,9.149681527957794,2.2s : 7.0s,5.352583217226012,5.52710595669766,-5.017102241516113,-12.514360427856445,-0.9614416360855103,1.347011685371399,0.38324862718582153,5.34673547744751,-0.35206810173400394,0.1707388465426253,1.2003187332007252,0.15948845446109772,0.34483978152275085,-0.9250129461288452
1727297079157,7i,9.149681527957794,2.2s : 7.0s,5.239453826412952,6.025058409316049,-2.7126193046569824,-12.738829612731934,-2.0956060886383057,0.9616023898124695,1.7793865203857422,5.675423622131348,-0.3919822098794131,0.04134605115054298,1.1881459552563534,0.03819921612739563,0.38202103972435,-0.9233638048171997
1727297079167,7i,9.149681527957794,2.2s : 7.0s,5.214040321258601,5.325611387369922,-2.2776691913604736,-12.510473251342773,-2.3316731452941895,0.5849512219429016,1.7675827741622925,4.989551067352295,-0.4150541191396705,-0.09286669165237826,1.1586226039061074,-0.084859699010849,0.4032394587993622,-0.9111513495445251
1727297079177,7i,9.149681527957794,2.2s : 7.0s,5.251301447187445,4.028600451398749,-3.3658556938171387,-11.81214714050293,-3.272081136703491,0.424687922000885,0.5208052396774292,3.972156047821045,-0.43622792948291406,-0.2258485681654362,1.119632977890566,-0.20296251773834229,0.4225236475467682,-0.8833345770835876
1727297079187,7i,9.149681527957794,2.2s : 7.0s,5.217493882655381,3.185554858779132,-3.4657576084136963,-11.103962898254395,-4.390939712524414,0.15897983312606812,-0.08094984292984009,3.1805553436279297,-0.4589027531151622,-0.36232560568575345,1.0654780225787825,-0.3177781105041504,0.442964643239975,-0.8383312821388245
1727297079197,7i,9.149681527957794,2.2s : 7.0s,5.029880327998705,1.805595298286931,-2.807924270629883,-10.643264770507812,-4.4092583656311035,0.16222313046455383,0.0247153639793396,1.7981232404708862,-0.4688861797560475,-0.49793275861615416,1.0061300597018126,-0.4260628819465637,0.4518929719924927,-0.7837494015693665
1727297079207,7i,9.149681527957794,2.2s : 7.0s,4.640322367345066,1.0414365298722157,-2.0155224800109863,-9.998156547546387,-4.603434085845947,0.5598726272583008,0.1722809076309204,0.8610760569572449,-0.46521444409069684,-0.6268533015087118,0.9492475611844957,-0.5242586135864258,0.4486144781112671,-0.7238079309463501
1727297079217,7i,9.149681527957794,2.2s : 7.0s,4.145653494211442,0.8971749475752999,-1.2233015298843384,-9.049405097961426,-4.934601783752441,0.7540310025215149,0.29383039474487305,0.3873291015625,-0.4477411853039528,-0.7453997103389088,0.8969366919217692,-0.6114071011543274,0.43293046951293945,-0.6623839735984802
1727297079227,7i,9.149681527957794,2.2s : 7.0s,3.5711756592186643,1.2571035907994683,-0.36979490518569946,-8.165321350097656,-5.602586269378662,0.9751465916633606,0.43584543466567993,0.6629006862640381,-0.4156667264671505,-0.8508814770165846,0.8501257173440555,-0.6878388524055481,0.40379998087882996,-0.6031777262687683
1727297079237,7i,9.149681527957794,2.2s : 7.0s,2.848661700526178,1.7392325193655598,0.9783057570457458,-7.573098182678223,-5.7762579917907715,1.5855274200439453,0.5106656551361084,0.5002530813217163,-0.369201223680025,-0.943343150315515,0.813791525785464,-0.754976212978363,0.3608705997467041,-0.5475247502326965
1727297079247,7i,9.149681527957794,2.2s : 7.0s,2.0881703370553213,2.4672804026394743,2.1855263710021973,-7.278680324554443,-5.795291900634766,2.3542590141296387,0.6425285339355469,0.3634476065635681,-0.31232302899306313,-1.0241363297163653,0.7943967444710084,-0.8129382133483887,0.3072701096534729,-0.49468839168548584
1727297079257,7i,9.149681527957794,2.2s : 7.0s,1.537389419182671,2.7706728065012234,3.0684759616851807,-7.309597492218018,-6.128016948699951,2.6373445987701416,0.757777214050293,0.3831644058227539,-0.24756687817237263,-1.0987720619030363,0.7878303345676776,-0.8634952306747437,0.2450457513332367,-0.4408273696899414
1727297079267,7i,9.149681527957794,2.2s : 7.0s,1.1802180217842033,2.727829508030118,4.074267387390137,-7.124626636505127,-6.176384449005127,2.5085833072662354,0.9006904363632202,0.5803622603416443,-0.17645676918987147,-1.169769763479962,0.7949953919229416,-0.9063645005226135,0.17554247379302979,-0.3843019902706146
1727297079277,7i,9.149681527957794,2.2s : 7.0s,0.938505649606206,2.575919007391518,4.456698417663574,-6.601547718048096,-6.314378261566162,2.2986326217651367,0.9142137169837952,0.7182340025901794,-0.10301251009758623,-1.2363293152455201,0.8121137884958222,-0.939578115940094,0.1028304174542427,-0.32652562856674194
1727297079287,7i,9.149681527957794,2.2s : 7.0s,0.7384502506685423,2.461065185232947,4.7298150062561035,-5.851750373840332,-6.209038257598877,2.0038042068481445,0.7981500625610352,1.185144305229187,-0.02918566577545591,-1.2969049556201242,0.8375119504805892,-0.9623156785964966,0.029181523248553276,-0.2703646123409271
1727297079297,7i,9.149681527957794,2.2s : 7.0s,0.5872145795735635,2.2140984962587784,5.2736406326293945,-5.3760199546813965,-5.611059188842773,1.743794322013855,0.5233086943626404,1.2599847316741943,0.04045529287436663,-1.353062164513812,0.8712528271772333,-0.9755905270576477,-0.040444258600473404,-0.21584109961986542
1727297079307,7i,9.149681527957794,2.2s : 7.0s,0.5093411570502192,1.966501106473626,5.870361804962158,-5.108132362365723,-4.748924255371094,1.622096061706543,0.3897116184234619,1.0411800146102905,0.10183203839593565,-1.4087796257109482,0.9161781277445007,-0.9817913770675659,-0.10165613144636154,-0.16047316789627075
1727297079317,7i,9.149681527957794,2.2s : 7.0s,0.47713435062914644,1.882861535936436,5.657510280609131,-4.541538715362549,-4.070409774780273,1.699059009552002,0.21388185024261475,0.7827008366584778,0.1531547568394768,-1.4639511774495344,0.96872689626512,-0.9826590418815613,-0.15255671739578247,-0.10539370775222778
1727297079327,7i,9.149681527957794,2.2s : 7.0s,0.49998661760742336,1.9611058428435189,5.350409507751465,-4.0609941482543945,-3.4680733680725098,1.6244609355926514,0.12060433626174927,1.0920244455337524,0.19523702330138504,-1.515785458651732,1.0207833637469643,-0.9795178174972534,-0.19399906694889069,-0.053938549011945724
1727297079337,7i,9.149681527957794,2.2s : 7.0s,0.5571229769401321,1.9385166344273277,5.387744903564453,-3.7162041664123535,-2.7071115970611572,1.5108349323272705,0.16495420038700104,1.2033348083496094,0.22773921863634342,-1.5660073012716123,1.0746058464255335,-0.9741681814193726,-0.22577568888664246,-0.004665351938456297
1727297079347,7i,9.149681527957794,2.2s : 7.0s,0.6740554486810971,1.8900470170143144,5.592036724090576,-3.2015066146850586,-2.116898775100708,1.5534706115722656,0.24336011707782745,1.0487052202224731,0.25044062638378617,-1.6143601146071704,1.1318411190148552,-0.9678840637207031,-0.24783086776733398,0.042191389948129654
1727297079357,7i,9.149681527957794,2.2s : 7.0s,0.7320163666613363,1.6505124428435598,5.397891044616699,-2.647157669067383,-1.8949905633926392,1.2356212139129639,0.30223894119262695,1.0517048835754395,0.2667401432248078,-1.6582632787626403,1.1897354436519427,-0.9609475135803223,-0.2635882794857025,0.08426614850759506
1727297079367,7i,9.149681527957794,2.2s : 7.0s,0.7477867820117042,1.3338518496064147,5.51303243637085,-2.2277395725250244,-1.6449835300445557,0.7919021844863892,0.33970895409584045,1.0181598663330078,0.27849069203154736,-1.6980999052443428,1.2478998123278877,-0.9536911249160767,-0.2749048173427582,0.12206842750310898
1727297079377,7i,9.149681527957794,2.2s : 7.0s,0.8020191915503316,1.1081862609490698,5.467657566070557,-1.786791443824768,-1.5372405052185059,0.7073374390602112,0.3242676854133606,0.7890506982803345,0.2858629268518217,-1.7344771103638519,1.3070795576783771,-0.9465951323509216,-0.28198546171188354,0.15633811056613922
1727297079387,7i,9.149681527957794,2.2s : 7.0s,0.862526218672351,1.1637502799749642,5.043051242828369,-1.3261678218841553,-1.7079689502716064,0.6974650621414185,0.34863245487213135,0.8638938665390015,0.29214730517293663,-1.7650207411781091,1.363709533915687,-0.9396219849586487,-0.2880091965198517,0.18482749164104462
1727297079397,7i,9.149681527957794,2.2s : 7.0s,0.9379041131324872,1.4021492582328936,4.877579689025879,-0.9746091961860657,-1.6386778354644775,0.654426634311676,0.45298317074775696,1.1543632745742798,0.2985067547799979,-1.792076274024097,1.4177882935184896,-0.9324724078178406,-0.2940933406352997,0.2097724974155426
1727297079407,7i,9.149681527957794,2.2s : 7.0s,1.0478806863288372,1.4177504351961385,4.81563663482666,-0.6548427939414978,-1.4150007963180542,0.7193189263343811,0.4943755269050598,1.1172239780426025,0.3021278122476483,-1.8156554234685625,1.4708407393217577,-0.9262281060218811,-0.29755231738090515,0.23143935203552246
1727297079417,7i,9.149681527957794,2.2s : 7.0s,1.1105967260532512,1.3497879772306036,4.560876846313477,-0.42618247866630554,-1.2257940769195557,0.6516743898391724,0.4212983250617981,1.1044255495071411,0.30287610540765103,-1.83654452391857,1.5222225520096462,-0.9209767580032349,-0.29826661944389343,0.2506769895553589
1727297079427,7i,9.149681527957794,2.2s : 7.0s,1.1148760281371688,1.26040356756382,4.187097072601318,-0.25259584188461304,-1.0006434917449951,0.5534514784812927,0.3157208263874054,1.0874874591827393,0.3019310516481234,-1.8537652930291197,1.5691954167588045,-0.916793942451477,-0.2973644733428955,0.2665776014328003
1727297079437,7i,9.149681527957794,2.2s : 7.0s,1.1206544219296315,1.1816626102280932,4.036019802093506,-0.036946095526218414,-0.6916080117225647,0.49025779962539673,0.25115326046943665,1.0454165935516357,0.2981375123704639,-1.868269904540746,1.6131141503563795,-0.9139026403427124,-0.2937403917312622,0.2801753580570221
1727297079447,7i,9.149681527957794,2.2s : 7.0s,1.0920959150656482,1.0577419892380744,3.5426998138427734,0.19628053903579712,-0.476114422082901,0.40991640090942383,0.15761670470237732,0.9622596502304077,0.292395708687988,-1.878848995442535,1.6528057573236465,-0.9124797582626343,-0.28824707865715027,0.2903343439102173
1727297079457,7i,9.149681527957794,2.2s : 7.0s,1.048201062778193,1.1229309146980448,3.253343105316162,0.2176300436258316,-0.1072479635477066,0.33938395977020264,0.09994176030158997,1.0657410621643066,0.2848862335414992,-1.886512828912354,1.6873504062515727,-0.9122599959373474,-0.2810482680797577,0.2979826331138611
1727297079467,7i,9.149681527957794,2.2s : 7.0s,0.9956749324982663,0.9519126694814748,2.9427683353424072,0.22888344526290894,0.274553120136261,0.3422071933746338,-0.009646117687225342,0.888222336769104,0.2742664329765204,-1.8926595591528645,1.7177767100013026,-0.9131910800933838,-0.2708408534526825,0.3045113682746887
1727297079477,7i,9.149681527957794,2.2s : 7.0s,0.8997503377136049,0.791878369594596,2.508571147918701,0.2637580633163452,0.5154325366020203,0.23776757717132568,-0.0887584388256073,0.7501065731048584,0.261770287611662,-1.8969413099527923,1.7432376057731216,-0.9150137305259705,-0.2587909400463104,0.30947890877723694
1727297079487,7i,9.149681527957794,2.2s : 7.0s,0.7701231452423913,0.7245180468436953,2.1096229553222656,0.32967379689216614,0.6873384714126587,0.05733847618103027,-0.09161217510700226,0.716411828994751,0.24860233624094535,-1.8991429306177212,1.7637520813715586,-0.9174765348434448,-0.24604950845241547,0.31256455183029175
1727297079497,7i,9.149681527957794,2.2s : 7.0s,0.6598871104834922,0.6573640051207168,1.9189972877502441,0.3997737765312195,0.7193006873130798,-0.07457095384597778,-0.06683787703514099,0.6496917009353638,0.23544103138038666,-1.8995559705391758,1.7808884863921657,-0.9203325510025024,-0.23327186703681946,0.31396186351776123
1727297079507,7i,9.149681527957794,2.2s : 7.0s,0.5704011453115505,0.5535614263757446,1.7632266283035278,0.4532441198825836,0.7057068347930908,-0.17457550764083862,-0.015408232808113098,0.5250868797302246,0.2227261758075759,-1.8987791737958888,1.7964398310653453,-0.9233096241950989,-0.22088927030563354,0.3141769766807556
1727297079517,7i,9.149681527957794,2.2s : 7.0s,0.5111299490595376,0.46006059591659865,1.6404184103012085,0.46269354224205017,0.6728127598762512,-0.1893630027770996,0.043329983949661255,0.41703706979751587,0.2107651098143927,-1.8972112063645503,1.810608015322222,-0.9262374043464661,-0.209208145737648,0.3135536015033722
1727297079527,7i,9.149681527957794,2.2s : 7.0s,0.4795501516973947,0.4103414843525003,1.6095094680786133,0.46487516164779663,0.6499788165092468,-0.180694580078125,0.07624870538711548,0.3604382574558258,0.19931558436792446,-1.8952935421856927,1.8241524022429627,-0.9290467500686646,-0.197998508810997,0.3125201463699341
1727297079537,7i,9.149681527957794,2.2s : 7.0s,0.45723575941712075,0.367288409280345,1.5646860599517822,0.5063640475273132,0.6446080207824707,-0.2031116485595703,0.06591524183750153,0.2988337576389313,0.1881319873601746,-1.8929890139014747,1.8374309514103508,-0.9318066835403442,-0.18702417612075806,0.3110600411891937
1727297079547,7i,9.149681527957794,2.2s : 7.0s,0.4229264462610672,0.37168778197146407,1.3319456577301025,0.5929388403892517,0.5913158655166626,-0.2465224266052246,0.039540305733680725,0.2753453552722931,0.17761867413562102,-1.8896838594490644,1.8494938481421945,-0.9346452951431274,-0.17668621242046356,0.3085780143737793
1727297079557,7i,9.149681527957794,2.2s : 7.0s,0.3865899378083402,0.4589277172613942,1.0560187101364136,0.6970492601394653,0.4833228290081024,-0.2771507501602173,0.03107437491416931,0.36446741223335266,0.16880725308724576,-1.884847918112267,1.8593147319815586,-0.9375709891319275,-0.16800667345523834,0.30452367663383484
1727297079567,7i,9.149681527957794,2.2s : 7.0s,0.35894281943038175,0.4858113405112536,0.8340417742729187,0.7328641414642334,0.45842960476875305,-0.26416999101638794,0.03082229197025299,0.40654256939888,0.16152859499026392,-1.8787799150362783,1.8669404397175753,-0.9405419826507568,-0.16082708537578583,0.2991916835308075
1727297079577,7i,9.149681527957794,2.2s : 7.0s,0.3479271780886219,0.3991971754450989,0.7353706359863281,0.7163967490196228,0.5170785188674927,-0.21040380001068115,0.039713963866233826,0.3369145691394806,0.15455576442649882,-1.8723421649741785,1.8729607238820933,-0.9434964656829834,-0.15394116938114166,0.29345646500587463
1727297079587,7i,9.149681527957794,2.2s : 7.0s,0.3312961814266083,0.34435507158238804,0.6491115093231201,0.6542035341262817,0.5316636562347412,-0.18350625038146973,0.061682507395744324,0.28478261828422546,0.14749800848800443,-1.8660293006788482,1.8780585032892065,-0.946345865726471,-0.14696377515792847,0.28780338168144226
1727297079597,7i,9.149681527957794,2.2s : 7.0s,0.2963162618137262,0.3404228394706664,0.5525844693183899,0.590889036655426,0.5309699177742004,-0.2012786865234375,0.08901742100715637,0.2597123384475708,0.14073572339683438,-1.8600180649600395,1.8822874118833928,-0.9489898681640625,-0.1402716040611267,0.28238657116889954
1727297079607,7i,9.149681527957794,2.2s : 7.0s,0.25248458899979004,0.3506291051370521,0.48937174677848816,0.4953937828540802,0.5311412811279297,-0.21327853202819824,0.10388872027397156,0.25818631052970886,0.13418288594644773,-1.854724653488443,1.885730734562835,-0.9513331055641174,-0.1337805837392807,0.277610719203949
1727297079617,7i,9.149681527957794,2.2s : 7.0s,0.21060363826852802,0.34959758413531833,0.43610453605651855,0.4644273519515991,0.4873943328857422,-0.22616690397262573,0.11237432062625885,0.2417416274547577,0.12798208954705673,-1.850221622751249,1.888767686096768,-0.9533526301383972,-0.1276329904794693,0.27354755997657776
1727297079627,7i,9.149681527957794,2.2s : 7.0s,0.17365132520943166,0.3639454508164115,0.35664939880371094,0.44925549626350403,0.42330992221832275,-0.23768824338912964,0.11931810528039932,0.24844270944595337,0.12252347592112983,-1.8458980277842671,1.8913365682499201,-0.955182671546936,-0.12221714854240417,0.26960834860801697
1727297079637,7i,9.149681527957794,2.2s : 7.0s,0.1431435567977412,0.3406065769311593,0.3102898895740509,0.39562156796455383,0.41892343759536743,-0.23195326328277588,0.10860807448625565,0.22453242540359497,0.11762233738332727,-1.8418058593383682,1.8934255222572083,-0.956843912601471,-0.11735130846500397,0.2658545970916748
1727297079647,7i,9.149681527957794,2.2s : 7.0s,0.1267499374502258,0.27326408580827155,0.27718305587768555,0.366239070892334,0.45501309633255005,-0.19134896993637085,0.07028291374444962,0.18198665976524353,0.11261972362706515,-1.8382405816096152,1.8951698015994294,-0.9583396315574646,-0.11238180845975876,0.26259326934814453
1727297079657,7i,9.149681527957794,2.2s : 7.0s,0.11265361025559086,0.2417028596194282,0.06499145179986954,0.39887717366218567,0.4251004755496979,-0.13747048377990723,0.031622156500816345,0.1962706744670868,0.10783495603837596,-1.8345149889461323,1.8957000915453184,-0.959819495677948,-0.10762608796358109,0.25915828347206116
1727297079667,7i,9.149681527957794,2.2s : 7.0s,0.09687465057309463,0.29632666002371694,-0.0410432405769825,0.40762102603912354,0.39271971583366394,-0.14208412170410156,0.025250963866710663,0.25881263613700867,0.10389838047709543,-1.8304038794357267,1.8947546485790474,-0.9612788558006287,-0.1037115529179573,0.25531697273254395
1727297079677,7i,9.149681527957794,2.2s : 7.0s,0.07603395412599061,0.29363483728836653,-0.18960608541965485,0.4281907379627228,0.39947617053985596,-0.15326625108718872,0.024067677557468414,0.24930226802825928,0.10037741624432726,-1.8259195464166698,1.892556656419473,-0.9627615809440613,-0.10020893812179565,0.25109434127807617
1727297079687,7i,9.149681527957794,2.2s : 7.0s,0.07038270950330437,0.24948235681776165,-0.19847440719604492,0.4061563014984131,0.41142043471336365,-0.11591100692749023,0.027675092220306396,0.21918068826198578,0.09691844581487598,-1.8214767283797597,1.8896296740260377,-0.9641975164413452,-0.09676678478717804,0.24689897894859314
1727297079697,7i,9.149681527957794,2.2s : 7.0s,0.07350048757323162,0.1592604618128939,-0.1966317743062973,0.390699565410614,0.3819302022457123,-0.07432496547698975,0.035362400114536285,0.13634219765663147,0.09355844514638932,-1.8171713472639064,1.8866817830537674,-0.96556156873703,-0.09342201799154282,0.24282343685626984
1727297079707,7i,9.149681527957794,2.2s : 7.0s,0.08291511186787177,0.12573787276625056,-0.13714127242565155,0.36783695220947266,0.3647605776786804,-0.04793846607208252,0.05821378529071808,0.10061347484588623,0.09036483410194214,-1.8131420398847122,1.8841508994963518,-0.9668167233467102,-0.09024190157651901,0.23900127410888672
1727297079717,7i,9.149681527957794,2.2s : 7.0s,0.09572037796170224,0.11455539952823951,-0.10406961292028427,0.3844505548477173,0.3368628919124603,-0.03441387414932251,0.07706744968891144,0.07745471596717834,0.08723349771822791,-1.809173717299254,1.882115854515168,-0.9680275917053223,-0.08712290227413177,0.23522838950157166
1727297079727,7i,9.149681527957794,2.2s : 7.0s,0.09962915474522609,0.12121513152228512,-0.12125805020332336,0.3838099241256714,0.3189508616924286,-0.04297769069671631,0.08194149285554886,0.07830464839935303,0.08431482983496855,-1.8051953757036776,1.8803144202975917,-0.9691987633705139,-0.0842149630188942,0.2314334213733673
1727297079737,7i,9.149681527957794,2.2s : 7.0s,0.09898640246392992,0.09293227319182269,-0.18440479040145874,0.4028014540672302,0.301431268453598,-0.039309680461883545,0.04751935601234436,0.0695202648639679,0.08162170560676717,-1.8010623875256004,1.8781318045972717,-0.9703644514083862,-0.0815311074256897,0.22747674584388733
1727297079747,7i,9.149681527957794,2.2s : 7.0s,0.0974755752145688,0.08827257063433627,-0.25349023938179016,0.4284251034259796,0.26985520124435425,-0.03495228290557861,0.021178066730499268,0.07824240624904633,0.07933611491265789,-1.796672575273999,1.8752912698012993,-0.9715325832366943,-0.07925291359424591,0.2232559621334076
1727297079757,7i,9.149681527957794,2.2s : 7.0s,0.09928172071925759,0.1011055185574427,-0.24089936912059784,0.44631168246269226,0.23696966469287872,-0.04463070631027222,0.041142672300338745,0.0808560848236084,0.0774290270375855,-1.792034929521994,1.87230227552225,-0.9727032780647278,-0.07735168188810349,0.2187807261943817
1727297079767,7i,9.149681527957794,2.2s : 7.0s,0.10358604245250677,0.1025955105772872,-0.22984978556632996,0.4432196021080017,0.22415609657764435,-0.03635197877883911,0.07930969446897507,0.05398467183113098,0.07568922795425774,-1.7873810119151727,1.8694847695336523,-0.9738410115242004,-0.0756169781088829,0.2142801135778427
1727297079777,7i,9.149681527957794,2.2s : 7.0s,0.1139091100382977,0.11449114954838414,-0.23228923976421356,0.46839049458503723,0.17740404605865479,-0.015124619007110596,0.1026378870010376,0.04842451214790344,0.07418716410415184,-1.7826333089421882,1.866805606084493,-0.974957287311554,-0.07411912828683853,0.20967786014080048
1727297079787,7i,9.149681527957794,2.2s : 7.0s,0.12259882674451529,0.12416179052356825,-0.23933157324790955,0.483788400888443,0.1337018758058548,-0.012737452983856201,0.10494602471590042,0.06511712074279785,0.07319670732092526,-1.777644200466768,1.8641698112212415,-0.9760625958442688,-0.07313136011362076,0.20482607185840607
1727297079797,7i,9.149681527957794,2.2s : 7.0s,0.12756249035424932,0.11311230908417257,-0.22240372002124786,0.47722506523132324,0.14074860513210297,-0.01784294843673706,0.09951483458280563,0.050722986459732056,0.07234089014960536,-1.7726367195246342,1.8615843575897912,-0.9771369695663452,-0.07227781414985657,0.19994838535785675
1727297079807,7i,9.149681527957794,2.2s : 7.0s,0.13341293206268995,0.08819906872087142,-0.18988917768001556,0.460016131401062,0.13796879351139069,-0.0069991350173950195,0.08509279787540436,0.02212020754814148,0.07135929543647261,-1.7677608524697792,1.859292521413781,-0.9781692028045654,-0.071298748254776,0.19519539177417755
1727297079817,7i,9.149681527957794,2.2s : 7.0s,0.13014565340799647,0.06228733885508968,-0.18682414293289185,0.41421669721603394,0.14673271775245667,-0.00617372989654541,0.061623647809028625,0.006642565131187439,0.07034855374593749,-1.7632148216189567,1.8571868528890703,-0.979116678237915,-0.07029054313898087,0.1907602846622467
1727297079827,7i,9.149681527957794,2.2s : 7.0s,0.125385660842746,0.04217410479245782,-0.17413364350795746,0.37610873579978943,0.1703333854675293,0.006783962249755859,0.041361190378665924,-0.004678130149841309,0.06912609825262586,-1.7591158101033701,1.8550853916568701,-0.9799742698669434,-0.06907106190919876,0.1867612600326538
1727297079837,7i,9.149681527957794,2.2s : 7.0s,0.11826375352342561,0.041493293707843666,-0.21706433594226837,0.3606727719306946,0.16821324825286865,0.022549688816070557,0.034716494381427765,-0.0028231143951416016,0.06778832691634075,-1.7552919497881752,1.852884214127997,-0.9807711243629456,-0.0677364245057106,0.1830293983221054
1727297079847,7i,9.149681527957794,2.2s : 7.0s,0.11232905743657114,0.05041758194351519,-0.23264636099338531,0.35624948143959045,0.14267542958259583,0.026010513305664062,0.04106449335813522,0.013382568955421448,0.06668756390242507,-1.7514982048947514,1.8503483928375792,-0.9815312027931213,-0.06663814932107925,0.1793205887079239
1727297079857,7i,9.149681527957794,2.2s : 7.0s,0.1044558502982915,0.05703467832222843,-0.24435333907604218,0.33792346715927124,0.15663039684295654,0.02222597599029541,0.05147650092840195,0.010446548461914062,0.0656531984353712,-1.7478402841877088,1.847731792693419,-0.9822479486465454,-0.06560604274272919,0.17574109137058258
1727297079867,7i,9.149681527957794,2.2s : 7.0s,0.10316346595080733,0.0756014175018135,-0.23400071263313293,0.3212603032588959,0.16155441105365753,0.04290974140167236,0.058632299304008484,-0.020894542336463928,0.06449050193063395,-1.744363506627248,1.8450754889698828,-0.9829273819923401,-0.06444580852985382,0.17233800888061523
1727297079877,7i,9.149681527957794,2.2s : 7.0s,0.10319977302753686,0.08933840708584512,-0.219163179397583,0.31525540351867676,0.14351096749305725,0.04676008224487305,0.07410571724176407,-0.017412304878234863,0.06336003856156451,-1.7409955503919143,1.8425893477597273,-0.9835733771324158,-0.06331765651702881,0.1690388172864914
1727297079887,7i,9.149681527957794,2.2s : 7.0s,0.10200159364970914,0.08689871621633286,-0.19990132749080658,0.31680431962013245,0.14093488454818726,0.034442365169525146,0.07941576838493347,-0.00763191282749176,0.06232039267632017,-1.7376660597041236,1.8402719817506472,-0.9841951131820679,-0.06228005886077881,0.1657739281654358
1727297079897,7i,9.149681527957794,2.2s : 7.0s,0.0956247503942614,0.06952185048487261,-0.24378517270088196,0.317960649728775,0.14241720736026764,0.02787846326828003,0.06315500289201736,-0.008217334747314453,0.06125535262486404,-1.734359462547547,1.8378992116214232,-0.9848028421401978,-0.061217050999403,0.16252940893173218
1727297079907,7i,9.149681527957794,2.2s : 7.0s,0.09051657155836912,0.05893642252988783,-0.27161574363708496,0.32378730177879333,0.10282471776008606,0.028597354888916016,0.05153332278132439,9.918212890625e-05,0.060465948341008616,-1.7309434822857817,1.835111167905922,-0.9853996634483337,-0.06042911112308502,0.15917205810546875
1727297079917,7i,9.149681527957794,2.2s : 7.0s,0.08370927403848726,0.07331329252464937,-0.27349698543548584,0.2848377525806427,0.10087049007415771,0.03246486186981201,0.06544442474842072,0.006156206130981445,0.05991071171107914,-1.7277188136646116,1.8322642380373193,-0.9859407544136047,-0.05987487733364105,0.1559988558292389
1727297079927,7i,9.149681527957794,2.2s : 7.0s,0.08476688257368482,0.10551691942021724,-0.24750959873199463,0.27038177847862244,0.09989097714424133,0.05752462148666382,0.08547861874103546,-0.022762775421142578,0.05929867422724013,-1.7247614985963444,1.8295120449001911,-0.9864338636398315,-0.0592639297246933,0.1530880481004715
1727297079937,7i,9.149681527957794,2.2s : 7.0s,0.08386451232780029,0.11568422503619352,-0.2444368451833725,0.2777094542980194,0.07674571126699448,0.049540579319000244,0.10191790759563446,-0.02326609194278717,0.05878455797465248,-1.7218646693241835,1.826942307126341,-0.986903190612793,-0.058750707656145096,0.1502344310283661
1727297079947,7i,9.149681527957794,2.2s : 7.0s,0.07544277787684918,0.11182404499969376,-0.23742873966693878,0.2688436210155487,0.05395884066820145,0.016967415809631348,0.1098778247833252,-0.01198279857635498,0.05851952890614751,-1.718964614927778,1.8244733466131708,-0.9873500466346741,-0.05848613381385803,0.1473740190267563
1727297079957,7i,9.149681527957794,2.2s : 7.0s,0.06693491825400155,0.10205019677786645,-0.24891042709350586,0.26256948709487915,0.052680257707834244,0.010019540786743164,0.10084854811429977,-0.011975884437561035,0.058340047368411294,-1.7161439473303746,1.821993648980467,-0.9877721667289734,-0.05830695852637291,0.14458997547626495
1727297079967,7i,9.149681527957794,2.2s : 7.0s,0.06595523833252301,0.08762920601306814,-0.2512887418270111,0.2624759376049042,0.026897959411144257,0.027190685272216797,0.0826539620757103,-0.010385900735855103,0.058288057135042155,-1.7133603465933076,1.8194513394883522,-0.98817378282547,-0.05825505778193474,0.14184027910232544
1727297079977,7i,9.149681527957794,2.2s : 7.0s,0.06532749793894904,0.08443950768504775,-0.2570502460002899,0.2652030289173126,-0.0055329506285488605,0.02754431962966919,0.07982063293457031,-8.644163608551025e-05,0.05853742575341035,-1.710522048990319,1.8169054492614267,-0.9885579943656921,-0.058504000306129456,0.13903294503688812
1727297079987,7i,9.149681527957794,2.2s : 7.0s,0.06206912599654852,0.08369758979976478,-0.25519561767578125,0.2514097988605499,-0.009595735929906368,0.02173137664794922,0.08080048859119415,-0.0020772218704223633,0.05896871966911951,-1.707785712845705,1.8143800497474063,-0.9889097213745117,-0.05893455073237419,0.1363239586353302
1727297079997,7i,9.149681527957794,2.2s : 7.0s,0.06171793002076592,0.07662143035290811,-0.2595144510269165,0.24643021821975708,-0.03712696209549904,0.0350610613822937,0.0676211416721344,-0.008303418755531311,0.059523255895709136,-1.7051065299494708,1.8118415849465914,-0.9892387986183167,-0.05948811396956444,0.13366959989070892
1727297080007,7i,9.149681527957794,2.2s : 7.0s,0.061820171396265916,0.06638749070765654,-0.2202465534210205,0.23356977105140686,-0.06529192626476288,0.0285109281539917,0.05970003083348274,-0.005507469177246094,0.060377482911674406,-1.702565044894935,1.8094803139715598,-0.9895246624946594,-0.06034080684185028,0.1311483234167099
1727297080017,7i,9.149681527957794,2.2s : 7.0s,0.05943109724519929,0.05651373697434318,-0.17412832379341125,0.217516228556633,-0.07750944048166275,0.011045694351196289,0.05323610082268715,-0.015417933464050293,0.06134637580493657,-1.7001904983460974,1.8076704927185068,-0.9897748827934265,-0.06130790337920189,0.12879067659378052
1727297080027,7i,9.149681527957794,2.2s : 7.0s,0.06060336384463023,0.05194353264807716,-0.1362408548593521,0.21949079632759094,-0.08660140633583069,0.008054196834564209,0.04640691354870796,-0.021901115775108337,0.062331584016702815,-1.6979306607198368,1.8062197338631276,-0.9900031685829163,-0.062291231006383896,0.12654592096805573
1727297080037,7i,9.149681527957794,2.2s : 7.0s,0.06924733628673332,0.05192744077192024,-0.09980987757444382,0.229405477643013,-0.11108997464179993,0.020484745502471924,0.04746761918067932,-0.004864096641540527,0.06345554686825773,-1.6955887970567851,1.805189349301018,-0.9902265071868896,-0.06341297179460526,0.12421830743551254
1727297080047,7i,9.149681527957794,2.2s : 7.0s,0.07658288710223493,0.05415603637034428,-0.09687934070825577,0.22514192759990692,-0.10026341676712036,0.03035581111907959,0.0444987490773201,0.005591273307800293,0.06463948282586543,-1.6932531585753463,1.8043641522351692,-0.9904387593269348,-0.06459447741508484,0.12189590930938721
1727297080057,7i,9.149681527957794,2.2s : 7.0s,0.0793261980597655,0.057982244509938385,-0.12952250242233276,0.23470987379550934,-0.09478583186864853,0.034905076026916504,0.043999217450618744,0.014409899711608887,0.06571388861748328,-1.6908903290180353,1.803360423889075,-0.9906545281410217,-0.06566660106182098,0.11954694986343384
1727297080067,7i,9.149681527957794,2.2s : 7.0s,0.0795610465046499,0.06567671954903129,-0.1668935865163803,0.26481372117996216,-0.10347885638475418,0.026987195014953613,0.04567480832338333,0.03871607780456543,0.06687322786806146,-1.6882978908941526,1.8020198042234223,-0.9908848404884338,-0.06682339310646057,0.11696933209896088
1727297080077,7i,9.149681527957794,2.2s : 7.0s,0.07325000294736264,0.06282998188097746,-0.20870068669319153,0.2753787338733673,-0.09080327302217484,0.004700005054473877,0.034923724830150604,0.05201778560876846,0.06805719415629016,-1.6854472784848205,1.8002356211928372,-0.991134762763977,-0.06800466775894165,0.11413507908582687
1727297080087,7i,9.149681527957794,2.2s : 7.0s,0.06583231078828373,0.04503824234099694,-0.23484134674072266,0.2744767665863037,-0.05876394733786583,-0.0038278698921203613,0.02121070772409439,0.03954613208770752,0.0690407285608133,-1.6825355330746146,1.7981534456777213,-0.9913960695266724,-0.06898589432239532,0.1112411692738533
1727297080097,7i,9.149681527957794,2.2s : 7.0s,0.0581781893707005,0.03786583926101969,-0.2840022146701813,0.29015639424324036,-0.055971089750528336,-0.009689927101135254,0.014832012355327606,0.03346548229455948,0.06985086073683218,-1.679548579819388,1.7956188529691575,-0.9916679263114929,-0.06979407370090485,0.10827330499887466
1727297080107,7i,9.149681527957794,2.2s : 7.0s,0.058405438082643,0.0681000283031368,-0.29327213764190674,0.3382473886013031,-0.07579399645328522,-0.021405398845672607,0.018545344471931458,0.06193135678768158,0.07082000940978285,-1.6761630608651827,1.7927785229266109,-0.9919611215591431,-0.0707608237862587,0.10490822792053223
1727297080117,7i,9.149681527957794,2.2s : 7.0s,0.05973487335745603,0.08737150775435874,-0.26865893602371216,0.34005728363990784,-0.06526518613100052,-0.03489565849304199,0.007294312119483948,0.07976757735013962,0.07182432693603918,-1.672526747952314,1.7900539262940698,-0.9922648668289185,-0.07176259160041809,0.10129319131374359
1727297080127,7i,9.149681527957794,2.2s : 7.0s,0.062164472601484076,0.056507782137152136,-0.2569144070148468,0.3193495273590088,-0.029772041365504265,-0.018593549728393555,-0.012095175683498383,0.05197226256132126,0.07254781340625258,-1.669035465641506,1.7874881443273964,-0.9925605654716492,-0.07248418778181076,0.09782318770885468
1727297080137,7i,9.149681527957794,2.2s : 7.0s,0.06847208691356853,0.03808470539879754,-0.24071547389030457,0.326511025428772,-0.020648052915930748,-0.004077494144439697,-0.007520303130149841,0.03711150586605072,0.07300402359704694,-1.665625110027261,1.7850358515896687,-0.9928553104400635,-0.0729391947388649,0.09443449974060059
1727297080147,7i,9.149681527957794,2.2s : 7.0s,0.06672477741933233,0.04937830140934309,-0.25773000717163086,0.33125150203704834,-0.0092374412342906,-0.024075567722320557,-0.004702441394329071,0.04285406321287155,0.07338149014690937,-1.662134263746667,1.7825680655437048,-0.9931514859199524,-0.07331565022468567,0.09096550941467285
1727297080157,7i,9.149681527957794,2.2s : 7.0s,0.06198697001581011,0.06495275963550007,-0.29197612404823303,0.34628772735595703,-0.0012799156829714775,-0.03810238838195801,-0.022781312465667725,0.04741393029689789,0.07365968988195722,-1.6585285420169573,1.7798461586492824,-0.9934525489807129,-0.07359309494495392,0.08738210052251816
1727297080167,7i,9.149681527957794,2.2s : 7.0s,0.06049646562264968,0.07264228903065803,-0.34613510966300964,0.37490686774253845,-0.02265521138906479,-0.03371232748031616,-0.025801032781600952,0.058946482837200165,0.07404372621694147,-1.654679554237213,1.7766645973417519,-0.9937533736228943,-0.07397608458995819,0.08355531096458435
1727297080177,7i,9.149681527957794,2.2s : 7.0s,0.06098763018164363,0.08462594568790252,-0.3676092326641083,0.40599554777145386,-0.036601919680833817,-0.04543799161911011,-0.006193235516548157,0.07112371921539307,0.07462543558550963,-1.650491165744674,1.7731082137768615,-0.9940516948699951,-0.07455619424581528,0.07938893884420395
1727297080187,7i,9.149681527957794,2.2s : 7.0s,0.0608506601902872,0.07944465975404527,-0.3674909770488739,0.4066680073738098,-0.031552232801914215,-0.051890790462493896,0.007434956729412079,0.05969523638486862,0.0752548967679303,-1.6461050531023385,1.7694512118354384,-0.9943432807922363,-0.07518388330936432,0.07502461224794388
1727297080197,7i,9.149681527957794,2.2s : 7.0s,0.06059829648187243,0.0419495848131064,-0.3798632323741913,0.3833272457122803,-0.01028343103826046,-0.03066706657409668,0.009999483823776245,0.02681993693113327,0.07573031921861079,-1.6418654648287847,1.765729919716515,-0.9946165680885315,-0.07565795630216599,0.07080579549074173
1727297080207,7i,9.149681527957794,2.2s : 7.0s,0.06261370389518667,0.016394114690206837,-0.37194085121154785,0.363692045211792,-0.007925933226943016,-0.006855309009552002,0.0139702707529068,0.005157835781574249,0.07605521348150554,-1.6378427619373104,1.7619598238106389,-0.9948690533638,-0.07598191499710083,0.06680254638195038
1727297080217,7i,9.149681527957794,2.2s : 7.0s,0.06324188480027856,0.026189268550888548,-0.3553898334503174,0.3658052682876587,-0.026988307014107704,-0.01456540822982788,0.021619752049446106,0.0025125667452812195,0.07645791951407072,-1.6339090325118442,1.7583125811064784,-0.9950932860374451,-0.07638344913721085,0.0628865510225296
1727297080227,7i,9.149681527957794,2.2s : 7.0s,0.06031128412685717,0.04859932693061757,-0.3357146978378296,0.35551631450653076,-0.03529610484838486,-0.03153294324874878,0.03592377156019211,0.008777853101491928,0.0769694969153143,-1.6300078068412727,1.7548781861200968,-0.9952919483184814,-0.07689352333545685,0.059001676738262177
1727297080237,7i,9.149681527957794,2.2s : 7.0s,0.0538710236256153,0.04767456421221583,-0.3636949360370636,0.33558201789855957,-0.05199412256479263,-0.028575360774993896,0.03789345920085907,0.004516478627920151,0.07758298493254603,-1.6262895503984858,1.7514335514585273,-0.995457112789154,-0.07750517874956131,0.05529789999127388
1727297080247,7i,9.149681527957794,2.2s : 7.0s,0.049224309068309595,0.047072989774091155,-0.4016834497451782,0.3393925428390503,-0.0918823853135109,-0.0201951265335083,0.041310518980026245,0.010072946548461914,0.07850040817355965,-1.6226125996402618,1.7476197479687234,-0.9955824017524719,-0.07841981202363968,0.05163358896970749
1727297080257,7i,9.149681527957794,2.2s : 7.0s,0.04287794633061807,0.05467121517288165,-0.44153261184692383,0.3329727053642273,-0.11583645641803741,-0.022458791732788086,0.03848402947187424,0.031678445637226105,0.0797519362899804,-1.6188943526027335,1.743429260680308,-0.9956687092781067,-0.07966741919517517,0.04792666435241699
1727297080267,7i,9.149681527957794,2.2s : 7.0s,0.03385869927631943,0.02798404025351876,-0.49661076068878174,0.3013375401496887,-0.10720507800579071,-0.012072324752807617,0.014133378863334656,0.020919203758239746,0.08110143774082507,-1.6153304510617548,1.7388189412114974,-0.9957249164581299,-0.08101256191730499,0.044373076409101486
1727297080277,7i,9.149681527957794,2.2s : 7.0s,0.029545197953027524,0.013961356300620056,-0.5360516309738159,0.28978610038757324,-0.09633618593215942,0.005795538425445557,0.011503197252750397,0.005385875701904297,0.08230522318750753,-1.6119632779768147,1.7336679128122945,-0.9957704544067383,-0.08221232891082764,0.04101600870490074
1727297080287,7i,9.149681527957794,2.2s : 7.0s,0.029980461415512385,0.02548530205028105,-0.5755159854888916,0.30041661858558655,-0.12038260698318481,0.005960702896118164,0.02217293530702591,0.011060360819101334,0.08359526114378062,-1.608536880660952,1.7281173199856004,-0.9957984089851379,-0.08349793404340744,0.0375998355448246
1727297080297,7i,9.149681527957794,2.2s : 7.0s,0.030712034629491576,0.02225340881445041,-0.6075279712677002,0.26789090037345886,-0.13846945762634277,-0.002850353717803955,0.01895473152399063,0.01130521297454834,0.08511266802580643,-1.6051697116356252,1.7222953628396156,-0.9957915544509888,-0.08500993996858597,0.034242212772369385
1727297080307,7i,9.149681527957794,2.2s : 7.0s,0.02723945443448501,0.028221396365263482,-0.5319691896438599,0.22694094479084015,-0.06455691903829575,0.019160687923431396,0.018749140202999115,-0.008819580078125,0.08633061200049455,-1.602214210063621,1.7165973879483685,-0.9957842230796814,-0.08622341603040695,0.03129573166370392
1727297080317,7i,9.149681527957794,2.2s : 7.0s,0.03399207433433888,0.036663146306636404,-0.6339919567108154,0.2589670419692993,-0.10460899770259857,0.033083558082580566,0.011341385543346405,-0.011001702398061752,0.08725765343937694,-1.5992900002692225,1.710826775600268,-0.9957911372184753,-0.08714696764945984,0.028381429612636566
1727297080327,7i,9.149681527957794,2.2s : 7.0s,0.04800130329347805,0.047940030604433526,-0.7173219919204712,0.2549212574958801,-0.13862170279026031,0.0014724135398864746,-0.0075854286551475525,0.04731320962309837,0.08869159256264818,-1.5961103461882755,1.704074082136075,-0.9957502484321594,-0.08857536315917969,0.025211825966835022
1727297080337,7i,9.149681527957794,2.2s : 7.0s,0.06527594267100827,0.03201938228761002,-0.8084763884544373,0.24951185286045074,-0.16354967653751373,0.004330635070800781,-0.012371256947517395,0.029213668778538704,0.0903363135940014,-1.5929135956762335,1.696449255832417,-0.9956789612770081,-0.09021349996328354,0.02202529087662697
1727297080347,7i,9.149681527957794,2.2s : 7.0s,0.07393715577261528,0.06414169585286385,-0.9067034721374512,0.2300020158290863,-0.2220112383365631,0.056021034717559814,-0.00367804616689682,0.031020522117614746,0.0924618532097044,-1.5897080945429585,1.6879079257278073,-0.9955503940582275,-0.09233016520738602,0.018829863518476486
1727297080357,7i,9.149681527957794,2.2s : 7.0s,0.07973132490034768,0.07689033539819652,-0.9141278266906738,0.23887008428573608,-0.2538471817970276,0.05921304225921631,0.026440352201461792,0.041314005851745605,0.09498819015061995,-1.5864381737054438,1.6787330094803472,-0.9953702688217163,-0.09484541416168213,0.015570699237287045
1727297080367,7i,9.149681527957794,2.2s : 7.0s,0.0796166522791714,0.08048306534848783,-0.815213680267334,0.1522430032491684,-0.26005932688713074,0.05515950918197632,0.058098383247852325,-0.007715582847595215,0.0977129410575834,-1.5837313921332976,1.6699711838778355,-0.995146632194519,-0.09755752235651016,0.01287300419062376
1727297080377,7i,9.149681527957794,2.2s : 7.0s,0.08716201758797336,0.09587636636208996,-0.8304389715194702,0.1947193592786789,-0.31853753328323364,0.047504425048828125,0.07916169613599777,-0.025865674018859863,0.1005866143896224,-1.581150568320621,1.6619227646003982,-0.9948920011520386,-0.10041708499193192,0.010301720350980759
1727297080387,7i,9.149681527957794,2.2s : 7.0s,0.089210627870413,0.10280461182183516,-0.6932522058486938,0.12046816200017929,-0.29336118698120117,0.009603917598724365,0.10030125826597214,0.0204012393951416,0.10392135069714266,-1.5786969887658062,1.6540159752597885,-0.9945740103721619,-0.10373439639806747,0.007857955992221832
1727297080397,7i,9.149681527957794,2.2s : 7.0s,0.09131525973607343,0.07164495468889592,-0.6778995990753174,0.14661215245723724,-0.20278120040893555,0.01495516300201416,0.06694083660840988,-0.020694613456726074,0.10627950682278331,-1.5766773023375342,1.6473783777907731,-0.9943405389785767,-0.10607954114675522,0.005847759544849396
1727297080407,7i,9.149681527957794,2.2s : 7.0s,0.07160071851880251,0.08499489453598591,-0.6034038066864014,0.1037597581744194,-0.12351041287183762,0.07270771265029907,-0.017100371420383453,0.04056227207183838,0.10809467584736379,-1.5747977873577375,1.6409316056636085,-0.9941555857658386,-0.10788429528474808,0.003978095483034849
1727297080417,7i,9.149681527957794,2.2s : 7.0s,0.09676649421405095,0.14341825670266697,-0.8887338042259216,0.21396960318088531,-0.07744385302066803,0.026192307472229004,-0.1199309304356575,0.0741574764251709,0.1089219210692818,-1.5724390238753778,1.6336505419442633,-0.9940725564956665,-0.10870667546987534,0.001632961560972035
1727297080427,7i,9.149681527957794,2.2s : 7.0s,0.11195267606450093,0.20874840149702648,-0.9397426843643188,0.14663061499595642,-0.039079293608665466,0.025919675827026367,-0.15068286657333374,0.1421222686767578,0.10974535121416643,-1.5693974003324702,1.624150657714991,-0.9939830899238586,-0.10952518880367279,-0.0013905101222917438
1727297080437,7i,9.149681527957794,2.2s : 7.0s,0.1283640415465364,0.1523415965540171,-1.0222030878067017,0.26748940348625183,0.112832210958004,0.008240818977355957,-0.14482221007347107,0.04654651880264282,0.10905584102143397,-1.5664910588232912,1.6145526312533673,-0.9940500855445862,-0.10883980244398117,-0.00427967868745327
1727297080447,7i,9.149681527957794,2.2s : 7.0s,0.10138041291134006,0.1743281927569534,-1.1338729858398438,0.4214022755622864,-0.0910717248916626,0.1154625415802002,-0.08505035936832428,0.09912192821502686,0.10892089864136104,-1.561723659625371,1.6034733554822738,-0.9940330982208252,-0.10870565474033356,-0.009018778800964355
