timestamp,club,max_speed,tempo,speed,acc,rotation.x,rotation.y,rotation.z,userAcceleration.x,userAcceleration.y,userAcceleration.z,pitch,roll,yaw,gravity.x,gravity.y,gravity.z
1727297199673,7i,7.629987410421972,1.7s : 8.1s,0.014616989571347086,0.05792836525464404,-0.39625391364097595,-0.014670262113213539,0.04319291189312935,-0.01098775863647461,0.05552077293395996,-0.012345381081104279,-0.19606879256222595,1.4752420693899995,0.1782741820326454,0.9763658046722412,0.19481496512889862,-0.09358090162277222
1727297199683,7i,7.629987410421972,1.7s : 8.1s,0.05836897542314358,0.044542560720454163,-0.45042768120765686,-0.02160531096160412,0.047400038689374924,0.0009140968322753906,0.043504610657691956,-0.009515933692455292,-0.1962630508054217,1.4758098888456384,0.1825693458444026,0.9763808846473694,0.19500549137592316,-0.09302287548780441
1727297199693,7i,7.629987410421972,1.7s : 8.1s,0.08947473667659664,0.024010749981821945,-0.5287262201309204,-0.02678862027823925,0.03666936606168747,0.006681561470031738,0.02277262508869171,-0.003644227981567383,-0.1966627980646485,1.476321076325163,0.18754627186022635,0.9763507843017578,0.19539755582809448,-0.09251639991998672
1727297199703,7i,7.629987410421972,1.7s : 8.1s,0.1140523315787177,0.008760853087798394,-0.554385781288147,-0.044742852449417114,0.02691527083516121,-0.005107760429382324,0.00047485530376434326,-0.007101960480213165,-0.19680761720347273,1.4770622930778383,0.19314976482297533,0.9763909578323364,0.19553957879543304,-0.09179004281759262
1727297199713,7i,7.629987410421972,1.7s : 8.1s,0.1305884686987179,0.028057527884928036,-0.5218190550804138,-0.054252203553915024,0.020413430407643318,-0.02281630039215088,0.0034088045358657837,-0.01596938818693161,-0.19702108572507152,1.4776074421285068,0.19863223897399365,0.9763991236686707,0.1957489252090454,-0.0912538543343544
1727297199723,7i,7.629987410421972,1.7s : 8.1s,0.14286175013119937,0.040873209304771126,-0.5350610613822937,-0.06949693709611893,0.19544443488121033,-0.02178776264190674,0.015497446060180664,-0.030915074050426483,-0.19703290362983794,1.4780678648700962,0.20397693214443835,0.9764387011528015,0.19576050341129303,-0.0908040702342987
1727297199733,7i,7.629987410421972,1.7s : 8.1s,0.12311906818737059,0.041841933448176334,-0.5152628421783447,0.16936516761779785,0.05561888962984085,-0.016331374645233154,0.018985897302627563,-0.0335196852684021,-0.19778577007980214,1.4785805327880246,0.20904600031732212,0.976338267326355,0.19649875164031982,-0.0902898833155632
1727297199743,7i,7.629987410421972,1.7s : 8.1s,0.07550715779376763,0.0429495476769585,-0.45079413056373596,0.20894072949886322,-0.030502017587423325,0.01978933811187744,0.031172707676887512,-0.021938733756542206,-0.19841331644280485,1.4787256615462079,0.21393091007480405,0.9762281775474548,0.1971140205860138,-0.09013681858778
1727297199753,7i,7.629987410421972,1.7s : 8.1s,0.07845276237898328,0.07948422639488363,-0.39514845609664917,0.030727047473192215,-0.03220830485224724,-0.06711739301681519,0.03647187352180481,-0.021972715854644775,-0.19822213206127975,1.4789046654715077,0.21844865984015685,0.9762819409370422,0.19692659378051758,-0.08996553719043732
1727297199763,7i,7.629987410421972,1.7s : 8.1s,0.08897453409599866,0.05689895664175243,-0.4022044837474823,-0.06021688133478165,0.06587931513786316,-0.0030469894409179688,0.05512121319770813,-0.013778932392597198,-0.19820342115575207,1.4792178043547866,0.22255528401787097,0.9763138890266418,0.19690825045108795,-0.0896601676940918
1727297199773,7i,7.629987410421972,1.7s : 8.1s,0.09584686313238454,0.055951776292790745,-0.4029048979282379,-0.07640916854143143,0.028793465346097946,0.025802433490753174,0.04871222376823425,-0.009589314460754395,-0.19804808558908954,1.4792742423904617,0.22667431336010255,0.9763491749763489,0.19675594568252563,-0.0896078497171402
1727297199783,7i,7.629987410421972,1.7s : 8.1s,0.11083769525664135,0.034676253926383634,-0.44990304112434387,-0.07239881157875061,0.043176598846912384,0.003649294376373291,0.0344039648771286,-0.002343595027923584,-0.19802794886746788,1.4793706897792844,0.23099813495077184,0.9763618111610413,0.1967362016439438,-0.08951404690742493
1727297199793,7i,7.629987410421972,1.7s : 8.1s,0.11909973869603631,0.024067024660581582,-0.45570608973503113,-0.0861244648694992,0.049558866769075394,0.009688973426818848,0.02180074155330658,0.003173820674419403,-0.1979184611665597,1.4795040888204398,0.23569361472072,0.9763952493667603,0.1966288536787033,-0.08938576281070709
1727297199803,7i,7.629987410421972,1.7s : 8.1s,0.12722481851260486,0.017331112645815962,-0.43541771173477173,-0.08652248233556747,0.0724823847413063,-0.009158968925476074,0.006071075797080994,0.013402342796325684,-0.1976672635020093,1.4795034512540568,0.24023747404224924,0.9764442443847656,0.1963825523853302,-0.08939088135957718
1727297199813,7i,7.629987410421972,1.7s : 8.1s,0.12298530872959648,0.01099395938105531,-0.399308979511261,-0.07771727442741394,0.07222752273082733,0.005724191665649414,-0.007516041398048401,0.005622267723083496,-0.19723849701962173,1.4795249886951882,0.2445930754729615,0.9765299558639526,0.1959621161222458,-0.0893775150179863
1727297199823,7i,7.629987410421972,1.7s : 8.1s,0.109323918484882,0.010780499205514627,-0.30370455980300903,-0.06710923463106155,0.06980374455451965,0.003953039646148682,-0.008667156100273132,-0.0050470829010009766,-0.19682518763748766,1.4794892259110994,0.24821899427315655,0.9766073822975159,0.19555680453777313,-0.08941982686519623
1727297199833,7i,7.629987410421972,1.7s : 8.1s,0.0982663249164315,0.021168903810396506,-0.23582512140274048,-0.06499255448579788,0.08278000354766846,-0.012982487678527832,0.01424609124660492,-0.008753649890422821,-0.1962239693776017,1.4793582309976665,0.25101469891462674,0.9767124056816101,0.19496716558933258,-0.08955845981836319
1727297199843,7i,7.629987410421972,1.7s : 8.1s,0.08976952124585943,0.039642607133405346,-0.20459462702274323,-0.07422835379838943,0.07485306262969971,-0.012136399745941162,0.032728031277656555,-0.01879148930311203,-0.19558252196978515,1.4790861857783704,0.2533040830731346,0.9768123626708984,0.19433797895908356,-0.08983560651540756
1727297199853,7i,7.629987410421972,1.7s : 8.1s,0.08011215119222509,0.03850941350035484,-0.18995362520217896,-0.08062313497066498,0.09789739549160004,0.007381916046142578,0.03557552397251129,-0.012761831283569336,-0.19485750495084475,1.4786907725346772,0.2553685460251246,0.9769169092178345,0.19362673163414001,-0.09023478627204895
1727297199863,7i,7.629987410421972,1.7s : 8.1s,0.07750883471454106,0.026004472623510494,-0.2123824954032898,-0.09387271851301193,0.0992894321680069,0.01442939043045044,0.02086356282234192,0.005721628665924072,-0.19398917091796308,1.47821724709692,0.25748267530315827,0.9770410656929016,0.19277475774288177,-0.09071287512779236
1727297199873,7i,7.629987410421972,1.7s : 8.1s,0.08063282755992754,0.02556451753419142,-0.21875570714473724,-0.11400142312049866,0.39069226384162903,0.012171328067779541,0.005176961421966553,0.0218769833445549,-0.19269925804961108,1.4776823957308627,0.2597964501916035,0.9772393107414246,0.19150888919830322,-0.09125848859548569
1727297199883,7i,7.629987410421972,1.7s : 8.1s,0.0811116949541239,0.038675468637231564,-0.1903192698955536,-0.0227698665112257,0.7386766076087952,-0.029421329498291016,0.014404326677322388,0.020559489727020264,-0.19194175625982837,1.477077049015582,0.26155141733578663,0.9773279428482056,0.1907653510570526,-0.09186358004808426
1727297199893,7i,7.629987410421972,1.7s : 8.1s,0.09289775055526044,0.10850084980490061,-0.12322386354207993,-0.07082847505807877,0.5597284436225891,-0.10676538944244385,0.01881609857082367,0.004420459270477295,-0.19200190800835543,1.4765090302539874,0.26285588389288894,0.9772642254829407,0.19082440435886383,-0.0924176275730133
1727297199903,7i,7.629987410421972,1.7s : 8.1s,0.05870050988483976,0.06462602460993762,-0.03100844845175743,-0.043272919952869415,0.09340857714414597,0.014958083629608154,0.05750751495361328,0.02540992945432663,-0.19067025624386355,1.475884528003788,0.2637797733975423,0.9774585366249084,0.1895170509815216,-0.09305192530155182
1727297199913,7i,7.629987410421972,1.7s : 8.1s,0.025277895540849638,0.07697765385668663,0.04552467539906502,-0.051999565213918686,0.1375957429409027,0.03999096155166626,0.056843265891075134,0.0330926775932312,-0.18938882846953092,1.4753383990719726,0.2638851047049911,0.9776483178138733,0.18825869262218475,-0.0936087816953659
1727297199923,7i,7.629987410421972,1.7s : 8.1s,0.014086982999189777,0.052530544079429274,0.14727367460727692,-0.04805276170372963,0.1181165874004364,-0.025921285152435303,0.038762107491493225,0.024187684059143066,-0.1880057540723488,1.474639638084429,0.26301695956834265,0.9778409600257874,0.18690016865730286,-0.09431681782007217
1727297199933,7i,7.629987410421972,1.7s : 8.1s,0.004542735134627998,0.04455929250363419,0.18043269217014313,-0.037927690893411636,0.10595978796482086,-0.007155239582061768,0.043545350432395935,0.006175398826599121,-0.1866316596250963,1.4739073445673452,0.2614619068847403,0.9780263304710388,0.18555010855197906,-0.09505761414766312
1727297199943,7i,7.629987410421972,1.7s : 8.1s,0.014928326812639782,0.06098049062600396,0.21438759565353394,0.001853765221312642,0.01834188774228096,-0.024595201015472412,0.055745452642440796,0.002478070557117462,-0.1853344622002236,1.4731559299777257,0.2595523682293435,0.9781932830810547,0.184275284409523,-0.09581586718559265
1727297199963,7i,7.629987410421972,1.7s : 8.1s,0.03469789935722935,0.03655699955311368,0.16323161125183105,0.09348643571138382,-0.12442082911729813,-0.006192684173583984,0.035836249589920044,-0.0037186145782470703,-0.18290964218863418,1.4717360917754827,0.25590656201623496,0.9784981608390808,0.18189144134521484,-0.09724856168031693
1727297199973,7i,7.629987410421972,1.7s : 8.1s,0.05987653852083636,0.02621252914737111,0.17505550384521484,0.14347343146800995,-0.18079914152622223,-0.0004677772521972656,0.02538636326789856,0.0065123289823532104,-0.18177457111388853,1.4711723123333753,0.2544106336200064,0.9786479473114014,0.18077519536018372,-0.09782067686319351
1727297199983,7i,7.629987410421972,1.7s : 8.1s,0.08955879150775845,0.032848988055276314,0.21524259448051453,0.19035190343856812,-0.23355142772197723,0.012471020221710205,0.0284203439950943,0.010761678218841553,-0.1805360788627387,1.4706261917600303,0.2526679944716347,0.9788163304328918,0.1795569658279419,-0.09837742149829865
1727297199993,7i,7.629987410421972,1.7s : 8.1s,0.12832219906828632,0.0545105623969574,0.28952962160110474,0.24292057752609253,-0.2856212854385376,0.03584086894989014,0.039587557315826416,0.010938867926597595,-0.1792355844536844,1.4700482070878367,0.2503821721782701,0.978990912437439,0.17827746272087097,-0.0989665687084198
1727297200003,7i,7.629987410421972,1.7s : 8.1s,0.16680165959496984,0.06547080625806645,0.34762874245643616,0.2912808656692505,-0.3266125023365021,0.046054959297180176,0.044507354497909546,0.013581700623035431,-0.1778180071020525,1.469463185771447,0.24741630528400646,0.9791831970214844,0.17688241600990295,-0.09956473112106323
1727297200013,7i,7.629987410421972,1.7s : 8.1s,0.1996521776749908,0.06279860500536373,0.3727961480617523,0.3370150923728943,-0.3468248248100281,0.05047518014907837,0.03621312975883484,0.009194031357765198,-0.1762457740082972,1.4688927665908,0.2440329374713366,0.9794015288352966,0.17533475160598755,-0.1001514121890068
1727297200023,7i,7.629987410421972,1.7s : 8.1s,0.21775885797011857,0.05899499280477147,0.3124907314777374,0.3574138283729553,-0.3736414611339569,0.05621117353439331,0.009881585836410522,0.014935441315174103,-0.17450495814600472,1.4683282223651009,0.24086894000749423,0.9796470999717712,0.17362064123153687,-0.1007353886961937
1727297200033,7i,7.629987410421972,1.7s : 8.1s,0.22382022370987778,0.07350755191507712,0.23691155016422272,0.35926419496536255,-0.40617674589157104,0.06694036722183228,-0.024363338947296143,0.018132157623767853,-0.17286705425470825,1.467633679674948,0.23840684856640998,0.9798583984375,0.17200738191604614,-0.10144492238759995
1727297200043,7i,7.629987410421972,1.7s : 8.1s,0.22123408706959796,0.06758569793526795,0.20700198411941528,0.3497266471385956,-0.3908991813659668,0.06028950214385986,-0.030433446168899536,-0.0026091858744621277,-0.1715166805566467,1.4668531293028673,0.23656371414574093,0.9800090193748474,0.17067697644233704,-0.10223371535539627
1727297200053,7i,7.629987410421972,1.7s : 8.1s,0.2345283169460247,0.05987021555193369,0.4015680253505707,0.33809342980384827,-0.3287564516067505,0.04615342617034912,0.028356656432151794,-0.025499098002910614,-0.17023355528079764,1.4659906949278232,0.23391438740239667,0.9801375269889832,0.1694125384092331,-0.1031017079949379
1727297200063,7i,7.629987410421972,1.7s : 8.1s,0.25507332422428286,0.11379856444234394,0.6207572221755981,0.32316461205482483,-0.23173226416110992,0.019060194492340088,0.09582068026065826,-0.05835425853729248,-0.16827807457692073,1.4648304205326999,0.22894081563644172,0.980344831943512,0.16748499870300293,-0.1042737141251564
1727297200073,7i,7.629987410421972,1.7s : 8.1s,0.2678603203813909,0.12211573640355002,0.6916782259941101,0.27497631311416626,-0.19116751849651337,0.02286386489868164,0.09484723210334778,-0.07344044744968414,-0.1659847401772544,1.4633574345744775,0.22254023143880672,0.98056960105896,0.1652236133813858,-0.10575854778289795
1727297200083,7i,7.629987410421972,1.7s : 8.1s,0.27743837592992915,0.07974067604932226,0.7552021145820618,0.23893652856349945,-0.119407057762146,0.036672890186309814,0.05366158485412598,-0.04619641602039337,-0.16349651777742655,1.4615591758618722,0.2154831800985624,0.9807834029197693,0.16276907920837402,-0.10756617784500122
1727297200093,7i,7.629987410421972,1.7s : 8.1s,0.28271753165552654,0.07025974195607787,0.7666632533073425,0.21188946068286896,-0.06612545996904373,0.054451167583465576,0.027879878878593445,-0.03455740213394165,-0.16070775493437384,1.459668674676941,0.20801276744485894,0.9810256361961365,0.16001687943935394,-0.10947007685899734
1727297200103,7i,7.629987410421972,1.7s : 8.1s,0.273980130770624,0.05456045264153782,0.7419196963310242,0.16891053318977356,-0.053493715822696686,0.04568403959274292,0.020000994205474854,-0.02213078737258911,-0.15800858510356286,1.4576896582813836,0.2006320287654584,0.9812325835227966,0.15735191106796265,-0.11145966500043869
1727297200113,7i,7.629987410421972,1.7s : 8.1s,0.25403646631378507,0.03572363858466295,0.7199848294258118,0.11976455897092819,-0.014765230938792229,0.028143584728240967,0.02046974003314972,-0.008068874478340149,-0.15549487722324834,1.4555184402899894,0.19342193787408193,0.9813781380653381,0.15486901998519897,-0.11363501101732254
1727297200133,7i,7.629987410421972,1.7s : 8.1s,0.24489087185074324,0.05846250011790475,0.8293644785881042,0.02341640368103981,0.06736189872026443,0.04310464859008789,0.018344715237617493,-0.0349760577082634,-0.14997194480981763,1.45024613556959,0.1785794125475856,0.9815994501113892,0.1494103968143463,-0.11890856176614761
1727297200123,7i,7.629987410421972,1.7s : 8.1s,0.22419131462870048,0.0363209187291111,0.7388380169868469,0.06008067727088928,0.039972882717847824,0.03139007091522217,0.013814449310302734,-0.011959664523601532,-0.15281043785717507,1.4530484152985796,0.18626582876318845,0.9815036654472351,0.15221641957759857,-0.11610709130764008
1727297200143,7i,7.629987410421972,1.7s : 8.1s,0.2309101629119998,0.08046575483791386,0.9785832762718201,-0.0008081530686467886,0.11248263716697693,0.016335248947143555,0.053316980600357056,-0.058010317385196686,-0.14691798507463505,1.4472021916176978,0.16965671038054195,0.9816810488700867,0.14639002084732056,-0.1219516173005104
1727297200153,7i,7.629987410421972,1.7s : 8.1s,0.23743331654936928,0.10946880611796247,1.1225374937057495,-0.019002603366971016,0.16666226089000702,-0.006016790866851807,0.07448384165763855,-0.07999609410762787,-0.14344533802772286,1.4440155193458282,0.15924301601206436,0.9817859530448914,0.14295390248298645,-0.12514282763004303
1727297200163,7i,7.629987410421972,1.7s : 8.1s,0.2526973512564719,0.1131080378846182,1.2605093717575073,-0.048119787126779556,0.21310947835445404,0.00036579370498657227,0.07289694249629974,-0.08648312091827393,-0.13949964181010674,1.4405934930491873,0.14743534122003288,0.981903612613678,0.13904763758182526,-0.12857401371002197
1727297200173,7i,7.629987410421972,1.7s : 8.1s,0.2637940692329968,0.09694350439660687,1.307165503501892,-0.06856460869312286,0.23654477298259735,0.00965803861618042,0.05335107445716858,-0.08036434650421143,-0.1352937233932903,1.437034507779574,0.13466085316297335,0.9820107817649841,0.13488136231899261,-0.13214461505413055
1727297200183,7i,7.629987410421972,1.7s : 8.1s,0.2537873993936841,0.06533841966576122,1.2148784399032593,-0.10083919018507004,0.2622338831424713,0.004412651062011719,0.031914547085762024,-0.05684275925159454,-0.13104261527805963,1.4335150466404951,0.1222016215240309,0.9820988178253174,0.13066789507865906,-0.13567718863487244
1727297200193,7i,7.629987410421972,1.7s : 8.1s,0.23171741605895843,0.016324995459237244,1.0904324054718018,-0.1358746737241745,0.29454174637794495,0.01347362995147705,0.006389528512954712,-0.00664384663105011,-0.1268391581767367,1.4299738990609205,0.11082936160876124,0.9821473360061646,0.12649932503700256,-0.13922995328903198
1727297200203,7i,7.629987410421972,1.7s : 8.1s,0.20187333289543916,0.07212978644687136,0.943133533000946,-0.18082216382026672,0.3371424674987793,0.030788719654083252,-0.04454498738050461,0.0476498156785965,-0.1225185551704666,1.4264443319446134,0.10095613445147535,0.9821813702583313,0.12221226841211319,-0.14277289807796478
1727297200213,7i,7.629987410421972,1.7s : 8.1s,0.17530387083643276,0.10127250111291589,0.8940644860267639,-0.2048787772655487,0.3801195025444031,0.031628549098968506,-0.06991993635892868,0.06608295440673828,-0.11804546569686843,1.422872567963932,0.09214897524590544,0.982196033000946,0.11777149885892868,-0.14635920524597168
1727297200223,7i,7.629987410421972,1.7s : 8.1s,0.16865086659155476,0.057196400793762855,1.0276448726654053,-0.21248996257781982,0.3608974516391754,0.016357123851776123,-0.04600057750940323,0.029796302318572998,-0.1133973899539887,1.4192734257178201,0.08303710367916856,0.9821934103965759,0.11315451562404633,-0.14997431635856628
1727297200233,7i,7.629987410421972,1.7s : 8.1s,0.20462044783004038,0.03833051519395763,1.4160045385360718,-0.16679517924785614,0.32781726121902466,-0.0026103854179382324,0.034815870225429535,-0.015819907188415527,-0.1087547647259247,1.4157259595772849,0.0712474029498151,0.9821637868881226,0.10854050517082214,-0.15353716909885406
1727297200243,7i,7.629987410421972,1.7s : 8.1s,0.27187612623984847,0.16054024214060658,1.9386889934539795,-0.16638880968093872,0.3175409436225891,-0.043993473052978516,0.1419246792793274,-0.06078757345676422,-0.10357602370259736,1.4121467754437238,0.054854927839457356,0.9821498394012451,0.10339093208312988,-0.15713822841644287
1727297200253,7i,7.629987410421972,1.7s : 8.1s,0.36477834773984363,0.23792528997097495,2.449920654296875,-0.1577894687652588,0.307799369096756,-0.03452944755554199,0.21946504712104797,-0.08515429496765137,-0.09761497847704752,1.4082186961750904,0.033194443876704484,0.982115626335144,0.09746003150939941,-0.1610918492078781
1727297200263,7i,7.629987410421972,1.7s : 8.1s,0.4592202516727467,0.2545057485061654,2.799865484237671,-0.16061992943286896,0.28185680508613586,-0.004168987274169922,0.24287211894989014,-0.07595346868038177,-0.09103961120579349,1.4041272778710265,0.007282603243002603,0.9820590615272522,0.09091390669345856,-0.16521146893501282
1727297200273,7i,7.629987410421972,1.7s : 8.1s,0.5252536197610694,0.2259459912132272,2.9419782161712646,-0.12860606610774994,0.28490132093429565,-0.012591004371643066,0.22283636033535004,-0.03517121076583862,-0.08404052043109844,1.4001499848067982,-0.021132956974793716,0.9819973111152649,0.08394163101911545,-0.16922001540660858
1727297200283,7i,7.629987410421972,1.7s : 8.1s,0.5584251455974294,0.18118069992972577,2.8699543476104736,-0.08520479500293732,0.22759337723255157,-0.017495274543762207,0.17891812324523926,-0.022553637623786926,-0.07703270396367873,1.3968468974005104,-0.04965332171672603,0.9819883108139038,0.07695654034614563,-0.17256028950214386
1727297200293,7i,7.629987410421972,1.7s : 8.1s,0.5693938868456057,0.18230095896986928,2.793210983276367,-0.06969853490591049,0.14967647194862366,-0.031161606311798096,0.17662188410758972,0.03266961872577667,-0.07078220974593476,1.3941146492641368,-0.07751245786219875,0.9819673299789429,0.07072311639785767,-0.17532376945018768
1727297200303,7i,7.629987410421972,1.7s : 8.1s,0.5719250052367778,0.23096313454494236,2.844334125518799,-0.05168438330292702,0.11825736612081528,-0.07681357860565186,0.20959237217903137,0.059284746646881104,-0.06495895209665521,1.3917266687456546,-0.10518728637991358,0.9819346070289612,0.06491328030824661,-0.17773854732513428
1727297200313,7i,7.629987410421972,1.7s : 8.1s,0.5984296086806888,0.27328413911012395,2.9976251125335693,-0.042281296104192734,0.04317646473646164,-0.050925374031066895,0.26655492186546326,0.0322381854057312,-0.059224388259509764,1.389546508906324,-0.13392911588656956,0.9818947315216064,0.059189774096012115,-0.1799430400133133
1727297200323,7i,7.629987410421972,1.7s : 8.1s,0.644052446830773,0.3694558351231953,3.2272074222564697,-0.025203818455338478,-0.06999526172876358,-0.03204226493835449,0.36801767349243164,0.005822315812110901,-0.053929271505909135,1.3875378328053025,-0.1646754309030394,0.9818256497383118,0.05390313267707825,-0.1819695383310318
1727297200333,7i,7.629987410421972,1.7s : 8.1s,0.6792739363770647,0.4822721860937774,3.3446848392486572,0.018007833510637283,-0.1545056253671646,-0.06008875370025635,0.47789284586906433,-0.024376854300498962,-0.04904336533316996,1.3859393875406705,-0.19747930729041904,0.9817807078361511,0.04902370646595955,-0.18358491361141205
1727297200343,7i,7.629987410421972,1.7s : 8.1s,0.6786339639946336,0.5135015909115581,3.1693010330200195,0.01899857446551323,-0.22935990989208221,-0.07667547464370728,0.5075386762619019,-0.014465391635894775,-0.044798715177882975,1.384631417083868,-0.22996745730423726,0.9817354083061218,0.044783733785152435,-0.1849057525396347
1727297200353,7i,7.629987410421972,1.7s : 8.1s,0.6452813439772433,0.487540475139512,2.8985049724578857,0.04625656083226204,-0.298362672328949,-0.10548269748687744,0.4735355079174042,0.04830360412597656,-0.04170493956418172,1.3836677348312598,-0.2603151839585535,0.9816883206367493,0.04169284924864769,-0.18587665259838104
1727297200363,7i,7.629987410421972,1.7s : 8.1s,0.5997654667054655,0.44374710150249724,2.6194405555725098,0.11508640646934509,-0.3476828336715698,-0.13548719882965088,0.40874457359313965,0.10715681314468384,-0.03966066590667558,1.3833414971490705,-0.28804933516014575,0.9817092418670654,0.039650268852710724,-0.18621239066123962
1727297200373,7i,7.629987410421972,1.7s : 8.1s,0.559890667648399,0.442504066007313,2.4623818397521973,0.14457452297210693,-0.48145925998687744,-0.16452401876449585,0.3968719244003296,0.10599231719970703,-0.038928989233833616,1.383678266911322,-0.3136753177535893,0.9818001389503479,0.03891915827989578,-0.18588712811470032
1727297200383,7i,7.629987410421972,1.7s : 8.1s,0.5239685392363195,0.5502773706158706,2.45448899269104,0.11423143744468689,-0.6220622658729553,-0.21461665630340576,0.5012193918228149,0.07432359457015991,-0.03976103457521859,1.3840053086970638,-0.33881269689095017,0.9818286895751953,0.03975055739283562,-0.1855599284172058
1727297200393,7i,7.629987410421972,1.7s : 8.1s,0.4967049813208421,0.6487742505585898,2.452869176864624,0.1095714345574379,-0.7626017928123474,-0.2350037693977356,0.6043682098388672,0.020501792430877686,-0.0419301778387805,1.384070336709301,-0.3642746271780768,0.9817537665367126,0.041917894035577774,-0.18547965586185455
1727297200403,7i,7.629987410421972,1.7s : 8.1s,0.4906534640341856,0.7009349353145629,2.4919888973236084,0.11807979643344879,-0.8976320028305054,-0.2203788161277771,0.6630635857582092,-0.05558454990386963,-0.04552461207465921,1.3841244923968092,-0.3900913320694277,0.9816094040870667,0.045508887618780136,-0.18539732694625854
1727297200413,7i,7.629987410421972,1.7s : 8.1s,0.4674753924046352,0.7532479962493195,2.4256815910339355,0.06112782657146454,-0.9857515096664429,-0.2498396635055542,0.7073216438293457,-0.06825524568557739,-0.05014578577929063,1.3837933468152974,-0.4161643277818804,0.9813308715820312,0.050124771893024445,-0.1856812983751297
1727297200423,7i,7.629987410421972,1.7s : 8.1s,0.42856311754371834,0.7343872709484716,2.2527639865875244,0.062404949218034744,-1.1244109869003296,-0.2663215398788452,0.6771918535232544,-0.09903885424137115,-0.05612937607259008,1.3830243059785516,-0.44108470864490584,0.9808756113052368,0.05609990656375885,-0.18637660145759583
1727297200433,7i,7.629987410421972,1.7s : 8.1s,0.3968304400151076,0.7042452724791453,2.1781365871429443,0.06710916012525558,-1.2595642805099487,-0.2810437083244324,0.6399557590484619,-0.08621174097061157,-0.06365483127292962,1.382274888807037,-0.4650723596202829,0.9802930951118469,0.06361185014247894,-0.1870272010564804
1727297200443,7i,7.629987410421972,1.7s : 8.1s,0.3663293130636762,0.7275545798478761,2.1847989559173584,0.06093887612223625,-1.4309611320495605,-0.33567267656326294,0.6382417678833008,-0.09647262096405029,-0.07276002547823669,1.3813065968907023,-0.4890086192858989,0.9795021414756775,0.07269584387540817,-0.187859445810318
1727297200453,7i,7.629987410421972,1.7s : 8.1s,0.3561678906154947,0.8052885020190693,2.2968592643737793,0.02236166037619114,-1.6085997819900513,-0.3404647707939148,0.7144294381141663,-0.1488754153251648,-0.08344275501552491,1.379824891634794,-0.513933406011759,0.9784043431282043,0.08334595710039139,-0.18915235996246338
1727297200463,7i,7.629987410421972,1.7s : 8.1s,0.35027277526083245,0.875555023059662,2.36676025390625,-0.03058042749762535,-1.7784318923950195,-0.3382920026779175,0.7925377488136292,-0.1550452709197998,-0.09560842787933589,1.3774640380058805,-0.5402137032661014,0.9768877029418945,0.09546283632516861,-0.19125273823738098
1727297200473,7i,7.629987410421972,1.7s : 8.1s,0.34247136417939295,0.8899683706225725,2.3557474613189697,-0.09350187331438065,-1.9669396877288818,-0.31120216846466064,0.8147295117378235,-0.1772363781929016,-0.10937768148067943,1.3740776239156287,-0.5671904431912197,0.9748528599739075,0.10915972292423248,-0.19428443908691406
1727297200483,7i,7.629987410421972,1.7s : 8.1s,0.3318384783654504,0.8909069092456225,2.3444907665252686,-0.14185667037963867,-2.125227689743042,-0.2940589189529419,0.8224505186080933,-0.17555516958236694,-0.12480328472892024,1.3697436851771245,-0.5944484963784461,0.972235918045044,0.12447954714298248,-0.19814768433570862
1727297200493,7i,7.629987410421972,1.7s : 8.1s,0.3208001754614925,0.8826834979662951,2.34855580329895,-0.201457679271698,-2.2841901779174805,-0.2791343331336975,0.8232269287109375,-0.15333494544029236,-0.1416322227040648,1.3643692777120338,-0.6221256429433913,0.9689691066741943,0.14115917682647705,-0.20291182398796082
1727297200503,7i,7.629987410421972,1.7s : 8.1s,0.31112051496455406,0.874486432026426,2.3343617916107178,-0.27938026189804077,-2.4470319747924805,-0.24066179990768433,0.8271512389183044,-0.15043020248413086,-0.15985693397500533,1.3577778152668076,-0.6503048235673777,0.9649356007575989,0.15917696058750153,-0.20871569216251373
1727297200513,7i,7.629987410421972,1.7s : 8.1s,0.30410789616542994,0.8825770800174614,2.3417162895202637,-0.3449139893054962,-2.60282826423645,-0.2027776837348938,0.8455298542976379,-0.1513366401195526,-0.1794956804478557,1.3498289213804093,-0.6789919258907055,0.9600105881690979,0.1785333752632141,-0.21565237641334534
1727297200523,7i,7.629987410421972,1.7s : 8.1s,0.3003594801575013,0.8752274607302167,2.3589046001434326,-0.4207795560359955,-2.7614388465881348,-0.16217917203903198,0.84689861536026,-0.14994585514068604,-0.20036849405214993,1.3404554230747474,-0.7083928187672952,0.9541104435920715,0.19903045892715454,-0.22374173998832703
1727297200533,7i,7.629987410421972,1.7s : 8.1s,0.29879303581366806,0.8601151315068248,2.385205030441284,-0.49737581610679626,-2.916167736053467,-0.12042123079299927,0.8377946615219116,-0.15296036005020142,-0.22244606419394683,1.329470137176495,-0.7387970425944678,0.9470967650413513,0.22061607241630554,-0.23310206830501556
1727297200543,7i,7.629987410421972,1.7s : 8.1s,0.2877527892546931,0.8588488818220094,2.343698501586914,-0.5908716320991516,-3.06530499458313,-0.0876503586769104,0.8371288776397705,-0.1707455962896347,-0.24560967884074397,1.3168372630978928,-0.7699407570241161,0.9388772249221802,0.24314774572849274,-0.24369816482067108
1727297200553,7i,7.629987410421972,1.7s : 8.1s,0.265462307065226,0.8533837491421901,2.2088522911071777,-0.6945421099662781,-3.2119297981262207,-0.03455632925033569,0.8351253271102905,-0.17214927077293396,-0.2700747979221436,1.3024362110687828,-0.8011158423110389,0.9292553663253784,0.2668035328388214,-0.2555391490459442
1727297200563,7i,7.629987410421972,1.7s : 8.1s,0.23902567239368452,0.8200502439106959,2.0414085388183594,-0.7758525609970093,-3.3553407192230225,0.03310006856918335,0.8086451292037964,-0.1322113573551178,-0.29585671910451494,1.2865275241133511,-0.8317103763135502,0.9181633591651917,0.29155945777893066,-0.2682706415653229
1727297200573,7i,7.629987410421972,1.7s : 8.1s,0.21942814992978607,0.806906136255207,1.9515434503555298,-0.8583258986473083,-3.492427110671997,0.09592276811599731,0.7958047389984131,-0.09268847107887268,-0.3228901942560727,1.2691757680649476,-0.8620922592802113,0.9055116176605225,0.3173087239265442,-0.2817162275314331
1727297200583,7i,7.629987410421972,1.7s : 8.1s,0.19491943559121425,0.8354998949326159,1.7774596214294434,-0.9625868797302246,-3.650113582611084,0.1578698754310608,0.8153097033500671,-0.09169113636016846,-0.35116528078243986,1.249981477402063,-0.8925385118814462,0.8910651206970215,0.3439922034740448,-0.2960955798625946
1727297200593,7i,7.629987410421972,1.7s : 8.1s,0.18913704876147358,0.8654149862269378,1.7056398391723633,-1.0024136304855347,-3.791001796722412,0.2659279704093933,0.8142577409744263,-0.12332779169082642,-0.38075869916087446,1.2292025648029024,-0.9230178747117667,0.874742865562439,0.3716249465942383,-0.31099826097488403
1727297200603,7i,7.629987410421972,1.7s : 8.1s,0.1937687525828347,0.9178685974416797,1.670960783958435,-1.0925978422164917,-3.913248062133789,0.3460592031478882,0.8447007536888123,-0.09595012664794922,-0.41103912870108705,1.2065932917964861,-0.9546311056311503,0.8565775752067566,0.39956212043762207,-0.32653507590293884
1727297200613,7i,7.629987410421972,1.7s : 8.1s,0.20426482710798152,0.9655709442521331,1.6985423564910889,-1.1977183818817139,-4.043612480163574,0.4260563850402832,0.8621478080749512,-0.08662772178649902,-0.44190532036716773,1.1814131906230179,-0.9878328451351742,0.8362728357315063,0.42766252160072327,-0.34315118193626404
1727297200623,7i,7.629987410421972,1.7s : 8.1s,0.23012760133166404,1.0417935773248503,1.78587007522583,-1.2678821086883545,-4.111235618591309,0.5417764782905579,0.8854532241821289,-0.0882309079170227,-0.4725961206568469,1.1533695451179202,-1.0235184983211527,0.8139364719390869,0.45519936084747314,-0.36097243428230286
1727297200633,7i,7.629987410421972,1.7s : 8.1s,0.25988093719089367,1.0884689442820903,1.835476279258728,-1.3459486961364746,-4.201119422912598,0.6365848183631897,0.8783303499221802,-0.08977866172790527,-0.5027513483742716,1.1224072709804496,-1.061853337796588,0.7896389961242676,0.48183825612068176,-0.3798714280128479
1727297200643,7i,7.629987410421972,1.7s : 8.1s,0.27645125437523344,1.0986177719620345,1.807444453239441,-1.4032806158065796,-4.260267734527588,0.6936506032943726,0.8465893864631653,-0.09537431597709656,-0.5324120394864871,1.0885338768976967,-1.1025053910602083,0.7633196115493774,0.5076130032539368,-0.3995901048183441
1727297200653,7i,7.629987410421972,1.7s : 8.1s,0.2810832564725663,1.1003880956879617,1.6879726648330688,-1.4758213758468628,-4.332065105438232,0.7603511214256287,0.7909868955612183,-0.08402299880981445,-0.5616771317085086,1.0522524768884531,-1.144569219198539,0.7351018190383911,0.5326064229011536,-0.4194710850715637
1727297200663,7i,7.629987410421972,1.7s : 8.1s,0.2826159832498142,1.1071379840310496,1.59602952003479,-1.545499563217163,-4.420065879821777,0.8355666995048523,0.7257727384567261,-0.028926432132720947,-0.5909201541667307,1.0134715338272249,-1.1880802347028616,0.70476233959198,0.5571253895759583,-0.439228355884552
1727297200673,7i,7.629987410421972,1.7s : 8.1s,0.2872190852683588,1.1383798006648933,1.5849055051803589,-1.627397894859314,-4.477140426635742,0.8996419310569763,0.6974769234657288,-0.008882999420166016,-0.6194834956499687,0.9715536677224827,-1.2338802601167336,0.6723185181617737,0.5806146860122681,-0.45921075344085693
1727297200683,7i,7.629987410421972,1.7s : 8.1s,0.2911759300058141,1.215546986080873,1.4914133548736572,-1.6956703662872314,-4.51101541519165,0.989998996257782,0.7046648859977722,-0.030064284801483154,-0.6470438216475441,0.9265015061905701,-1.2819232814250647,0.6379154324531555,0.6028304100036621,-0.4792281985282898
1727297200693,7i,7.629987410421972,1.7s : 8.1s,0.2833891225675686,1.2457057089096437,1.3038687705993652,-1.7533971071243286,-4.5391035079956055,1.0558669567108154,0.6603520512580872,-0.02937433123588562,-0.6738845305007861,0.8789008108910117,-1.3313748590530465,0.6017104983329773,0.6240260601043701,-0.49853387475013733
1727297200703,7i,7.629987410421972,1.7s : 8.1s,0.2667406669578178,1.2262353038851712,1.1497085094451904,-1.7691799402236938,-4.554863452911377,1.0823252201080322,0.5753472447395325,-0.03465092182159424,-0.7001716442451718,0.8291871548226338,-1.3819009427430857,0.56389981508255,0.6443489789962769,-0.5165573954582214
1727297200713,7i,7.629987410421972,1.7s : 8.1s,0.256606262178069,1.2230114333582962,1.090868353843689,-1.7742273807525635,-4.568258762359619,1.105388879776001,0.5226547718048096,-0.026540160179138184,-0.7252459695099872,0.7771736303348635,-1.4343723500839407,0.5247838497161865,0.6633195281028748,-0.533487856388092
1727297200723,7i,7.629987410421972,1.7s : 8.1s,0.2573182217105365,1.247137294516154,1.1124826669692993,-1.8101001977920532,-4.589555263519287,1.1323384046554565,0.5224087238311768,-0.015820682048797607,-0.7484277084861252,0.7220237940584578,-1.4897718363741024,0.4842844605445862,0.6804875135421753,-0.5499140024185181
1727297200733,7i,7.629987410421972,1.7s : 8.1s,0.2630426592931285,1.2897819065574896,1.1514604091644287,-1.856975793838501,-4.568603038787842,1.1644296646118164,0.5546061992645264,-0.007272303104400635,-0.7689678906070947,0.663459820312164,-1.548277735471714,0.4425649344921112,0.6953939199447632,-0.56618332862854
1727297200743,7i,7.629987410421972,1.7s : 8.1s,0.2684961224407665,1.317311130833437,1.1392741203308105,-1.8736886978149414,-4.604809761047363,1.206271767616272,0.5293534994125366,0.001382291316986084,-0.7868093353346046,0.6016151034340623,-1.6097610392766495,0.3996394872665405,0.7081039547920227,-0.5821316838264465
1727297200753,7i,7.629987410421972,1.7s : 8.1s,0.26711093346000087,1.2788186559188996,1.1292028427124023,-1.9248759746551514,-4.566911697387695,1.19636070728302,0.45148926973342896,0.01598912477493286,-0.8020732839400282,0.537042913076743,-1.6736478764210683,0.3556717336177826,0.7187989950180054,-0.5973488688468933
1727297200763,7i,7.629987410421972,1.7s : 8.1s,0.2592751636995893,1.2787931078312642,1.0538012981414795,-1.9605696201324463,-4.523077011108398,1.2115057706832886,0.4083648920059204,0.02834951877593994,-0.8143369543938428,0.4704145087347677,-1.7389272217874385,0.3110924959182739,0.7272706627845764,-0.6117997169494629
1727297200773,7i,7.629987410421972,1.7s : 8.1s,0.24972326138800838,1.2869925069489412,0.9241623282432556,-2.002734899520874,-4.53500509262085,1.245256781578064,0.32378262281417847,0.029156029224395752,-0.8245789428244918,0.4022109674982469,-1.8051319418006477,0.26574480533599854,0.7342619895935059,-0.6246912479400635
1727297200783,7i,7.629987410421972,1.7s : 8.1s,0.23636437932841642,1.2421179724992846,0.8887895941734314,-2.0298912525177,-4.496517181396484,1.2173140048980713,0.24489247798919678,0.03211456537246704,-0.8324375889514966,0.3325017088641943,-1.8723667411479388,0.21969759464263916,0.7395742535591125,-0.6362099051475525
1727297200793,7i,7.629987410421972,1.7s : 8.1s,0.2386530019304577,1.2403773563016485,1.1432756185531616,-1.8131153583526611,-4.456648826599121,1.2205157279968262,0.21863722801208496,0.03278881311416626,-0.8356775997913363,0.26248963571139233,-1.9406263848169678,0.17403066158294678,0.7417511343955994,-0.6477026343345642
1727297200803,7i,7.629987410421972,1.7s : 8.1s,0.299918181394361,1.2632591622357283,1.6281566619873047,-2.074812889099121,-4.469880104064941,1.2331838607788086,0.2702253460884094,-0.045382142066955566,-0.8324553871681345,0.1910974197437896,-2.009889208113552,0.12783899903297424,0.7395862340927124,-0.6608098149299622
1727297200813,7i,7.629987410421972,1.7s : 8.1s,0.29731775705890606,1.321997076882741,1.4777629375457764,-2.1325690746307373,-4.323142051696777,1.2326762676239014,0.45673131942749023,-0.1399356722831726,-0.823816658033535,0.12008853185904053,-2.077774431435994,0.08139528334140778,0.7337443232536316,-0.6745325922966003
1727297200823,7i,7.629987410421972,1.7s : 8.1s,0.26483002141570355,1.2381375899428821,1.074533462524414,-2.202420473098755,-4.347439289093018,1.2309486865997314,0.1283455491065979,0.035741329193115234,-0.8145002629526514,0.05104264500392318,-2.1425856390729305,0.0350118950009346,0.7273827791213989,-0.6853383779525757
1727297200833,7i,7.629987410421972,1.7s : 8.1s,0.2290755550452716,1.1131291635702572,0.8688072562217712,-2.2336795330047607,-4.237368583679199,1.1093990802764893,-0.05822277069091797,0.07000231742858887,-0.8058443853872692,-0.01649530148866172,-2.2052023629859243,-0.011422518640756607,0.721415638923645,-0.6924082040786743
1727297200843,7i,7.629987410421972,1.7s : 8.1s,0.2228309990489776,1.0504068710973875,0.8502087593078613,-2.2355895042419434,-4.16583251953125,1.0502442121505737,0.014036238193511963,0.012028038501739502,-0.7952694649377967,-0.08168867472883973,-2.2648327831868094,-0.05712604522705078,0.7140522599220276,-0.6977578997612
1727297200853,7i,7.629987410421972,1.7s : 8.1s,0.22418829327546405,1.0592649669757943,0.924871563911438,-2.217750310897827,-4.0790324211120605,1.0545437335968018,0.09729266166687012,-0.022669851779937744,-0.7817554313132672,-0.14411614059802938,-2.321498266807883,-0.10192237794399261,0.7045263051986694,-0.70232093334198
1727297200863,7i,7.629987410421972,1.7s : 8.1s,0.23594207442295687,0.9829714166561305,0.9050144553184509,-2.2432315349578857,-4.057488441467285,0.9784350395202637,0.09392940998077393,-0.008657097816467285,-0.7656379283836168,-0.20402026983392266,-2.3752980521612144,-0.14606820046901703,0.6929970383644104,-0.7059881687164307
1727297200873,7i,7.629987410421972,1.7s : 8.1s,0.25009516672894994,0.9501089007162214,0.8944979310035706,-2.257927179336548,-4.0252156257629395,0.942545473575592,0.10545265674591064,-0.056521594524383545,-0.7476707417562072,-0.261689302151639,-2.4264874407507326,-0.18970748782157898,0.6799325942993164,-0.7083098292350769
1727297200883,7i,7.629987410421972,1.7s : 8.1s,0.2618352574771674,0.9322308148633762,0.9593631029129028,-2.2825253009796143,-4.0073161125183105,0.919859766960144,0.13930284976959229,-0.059220075607299805,-0.7271714007460351,-0.31698940419039856,-2.4749966617691883,-0.2328634411096573,0.6647591590881348,-0.7098380327224731
1727297200893,7i,7.629987410421972,1.7s : 8.1s,0.2751667928408754,0.9069206558967562,1.0232398509979248,-2.3284811973571777,-3.975036382675171,0.8911586999893188,0.14545243978500366,-0.08476340770721436,-0.7043809501792271,-0.36976757942471866,-2.520295548719698,-0.2753904163837433,0.6475622057914734,-0.7105092406272888
1727297200903,7i,7.629987410421972,1.7s : 8.1s,0.29565150217326003,0.9141749253494991,0.9172318577766418,-2.3789710998535156,-3.9193661212921143,0.8946317434310913,0.16422730684280396,-0.09153813123703003,-0.6801692791943548,-0.42056693997075323,-2.562833817474219,-0.31742241978645325,0.6289246678352356,-0.7097160220146179
1727297200913,7i,7.629987410421972,1.7s : 8.1s,0.3164214877678346,0.8968480904112682,0.8504296541213989,-2.396620512008667,-3.8718302249908447,0.8834280967712402,0.1402115821838379,-0.06505388021469116,-0.6554279435304837,-0.4691830192977124,-2.6027354059427306,-0.3584648668766022,0.6094985604286194,-0.7071170210838318
1727297200923,7i,7.629987410421972,1.7s : 8.1s,0.3334070379672735,0.8870610077555107,0.8473180532455444,-2.4250705242156982,-3.809577465057373,0.8792600631713867,0.11329221725463867,-0.030722081661224365,-0.6298506884405595,-0.5156775950148297,-2.6400694928889448,-0.39850151538848877,0.5890241265296936,-0.7030271887779236
1727297200933,7i,7.629987410421972,1.7s : 8.1s,0.3493781792567588,0.8438038425986976,0.9000529050827026,-2.431584596633911,-3.715723991394043,0.8289120197296143,0.14835304021835327,-0.05386245250701904,-0.6031117122424041,-0.5597037618935047,-2.674183649008609,-0.4372647702693939,0.567207932472229,-0.6979073882102966
1727297200943,7i,7.629987410421972,1.7s : 8.1s,0.3690754711116455,0.8033085111449688,0.9266082048416138,-2.467404842376709,-3.6720399856567383,0.7883596420288086,0.143906831741333,-0.05553793907165527,-0.5752031601370826,-0.6014156970262842,-2.7053385125375877,-0.4747611880302429,0.544005274772644,-0.6918526887893677
1727297200953,7i,7.629987410421972,1.7s : 8.1s,0.39558275230935347,0.7737674309403663,0.8771557211875916,-2.514341115951538,-3.654381275177002,0.766889750957489,0.08995187282562256,-0.05004805326461792,-0.5465150794781255,-0.6414452442210617,-2.734206416016444,-0.5111983418464661,0.5197131037712097,-0.6845251321792603
1727297200963,7i,7.629987410421972,1.7s : 8.1s,0.4244926125586863,0.8145869600212887,0.7265332937240601,-2.566776990890503,-3.6197257041931152,0.8005714416503906,0.09016671776771545,-0.12044602632522583,-0.5178088000337686,-0.6810365813549566,-2.76190452278055,-0.5470619797706604,0.4949773848056793,-0.6750707626342773
1727297200973,7i,7.629987410421972,1.7s : 8.1s,0.44072722471387304,0.879119989160866,0.6739577054977417,-2.605257511138916,-3.535304546356201,0.8531696200370789,0.10605806112289429,-0.1835898756980896,-0.4895062262557345,-0.7195552881959304,-2.788043992729917,-0.5816548466682434,0.470190167427063,-0.6637763381004333
1727297200983,7i,7.629987410421972,1.7s : 8.1s,0.46450441411901944,0.8809595776520016,0.4649399220943451,-2.5955629348754883,-3.4606266021728516,0.8668266534805298,0.06542134284973145,-0.1429033875465393,-0.4618223983978765,-0.7568992460244416,-2.812880546319272,-0.6147363781929016,0.4455803334712982,-0.6508129239082336
1727297200993,7i,7.629987410421972,1.7s : 8.1s,0.4908812839849142,0.8385815002682029,0.46526697278022766,-2.6414859294891357,-3.4015841484069824,0.832893431186676,0.01934334635734558,-0.09556829929351807,-0.4344745318332109,-0.7932807306307352,-2.836440339298752,-0.6464464068412781,0.4209338128566742,-0.6363345980644226
1727297201003,7i,7.629987410421972,1.7s : 8.1s,0.4971432561406236,0.8763528881064732,0.5097440481185913,-2.6525847911834717,-3.315369129180908,0.8655686378479004,0.06778132915496826,-0.11912602186203003,-0.40680148061373106,-0.828586468347675,-2.8579743218005826,-0.6768327951431274,0.39567387104034424,-0.6207572221755981
1727297201013,7i,7.629987410421972,1.7s : 8.1s,0.48030984973727,0.9525137415478853,0.5580984950065613,-2.6361396312713623,-3.1985533237457275,0.929868757724762,0.13540980219841003,-0.15585476160049438,-0.37886886311294776,-0.8622948969711507,-2.8770010259557486,-0.705488383769989,0.36986979842185974,-0.6045515537261963
1727297201023,7i,7.629987410421972,1.7s : 8.1s,0.47783814559010523,0.9321123411885448,0.4615117609500885,-2.61710786819458,-3.076503276824951,0.924430251121521,0.0827794075012207,-0.08607959747314453,-0.35141062680611185,-0.8946479746478521,-2.8942041350796206,-0.7323222756385803,0.3442225754261017,-0.5875500440597534
1727297201033,7i,7.629987410421972,1.7s : 8.1s,0.48221549251949036,0.9087311380600906,0.4102261960506439,-2.602670431137085,-2.9355437755584717,0.9065854549407959,-0.016695261001586914,-0.06013619899749756,-0.3250792349272873,-0.9260919777159328,-2.9102350277465003,-0.7574157118797302,0.3193838596343994,-0.5694870352745056
1727297201043,7i,7.629987410421972,1.7s : 8.1s,0.46753652541203267,0.9328684007422743,0.45645830035209656,-2.549529552459717,-2.76255464553833,0.929135262966156,-0.07287579774856567,-0.04049980640411377,-0.2995332867040999,-0.956132095882924,-2.9242137533006205,-0.7805911302566528,0.29507431387901306,-0.5510069727897644
1727297201053,7i,7.629987410421972,1.7s : 8.1s,0.4377963254816781,0.955285894194606,0.5195229649543762,-2.46803617477417,-2.625554084777832,0.9433359503746033,-0.14857220649719238,0.024793624877929688,-0.27453595429076916,-0.9845187767055483,-2.9358872443775472,-0.8018108606338501,0.27110031247138977,-0.5325449705123901
1727297201063,7i,7.629987410421972,1.7s : 8.1s,0.41925242546015645,0.9329647187194502,0.5139725804328918,-2.3948915004730225,-2.459346055984497,0.8972705602645874,-0.21949975192546844,0.13095253705978394,-0.25036653228306005,-1.0113604916041057,-2.945645004993048,-0.8211294412612915,0.24775907397270203,-0.5141615867614746
1727297201073,7i,7.629987410421972,1.7s : 8.1s,0.39740206517437937,0.9447320644440733,0.5028653144836426,-2.2968177795410156,-2.2542858123779297,0.8814318776130676,-0.2883754372596741,0.18010032176971436,-0.22757536815393256,-1.036768144486728,-2.9538349402724515,-0.8385701179504395,0.22561606764793396,-0.49588078260421753
1727297201083,7i,7.629987410421972,1.7s : 8.1s,0.3624077805702469,1.0227145436983816,0.48664242029190063,-2.1966235637664795,-2.0095393657684326,0.9176445007324219,-0.3824184536933899,0.2400619387626648,-0.20660867746776063,-1.0606368825671,-2.960267001805891,-0.8541070222854614,0.20514188706874847,-0.47793102264404297
1727297201093,7i,7.629987410421972,1.7s : 8.1s,0.32417371593279737,1.102847008399394,0.43103376030921936,-2.054682970046997,-1.7706736326217651,0.9246752858161926,-0.49495625495910645,0.34097719192504883,-0.18783121951754023,-1.0829460267715154,-2.9653892850217693,-0.8678058981895447,0.18672870099544525,-0.4604838490486145
1727297201103,7i,7.629987410421972,1.7s : 8.1s,0.2900398700123158,1.1453227140522,0.3502475619316101,-1.8660186529159546,-1.515431523323059,0.8736791610717773,-0.5935004949569702,0.4429514706134796,-0.17145726123164257,-1.1032769447003752,-2.9695550017762606,-0.8795996904373169,0.1706184297800064,-0.444065123796463
1727297201113,7i,7.629987410421972,1.7s : 8.1s,0.24206212676165084,1.1791459484756026,0.3978409171104431,-1.6665284633636475,-1.2885222434997559,0.8388618230819702,-0.6545014381408691,0.5082557201385498,-0.15723905239320365,-1.1214345717772614,-2.9724667749295195,-0.88961261510849,0.15659192204475403,-0.4290318191051483
1727297201123,7i,7.629987410421972,1.7s : 8.1s,0.17862994273935406,1.2141469852326754,0.42727550864219666,-1.431355595588684,-1.0156179666519165,0.8429503440856934,-0.6602374911308289,0.5724282264709473,-0.14510594468978052,-1.1370996605391421,-2.973658315092776,-0.8978821039199829,0.14459726214408875,-0.4158117473125458
1727297201133,7i,7.629987410421972,1.7s : 8.1s,0.11749121772542423,1.2690956115510132,0.5265376567840576,-1.173130989074707,-0.7493031620979309,0.8533667325973511,-0.6910272240638733,0.6362784504890442,-0.13511782153573051,-1.1500591172013968,-2.9730418240785226,-0.9044685363769531,0.13470706343650818,-0.4047108590602875
1727297201143,7i,7.629987410421972,1.7s : 8.1s,0.12502465439081706,1.3022848954950523,0.5866280198097229,-0.8607075810432434,-0.41779088973999023,0.8376248478889465,-0.7082396149635315,0.7019453048706055,-0.1275918844749586,-1.1598607835198746,-2.9702416770421483,-0.9092955589294434,0.1272459775209427,-0.39622002840042114
1727297201153,7i,7.629987410421972,1.7s : 8.1s,0.21699208240892645,1.377911035975034,0.6241292953491211,-0.49836909770965576,-0.08834640681743622,0.8341519832611084,-0.7559877038002014,0.7945513725280762,-0.12307368696415,-1.166003567252707,-2.9656166542356472,-0.9122315049171448,0.12276321649551392,-0.39084941148757935
1727297201163,7i,7.629987410421972,1.7s : 8.1s,0.33761505621116167,1.4628100558357986,0.6345555782318115,-0.11824006587266922,0.26020705699920654,0.8110178112983704,-0.8057268857955933,0.9126157760620117,-0.12154717492694744,-1.16829926575012,-2.9595201255924604,-0.9132975339889526,0.12124811112880707,-0.3888270854949951
1727297201173,7i,7.629987410421972,1.7s : 8.1s,0.4938130462526112,1.5294114628286843,0.7671125531196594,0.28852927684783936,0.6333504915237427,0.8237521648406982,-0.8300130367279053,0.9857028722763062,-0.12290957916859337,-1.1664420003317992,-2.951239938750371,-0.9124211072921753,0.12260035425424576,-0.39045730233192444
1727297201183,7i,7.629987410421972,1.7s : 8.1s,0.6689931122174141,1.602132578028992,0.7988875508308411,0.7183184027671814,1.0264019966125488,0.864448606967926,-0.8439040184020996,1.0523228645324707,-0.12743651836889633,-1.160081784835725,-2.94064354906338,-0.9094011187553406,0.12709186971187592,-0.3960269093513489
1727297201193,7i,7.629987410421972,1.7s : 8.1s,0.8449939458328276,1.7039696556381152,0.7932240962982178,1.132379174232483,1.410864233970642,0.8860877156257629,-0.9170243144035339,1.1302334070205688,-0.13540957551597269,-1.1491836355457872,-2.9283320538985795,-0.90407794713974,0.13499614596366882,-0.40548640489578247
1727297201203,7i,7.629987410421972,1.7s : 8.1s,1.0231296696318761,1.8053760894221789,0.7544859647750854,1.5499268770217896,1.811774730682373,0.9309641718864441,-0.9993646144866943,1.180660367012024,-0.14680295600416213,-1.1338351690075388,-2.914441333153729,-0.8962963819503784,0.14627623558044434,-0.4186362624168396
1727297201213,7i,7.629987410421972,1.7s : 8.1s,1.2277264939172996,1.9164937865552383,0.7947577834129333,1.974892020225525,2.2121827602386475,1.0388479232788086,-1.0851473808288574,1.190041422843933,-0.16168721564854366,-1.1137715550920368,-2.8986578277189707,-0.8856651782989502,0.1609836369752884,-0.43552467226982117
1727297201223,7i,7.629987410421972,1.7s : 8.1s,1.4483395005642576,1.980236406256275,0.8919042944908142,2.3819210529327393,2.6238794326782227,1.1378034353256226,-1.107280969619751,1.1834983825683594,-0.1793933759352221,-1.0887805457097879,-2.879897751401836,-0.8718428611755371,0.17843271791934967,-0.45612698793411255
1727297201233,7i,7.629987410421972,1.7s : 8.1s,1.6711164859932308,2.026632459648184,0.9428385496139526,2.7957921028137207,3.0997633934020996,1.2322397232055664,-1.1046584844589233,1.1698521375656128,-0.20016983065830113,-1.0587249480240308,-2.8577995032146686,-0.854325532913208,0.19883577525615692,-0.4802004396915436
1727297201243,7i,7.629987410421972,1.7s : 8.1s,1.9084222366683896,2.1581788737159857,0.9743049144744873,3.249460220336914,3.648021697998047,1.3668937683105469,-1.1787790060043335,1.1831388473510742,-0.22438901253613686,-1.0230877617194984,-2.831929423300493,-0.8323174715042114,0.22251074016094208,-0.5076777338981628
1727297201253,7i,7.629987410421972,1.7s : 8.1s,2.155127402079051,2.327342269622598,0.9352461695671082,3.710564374923706,4.213251113891602,1.5231964588165283,-1.2970463037490845,1.1891448497772217,-0.2523687210505206,-0.9811551764084967,-2.8018012197649114,-0.8048129081726074,0.24969834089279175,-0.5384488105773926
1727297201263,7i,7.629987410421972,1.7s : 8.1s,2.416767756925674,2.504463763730344,0.8662444949150085,4.186849594116211,4.82075834274292,1.721925973892212,-1.384418249130249,1.1792776584625244,-0.2840509923278011,-0.9324866070525762,-2.7671589765896405,-0.7709221243858337,0.2802465856075287,-0.5719624161720276
1727297201273,7i,7.629987410421972,1.7s : 8.1s,2.70480518619905,2.7620933561065684,0.7784408926963806,4.681934833526611,5.437535285949707,1.9884438514709473,-1.4902317523956299,1.2060099840164185,-0.3192992531214193,-0.8762143042351358,-2.7271597468075206,-0.7294870615005493,0.31390130519866943,-0.6077127456665039
1727297201283,7i,7.629987410421972,1.7s : 8.1s,3.0199887536192236,3.0886332598782404,0.6626812219619751,5.124396324157715,6.132772922515869,2.338181495666504,-1.572308897972107,1.2650721073150635,-0.35765643572849154,-0.8117476931682319,-2.6806962567466304,-0.6795819401741028,0.3500799238681793,-0.6446801424026489
1727297201293,7i,7.629987410421972,1.7s : 8.1s,3.351033599450463,3.4338190687611156,0.3882640600204468,5.644800662994385,6.858896732330322,2.7354533672332764,-1.6230058670043945,1.2939320802688599,-0.39927775724510106,-0.7379936303386447,-2.6266960806238435,-0.6198834776878357,0.3887529969215393,-0.6816272139549255
1727297201303,7i,7.629987410421972,1.7s : 8.1s,3.7141795143243224,3.834778272602895,0.06274733692407608,6.24339485168457,7.701375484466553,3.189969539642334,-1.6768156290054321,1.310689926147461,-0.44419387442033154,-0.6528946038362706,-2.5640038933257108,-0.5485360026359558,0.4297301173210144,-0.7172449827194214
1727297201313,7i,7.629987410421972,1.7s : 8.1s,4.122124831326094,4.2509311922508335,-0.28456375002861023,7.028409957885742,8.61704158782959,3.6546244621276855,-1.6808326244354248,1.3743863105773926,-0.49136863093223715,-0.5529746707809493,-2.489361173466577,-0.4630809426307678,0.4718330204486847,-0.7502864003181458
1727297201323,7i,7.629987410421972,1.7s : 8.1s,4.612020126745797,4.736862970198765,-0.5978958010673523,7.923552989959717,9.510846138000488,4.2342848777771,-1.6125364303588867,1.3814588785171509,-0.5381824681033858,-0.4342851109799961,-2.400130838032379,-0.3612838089466095,0.5125762224197388,-0.7789349555969238
1727297201333,7i,7.629987410421972,1.7s : 8.1s,5.176225987927848,5.349426853578704,-0.944597065448761,8.78406810760498,10.563518524169922,4.936803817749023,-1.5032079219818115,1.4087944030761719,-0.5812398813000362,-0.2934251904510111,-2.2927147993966814,-0.24173565208911896,0.5490606427192688,-0.8000602126121521
1727297201343,7i,7.629987410421972,1.7s : 8.1s,5.820991564851604,6.214626070577117,-1.4020607471466064,9.500612258911133,11.7240629196167,5.923206329345703,-1.3617136478424072,1.2972817420959473,-0.6159290901359731,-0.12925989246797082,-2.163873058753232,-0.10521315783262253,0.577717125415802,-0.8094276785850525
1727297201353,7i,7.629987410421972,1.7s : 8.1s,6.5123999959571615,7.290183679496882,-1.930365800857544,9.936610221862793,12.816744804382324,7.121059894561768,-1.0869271755218506,1.1206575632095337,-0.6372645580765283,0.05668559285830717,-2.012926843393038,0.045535311102867126,0.5949991345405579,-0.8024353981018066
1727297201363,7i,7.629987410421972,1.7s : 8.1s,7.131166223277441,8.504041567295964,-2.9401750564575195,9.896781921386719,13.587358474731445,8.424334526062012,-0.5950949788093567,0.9975834488868713,-0.6403111298383518,0.2560484626096883,-1.8456210166002864,0.203091561794281,0.5974449515342712,-0.7757663130760193
1727297201373,7i,7.629987410421972,1.7s : 8.1s,7.52724541772053,9.769850409659297,-4.822740077972412,9.34650707244873,14.20071792602539,9.71929931640625,0.10113769769668579,0.9874051809310913,-0.6272392960727515,0.458644667268092,-1.6670518738290314,0.35845938324928284,0.5869117975234985,-0.7259762287139893
1727297201383,7i,7.629987410421972,1.7s : 8.1s,7.629987410421972,10.985710581721406,-7.202509880065918,8.325965881347656,14.356112480163574,10.879154205322266,1.2174431085586548,0.9206916093826294,-0.6024841655171662,0.6555122973509842,-1.479600827614524,0.5022395849227905,0.566690981388092,-0.6531592011451721
1727297201393,7i,7.629987410421972,1.7s : 8.1s,7.2806432272328045,11.92167368983051,-10.266891479492188,6.683084487915039,14.499944686889648,11.562993049621582,2.8243417739868164,0.6682730317115784,-0.5674397852682912,0.8406201979752884,-1.2817753934277343,0.6282914876937866,0.5374748110771179,-0.5624683499336243
1727297201403,7i,7.629987410421972,1.7s : 8.1s,6.480133263978321,12.920348508853493,-13.449657440185547,4.301884174346924,14.124256134033203,11.960040092468262,4.859351634979248,0.5287232398986816,-0.5242780164921608,1.0061022184273605,-1.0692989733354694,0.7312899827957153,0.5005881190299988,-0.4632781147956848
1727297201413,7i,7.629987410421972,1.7s : 8.1s,5.427526434148476,13.955976531188346,-14.790263175964355,2.1746509075164795,14.140761375427246,11.640735626220703,7.615466594696045,1.1257102489471436,-0.469442697250676,1.1434308635988364,-0.8507985920057639,0.811610996723175,0.45238932967185974,-0.36963701248168945
1727297201423,7i,7.629987410421972,1.7s : 8.1s,4.12822196285397,14.844465321922248,-14.827496528625488,0.5505239963531494,14.770845413208008,10.059828758239746,10.757576942443848,1.8527100086212158,-0.3956887507705519,1.2475946673385325,-0.6443046151339044,0.8749555945396423,0.3854438066482544,-0.29306328296661377
1727297201433,7i,7.629987410421972,1.7s : 8.1s,2.545088745892329,14.6738908790078,-14.853755950927734,-0.40138640999794006,14.03370475769043,7.455935955047607,12.382165908813477,2.532599449157715,-0.3063496811496165,1.3181947026516057,-0.45196058044633114,0.9231838583946228,0.3015802800655365,-0.23828762769699097
1727297201443,7i,7.629987410421972,1.7s : 8.1s,1.0700556684109717,14.123126396936305,-13.605530738830566,-0.922589123249054,12.997018814086914,4.957283973693848,12.685876846313477,3.7358484268188477,-0.2097618308642593,1.3570242055154038,-0.27617357527798925,0.9558172225952148,0.20822696387767792,-0.2074975222349167
1727297201453,7i,7.629987410421972,1.7s : 8.1s,0.710749364161393,13.071031386400161,-15.017916679382324,-2.2461562156677246,11.214651107788086,2.5117199420928955,12.184356689453125,4.010558128356934,-0.11862567932506025,1.3689231427729807,-0.11222397302643752,0.9728078246116638,0.1183476597070694,-0.19909575581550598
1727297201463,7i,7.629987410421972,1.7s : 8.1s,2.920983667239121,9.749386956220919,-12.877434730529785,-9.330818176269531,10.84017276763916,0.3474506139755249,9.182979583740234,3.2561802864074707,-0.04616304276770491,1.3305836227224643,0.06022975130520043,0.9702528119087219,0.04614664986729622,-0.23765581846237183
1727297201473,7i,7.629987410421972,1.7s : 8.1s,2.955192366727461,3.852846405418089,-11.183055877685547,1.8321808576583862,18.30632209777832,0.8513511419296265,3.756890058517456,-0.07351016998291016,0.10613409584168447,1.2970005706654535,0.11540977359773272,0.9573343396186829,-0.10593494772911072,-0.26886633038520813
1727297201483,7i,7.629987410421972,1.7s : 8.1s,4.473875885179783,10.332021805462356,-38.49930191040039,-4.219170093536377,0.30721592903137207,5.723684787750244,-7.41456413269043,-4.360544204711914,0.08837394630800391,1.2623071626171485,0.4024872578007196,0.9490752220153809,-0.08825895935297012,-0.30243465304374695
1727297201493,7i,7.629987410421972,1.7s : 8.1s,3.1450101921734537,17.741871340766476,-17.528635025024414,-10.062832832336426,11.550436019897461,10.124550819396973,-4.602094650268555,13.823465347290039,0.05218027111100427,1.169893071271322,0.7023377091463628,0.9194558262825012,-0.05215659365057945,-0.38971903920173645
1727297201503,7i,7.629987410421972,1.7s : 8.1s,3.234827164687573,14.107639851556833,-24.24428939819336,-8.803882598876953,3.6905221939086914,10.534154891967773,8.001652717590332,4.902105331420898,0.05756191416644905,1.0581468926463284,0.895100760734577,0.8700048327445984,-0.057530131191015244,-0.48967549204826355
1727297201513,7i,7.629987410421972,1.7s : 8.1s,3.9093457771100746,9.367002708192038,-18.807706832885742,-8.472797393798828,-2.1782729625701904,5.336268901824951,7.200064182281494,2.7247109413146973,-0.0663111851298071,0.9778468535047949,1.1132717998321255,0.8274735808372498,0.06626259535551071,-0.55758136510849
1727297201523,7i,7.629987410421972,1.7s : 8.1s,5.371057839792112,17.120782761213306,-8.674121856689453,-14.400802612304688,0.41071227192878723,-0.3457472324371338,12.048394203186035,12.158859252929688,-0.13322777078725065,0.8582568978944246,1.2010987614608866,0.7499985098838806,0.13283400237560272,-0.6479641199111938
1727297201533,7i,7.629987410421972,1.7s : 8.1s,5.706639257921121,10.421507252722975,-9.983680725097656,-13.227371215820312,-2.9430432319641113,2.813354730606079,9.21194839477539,-3.9790520668029785,-0.21699704613695536,0.7359699460275193,1.2693128539378415,0.6555631756782532,0.21529807150363922,-0.7237981557846069
1727297201543,7i,7.629987410421972,1.7s : 8.1s,5.882729378011006,6.215480954281115,-5.304754734039307,-14.072141647338867,-0.8099533319473267,1.0429725646972656,5.410055637359619,2.876753330230713,-0.280704324032451,0.6024779327341921,1.2955911852176847,0.5445060729980469,0.2770324647426605,-0.7916856408119202
1727297201553,7i,7.629987410421972,1.7s : 8.1s,5.966252660594889,2.878627910355827,-6.562664985656738,-13.555451393127441,-1.8565939664840698,1.5497870445251465,1.8143421411514282,-1.6102240085601807,-0.3427181737224491,0.47201586490643926,1.31854453525738,0.42824044823646545,0.336048424243927,-0.8388573527336121
1727297201563,7i,7.629987410421972,1.7s : 8.1s,5.3681724416456165,4.635116643274546,-7.082482814788818,-12.772106170654297,-1.5306358337402344,3.8150105476379395,0.6080197095870972,2.5613107681274414,-0.4073321143572367,0.34249114801656927,1.3285154838130373,0.3083569407463074,0.39616113901138306,-0.8648539781570435
1727297201573,7i,7.629987410421972,1.7s : 8.1s,5.251007970531184,4.49860455131505,-9.953990936279297,-11.545188903808594,-4.6102495193481445,3.3875808715820312,-0.8822073340415955,2.8254997730255127,-0.49912569914238836,0.21998961284369564,1.323557783327101,0.19159701466560364,0.4786580801010132,-0.8568413257598877
1727297201583,7i,7.629987410421972,1.7s : 8.1s,5.321771229530919,4.696469285872462,-8.924805641174316,-11.041082382202148,-6.260904312133789,1.8845728635787964,-0.6015347242355347,4.25950288772583,-0.6028455635434276,0.08188724412586697,1.2742444372164146,0.0673772543668747,0.5669887065887451,-0.8209653496742249
1727297201593,7i,7.629987410421972,1.7s : 8.1s,5.142309185053044,3.7918489132141517,-6.173478126525879,-10.322070121765137,-6.941989421844482,1.1435655355453491,0.8532689213752747,3.513162136077881,-0.6795014046379473,-0.07899039735184263,1.180600881687034,-0.061381660401821136,0.6284052729606628,-0.7754606604576111
1727297201603,7i,7.629987410421972,1.7s : 8.1s,4.482497741267793,2.275736074250413,-2.606943130493164,-9.4356050491333,-8.490972518920898,1.3117179870605469,1.2522666454315186,1.374845027923584,-0.7079469416940951,-0.252905217773618,1.0604944002858425,-0.1900901347398758,0.6502754092216492,-0.735532283782959
1727297201613,7i,7.629987410421972,1.7s : 8.1s,3.7170376525301445,1.7560177142022506,-0.43889525532722473,-8.689287185668945,-9.039807319641113,1.490440011024475,0.8140194416046143,0.4467204213142395,-0.691213756400111,-0.41863686781403187,0.9434650453496476,-0.31320908665657043,0.6374728083610535,-0.703937828540802
1727297201623,7i,7.629987410421972,1.7s : 8.1s,2.979824754817993,2.386420821588199,0.2627255618572235,-8.440284729003906,-8.89183521270752,2.2347300052642822,0.46997523307800293,0.6928992867469788,-0.6489692972204575,-0.5667380546506522,0.8430174454011959,-0.4277384877204895,0.6043655872344971,-0.6721473336219788
1727297201633,7i,7.629987410421972,1.7s : 8.1s,2.5013203583671326,3.0243009253674438,-0.23765230178833008,-8.363678932189941,-8.895791053771973,2.7180628776550293,-0.10809201002120972,1.3216831684112549,-0.5961319474444582,-0.7026017741180595,0.7545832140041443,-0.5347437262535095,0.5614458322525024,-0.6315281391143799
1727297201643,7i,7.629987410421972,1.7s : 8.1s,2.0384484948928785,3.4530134857069075,0.34716615080833435,-8.030435562133789,-8.593405723571777,3.1673781871795654,-0.38648146390914917,1.3197157382965088,-0.5355411540158467,-0.8250217603145671,0.6798113430110778,-0.6317183375358582,0.5103064775466919,-0.5835402011871338
1727297201653,7i,7.629987410421972,1.7s : 8.1s,1.6839957974213677,3.2563312247034104,0.6428918242454529,-7.301589488983154,-8.570929527282715,3.0378072261810303,-0.17471477389335632,1.159696102142334,-0.46642206976928596,-0.92952580991829,0.6223740783762972,-0.7157400846481323,0.4496934115886688,-0.5343146324157715
1727297201663,7i,7.629987410421972,1.7s : 8.1s,1.3988550392005832,2.859052196490358,1.3376917839050293,-6.597429275512695,-8.651143074035645,2.6204161643981934,0.23947492241859436,1.1181459426879883,-0.38974831589187553,-1.0176988537548588,0.5772909943992008,-0.7870879173278809,0.37995561957359314,-0.4859285354614258
1727297201673,7i,7.629987410421972,1.7s : 8.1s,1.1220725856979739,2.890361278253285,2.62581729888916,-6.404329776763916,-7.874053001403809,2.4313228130340576,0.614181637763977,1.4372329711914062,-0.307944511816404,-1.0913023707077647,0.5518787210650525,-0.8454921245574951,0.30310049653053284,-0.4396286904811859
1727297201683,7i,7.629987410421972,1.7s : 8.1s,0.838696785037752,2.900640106400357,3.747542381286621,-6.3030619621276855,-7.010556221008301,2.655421018600464,0.5891575813293457,1.0076435804367065,-0.22693309756280564,-1.1557287849991331,0.5490929621063407,-0.8916271328926086,0.22499032318592072,-0.39291277527809143
1727297201693,7i,7.629987410421972,1.7s : 8.1s,0.6185112490117664,2.833562138634651,4.013806343078613,-5.750629425048828,-6.473132610321045,2.786581516265869,0.33234119415283203,0.39190199971199036,-0.1500170610797083,-1.2144652333047201,0.559988641809748,-0.9266570210456848,0.1494549959897995,-0.34492018818855286
1727297201703,7i,7.629987410421972,1.7s : 8.1s,0.4814090938927966,2.582857510370412,4.822813987731934,-4.724076271057129,-6.052597999572754,2.529651641845703,0.22824184596538544,0.4689575135707855,-0.07658146874129679,-1.2646848321740194,0.5812244133062673,-0.9507179260253906,0.07650663703680038,-0.3004699647426605
1727297201713,7i,7.629987410421972,1.7s : 8.1s,0.5793652124640648,2.296901504968901,5.745084285736084,-3.690098285675049,-5.579476833343506,2.0655200481414795,0.40869811177253723,0.9177958965301514,-0.0059136973280961656,-1.305140335376524,0.6156785131112051,-0.9649036526679993,0.005913662724196911,-0.26253771781921387
1727297201723,7i,7.629987410421972,1.7s : 8.1s,0.8909601398552562,2.3960062592379567,6.677202224731445,-3.2057881355285645,-5.12446928024292,1.9629828929901123,0.6348429322242737,1.218408226966858,0.061181221636919136,-1.3406107007097334,0.6627334951319983,-0.9718024730682373,-0.06114305928349495,-0.227731391787529
1727297201733,7i,7.629987410421972,1.7s : 8.1s,1.2381839196061424,2.647093722817834,7.269261360168457,-3.14060640335083,-4.607704162597656,2.1819591522216797,0.6691336035728455,1.341051697731018,0.1234878009193054,-1.3777522692069626,0.721514549924625,-0.9739513397216797,-0.12317419052124023,-0.19038639962673187
1727297201743,7i,7.629987410421972,1.7s : 8.1s,1.4075612704648448,2.571959563417563,6.748111248016357,-3.057337760925293,-4.25410795211792,2.2709407806396484,0.35507380962371826,1.1540045738220215,0.17915078105018964,-1.4183648586861093,0.7841464680148321,-0.9725858569145203,-0.17819401621818542,-0.14941169321537018
1727297201753,7i,7.629987410421972,1.7s : 8.1s,1.4120716589213396,2.349201211079778,6.150458812713623,-2.7904818058013916,-3.949850559234619,2.0585827827453613,0.034091636538505554,1.1312917470932007,0.2283156801529459,-1.4596361513147382,0.8435101642205185,-0.9680373668670654,-0.2263372391462326,-0.10805262625217438
1727297201763,7i,7.629987410421972,1.7s : 8.1s,1.3417847567712846,2.107388949097603,5.976256370544434,-2.537841320037842,-3.6272027492523193,1.6680850982666016,-0.07843303680419922,1.2854682207107544,0.2714617317557488,-1.500835616685987,0.9023597398343227,-0.9610233306884766,-0.26813992857933044,-0.06734377890825272
1727297201773,7i,7.629987410421972,1.7s : 8.1s,1.2639354976735708,1.7607945588825162,6.062143802642822,-2.3765838146209717,-3.289893865585327,1.334271788597107,-0.011019617319107056,1.1489102840423584,0.30903088710688087,-1.5426980849936849,0.9628914822423642,-0.952252984046936,-0.3041355609893799,-0.0267636775970459
1727297201783,7i,7.629987410421972,1.7s : 8.1s,1.2469572932532493,1.4773541374394354,6.569479465484619,-2.140754461288452,-2.678453207015991,1.0899643898010254,0.18222281336784363,0.9804834127426147,0.33934866984633366,-1.5865746882121334,1.0293893303646775,-0.9428544640541077,-0.33287298679351807,0.014877933077514172
1727297201793,7i,7.629987410421972,1.7s : 8.1s,1.2407792297064482,1.3723323146693778,6.430146217346191,-1.9051530361175537,-2.243335008621216,0.9992928504943848,0.1471804976463318,0.9290035963058472,0.3611739453279054,-1.6310178719378818,1.1000072017324487,-0.9337870478630066,-0.3533726930618286,0.05630217865109444
1727297201803,7i,7.629987410421972,1.7s : 8.1s,1.224116624237898,1.2991771200136262,6.269606113433838,-1.6250113248825073,-1.8893083333969116,0.8369823098182678,-0.01288798451423645,0.9935570955276489,0.37669529154215003,-1.673720769925306,1.1694686208635179,-0.9249646663665771,-0.3678494691848755,0.09553907811641693
1727297201813,7i,7.629987410421972,1.7s : 8.1s,1.1388444059368668,1.171664339665647,5.5702805519104,-1.114130973815918,-1.549254059791565,0.5491760969161987,-0.07455816864967346,1.032300353050232,0.3859077606288715,-1.711555230021651,1.2352969480920597,-0.9172945618629456,-0.37640029191970825,0.12997692823410034
1727297201823,7i,7.629987410421972,1.7s : 8.1s,1.0890648574716142,1.223873213683298,5.03359317779541,-0.7953131198883057,-1.4982550144195557,0.4704058766365051,0.028613805770874023,1.129497766494751,0.3927106848972989,-1.7430044441755201,1.2938821434545038,-0.9102100133895874,-0.38269415497779846,0.15831361711025238
1727297201833,7i,7.629987410421972,1.7s : 8.1s,1.1043590349915524,1.4095332488728516,5.021708965301514,-0.6927624940872192,-1.180829405784607,0.49946802854537964,0.3059179484844208,1.2820802927017212,0.3966348661548624,-1.772052056940352,1.3502841628840245,-0.9037497043609619,-0.3863166570663452,0.1843809336423874
1727297201843,7i,7.629987410421972,1.7s : 8.1s,1.145256303898801,1.3229830094336963,4.678644180297852,-0.5484325289726257,-0.9407886862754822,0.6805911660194397,0.4984423518180847,1.0191344022750854,0.39639138880240254,-1.7990600725264876,1.4039726144406284,-0.898532509803772,-0.38609206676483154,0.2087404727935791
1727297201853,7i,7.629987410421972,1.7s : 8.1s,1.2061194570637606,1.462686290175407,4.590684413909912,-0.38782423734664917,-0.8852364420890808,0.7619898915290833,0.6553933024406433,1.0626769065856934,0.39430713401912987,-1.8233345179479723,1.454965041150506,-0.8939787149429321,-0.3841685950756073,0.23068884015083313
1727297201863,7i,7.629987410421972,1.7s : 8.1s,1.1937244163434129,1.3510314033363109,4.490148067474365,-0.23521094024181366,-0.7082087397575378,0.5198827385902405,0.5856569409370422,1.1009149551391602,0.3901418729305461,-1.8454813837542345,1.5048087955957166,-0.8901832103729248,-0.38031962513923645,0.2508613169193268
1727297201873,7i,7.629987410421972,1.7s : 8.1s,1.1448761098954472,1.0526318555642373,4.205544471740723,-0.0860707238316536,-0.48326992988586426,0.36652982234954834,0.37684065103530884,0.9119653701782227,0.3836666732424541,-1.8647950563290046,1.551678444918591,-0.8875106573104858,-0.3743230700492859,0.2687141001224518
1727297201883,7i,7.629987410421972,1.7s : 8.1s,1.112955261664908,0.9259759589041247,3.9645841121673584,0.05401448532938957,-0.28833481669425964,0.34090834856033325,0.19088739156723022,0.8395087718963623,0.37513067164341046,-1.880915230369792,1.5948762768308067,-0.8860743641853333,-0.3663941025733948,0.28395015001296997
1727297201893,7i,7.629987410421972,1.7s : 8.1s,1.0565601520780534,0.784415904115197,3.5679023265838623,0.15185955166816711,-0.1905621588230133,0.2686467170715332,-0.016663074493408203,0.7367900609970093,0.365521963252336,-1.8940202800757575,1.6341744883689588,-0.8855748772621155,-0.3574368357658386,0.29664212465286255
1727297201903,7i,7.629987410421972,1.7s : 8.1s,0.9738100279834244,0.6192755551859286,3.1730546951293945,0.25227874517440796,-0.2028093785047531,0.1549111008644104,-0.1134938895702362,0.5887477397918701,0.35652022688502766,-1.9042882526052778,1.6688741590300171,-0.8854866027832031,-0.34901538491249084,0.30676016211509705
1727297201913,7i,7.629987410421972,1.7s : 8.1s,0.9126289835496343,0.5607911819326662,3.023134708404541,0.3095332384109497,-0.19467848539352417,0.09622633457183838,0.040565431118011475,0.5509824752807617,0.34821954134334315,-1.9122970327378934,1.7005498031583666,-0.8857007622718811,-0.3412247598171234,0.31480133533477783
1727297201923,7i,7.629987410421972,1.7s : 8.1s,0.8798274803321002,0.5695865907525282,3.034250259399414,0.2877366542816162,-0.11240001767873764,0.08307969570159912,0.1986173689365387,0.5273308157920837,0.339485088016812,-1.919681448510967,1.731286589621482,-0.8861191272735596,-0.33300161361694336,0.32233962416648865
1727297201933,7i,7.629987410421972,1.7s : 8.1s,0.8700512743630984,0.5184858192573497,3.1202409267425537,0.2488345354795456,0.06781263649463654,0.10015678405761719,0.18906894326210022,0.47228074073791504,0.32907029877713484,-1.9272104946033977,1.7620814458075482,-0.886869490146637,-0.32316336035728455,0.330194354057312
1727297201943,7i,7.629987410421972,1.7s : 8.1s,0.8362091970839154,0.46852422785517256,2.8881843090057373,0.33434370160102844,0.19341561198234558,0.059237658977508545,0.07683071494102478,0.45836982131004333,0.31710394005921616,-1.933554960081578,1.791318758013272,-0.8883086442947388,-0.3118162155151367,0.3371625244617462
1727297201953,7i,7.629987410421972,1.7s : 8.1s,0.7619004465504708,0.5325306152239621,2.608222246170044,0.3522539734840393,0.2322586178779602,-0.07756716012954712,-0.02689942717552185,0.5261640548706055,0.30527386071983714,-1.9381071884243495,1.817543094836352,-0.8901454210281372,-0.30055439472198486,0.3425036668777466
1727297201963,7i,7.629987410421972,1.7s : 8.1s,0.6432785167959522,0.5472804211933169,2.231058359146118,0.3310219645500183,0.30535510182380676,-0.22732019424438477,-0.09418383240699768,0.48884639143943787,0.29403779275259845,-1.9413823033099065,1.8401291466583471,-0.8921106457710266,-0.28981906175613403,0.3466183841228485
1727297201973,7i,7.629987410421972,1.7s : 8.1s,0.5502803785071388,0.4836049339953154,1.9081686735153198,0.38999688625335693,0.31935399770736694,-0.23109221458435059,-0.10168015956878662,0.4124697148799896,0.2835273761842629,-1.9431796819156177,1.8590047674108314,-0.8942739367485046,-0.2797439396381378,0.3493101894855499
1727297201983,7i,7.629987410421972,1.7s : 8.1s,0.48563834170730374,0.46115498747418376,1.6408374309539795,0.4508238136768341,0.27656084299087524,-0.2244529128074646,-0.07723060250282288,0.39537355303764343,0.27432661202355113,-1.9433330912579225,1.8750113117641611,-0.8965798020362854,-0.2708987891674042,0.3503694236278534
1727297201993,7i,7.629987410421972,1.7s : 8.1s,0.4170476161608327,0.47707741175751395,1.475452184677124,0.40842682123184204,0.33243876695632935,-0.288818895816803,-0.040347397327423096,0.377569317817688,0.26587470749100467,-1.942722290402998,1.8888768175289001,-0.8988947868347168,-0.26275333762168884,0.3506413400173187
1727297202003,7i,7.629987410421972,1.7s : 8.1s,0.3812180969197394,0.40687469831694,1.447952389717102,0.4473437964916229,0.3797665238380432,-0.2809813618659973,-0.007162719964981079,0.2941856384277344,0.2571678371897303,-1.9417573934550616,1.9015809804451957,-0.9013307690620422,-0.25434255599975586,0.35058993101119995
1727297202013,7i,7.629987410421972,1.7s : 8.1s,0.36973637940744075,0.3707426397964454,1.3548897504806519,0.5201961398124695,0.34230703115463257,-0.2571926712989807,0.011436358094215393,0.2667793929576874,0.24865588124447743,-1.9399758745235458,1.9137483612776933,-0.9039401412010193,-0.24610140919685364,0.34975212812423706
1727297202023,7i,7.629987410421972,1.7s : 8.1s,0.35649938965767625,0.4151004920476518,1.291030764579773,0.5791656970977783,0.31979772448539734,-0.3061559796333313,0.03260476887226105,0.2784131169319153,0.24079673874246194,-1.937189819838503,1.9252215000741435,-0.9066887497901917,-0.2384764552116394,0.3479144871234894
1727297202033,7i,7.629987410421972,1.7s : 8.1s,0.3506701258151393,0.45361236588358733,1.246922492980957,0.6555920243263245,0.3326980769634247,-0.3352092504501343,0.056438297033309937,0.3003558814525604,0.2329474942467712,-1.9336599346891026,1.9362688069233547,-0.9096332788467407,-0.23084640502929688,0.3453656733036041
1727297202043,7i,7.629987410421972,1.7s : 8.1s,0.3386705376848451,0.4555699085900809,1.0498508214950562,0.7115573287010193,0.26297667622566223,-0.3366667628288269,0.055166095495224,0.30192074179649353,0.22593734433434862,-1.9289641592322886,1.9462117760680775,-0.9127380847930908,-0.22401997447013855,0.3416493237018585
1727297202053,7i,7.629987410421972,1.7s : 8.1s,0.31459456329292423,0.4695764539910734,0.9326085448265076,0.6353376507759094,0.2540303170681,-0.3361280560493469,0.05817726254463196,0.3227001428604126,0.22009098039059452,-1.924118459604381,1.9548096990948376,-0.9155962467193604,-0.2183184027671814,0.3376699388027191
1727297202063,7i,7.629987410421972,1.7s : 8.1s,0.28404502109317004,0.38369170873561154,0.8117063641548157,0.5535798668861389,0.2512377202510834,-0.29816490411758423,0.06359165906906128,0.23296591639518738,0.21465038890258792,-1.9198142640353546,1.9622860405312454,-0.918143630027771,-0.21300585567951202,0.33412712812423706
1727297202073,7i,7.629987410421972,1.7s : 8.1s,0.26150788807252084,0.29943557801837567,0.7830446362495422,0.4729534685611725,0.2142762541770935,-0.25182080268859863,0.061780184507369995,0.1497703492641449,0.20975358759804644,-1.9160680288047562,1.9691502500600615,-0.9203593730926514,-0.20821888744831085,0.33103427290916443
1727297202083,7i,7.629987410421972,1.7s : 8.1s,0.22389082407023847,0.2922306563985466,0.6529561281204224,0.4404905140399933,0.20835097134113312,-0.26380419731140137,0.05148373544216156,0.11469754576683044,0.205234865910246,-1.9127718725649523,1.9754148578382285,-0.9223225116729736,-0.2037971019744873,0.3283109962940216
1727297202093,7i,7.629987410421972,1.7s : 8.1s,0.19258271037652117,0.2809381363698454,0.5658766627311707,0.4112250506877899,0.14376293122768402,-0.25078922510147095,0.05884651839733124,0.11210748553276062,0.20156620715361315,-1.9095906366120274,1.9806335088620095,-0.9240612387657166,-0.20020407438278198,0.32562151551246643
1727297202103,7i,7.629987410421972,1.7s : 8.1s,0.16201976644001112,0.3101663929559068,0.48897507786750793,0.41739127039909363,0.11731696873903275,-0.27110064029693604,0.05284114181995392,0.14112210273742676,0.19855248223005878,-1.9063984125222095,1.9853151891668468,-0.9256615042686462,-0.19725045561790466,0.3228673040866852
1727297202113,7i,7.629987410421972,1.7s : 8.1s,0.12791934580177775,0.295386217258288,0.3088870644569397,0.38131555914878845,0.0526767298579216,-0.25316816568374634,0.0316462516784668,0.14885365962982178,0.196420158160131,-1.9030600639622803,1.9888810165109212,-0.9271297454833984,-0.19515958428382874,0.3199118375778198
1727297202123,7i,7.629987410421972,1.7s : 8.1s,0.10307616268030764,0.25303598777618674,0.20962479710578918,0.3179500997066498,0.039465613663196564,-0.19851118326187134,0.020594730973243713,0.15555185079574585,0.1952180627675279,-1.9000180388079677,1.9911246163184093,-0.9283197522163391,-0.19398045539855957,0.3171655535697937
1727297202133,7i,7.629987410421972,1.7s : 8.1s,0.09151146505098802,0.19719284491366001,0.22481253743171692,0.2597845494747162,0.060547731816768646,-0.152807354927063,0.035426557064056396,0.11949849128723145,0.19403640284252927,-1.8975040472750508,1.9930872147563532,-0.9293307662010193,-0.19282111525535583,0.3149041533470154
1727297202143,7i,7.629987410421972,1.7s : 8.1s,0.07067802567628623,0.1612361683807186,0.11079941689968109,0.2327369600534439,0.05374502018094063,-0.13830208778381348,0.028856590390205383,0.07769769430160522,0.1928924505654021,-1.8953188077543375,1.9945692186587463,-0.9302250146865845,-0.19169850647449493,0.3129426836967468
1727297202153,7i,7.629987410421972,1.7s : 8.1s,0.04779036837365093,0.17228950859681882,0.0739295482635498,0.19758589565753937,0.039528265595436096,-0.14782696962356567,0.026920467615127563,0.08429798483848572,0.19221020610856807,-1.8932811610840217,1.995257982893719,-0.930984616279602,-0.19102886319160461,0.3110879361629486
1727297202163,7i,7.629987410421972,1.7s : 8.1s,0.019201843032502785,0.18427447615777892,0.0433356910943985,0.12456139922142029,0.0896148681640625,-0.15968507528305054,0.030625134706497192,0.08671712875366211,0.1913986752264845,-1.8917450833023892,1.9956193948766383,-0.9316083192825317,-0.19023221731185913,0.3097063899040222
1727297202173,7i,7.629987410421972,1.7s : 8.1s,0.009027665585147223,0.1253599647428622,-0.0009888975182548165,0.07265665382146835,0.09010755270719528,-0.11724525690078735,0.001401752233505249,0.044347554445266724,0.19043231063246524,-1.8907617645390344,1.9955362342617096,-0.9320866465568542,-0.18928340077400208,0.3088478744029999
1727297202183,7i,7.629987410421972,1.7s : 8.1s,0.01824617899616687,0.0916137897304307,-0.052912283688783646,0.05998293682932854,0.06092217192053795,-0.08000791072845459,-0.009222745895385742,0.04366648197174072,0.18979071212982693,-1.890027447165636,1.9950575813714857,-0.9324281215667725,-0.188653364777565,0.3082013428211212
1727297202193,7i,7.629987410421972,1.7s : 8.1s,0.030859972796893613,0.1019175428956579,-0.09012410044670105,0.06640781462192535,0.05415241792798042,-0.08933532238006592,0.0019206851720809937,0.04901731014251709,0.18948457461014603,-1.889228089964983,1.9941645017716003,-0.9327290058135986,-0.18835271894931793,0.30747395753860474
1727297202203,7i,7.629987410421972,1.7s : 8.1s,0.03955301342314295,0.10725759690403527,-0.11147026717662811,0.07815532386302948,0.07049254328012466,-0.09417217969894409,0.010709285736083984,0.05021059513092041,0.18918891073873786,-1.8883065340509047,1.9929998683304708,-0.933064877986908,-0.18806234002113342,0.3066316545009613
1727297202213,7i,7.629987410421972,1.7s : 8.1s,0.038154263618887435,0.08355665156557165,-0.1442713588476181,0.1322755664587021,0.047868985682725906,-0.0767366886138916,0.003969326615333557,0.03282436728477478,0.18899140891609906,-1.8869931315027166,1.991567162521337,-0.9335019588470459,-0.18786835670471191,0.30541741847991943
1727297202223,7i,7.629987410421972,1.7s : 8.1s,0.030672906017265782,0.08027495937477477,-0.15851926803588867,0.15927769243717194,0.039057254791259766,-0.06682413816452026,0.008554354310035706,0.043651193380355835,0.18907663346755713,-1.885208215944686,1.9899604986564468,-0.9340303540229797,-0.18795207142829895,0.30374574661254883
1727297202233,7i,7.629987410421972,1.7s : 8.1s,0.02579918016798782,0.07608824198520306,-0.16973064839839935,0.18043623864650726,0.05286681279540062,-0.0684504508972168,0.013578057289123535,0.030324786901474,0.1891268734800842,-1.8831921903231472,1.9882292970642819,-0.934631884098053,-0.18800140917301178,0.30185920000076294
1727297202243,7i,7.629987410421972,1.7s : 8.1s,0.02213232330647064,0.042675205056818884,-0.19003191590309143,0.21942803263664246,0.03793999180197716,-0.04026442766189575,0.008251339197158813,0.011483222246170044,0.1892187102932523,-1.8808445521588373,1.9863570064374805,-0.9353216886520386,-0.18809160590171814,0.29965901374816895
1727297202253,7i,7.629987410421972,1.7s : 8.1s,0.03039568530357124,0.02544309943412496,-0.22714626789093018,0.2723711431026459,0.01761128380894661,-0.021074414253234863,0.00658571720123291,0.012643128633499146,0.18958913582557102,-1.8779805714811906,1.984260965557096,-0.9361096024513245,-0.18845540285110474,0.29695793986320496
1727297202263,7i,7.629987410421972,1.7s : 8.1s,0.04649165200492465,0.037523916316809486,-0.23088961839675903,0.33419695496559143,-0.0011574099771678448,-0.02340942621231079,0.02331911027431488,0.017783761024475098,0.19018948430874805,-1.8745158070350225,1.981937912180262,-0.9370246529579163,-0.18904496729373932,0.2936788499355316
1727297202273,7i,7.629987410421972,1.7s : 8.1s,0.06644877664245105,0.0559116742833782,-0.1755102425813675,0.3626749515533447,-0.0008804411627352238,-0.02399677038192749,0.04781295359134674,0.01625397801399231,0.19081466388417084,-1.8706513189234832,1.9799975526842841,-0.9380395412445068,-0.18965883553028107,0.290020614862442
1727297202283,7i,7.629987410421972,1.7s : 8.1s,0.08743113042468922,0.03734900401421925,-0.15931129455566406,0.39584726095199585,0.004721052013337612,-0.014085054397583008,0.034502893686294556,-0.0024717748165130615,0.19122981329497757,-1.8665988443166155,1.9783705526021325,-0.9391316771507263,-0.19006642699241638,0.28619384765625
1727297202293,7i,7.629987410421972,1.7s : 8.1s,0.10841325258327109,0.010110008079600843,-0.1580207198858261,0.4166660010814667,-0.002509164158254862,0.007155120372772217,0.00600162148475647,-0.003872603178024292,0.19166719708793115,-1.8622371910326851,1.9768261165157301,-0.9402912855148315,-0.1904958337545395,0.282071053981781
1727297202303,7i,7.629987410421972,1.7s : 8.1s,0.12574154489235498,0.013070467654432203,-0.11718661338090897,0.42441070079803467,0.014712067320942879,0.006452679634094238,-0.008014276623725891,-0.008060485124588013,0.19198508501227415,-1.8578355329680043,1.9754546591858666,-0.9414655566215515,-0.19080787897109985,0.27791231870651245
1727297202313,7i,7.629987410421972,1.7s : 8.1s,0.14045333483828612,0.03637061046457461,-0.09324799478054047,0.4184340238571167,0.028967170044779778,0.020096421241760254,-0.011543124914169312,-0.02803054451942444,0.19202755072074307,-1.8534284365951206,1.9743709407546417,-0.9426733255386353,-0.19084957242012024,0.273758202791214
1727297202323,7i,7.629987410421972,1.7s : 8.1s,0.15831253151727945,0.05318189039828259,-0.07172977924346924,0.45671409368515015,0.007105646654963493,0.03317415714263916,-0.009143456816673279,-0.04054856300354004,0.19206278622378736,-1.8489072251770082,1.9735393270379469,-0.9438951015472412,-0.19088415801525116,0.26949161291122437
1727297202333,7i,7.629987410421972,1.7s : 8.1s,0.1711056176990509,0.02962059172203689,-0.07660309225320816,0.48588261008262634,-0.007276754826307297,0.02439349889755249,0.007659748196601868,-0.01495543122291565,0.19226818960070274,-1.8440515132545885,1.9728134217767783,-0.94515460729599,-0.1910857856273651,0.2648945450782776
1727297202343,7i,7.629987410421972,1.7s : 8.1s,0.1763765690294776,0.029209172149810954,-0.10739057511091232,0.4982578754425049,-0.001697299536317587,0.017531216144561768,0.02333490550518036,-0.001146465539932251,0.19255247262464137,-1.8389529120905923,1.971949831451241,-0.9464404582977295,-0.1913648098707199,0.2600577473640442
1727297202353,7i,7.629987410421972,1.7s : 8.1s,0.1807557398465358,0.040543543451064167,-0.1152823194861412,0.4801771640777588,0.01867321878671646,0.033520638942718506,0.021018043160438538,-0.008853673934936523,0.19277266355109013,-1.833826724654463,1.9707839633861957,-0.9477205872535706,-0.19158093631267548,0.2551918029785156
1727297202363,7i,7.629987410421972,1.7s : 8.1s,0.18795987687528343,0.06149482553216753,-0.10278850048780441,0.4806808829307556,0.03170223534107208,0.05204218626022339,0.02293384075164795,-0.0233936607837677,0.19278124576528202,-1.8288214036741643,1.9696710446902772,-0.9489843845367432,-0.19158935546875,0.25044453144073486
1727297202373,7i,7.629987410421972,1.7s : 8.1s,0.18851085701772147,0.06361822287828371,-0.12851250171661377,0.4744400382041931,0.022941235452890396,0.0524214506149292,0.027368992567062378,-0.02345651388168335,0.19279152306082978,-1.82377838718744,1.9684615589547207,-0.9502331614494324,-0.19159944355487823,0.2456550896167755
1727297202383,7i,7.629987410421972,1.7s : 8.1s,0.18228359506148034,0.053944165245434376,-0.12810224294662476,0.44323572516441345,0.034132469445466995,0.043310463428497314,0.026353418827056885,-0.018430247902870178,0.19282953702018968,-1.8189273864650055,1.967093691526162,-0.9514068365097046,-0.19163675606250763,0.2410408854484558
1727297202393,7i,7.629987410421972,1.7s : 8.1s,0.17377817852209645,0.05891753535019109,-0.1306421011686325,0.41397425532341003,0.04978972673416138,0.045806825160980225,0.024126186966896057,-0.02812361717224121,0.19272129029558188,-1.8143740790188945,1.9657451921489897,-0.9525146484375,-0.1915305107831955,0.23671138286590576
1727297202403,7i,7.629987410421972,1.7s : 8.1s,0.16432417036390404,0.06635367594680806,-0.14244669675827026,0.3845275640487671,0.07010355591773987,0.05278003215789795,0.018392175436019897,-0.03576040267944336,0.19246036016302517,-1.8100945333486766,1.964239582033056,-0.9535675048828125,-0.19127440452575684,0.232644721865654
1727297202413,7i,7.629987410421972,1.7s : 8.1s,0.15109384240430593,0.06284283678913637,-0.17209593951702118,0.35910317301750183,0.08854008466005325,0.05202072858810425,0.0142221599817276,-0.03226137161254883,0.19203618492803923,-1.8060552094780442,1.9624956584931745,-0.954578161239624,-0.19085805118083954,0.22880995273590088
1727297202423,7i,7.629987410421972,1.7s : 8.1s,0.1381521331192704,0.05534737472681448,-0.17523953318595886,0.3527620732784271,0.08727608621120453,0.03896147012710571,0.012475088238716125,-0.037278786301612854,0.1915776854808304,-1.8021169828641852,1.960554423746149,-0.9555569887161255,-0.19040794670581818,0.22506888210773468
1727297202433,7i,7.629987410421972,1.7s : 8.1s,0.12257078223849913,0.04460726667851166,-0.16968338191509247,0.31889569759368896,0.10752862691879272,0.020321786403656006,0.018125563859939575,-0.03533124923706055,0.19102299539293174,-1.7983788635697433,1.9586236434823652,-0.9564943313598633,-0.189863383769989,0.2215191274881363
1727297202443,7i,7.629987410421972,1.7s : 8.1s,0.10901214155303232,0.060386244081333286,-0.1436748057603836,0.28549325466156006,0.1242305338382721,0.013548493385314941,0.014122843742370605,-0.05712689459323883,0.1902254192131078,-1.7950172869947514,1.9567947732840243,-0.9573808908462524,-0.18908025324344635,0.21833613514900208
1727297202453,7i,7.629987410421972,1.7s : 8.1s,0.09667412698924069,0.07499755404322844,-0.133873850107193,0.25017067790031433,0.13572128117084503,0.014878332614898682,0.009685948491096497,-0.07286597788333893,0.1892500174214451,-1.7920351748244034,1.9551373318138079,-0.9582071900367737,-0.18812236189842224,0.21552051603794098
1727297202463,7i,7.629987410421972,1.7s : 8.1s,0.08624772107061061,0.07695689033786596,-0.10855357348918915,0.2285950779914856,0.12337087094783783,0.008388698101043701,0.009893447160720825,-0.07585586607456207,0.18823403910071873,-1.7893645165634422,1.9536338202316026,-0.958965539932251,-0.18712441623210907,0.2130020558834076
1727297202473,7i,7.629987410421972,1.7s : 8.1s,0.07640960714970543,0.0670925100437994,-0.09175142645835876,0.20652519166469574,0.12064139544963837,0.0006088018417358398,0.012046366930007935,-0.06599938869476318,0.18725701155973754,-1.7869542745308251,1.952378911349321,-0.9596542716026306,-0.18616455793380737,0.2107292264699936
1727297202483,7i,7.629987410421972,1.7s : 8.1s,0.06466559018428683,0.06309276661076531,-0.11815307289361954,0.19696423411369324,0.10614924132823944,-0.004886627197265625,0.0015914440155029297,-0.06288310885429382,0.18633811802771383,-1.7847032620560421,1.9511158295981417,-0.9602929949760437,-0.18526165187358856,0.20860473811626434
1727297202493,7i,7.629987410421972,1.7s : 8.1s,0.05388057321945588,0.05413676003523087,-0.14158089458942413,0.18547828495502472,0.08195415884256363,-0.005854964256286621,-0.006623774766921997,-0.05341005325317383,0.18569540667036996,-1.7825036092422715,1.9495896141699454,-0.9608656764030457,-0.18463003635406494,0.20651687681674957
1727297202503,7i,7.629987410421972,1.7s : 8.1s,0.04528576265445952,0.05254050758030442,-0.13721756637096405,0.17845401167869568,0.07300599664449692,-0.013516724109649658,-0.00439848005771637,-0.0505811870098114,0.18522713687912834,-1.7803988760887433,1.9480271663921616,-0.9613828063011169,-0.18416978418827057,0.20451204478740692
1727297202513,7i,7.629987410421972,1.7s : 8.1s,0.039858254367435765,0.059267476568615536,-0.1264440268278122,0.16089577972888947,0.07245046645402908,-0.010274767875671387,-0.008914828300476074,-0.057685256004333496,0.18477720314404325,-1.7784384212463997,1.9465696461060256,-0.9618628025054932,-0.18372753262519836,0.2026439607143402
1727297202523,7i,7.629987410421972,1.7s : 8.1s,0.03619380936241669,0.07004669544386487,-0.11322568356990814,0.15982449054718018,0.060183946043252945,-0.014923691749572754,-0.005307003855705261,-0.06823238730430603,0.18434946295082782,-1.7766011188346558,1.9452427785724866,-0.9623103737831116,-0.18330705165863037,0.20089243352413177
1727297202533,7i,7.629987410421972,1.7s : 8.1s,0.03362706631175565,0.06577118313449964,-0.09830506145954132,0.16060373187065125,0.04993290454149246,-0.024175405502319336,0.004126101732254028,-0.0610276460647583,0.18402672449412005,-1.7747787969782223,1.9440713574967765,-0.9627326726913452,-0.18298977613449097,0.19915041327476501
1727297202543,7i,7.629987410421972,1.7s : 8.1s,0.032017767891821064,0.06021132232478519,-0.0866800993680954,0.15527226030826569,0.052317168563604355,-0.02696746587753296,0.007514387369155884,-0.053307533264160156,0.18368612944768942,-1.7730075984052038,1.9430519699643083,-0.9631448984146118,-0.18265491724014282,0.1974574327468872
1727297202553,7i,7.629987410421972,1.7s : 8.1s,0.03460647265257635,0.059312975673878734,-0.07341782003641129,0.16776888072490692,0.031085114926099777,-0.02387058734893799,0.0008175075054168701,-0.05429139733314514,0.18342403757661987,-1.771231282352118,1.942196511361116,-0.9635409116744995,-0.18239723145961761,0.1957557648420334
1727297202563,7i,7.629987410421972,1.7s : 8.1s,0.0300907506510417,0.057129043963881555,-0.10815396159887314,0.16351856291294098,0.02219095453619957,-0.03575146198272705,-0.008574813604354858,-0.04372680187225342,0.18333814177507457,-1.7694014937995712,1.941252446441325,-0.9639129042625427,-0.18231278657913208,0.19399547576904297
1727297202573,7i,7.629987410421972,1.7s : 8.1s,0.02615771532977824,0.05342308318156608,-0.11621322482824326,0.15736106038093567,0.013957260176539421,-0.035310566425323486,-0.016052186489105225,-0.03673577308654785,0.18336859802130925,-1.7675641192450422,1.9400801242969306,-0.9642623066902161,-0.18234272301197052,0.1922229826450348
1727297202583,7i,7.629987410421972,1.7s : 8.1s,0.025762959699660755,0.05010076806144285,-0.11332143098115921,0.15385888516902924,0.007878895848989487,-0.025150299072265625,-0.020658910274505615,-0.038088828325271606,0.1835717953687001,-1.7649876139438374,1.9387630566299874,-0.9647178649902344,-0.18254251778125763,0.18973074853420258
1727297202593,7i,7.629987410421972,1.7s : 8.1s,0.02626155143696149,0.057992515556134494,-0.1032421663403511,0.15205565094947815,0.001749896677210927,-0.02413928508758545,-0.024394020438194275,-0.04674781858921051,0.18393210598553897,-1.7621935945306328,1.9374719355433272,-0.9651796221733093,-0.18289676308631897,0.18702206015586853
1727297202603,7i,7.629987410421972,1.7s : 8.1s,0.024922887495029758,0.05653105624216776,-0.10740748047828674,0.14821985363960266,-0.0012246882542967796,-0.027228891849517822,-0.021316424012184143,-0.04472088813781738,0.18422225412973406,-1.7591561450974258,1.9361830616729494,-0.9656911492347717,-0.1831820011138916,0.1840795874595642
1727297202613,7i,7.629987410421972,1.7s : 8.1s,0.022849002641679425,0.060110806528558595,-0.10604101419448853,0.1445968896150589,0.0010709566995501518,-0.031450092792510986,-0.0225408673286438,-0.04600119590759277,0.1842495041070818,-1.7563437749628814,1.9348987221834837,-0.9662001729011536,-0.18320879340171814,0.1813620626926422
1727297202623,7i,7.629987410421972,1.7s : 8.1s,0.01932239338412263,0.05995290343338355,-0.11663559824228287,0.1332082450389862,0.005838681012392044,-0.030936062335968018,-0.026529699563980103,-0.04397141933441162,0.1842120602831014,-1.7540369554766808,1.933653115822902,-0.9666225910186768,-0.18317198753356934,0.17913396656513214
1727297202633,7i,7.629987410421972,1.7s : 8.1s,0.01622240191841234,0.06530516872050529,-0.11967639625072479,0.12069564312696457,0.0016356799751520157,-0.025887668132781982,-0.03538547456264496,-0.04839898645877838,0.184314932297926,-1.7519754768256983,1.932346411546119,-0.9669711589813232,-0.1832731068134308,0.17713750898838043
1727297202643,7i,7.629987410421972,1.7s : 8.1s,0.015028282342742654,0.06682956429521529,-0.10632024705410004,0.10776443779468536,-0.0023503066040575504,-0.01736658811569214,-0.0396476686000824,-0.05091811716556549,0.1845426833377794,-1.7502334043203895,1.9311544781779146,-0.9672373533248901,-0.18349699676036835,0.17544527351856232
1727297202653,7i,7.629987410421972,1.7s : 8.1s,0.015167777575949993,0.06661140744955875,-0.09820985794067383,0.104213647544384,-0.0020126174204051495,-0.0125502347946167,-0.03740382194519043,-0.053670525550842285,0.18485397669855025,-1.7487197731198507,1.9300884121308373,-0.9674455523490906,-0.1838030070066452,0.17397092282772064
1727297202663,7i,7.629987410421972,1.7s : 8.1s,0.016023110472641166,0.06505022143659328,-0.10052639991044998,0.1023307517170906,0.001791474875062704,-0.005837440490722656,-0.039088115096092224,-0.05166792869567871,0.18520508624500676,-1.7472137753086276,1.9290475053624534,-0.9676428437232971,-0.18414811789989471,0.17250241339206696
1727297202673,7i,7.629987410421972,1.7s : 8.1s,0.01838689794653999,0.06379975237633669,-0.10288756340742111,0.1114688590168953,0.004680471960455179,-0.001789689064025879,-0.04382435977458954,-0.046331748366355896,0.1855560554800274,-1.7455744568131941,1.9279504875771183,-0.967860758304596,-0.1844930648803711,0.17090468108654022
1727297202683,7i,7.629987410421972,1.7s : 8.1s,0.021589956477176427,0.06282235650160886,-0.10135145485401154,0.1188323125243187,0.007895173504948616,0.00037735700607299805,-0.04404185712337494,-0.04479755461215973,0.18584706095846348,-1.7438257352822202,1.9268374401722013,-0.9681050777435303,-0.1847790777683258,0.16920262575149536
1727297202693,7i,7.629987410421972,1.7s : 8.1s,0.025797510878491577,0.06246209192382711,-0.08729449659585953,0.12263743579387665,0.014345616102218628,0.0020134449005126953,-0.039371058344841,-0.04844975471496582,0.18608160341899574,-1.7420108100392913,1.9257988617581763,-0.9683679342269897,-0.18500956892967224,0.16743792593479156
1727297202703,7i,7.629987410421972,1.7s : 8.1s,0.02949452790816232,0.05507756410968296,-0.09765924513339996,0.12865228950977325,0.013017630204558372,0.008005023002624512,-0.031485408544540405,-0.044476136565208435,0.18634238831025723,-1.7401063404215786,1.924768545988392,-0.9686375856399536,-0.18526585400104523,0.16558529436588287
1727297202713,7i,7.629987410421972,1.7s : 8.1s,0.03495539180811595,0.049360288373331125,-0.10630972683429718,0.14840494096279144,0.011372862383723259,0.013705670833587646,-0.029388755559921265,-0.03721415996551514,0.1868145253588807,-1.7379491228833135,1.9236044623747266,-0.9689059853553772,-0.18572978675365448,0.163480743765831
1727297202723,7i,7.629987410421972,1.7s : 8.1s,0.04098786274587637,0.037129295644634554,-0.1046922579407692,0.1588910073041916,0.011044062674045563,0.01624220609664917,-0.02021658420562744,-0.026571884751319885,0.18749949465749413,-1.7354601118928084,1.9223932932056647,-0.9691840410232544,-0.1864027976989746,0.16104771196842194
1727297202733,7i,7.629987410421972,1.7s : 8.1s,0.04611764260665957,0.03688118580573938,-0.0818985253572464,0.14727403223514557,0.010886402800679207,0.01882559061050415,-0.005614116787910461,-0.03121379017829895,0.18821377270404518,-1.73288852045048,1.921265307520888,-0.9694632887840271,-0.1871045082807541,0.15853330492973328
1727297202743,7i,7.629987410421972,1.7s : 8.1s,0.04883913621017826,0.04370402886483525,-0.06251458078622818,0.13179577887058258,0.02025330625474453,0.021274805068969727,-0.005716368556022644,-0.03774583339691162,0.1888708666845491,-1.730612442648653,1.9203840405452552,-0.9697002172470093,-0.1877499669790268,0.15630674362182617
1727297202753,7i,7.629987410421972,1.7s : 8.1s,0.047237136807918086,0.04732666863044428,-0.06903079897165298,0.12809905409812927,0.014218583703041077,0.017089486122131348,-0.018064409494400024,-0.040267109870910645,0.18959731425092494,-1.7285929714362653,1.9195845038997237,-0.9698789119720459,-0.18846343457698822,0.1543266624212265
1727297202763,7i,7.629987410421972,1.7s : 8.1s,0.04440484691527221,0.0443184394603577,-0.06877979636192322,0.12556713819503784,0.007584881968796253,0.011150956153869629,-0.02531619369983673,-0.03462471067905426,0.19040137831446388,-1.726638693187682,1.9187640655465874,-0.9700285792350769,-0.189253032207489,0.15240737795829773
1727297202773,7i,7.629987410421972,1.7s : 8.1s,0.0401270478929944,0.0436018418724862,-0.07802122831344604,0.12483397126197815,-0.0025630928575992584,0.004597306251525879,-0.02945062518119812,-0.03182210028171539,0.19116358167892789,-1.7246378265202444,1.9178933931869835,-0.9701887369155884,-0.19000141322612762,0.15044403076171875
1727297202783,7i,7.629987410421972,1.7s : 8.1s,0.038940198898469384,0.03748713105079526,-0.0640295147895813,0.1243484765291214,-0.003443001303821802,0.003683924674987793,-0.023460328578948975,-0.029005631804466248,0.19185652766794947,-1.722730785694555,1.9170997412668773,-0.9703436493873596,-0.19068168103694916,0.148573637008667
1727297202793,7i,7.629987410421972,1.7s : 8.1s,0.038574571360916715,0.027823438111458612,-0.06512833386659622,0.12054681032896042,0.0009253816679120064,0.007359564304351807,-0.009683281183242798,-0.025024279952049255,0.1924766589275452,-1.7210207450629869,1.9163894851403076,-0.9704793095588684,-0.19129040837287903,0.1468963772058487
1727297202803,7i,7.629987410421972,1.7s : 8.1s,0.03922620556296399,0.028128472402739642,-0.07556712627410889,0.11495328694581985,0.005907623562961817,0.018911421298980713,-0.002405300736427307,-0.020682930946350098,0.1928959149272401,-1.7195314485806006,1.9156608113014135,-0.970617413520813,-0.19170190393924713,0.14543895423412323
1727297202813,7i,7.629987410421972,1.7s : 8.1s,0.036158272713818364,0.025084174824890237,-0.10013558715581894,0.10779497772455215,0.007092463783919811,0.020128905773162842,-0.004265055060386658,-0.014347553253173828,0.1930532479995995,-1.7179767439505282,1.9147083644990872,-0.9708125591278076,-0.19185630977153778,0.14392533898353577
1727297202823,7i,7.629987410421972,1.7s : 8.1s,0.030763070142278463,0.018654902058280517,-0.11205390095710754,0.10064975917339325,0.014054466038942337,0.015034317970275879,-0.006276041269302368,-0.009087681770324707,0.19321196787501976,-1.7163671482933203,1.9135470478186731,-0.9710127711296082,-0.19201208651065826,0.14235810935497284
1727297202833,7i,7.629987410421972,1.7s : 8.1s,0.025094300118083834,0.015463543295212696,-0.12065217643976212,0.09251034259796143,0.020493457093834877,0.012887299060821533,-0.0036348551511764526,-0.007734760642051697,0.1934777565321547,-1.7147929700104554,1.9122784395386077,-0.9711852669715881,-0.19227291643619537,0.14082208275794983
1727297202843,7i,7.629987410421972,1.7s : 8.1s,0.020739512677988892,0.01905340996642939,-0.1256011426448822,0.08153891563415527,0.028903387486934662,0.01707637310028076,-0.005414023995399475,-0.006489858031272888,0.19373276799242792,-1.7134084733107522,1.9109497041852734,-0.9713307023048401,-0.19252316653728485,0.13947036862373352
1727297202853,7i,7.629987410421972,1.7s : 8.1s,0.017108801151163974,0.01894354889409974,-0.13363802433013916,0.07884486019611359,0.03380706533789635,0.018406689167022705,-0.002133280038833618,-0.003937125205993652,0.19393499423065536,-1.7121214516147247,1.90956048277024,-0.9714707732200623,-0.19272160530090332,0.13821463286876678
1727297202863,7i,7.629987410421972,1.7s : 8.1s,0.01336331057834964,0.015733867716625233,-0.15411733090877533,0.08417859673500061,0.03416968882083893,0.014824450016021729,0.0011715143918991089,0.005139827728271484,0.1940529127560767,-1.7108231871255781,1.9080137562132657,-0.9716269373893738,-0.19283731281757355,0.13695012032985687
1727297202873,7i,7.629987410421972,1.7s : 8.1s,0.011124894431356334,0.016640714809655826,-0.1651204526424408,0.0896279588341713,0.04663168266415596,0.010821998119354248,0.001557871699333191,0.012544751167297363,0.1939957036319463,-1.7094823922673266,1.9063209996237243,-0.971820592880249,-0.19278118014335632,0.13564877212047577
1727297202883,7i,7.629987410421972,1.7s : 8.1s,0.010555884721046327,0.017829969705314454,-0.1703057587146759,0.09389083832502365,0.05102720111608505,0.010632574558258057,0.00018769502639770508,0.014311566948890686,0.19379674183628012,-1.7081143671027472,1.9045319646011638,-0.9720433354377747,-0.19258594512939453,0.13432443141937256
1727297202893,7i,7.629987410421972,1.7s : 8.1s,0.00977299117312954,0.01389732568237506,-0.17684195935726166,0.09495317190885544,0.054870136082172394,0.0058252811431884766,0.0003348886966705322,0.012613072991371155,0.19360465762271215,-1.7067956672855875,1.9027112323530155,-0.9722561836242676,-0.19239744544029236,0.13304747641086578
1727297202903,7i,7.629987410421972,1.7s : 8.1s,0.010940380855197203,0.013531475311009237,-0.1900593489408493,0.10992692410945892,0.05270202457904816,-0.0010465383529663086,-0.00019122660160064697,0.013489589095115662,0.19345720910561956,-1.705435243317978,1.9007934627001106,-0.9724642634391785,-0.1922527551651001,0.13172847032546997
1727297202913,7i,7.629987410421972,1.7s : 8.1s,0.011364164268924417,0.021610435529188766,-0.2126019448041916,0.1136699989438057,0.04840688407421112,0.004830598831176758,-0.0014403760433197021,0.021014317870140076,0.19331937389966122,-1.7039859956847223,1.8987263500341138,-0.9726803302764893,-0.19211748242378235,0.13032250106334686
1727297202923,7i,7.629987410421972,1.7s : 8.1s,0.013505807390877629,0.02550035722317321,-0.2381548434495926,0.1357111632823944,0.033548805862665176,0.010018527507781982,-0.00376872718334198,0.02314506471157074,0.19337238405276555,-1.7023773898613213,1.8964054051874504,-0.9728786945343018,-0.19216951727867126,0.1287563443183899
1727297202933,7i,7.629987410421972,1.7s : 8.1s,0.015350881645508015,0.03187943252788481,-0.24041427671909332,0.15103685855865479,0.0354420468211174,0.010120511054992676,0.001434326171875,0.03019629418849945,0.19346548906659436,-1.7006059124058188,1.8939537828699597,-0.97308748960495,-0.19226087629795074,0.1270303875207901
1727297202943,7i,7.629987410421972,1.7s : 8.1s,0.01886056222326948,0.03448913432693807,-0.24279940128326416,0.1673368215560913,0.03833996504545212,0.015038609504699707,0.008880779147148132,0.02974008023738861,0.1934345483015107,-1.698800482077444,1.8915182518944589,-0.9733210802078247,-0.19223052263259888,0.12527409195899963
1727297202953,7i,7.629987410421972,1.7s : 8.1s,0.02367500686430898,0.03407266797735589,-0.256676584482193,0.18363137543201447,0.03829389438033104,0.021567344665527344,0.0076138973236083984,0.025255195796489716,0.19340305408539107,-1.6969018131745668,1.889016121054753,-0.9735631942749023,-0.19219960272312164,0.12342662364244461
1727297202963,7i,7.629987410421972,1.7s : 8.1s,0.02869692233066965,0.03048018469973109,-0.2632600665092468,0.20460283756256104,0.03491104394197464,0.018251657485961914,0.007680714130401611,0.023171648383140564,0.19340892563462972,-1.6948106020502647,1.8864080006135662,-0.9738180637359619,-0.19220536947250366,0.12139029055833817
1727297202973,7i,7.629987410421972,1.7s : 8.1s,0.032710440659603816,0.029696832940154974,-0.2643554210662842,0.2118290513753891,0.03526657819747925,0.017513751983642578,0.007460832595825195,0.02279268205165863,0.19340254662676387,-1.692583126812851,1.8837738375891766,-0.9740872383117676,-0.19219911098480225,0.11922097951173782
1727297202983,7i,7.629987410421972,1.7s : 8.1s,0.034266985078373405,0.02665674007704124,-0.27582553029060364,0.21507930755615234,0.02799704670906067,0.015661895275115967,0.0024577677249908447,0.021430030465126038,0.19340447397381766,-1.6903011526938725,1.8810799006932613,-0.9743565917015076,-0.19220100343227386,0.11699780821800232
1727297202993,7i,7.629987410421972,1.7s : 8.1s,0.033893482491198064,0.028895516089060252,-0.3127555847167969,0.2217784970998764,0.013813583180308342,0.019478023052215576,-0.0015759170055389404,0.021285533905029297,0.1935699976385467,-1.688041919437023,1.8781895737267258,-0.9745867252349854,-0.192363440990448,0.11479248106479645
1727297203003,7i,7.629987410421972,1.7s : 8.1s,0.03366812785276331,0.037917508544424335,-0.3515767455101013,0.24272389709949493,-0.00510537950322032,0.018244147300720215,-0.0017760545015335083,0.033192381262779236,0.19398800839304897,-1.6855728411547775,1.874915508531486,-0.9747870564460754,-0.19277362525463104,0.11237657070159912
1727297203013,7i,7.629987410421972,1.7s : 8.1s,0.03466657892568346,0.04760724727588557,-0.3800049424171448,0.2628326416015625,-0.01210203766822815,0.017515182495117188,-0.0013161003589630127,0.04424857348203659,0.19448790229267782,-1.6823351466730057,1.8712064665059092,-0.9750499725341797,-0.19326411187648773,0.10920918732881546
1727297203023,7i,7.629987410421972,1.7s : 8.1s,0.03517303973296225,0.04682039724263636,-0.3926495909690857,0.26861143112182617,-0.008372679352760315,0.016285061836242676,-0.0004547983407974243,0.04389464110136032,0.19500808117146518,-1.6789384969336012,1.8673082359287794,-0.975315272808075,-0.19377446174621582,0.10588579624891281
1727297203033,7i,7.629987410421972,1.7s : 8.1s,0.036775431436183864,0.04241315855876996,-0.41243740916252136,0.28575554490089417,0.002172640059143305,0.0172995924949646,0.0031288713216781616,0.038598060607910156,0.19545697893439792,-1.6753988852095616,1.863225939266414,-0.9755973815917969,-0.1942148357629776,0.10242381691932678
1727297203043,7i,7.629987410421972,1.7s : 8.1s,0.03966978271681951,0.05362736634301126,-0.4422115683555603,0.3069573938846588,0.01498890295624733,0.022639691829681396,7.207691669464111e-05,0.048614129424095154,0.1957784915469565,-1.671598958196832,1.8588965553098695,-0.9759172201156616,-0.19453021883964539,0.0987095907330513
1727297203053,7i,7.629987410421972,1.7s : 8.1s,0.03996778806791481,0.06535996112272863,-0.4769144058227539,0.3200388252735138,0.03605557233095169,0.016661405563354492,-0.010160833597183228,0.06237851828336716,0.1959710219409882,-1.6675529670732676,1.854210053229898,-0.9762714505195618,-0.19471906125545502,0.09475662559270859
1727297203063,7i,7.629987410421972,1.7s : 8.1s,0.03806978841163022,0.0707749373171237,-0.5100480318069458,0.32430481910705566,0.06427779048681259,0.011675775051116943,-0.020059987902641296,0.06686078757047653,0.1959126520345997,-1.6633522194134684,1.8491594041533075,-0.9766720533370972,-0.19466181099414825,0.09065577387809753
1727297203073,7i,7.629987410421972,1.7s : 8.1s,0.035646631591441186,0.06955454984114504,-0.5384857654571533,0.3183704912662506,0.08153160661458969,0.017660021781921387,-0.023688018321990967,0.06296695023775101,0.19563633579242576,-1.659101613914529,1.8437699022278888,-0.9771023988723755,-0.19439077377319336,0.08650828152894974
1727297203083,7i,7.629987410421972,1.7s : 8.1s,0.034791623396707105,0.0642432110358868,-0.54464191198349,0.32222452759742737,0.10140644758939743,0.017316579818725586,-0.019119128584861755,0.058836936950683594,0.19517629695906852,-1.654826290739179,1.8381942133000329,-0.9775522351264954,-0.19393949210643768,0.08233756572008133
1727297203093,7i,7.629987410421972,1.7s : 8.1s,0.03033435172241307,0.06010817691694711,-0.586112916469574,0.30319198966026306,0.12481456995010376,0.006652712821960449,-0.016610801219940186,0.057383060455322266,0.19448241906323752,-1.6505747917981783,1.832362572223426,-0.97802734375,-0.19325873255729675,0.07819147408008575
1727297203103,7i,7.629987410421972,1.7s : 8.1s,0.03141829944585365,0.04978670587195621,-0.6401418447494507,0.2950744926929474,0.1263723224401474,0.0029907822608947754,-0.01377597451210022,0.04774928092956543,0.19368595957016033,-1.646372351894719,1.8260429569528276,-0.9785005450248718,-0.19247722625732422,0.07409229874610901
1727297203113,7i,7.629987410421972,1.7s : 8.1s,0.036344132702449905,0.053130896099852186,-0.6811164617538452,0.29694509506225586,0.12964826822280884,0.012408971786499023,-0.00932285189628601,0.05081332474946976,0.19287498347708093,-1.6421230968535714,1.819220797288731,-0.9789619445800781,-0.19168135523796082,0.0699448436498642
1727297203123,7i,7.629987410421972,1.7s : 8.1s,0.04085506206467961,0.04950589701344504,-0.7044509053230286,0.3032173216342926,0.13564833998680115,0.0146712064743042,-0.0016896724700927734,0.04725182056427002,0.19200824799985822,-1.6377544728795261,1.81208123052026,-0.979423463344574,-0.19083061814308167,0.06567856669425964
1727297203133,7i,7.629987410421972,1.7s : 8.1s,0.04251306779284441,0.04137958957279989,-0.7104043960571289,0.29711681604385376,0.14334514737129211,0.019246995449066162,0.00796671211719513,0.035754092037677765,0.19107322828262377,-1.6333740073077987,1.8047844646293068,-0.9798795580863953,-0.18991270661354065,0.06139875575900078
1727297203143,7i,7.629987410421972,1.7s : 8.1s,0.04123125639280484,0.03855272131430302,-0.686592698097229,0.29223689436912537,0.1587146818637848,0.02460700273513794,0.017682120203971863,0.023835904896259308,0.18998089422181738,-1.6290654593134244,1.7975689450974146,-0.9803414344787598,-0.1888401359319687,0.05718838423490524
1727297203153,7i,7.629987410421972,1.7s : 8.1s,0.03764400019893414,0.034261437565701394,-0.6200842261314392,0.3114425539970398,0.17342118918895721,0.018835484981536865,0.027147933840751648,0.009058713912963867,0.18865020074085642,-1.6248098453022097,1.7907536680584932,-0.9808259010314941,-0.1875332146883011,0.053029440343379974
1727297203163,7i,7.629987410421972,1.7s : 8.1s,0.04014690522047231,0.0324747170582249,-0.6396828293800354,0.36406826972961426,0.14921528100967407,-0.000590980052947998,0.030455708503723145,0.01125645637512207,0.1872643703694317,-1.6203318823970072,1.7845710531966825,-0.9813121557235718,-0.1861717849969864,0.04864964261651039
1727297203173,7i,7.629987410421972,1.7s : 8.1s,0.04893884711406561,0.06292010640712332,-0.769191563129425,0.41575169563293457,-0.010067581199109554,-0.02679687738418579,0.04233372211456299,0.038062095642089844,0.1869139862402937,-1.614922601472366,1.777140394689005,-0.9816260933876038,-0.18582752346992493,0.04334363713860512
1727297203183,7i,7.629987410421972,1.7s : 8.1s,0.050828089607104374,0.1675281120703131,-0.6554447412490845,0.33120572566986084,0.15659816563129425,-0.08495193719863892,0.10964111983776093,0.0939556360244751,0.18672852655847919,-1.6098848365558693,1.7699773922174074,-0.9818663001060486,-0.18564528226852417,0.03839924931526184
1727297203193,7i,7.629987410421972,1.7s : 8.1s,0.08037085500046608,0.10718687284291499,-0.7858741283416748,0.26711195707321167,0.2929893136024475,-0.09908974170684814,0.005719035863876343,-0.0404665470123291,0.18448296589673288,-1.6055422977660332,1.7626256070734962,-0.9824380874633789,-0.18343830108642578,0.03414950892329216
1727297203203,7i,7.629987410421972,1.7s : 8.1s,0.06597823830868592,0.17838295788945704,-0.7915907502174377,0.2195201814174652,0.17044663429260254,0.07118749618530273,-0.11253570020198822,-0.11869513988494873,0.18238877465692085,-1.6016288635077938,1.7543506748667586,-0.9829460382461548,-0.18137924373149872,0.030316326767206192
1727297203213,7i,7.629987410421972,1.7s : 8.1s,0.03136429257222125,0.16144955201381314,-0.6202458739280701,0.239000141620636,0.1153695359826088,0.14164763689041138,-0.008421316742897034,-0.07701289653778076,0.1811978851283962,-1.5981196610436417,1.7471327649432402,-0.9832614660263062,-0.1802079826593399,0.026872670277953148
1727297203223,7i,7.629987410421972,1.7s : 8.1s,0.032144129145275514,0.15386507347026784,-0.5598238110542297,0.32305827736854553,0.0548495352268219,0.07208365201950073,0.1268525868654251,-0.04885518550872803,0.1804581472892143,-1.5942471905799753,1.741245408176113,-0.9834911823272705,-0.17948029935359955,0.02306794747710228
1727297203233,7i,7.629987410421972,1.7s : 8.1s,0.04400581770507662,0.16178693054082965,-0.6477606296539307,0.315997451543808,0.03921385109424591,-0.07886648178100586,0.14115847647190094,-0.0054197292774915695,0.1801720152282415,-1.5898931544493669,1.735135157787034,-0.9836337566375732,-0.17919880151748657,0.018786568194627762
1727297203243,7i,7.629987410421972,1.7s : 8.1s,0.07677783449681862,0.12550963117767994,-0.7348776459693909,0.24602839350700378,0.06590977311134338,-0.11132663488388062,0.05762110650539398,-0.006233455613255501,0.1797267874106375,-1.5858328089507103,1.7280852831758,-0.9837813973426819,-0.17876076698303223,0.014793725684285164
1727297203253,7i,7.629987410421972,1.7s : 8.1s,0.07376161703068243,0.05326208866095897,-0.7344920039176941,0.19447225332260132,0.04428890347480774,0.023096799850463867,-0.011435151100158691,-0.04661142826080322,0.17925117065138163,-1.5823143045964456,1.720525056075525,-0.983912467956543,-0.17829279601573944,0.011333182454109192
1727297203263,7i,7.629987410421972,1.7s : 8.1s,0.0510303008924498,0.11011046092081035,-0.618683934211731,0.18229752779006958,0.028785308822989464,0.08384966850280762,0.004273593425750732,-0.07124102115631104,0.17894861167071266,-1.5792607165115615,1.7136177584746048,-0.9839963316917419,-0.17799507081508636,0.008329126983880997
1727297203273,7i,7.629987410421972,1.7s : 8.1s,0.04386452351880458,0.10710424515657943,-0.556355893611908,0.19607965648174286,0.015093198046088219,0.040479421615600586,0.05906699597835541,-0.07964813709259033,0.1787460817473514,-1.5763293243189467,1.7077109694271433,-0.9840524196624756,-0.17779576778411865,0.005444815382361412
1727297203283,7i,7.629987410421972,1.7s : 8.1s,0.05112989472344564,0.08938587292834117,-0.5592047572135925,0.20793849229812622,-0.0030453582294285297,-0.013686418533325195,0.06927162408828735,-0.05480837821960449,0.17871151942631294,-1.5733071459349752,1.7020713409126165,-0.9840705990791321,-0.1777617633342743,0.002470828592777252
1727297203293,7i,7.629987410421972,1.7s : 8.1s,0.060492333149131,0.04771730866817169,-0.5997077226638794,0.1942833960056305,0.005316434893757105,-0.02070075273513794,0.03685222566127777,-0.02214348316192627,0.17870164195853838,-1.5702567493167605,1.6962024447861206,-0.9840753674507141,-0.1777520477771759,-0.0005309849511831999
1727297203303,7i,7.629987410421972,1.7s : 8.1s,0.06539764178062576,0.016707103336779352,-0.6377325654029846,0.18379560112953186,0.012638197280466557,0.0037456750869750977,0.0005916059017181396,-0.01627105474472046,0.17857174827885774,-1.5672820084380015,1.6898966050567796,-0.9840922951698303,-0.17762421071529388,-0.0034584279637783766
1727297203313,7i,7.629987410421972,1.7s : 8.1s,0.06599962469606041,0.02570243933092114,-0.6466373801231384,0.1834038496017456,0.014742626808583736,0.01947951316833496,-0.003918752074241638,-0.016303598880767822,0.17839202085932712,-1.5643071774533466,1.6833437182682747,-0.9841096997261047,-0.1774473488330841,-0.006386124528944492
1727297203323,7i,7.629987410421972,1.7s : 8.1s,0.06372040881253362,0.024109465294688347,-0.6144610643386841,0.19291657209396362,0.026259399950504303,0.014236867427825928,0.01807790994644165,-0.007194935344159603,0.17813733510518104,-1.5613159165634543,1.6769394087680125,-0.9841312170028687,-0.1771966964006424,-0.009330247528851032
1727297203333,7i,7.629987410421972,1.7s : 8.1s,0.061497165824240446,0.032608186843679554,-0.5886931419372559,0.18578383326530457,0.04598170891404152,0.006438732147216797,0.031626731157302856,-0.004646122455596924,0.17770226193793992,-1.5583393217475723,1.6708423538903827,-0.9841762781143188,-0.1767684817314148,-0.012260522693395615
1727297203343,7i,7.629987410421972,1.7s : 8.1s,0.06213367239225292,0.027235017111880876,-0.5824741721153259,0.17411012947559357,0.07466987520456314,0.0024192333221435547,0.024344727396965027,-0.011967778205871582,0.17700105385176834,-1.5555168201744511,1.6649301415168214,-0.9842613339424133,-0.17607827484607697,-0.015040198341012001
1727297203353,7i,7.629987410421972,1.7s : 8.1s,0.06514523078227256,0.018248163428017456,-0.5946781039237976,0.15651223063468933,0.09178441017866135,0.0061574578285217285,0.00698070228099823,-0.015695571899414062,0.1760560601606273,-1.5528270673061255,1.6589767020851192,-0.984383225440979,-0.17514796555042267,-0.017690541222691536
