timestamp,club,max_speed,tempo,speed,acc,rotation.x,rotation.y,rotation.z,userAcceleration.x,userAcceleration.y,userAcceleration.z,pitch,roll,yaw,gravity.x,gravity.y,gravity.z
1727296637344,7i,9.357521607405276,2.5s : 10.7s,0.03189541919580087,0.040529146294673836,-0.17728404700756073,-0.12226232886314392,0.07461601495742798,0.0075525641441345215,-0.012092143297195435,0.03793877363204956,-0.35776449070083033,1.51994297845134,0.34036764836817474,0.9354710578918457,0.3501811623573303,-0.047612886875867844
1727296637354,7i,9.357521607405276,2.5s : 10.7s,0.051404082717213674,0.07551014774784785,-0.15009009838104248,-0.1143059954047203,0.06143639609217644,0.009959697723388672,-0.034480661153793335,0.06643546372652054,-0.35714962632905245,1.5193584646945348,0.3421469445661887,0.9356578588485718,0.34960514307022095,-0.04817073047161102
1727296637364,7i,9.357521607405276,2.5s : 10.7s,0.05789254532659748,0.05536756859387795,-0.14212830364704132,-0.10257983207702637,0.05604029819369316,0.01560288667678833,-0.0037966668605804443,0.05298776179552078,-0.3566300211586657,1.5188190914918842,0.3437287028447109,0.9358129501342773,0.34911829233169556,-0.04868482053279877
1727296637374,7i,9.357521607405276,2.5s : 10.7s,0.06300070614312893,0.03899339803971136,-0.14509813487529755,-0.09763989597558975,0.047868356108665466,0.005055904388427734,0.020063340663909912,0.033051252365112305,-0.3561629660571448,1.5183644904435716,0.3453163286625086,0.9359536170959473,0.3486805856227875,-0.049118783324956894
1727296637384,7i,9.357521607405276,2.5s : 10.7s,0.06608884985244834,0.032284453696604806,-0.13968631625175476,-0.09266377985477448,0.0368838831782341,-0.0021944642066955566,0.015302062034606934,0.028342850506305695,-0.35578906888329037,1.5179409609038466,0.3468420252120098,0.936062753200531,0.3483301103115082,-0.04952206462621689
1727296637394,7i,9.357521607405276,2.5s : 10.7s,0.08627350906082766,0.030318568976467626,-0.19441242516040802,-0.17469295859336853,0.4286019206047058,-0.015519440174102783,0.021891266107559204,0.01411152258515358,-0.3550594090731173,1.517526099883603,0.34858104519104943,0.936295747756958,0.3476460576057434,-0.04992391914129257
1727296637404,7i,9.357521607405276,2.5s : 10.7s,0.11672907107783188,0.04878572318827281,-0.2648216187953949,-0.18139347434043884,0.8297868967056274,-0.040182411670684814,0.027457594871520996,-0.003391321748495102,-0.35527429800656163,1.5175880647607702,0.35093609166953044,0.9362242221832275,0.3478475511074066,-0.04986192658543587
1727296637414,7i,9.357521607405276,2.5s : 10.7s,0.12999380794149326,0.024623674391144997,-0.27016738057136536,-0.1850346326828003,0.3992103636264801,-0.022778868675231934,0.005826056003570557,0.00731474906206131,-0.35565916197371333,1.5176516634631645,0.3536383145488848,0.9360935688018799,0.34820833802223206,-0.04979526624083519
1727296637424,7i,9.357521607405276,2.5s : 10.7s,0.11161095386359583,0.020255790834647427,-0.21001829206943512,-0.09871332347393036,0.06031696870923042,0.014358222484588623,-0.0007262229919433594,0.014269236475229263,-0.354770726644868,1.5176403433613948,0.3561418505034973,0.9364015460014343,0.34737539291381836,-0.04982227832078934
1727296637434,7i,9.357521607405276,2.5s : 10.7s,0.09982706205842141,0.039747613680844646,-0.14458708465099335,-0.0732915848493576,0.11814644932746887,-0.03929048776626587,-0.002640247344970703,0.005399949848651886,-0.35375286851823307,1.5175831748154693,0.35806700341689207,0.9367513060569763,0.3464207351207733,-0.04989459365606308
1727296637444,7i,9.357521607405276,2.5s : 10.7s,0.08227456073812825,0.04258116626993167,-0.08502574265003204,-0.04185190051794052,0.11392320692539215,-0.04033386707305908,-0.0002602040767669678,0.013647973537445068,-0.352696198729282,1.5174159532962888,0.3593491136786538,0.9371080994606018,0.34542930126190186,-0.05007074773311615
1727296637454,7i,9.357521607405276,2.5s : 10.7s,0.05538996696305294,0.03370992911374658,-0.0077788932248950005,-0.04252168536186218,0.1262308657169342,-0.012171268463134766,0.0004897415637969971,0.031432144343853,-0.35149085912935674,1.5171547277830655,0.35993232484672677,0.9375101327896118,0.3442978858947754,-0.05033783242106438
1727296637464,7i,9.357521607405276,2.5s : 10.7s,0.03840993691384228,0.04734461915122303,0.055835504084825516,-0.027244465425610542,0.11755375564098358,-0.0341486930847168,-0.010070353746414185,0.031208455562591553,-0.35025693458956253,1.5167178820802152,0.35972872220911883,0.9379115104675293,0.3431391417980194,-0.05077029764652252
1727296637474,7i,9.357521607405276,2.5s : 10.7s,0.021298956122667263,0.032127804913708875,0.09255130589008331,-0.034427233040332794,0.12657858431339264,-0.01850038766860962,-0.003527343273162842,0.026028625667095184,-0.3489933721039284,1.5161649600819314,0.35900891920313177,0.9383155703544617,0.34195202589035034,-0.05131252110004425
1727296637484,7i,9.357521607405276,2.5s : 10.7s,0.017876727087184276,0.04223273733993546,0.020490428432822227,-0.022344470024108887,0.13573665916919708,-0.014709234237670898,-0.02061307430267334,0.03379857540130615,-0.34807980488483875,1.5156106850860855,0.35827989161088863,0.9385983347892761,0.34109339118003845,-0.05184979736804962
1727296637504,7i,9.357521607405276,2.5s : 10.7s,0.02244290599123775,0.05317748078043474,-0.07014693319797516,-0.01338368933647871,0.08780545741319656,-0.0096932053565979,-0.045277804136276245,0.026149697601795197,-0.3462368977270512,1.5159769736624156,0.35984068242126943,0.9392432570457458,0.33936044573783875,-0.051540348678827286
1727296637514,7i,9.357521607405276,2.5s : 10.7s,0.016183857245153484,0.038021277623498516,-0.04477033391594887,-0.014375138096511364,0.10484658926725388,0.011744976043701172,-0.03581821918487549,-0.004972752183675766,-0.34544307871065755,1.5161004673231795,0.36048690108193787,0.939518392086029,0.3386136293411255,-0.0514390729367733
1727296637524,7i,9.357521607405276,2.5s : 10.7s,0.010732834106613208,0.02542822350646229,-0.04916162043809891,-0.01590033248066902,0.10588441789150238,0.022883713245391846,0.010037899017333984,0.004708588123321533,-0.34461246749975266,1.516287683813869,0.3610987109464792,0.9398085474967957,0.33783194422721863,-0.051278483122587204
1727296637534,7i,9.357521607405276,2.5s : 10.7s,0.01201731931390037,0.00893498399372139,-0.03022041916847229,-0.034187547862529755,0.11500275135040283,0.0080605149269104,0.0010477006435394287,0.0037100352346897125,-0.3436266539649881,1.5164926647043215,0.3617029926009323,0.9401510953903198,0.3369039297103882,-0.05110388994216919
1727296637494,7i,9.357521607405276,2.5s : 10.7s,0.022216022386158347,0.05133373822351066,-0.09062957018613815,-0.019743049517273903,0.10363128781318665,-0.0069921016693115234,-0.03683018684387207,0.035068511962890625,-0.34708664808152123,1.515643190556122,0.35880711134202703,0.9389378428459167,0.3401596248149872,-0.05183793976902962
1727296637544,7i,9.357521607405276,2.5s : 10.7s,0.031255584334292354,0.016856609212360575,0.004355400800704956,-0.16802364587783813,0.6478091478347778,0.015189647674560547,-0.006515413522720337,-0.003311987966299057,-0.34183896598673114,1.5163358785851195,0.36201695400816664,0.9407429099082947,0.33522021770477295,-0.05128399282693863
1727296637554,7i,9.357521607405276,2.5s : 10.7s,0.04976347780524428,0.10216066929026534,-0.0009153942810371518,-0.3410869836807251,1.478908658027649,0.10134822130203247,0.01051795482635498,0.007396824657917023,-0.3408787253376159,1.516179126219688,0.36195035053738117,0.9410558342933655,0.33431538939476013,-0.051449004560709
1727296637564,7i,9.357521607405276,2.5s : 10.7s,0.08072340792073739,0.010509840718369754,0.03385457023978233,-0.32472851872444153,0.7444975972175598,0.006074786186218262,-0.006192833185195923,0.0059331730008125305,-0.3401690202389184,1.5159808675984647,0.36154962068030855,0.9412822127342224,0.3336464464664459,-0.05164855718612671
1727296637574,7i,9.357521607405276,2.5s : 10.7s,0.08115993827265937,0.06661241480993407,0.0685901790857315,-0.07362589985132217,0.14786672592163086,-0.06378722190856934,-0.01919052004814148,0.0003578662872314453,-0.3385317076945596,1.5153383296407248,0.36097076631487895,0.9417932033538818,0.332102507352829,-0.052283573895692825
1727296637584,7i,9.357521607405276,2.5s : 10.7s,0.056518848899783994,0.04243281608308233,0.060936253517866135,-0.055756088346242905,0.13742153346538544,-0.032316744327545166,-0.027391433715820312,0.0024251341819763184,-0.33700268652047116,1.5145831065263384,0.36031796664040183,0.9422593712806702,0.3306598663330078,-0.05302329361438751
1727296637594,7i,9.357521607405276,2.5s : 10.7s,0.034249845520986706,0.041639714170620165,-0.009316336363554,-0.032970525324344635,0.11518554389476776,0.017327189445495605,-0.036942631006240845,0.008299175649881363,-0.3357894095173099,1.5141057834672231,0.3600909688694927,0.9426336288452148,0.32951459288597107,-0.05349573493003845
1727296637604,7i,9.357521607405276,2.5s : 10.7s,0.03686692554493713,0.051451490945187035,-0.08093991875648499,-0.04057890921831131,0.10065214335918427,-0.012693285942077637,-0.047976016998291016,0.013580802828073502,-0.3346596905674711,1.513850824559221,0.3606350434019365,0.9429910778999329,0.32844775915145874,-0.05375722050666809
1727296637614,7i,9.357521607405276,2.5s : 10.7s,0.033806603510426865,0.042870763702321756,-0.13248859345912933,-0.00746463518589735,0.083711177110672,0.013616740703582764,-0.035677313804626465,0.019483737647533417,-0.3336420516877212,1.5138248043477494,0.36184601907088937,0.943323016166687,0.32748639583587646,-0.05380076915025711
1727296637624,7i,9.357521607405276,2.5s : 10.7s,0.03258963345755683,0.03446605496998713,-0.12104473263025284,0.014872361905872822,0.07778644561767578,-0.01097404956817627,-0.027158260345458984,0.018163371831178665,-0.3326845405399926,1.5138522580679306,0.3632915967066937,0.9436371922492981,0.32658153772354126,-0.053792696446180344
1727296637634,7i,9.357521607405276,2.5s : 10.7s,0.02259764324740447,0.018401362426269864,-0.06999898701906204,0.03173420950770378,0.08221364766359329,-0.008306741714477539,-0.006638258695602417,0.015018045902252197,-0.3316708065776338,1.5137288261370738,0.36437700563045755,0.943960428237915,0.32562321424484253,-0.05392801761627197
1727296637644,7i,9.357521607405276,2.5s : 10.7s,0.01229869368688462,0.01932311287999441,-0.028341026976704597,0.06347056478261948,0.09104735404253006,-0.018294036388397217,0.005242735147476196,0.00335032120347023,-0.33056339563651826,1.5134380418366387,0.36494143810688756,0.9443041086196899,0.3245759606361389,-0.05422314256429672
1727296637654,7i,9.357521607405276,2.5s : 10.7s,0.009486593365846173,0.0347234069480922,-0.027153123170137405,0.09380339831113815,0.1040549948811531,-0.030475258827209473,0.01545688509941101,-0.006169140338897705,-0.329379636272156,1.513216852428793,0.3652671310611862,0.944675087928772,0.3234560787677765,-0.05445408448576927
1727296637664,7i,9.357521607405276,2.5s : 10.7s,0.01198989838192491,0.030401937131879848,-0.05071011185646057,0.11093977093696594,0.10629657655954361,-0.030177652835845947,0.0023904144763946533,-0.0028058812022209167,-0.3282401379126528,1.5130549767544563,0.3657212419547469,0.9450334906578064,0.32237762212753296,-0.05462823435664177
1727296637674,7i,9.357521607405276,2.5s : 10.7s,0.015779025052113968,0.035007313438977776,-0.06662649661302567,0.13206148147583008,0.10069788247346878,-0.03471630811691284,0.003105849027633667,0.003262460231781006,-0.32730719030861416,1.512997519496289,0.366372908041115,0.9453303217887878,0.32149434089660645,-0.054699890315532684
1727296637684,7i,9.357521607405276,2.5s : 10.7s,0.017193519515913535,0.06377182452950513,-0.07159116119146347,0.15079282224178314,0.11712026596069336,-0.05621981620788574,0.030065804719924927,0.0014917291700839996,-0.3265362243642486,1.51301338637612,0.3670878681970764,0.9455782771110535,0.3207642138004303,-0.054699186235666275
1727296637694,7i,9.357521607405276,2.5s : 10.7s,0.018434361458125315,0.06582885187169973,-0.08389163762331009,0.16203594207763672,0.13663893938064575,-0.05846482515335083,0.03025031089782715,-0.00046973302960395813,-0.3258743172841475,1.5130835441705774,0.36788136756302736,0.9457937479019165,0.3201372027397156,-0.05464507266879082
1727296637704,7i,9.357521607405276,2.5s : 10.7s,0.01845052656688475,0.0712372909374512,-0.07414020597934723,0.1633715182542801,0.17405608296394348,-0.06826406717300415,0.018770694732666016,0.007901251316070557,-0.3252998642785521,1.5131334545528123,0.36869359781390976,0.9459801316261292,0.3195929527282715,-0.05460846796631813
1727296637714,7i,9.357521607405276,2.5s : 10.7s,0.016668733559078643,0.08574237760392513,-0.05699210986495018,0.15654601156711578,0.20703141391277313,-0.0833503007888794,0.01871412992477417,0.00736641138792038,-0.32474772743523245,1.5131772739909208,0.36933686930351967,0.9461586475372314,0.3190697133541107,-0.05457717552781105
1727296637724,7i,9.357521607405276,2.5s : 10.7s,0.014834794071756415,0.0847351119237469,-0.03649322688579559,0.14216093719005585,0.23830145597457886,-0.08382576704025269,0.003484100103378296,0.011880278587341309,-0.3242343773598311,1.5133030309313626,0.36982736460086446,0.9463287591934204,0.3185831606388092,-0.054467588663101196
1727296637734,7i,9.357521607405276,2.5s : 10.7s,0.013747633525008402,0.08317569955427218,0.007860254496335983,0.12448647618293762,0.2674143612384796,-0.08176428079605103,-0.0011677443981170654,0.0152130126953125,-0.3237171189369759,1.5133385945914046,0.36997032552139414,0.9464951157569885,0.31809279322624207,-0.05444338917732239
1727296637744,7i,9.357521607405276,2.5s : 10.7s,0.014301993955320507,0.0834160488379212,0.059858743101358414,0.1105315089225769,0.29569366574287415,-0.0829232931137085,0.0023685991764068604,0.008738100528717041,-0.323125554796595,1.5132426645501196,0.3695685733176095,0.946677565574646,0.31753191351890564,-0.054545000195503235
1727296637754,7i,9.357521607405276,2.5s : 10.7s,0.01863392479426176,0.07793931491492279,0.10668963193893433,0.10481219738721848,0.31958073377609253,-0.07774388790130615,0.005377650260925293,-0.0012270212173461914,-0.3224948237619352,1.513094861363813,0.3686702819638324,0.9468691945075989,0.3169337511062622,-0.0546964593231678
1727296637764,7i,9.357521607405276,2.5s : 10.7s,0.023819039845437602,0.058534880743622224,0.10224667936563492,0.09512414783239365,0.3438322842121124,-0.05836743116378784,0.0030566751956939697,0.0031987465918064117,-0.3218852083109563,1.5129608390683882,0.36751627157522504,0.9470545053482056,0.31635549664497375,-0.0548345111310482
1727296637784,7i,9.357521607405276,2.5s : 10.7s,0.024413181149272836,0.03821846275675299,0.07497284561395645,0.060428619384765625,0.3811520040035248,-0.03650122880935669,-0.010257065296173096,0.004806641489267349,-0.3205911159115514,1.5130280157013876,0.36570492151800077,0.9474661350250244,0.3151276111602783,-0.05479448288679123
1727296637794,7i,9.357521607405276,2.5s : 10.7s,0.020566241830227577,0.03267705416490309,0.06636244058609009,0.03901587054133415,0.392128586769104,-0.031239449977874756,-0.003141075372695923,-0.00905650481581688,-0.31995845578802773,1.513064901554643,0.36495168222446767,0.9476669430732727,0.31452712416648865,-0.05477102845907211
1727296637804,7i,9.357521607405276,2.5s : 10.7s,0.010902610019845584,0.04461987032491787,0.043375372886657715,0.021032609045505524,0.4124612808227539,-0.037976086139678955,0.0005718469619750977,-0.023418426513671875,-0.31926207338581825,1.5131140165231547,0.3643948632956211,0.947888195514679,0.3138660192489624,-0.05473710224032402
1727296637814,7i,9.357521607405276,2.5s : 10.7s,0.0022276489353473877,0.05202713495827804,0.0347461961209774,0.006791709456592798,0.42662912607192993,-0.03708207607269287,-0.02152314782142639,-0.02947026491165161,-0.3184749769131358,1.5131871307718197,0.36401185415628123,0.9481385946273804,0.313118577003479,-0.05468200892210007
1727296637824,7i,9.357521607405276,2.5s : 10.7s,0.0016499666123752702,0.05150644697867763,0.06262922286987305,-0.00031972932629287243,0.4384002685546875,-0.03836315870285034,-0.019613832235336304,-0.028221972286701202,-0.31755724757297005,1.5132398271318588,0.3635376610736517,0.9484279155731201,0.3122468888759613,-0.05464855208992958
1727296637834,7i,9.357521607405276,2.5s : 10.7s,0.0010892004002458215,0.04243200810808139,0.09041598439216614,-0.004545677453279495,0.4405869245529175,-0.02786731719970703,0.003754228353500366,-0.03177725151181221,-0.3165703647503199,1.5132423649557614,0.36275223194409645,0.9487349987030029,0.31130918860435486,-0.05466382950544357
1727296637844,7i,9.357521607405276,2.5s : 10.7s,0.009664685998568427,0.034535516754781,0.12804192304611206,-0.014910700730979443,0.43805211782455444,-0.01000136137008667,0.025380492210388184,-0.02117794379591942,-0.31557028373214335,1.5131866750457799,0.3616344383130296,0.9490424394607544,0.3103586435317993,-0.054734569042921066
1727296637854,7i,9.357521607405276,2.5s : 10.7s,0.01824291503350154,0.04753525846667969,0.16307035088539124,-0.01883961819112301,0.4332123100757599,-0.003959298133850098,0.045274823904037476,-0.013932518661022186,-0.31454643100862795,1.5129835354033705,0.3600511291091617,0.949347972869873,0.30938518047332764,-0.0549456849694252
1727296637864,7i,9.357521607405276,2.5s : 10.7s,0.013161958638727747,0.04599272786043219,0.09596268832683563,-0.033076342195272446,0.42102620005607605,-0.008302032947540283,0.04109343886375427,-0.01891392469406128,-0.3135522508043737,1.5128489731368306,0.3585995511047732,0.9496472477912903,0.3084396421909332,-0.05509122088551521
1727296637874,7i,9.357521607405276,2.5s : 10.7s,0.006951747178892433,0.007238578387244758,0.00907931663095951,-0.06282078474760056,0.40549030900001526,-0.00666278600692749,-0.002804696559906006,-0.0003714524209499359,-0.31266861812054375,1.5127820137835835,0.3580608349252459,0.9499152302742004,0.30759894847869873,-0.05517059192061424
1727296637884,7i,9.357521607405276,2.5s : 10.7s,0.014104469577317619,0.013244543241597457,0.008388492278754711,-0.06957510113716125,0.3861083388328552,0.0018259882926940918,-0.009838461875915527,0.008676886558532715,-0.311882399851213,1.5127487249726674,0.35801398338653795,0.9501546025276184,0.30685076117515564,-0.0552162267267704
1727296637894,7i,9.357521607405276,2.5s : 10.7s,0.021517335811982972,0.030202221929567754,0.026776554062962532,-0.06742140650749207,0.3821701407432556,-0.017205536365509033,0.01778605580329895,-0.01731473207473755,-0.311058448416722,1.5126740250814894,0.3577861504291816,0.950402557849884,0.30606645345687866,-0.05530187115073204
1727296637904,7i,9.357521607405276,2.5s : 10.7s,0.026727050420911017,0.033699882791462306,0.019938888028264046,-0.06918388605117798,0.36948683857917786,-0.01839357614517212,-0.0006891787052154541,-0.02822912484407425,-0.3101577443679337,1.5126312305323086,0.35755783550423526,0.9506751298904419,0.30520886182785034,-0.05535855516791344
1727296637914,7i,9.357521607405276,2.5s : 10.7s,0.02570659608727634,0.04432466945288754,0.031975843012332916,-0.07075559347867966,0.36241641640663147,-0.006760358810424805,-0.03039497137069702,-0.03154551610350609,-0.3091611786482126,1.512559035736315,0.35732266720286193,0.9509741067886353,0.30425968766212463,-0.05544485151767731
1727296637924,7i,9.357521607405276,2.5s : 10.7s,0.022916984936055904,0.051126775768824004,0.03253643587231636,-0.06244226545095444,0.35417577624320984,-0.0018056035041809082,-0.02052721381187439,-0.04679017513990402,-0.3080290248634016,1.5125010535069041,0.3570058668919641,0.9513141512870789,0.3031810224056244,-0.05552002415060997
1727296637934,7i,9.357521607405276,2.5s : 10.7s,0.02537433547170498,0.057147924007631794,0.006941862870007753,-0.06114779785275459,0.3355668783187866,-0.009823918342590332,-0.03315424919128418,-0.04549913853406906,-0.30678868238709683,1.5124821816229568,0.35676725907487744,0.9516878128051758,0.3019988238811493,-0.055559851229190826
1727296637944,7i,9.357521607405276,2.5s : 10.7s,0.02191894715793145,0.051686632311566845,0.0074116443283855915,-0.05770139768719673,0.3002605438232422,0.007068753242492676,-0.04259181022644043,-0.028416164219379425,-0.3056284979025628,1.5124947394335053,0.3567698102456175,0.9520377516746521,0.3008926212787628,-0.05556828901171684
1727296637954,7i,9.357521607405276,2.5s : 10.7s,0.017666352387981386,0.027315080497446437,-0.0051102726720273495,-0.05722282454371452,0.270587682723999,0.021028578281402588,6.097555160522461e-05,-0.017432980239391327,-0.3045039451698485,1.512502706735297,0.35680299133350657,0.9523752331733704,0.2998199760913849,-0.05558037385344505
1727296637964,7i,9.357521607405276,2.5s : 10.7s,0.010603117280249015,0.02470900650385177,0.02472086064517498,-0.045863643288612366,0.2394353598356247,0.02271902561187744,0.008363842964172363,0.004942368716001511,-0.3034142755021254,1.512468341033203,0.35677319711715677,0.9526988863945007,0.29878026247024536,-0.05563211068511009
1727296637974,7i,9.357521607405276,2.5s : 10.7s,0.004650776756672963,0.025411721153953765,0.07616234570741653,-0.045200832188129425,0.20360448956489563,0.015833377838134766,0.017091423273086548,0.010146081447601318,-0.3023437404794012,1.512295299030262,0.3562936963126022,0.9530081748962402,0.29775846004486084,-0.055815644562244415
1727296637984,7i,9.357521607405276,2.5s : 10.7s,0.008726310416451135,0.03477997598045601,0.1360270082950592,-0.03871603310108185,0.15964289009571075,0.00620579719543457,0.03388780355453491,0.004769861698150635,-0.30134058779351713,1.5118707646284533,0.3552307202362773,0.9532821178436279,0.2968006432056427,-0.05623778700828552
1727296637994,7i,9.357521607405276,2.5s : 10.7s,0.015397000585744098,0.035218788058395525,0.18455007672309875,-0.03278632462024689,0.11799151450395584,-0.008573651313781738,0.034086376428604126,-0.0022303536534309387,-0.300413783930766,1.5112278997270456,0.35355884098040025,0.9535200595855713,0.29591548442840576,-0.05686696618795395
1727296638004,7i,9.357521607405276,2.5s : 10.7s,0.018636906550073447,0.033887072016296996,0.20109443366527557,-0.026031218469142914,0.07610345631837845,-0.02151024341583252,0.025712817907333374,-0.004949148744344711,-0.2995475683044201,1.5104468114492797,0.3515864020783063,0.9537306427955627,0.2950879633426666,-0.05762716010212898
1727296638014,7i,9.357521607405276,2.5s : 10.7s,0.017994086441523123,0.026673037210649498,0.1885494738817215,-0.030624061822891235,0.07444620877504349,-0.026356935501098633,0.004004836082458496,-0.0008509717881679535,-0.2984722027090451,1.5091140440370592,0.349437451514922,0.9539691805839539,0.29406028985977173,-0.05891773849725723
1727296638024,7i,9.357521607405276,2.5s : 10.7s,0.011243775443854746,0.027812695737446623,0.13787510991096497,-0.038687314838171005,0.07079953700304031,-0.027354717254638672,-0.005020052194595337,0.00025409460067749023,-0.29721850522758464,1.5079158591289954,0.34762798758169655,0.9542651176452637,0.29286178946495056,-0.06008384749293327
1727296638034,7i,9.357521607405276,2.5s : 10.7s,0.0074998929437324465,0.03996070508019601,0.05458248779177666,-0.049907878041267395,0.06772960722446442,-0.03441643714904785,-0.008368521928787231,-0.018502287566661835,-0.29647564660280157,1.5070543411086055,0.3466289131855559,0.9544296860694885,0.29215142130851746,-0.06091977283358574
1727296638044,7i,9.357521607405276,2.5s : 10.7s,0.019844250581478446,0.037294506889401384,-0.005733319092541933,-0.057900555431842804,0.060159310698509216,-0.02167588472366333,-0.017740488052368164,-0.024623390287160873,-0.29590455144313216,1.5065883630551795,0.34649857032378745,0.9545676708221436,0.2916052043437958,-0.0613752119243145
1727296638054,7i,9.357521607405276,2.5s : 10.7s,0.024536544704576307,0.02789810251268641,-0.012414790689945221,-0.05798839405179024,0.05823727324604988,-0.0078005194664001465,-0.0026380419731140137,-0.02665514498949051,-0.2955416337337833,1.5062782724316894,0.3467314620547449,0.9546542763710022,0.2912580370903015,-0.06167803704738617
1727296638064,7i,9.357521607405276,2.5s : 10.7s,0.025937262079012674,0.030158381844217423,-0.00960755255073309,-0.062127742916345596,0.07205375283956528,-0.0024194717407226562,0.012748509645462036,-0.027224063873291016,-0.29532835185924594,1.5058554443548229,0.34690135850395004,0.9546899795532227,0.29105401039123535,-0.06208571046590805
1727296638074,7i,9.357521607405276,2.5s : 10.7s,0.03153057402174775,0.02883665529448569,-0.0757671371102333,-0.060159847140312195,0.06572102010250092,0.005467534065246582,-0.007229030132293701,-0.027375169098377228,-0.2951250090799451,1.505426435775091,0.34737831640075045,0.9547224044799805,0.2908594608306885,-0.06249914690852165
1727296638084,7i,9.357521607405276,2.5s : 10.7s,0.038783122573020405,0.03284765446765134,-0.08928587287664413,-0.06238758563995361,0.055437225848436356,-0.0052454471588134766,-0.021292120218276978,-0.024456068873405457,-0.294991529895282,1.5050725994700154,0.348351677813059,0.9547386765480042,0.2907317578792572,-0.06283949315547943
1727296638094,7i,9.357521607405276,2.5s : 10.7s,0.03603122032160489,0.021930404594560127,-0.02555096708238125,-0.061180420219898224,0.06453262269496918,-0.005284905433654785,0.014966040849685669,-0.01513373851776123,-0.2946054690241263,1.5046496493635126,0.3489924389075444,0.9548240303993225,0.29036232829093933,-0.06325071305036545
1727296638104,7i,9.357521607405276,2.5s : 10.7s,0.029912822328858463,0.021109051039946685,0.004478039685636759,-0.05440666526556015,0.06372568011283875,-0.002717137336730957,0.017695456743240356,-0.01118391752243042,-0.29403343784842256,1.5041361747671091,0.34912753937145835,0.954957127571106,0.28981491923332214,-0.06375204026699066
1727296638114,7i,9.357521607405276,2.5s : 10.7s,0.026492667521938598,0.017070973194196388,0.023374099284410477,-0.05179477110505104,0.05805265158414841,-0.012773215770721436,0.0034574270248413086,0.010784678161144257,-0.29347719211793766,1.5033049281108553,0.34894409975772667,0.9550645351409912,0.28928250074386597,-0.06455669552087784
1727296638124,7i,9.357521607405276,2.5s : 10.7s,0.020677351847999743,0.0252071137444639,0.0507119782269001,-0.055181778967380524,0.06580564379692078,-0.006933808326721191,0.010676831007003784,0.021756060421466827,-0.2927259108876706,1.502393456877671,0.3484940223506332,0.9552216529846191,0.28856325149536133,-0.06544200330972672
1727296638134,7i,9.357521607405276,2.5s : 10.7s,0.013852800179788306,0.04579986494543278,0.07065892219543457,-0.059268269687891006,0.07446102052927017,0.003824174404144287,0.002079188823699951,0.045592546463012695,-0.2920001971249628,1.5013040809909148,0.34780982859367543,0.9553585648536682,0.28786832094192505,-0.0664970874786377
1727296638144,7i,9.357521607405276,2.5s : 10.7s,0.00924019815184071,0.03944388704202135,0.08364450186491013,-0.06103873625397682,0.07804856449365616,0.006798684597015381,-0.011868536472320557,0.03699643164873123,-0.2913641221528294,1.500189209385416,0.3469753920630431,0.9554662108421326,0.28725913166999817,-0.06757504492998123
1727296638154,7i,9.357521607405276,2.5s : 10.7s,0.00906393198046835,0.03579854338495329,0.06501155346632004,-0.0569014698266983,0.08693583309650421,0.0013219714164733887,-0.014919847249984741,0.03251440078020096,-0.2904239313525405,1.4991351202599414,0.3461604609771128,0.9556634426116943,0.28635841608047485,-0.06860146671533585
1727296638164,7i,9.357521607405276,2.5s : 10.7s,0.01029389091122951,0.033884212180649215,0.050200916826725006,-0.05326811969280243,0.08731479942798615,-0.0018596053123474121,-0.01741635799407959,0.029006071388721466,-0.2893827080164722,1.498262288312994,0.3455866158753353,0.9559000134468079,0.2853606641292572,-0.06945714354515076
1727296638174,7i,9.357521607405276,2.5s : 10.7s,0.009330605890958667,0.029836533295025988,0.05632099509239197,-0.0477624349296093,0.0822424441576004,-0.0009723305702209473,-0.022443711757659912,0.019635505974292755,-0.2886738688532152,1.497529204169619,0.3450719719577228,0.9560503363609314,0.2846812307834625,-0.07017266750335693
1727296638184,7i,9.357521607405276,2.5s : 10.7s,0.0048106947149820015,0.010434392308776989,0.08155284821987152,-0.0407484695315361,0.07575684785842896,0.003731667995452881,-0.009719610214233398,0.0006930902600288391,-0.2880390576339178,1.496863418430483,0.3444009672078776,0.9561833739280701,0.284072607755661,-0.07082250714302063
1727296638194,7i,9.357521607405276,2.5s : 10.7s,0.00416367629119207,0.013859293869386597,0.0702982023358345,-0.04161563515663147,0.07376769185066223,0.003737151622772217,0.008051156997680664,-0.01064389944076538,-0.2873449098548018,1.4963837345734734,0.34368261451176857,0.956345796585083,0.2834070026874542,-0.07129581272602081
1727296638204,7i,9.357521607405276,2.5s : 10.7s,0.004700455882019768,0.011592189471012053,0.03968968987464905,-0.04421035572886467,0.06615345180034637,0.00841832160949707,-0.002734243869781494,-0.007485628128051758,-0.28676945836656703,1.4960776201401158,0.3432575071429705,0.9564864039421082,0.2828550934791565,-0.07160072773694992
1727296638214,7i,9.357521607405276,2.5s : 10.7s,0.004742027766360475,0.014609501946455812,0.033377598971128464,-0.04182465374469757,0.06900373101234436,0.010923266410827637,-0.0069882869720458984,-0.006729312241077423,-0.2861298920959238,1.4960826903521955,0.3430959840333848,0.9566671848297119,0.2822415828704834,-0.07160937786102295
1727296638224,7i,9.357521607405276,2.5s : 10.7s,0.005299503992977757,0.01683896527693119,0.03358558937907219,-0.03885016590356827,0.06496025621891022,0.004943728446960449,0.00487169623374939,-0.015341997146606445,-0.2853624513363476,1.4960269151159447,0.34291509482838795,0.9568787813186646,0.2815052568912506,-0.07167888432741165
1727296638234,7i,9.357521607405276,2.5s : 10.7s,0.008805629867226493,0.023096774408400706,0.023441744968295097,-0.04001205787062645,0.06296584755182266,-0.004963576793670654,0.012969970703125,-0.01845545321702957,-0.28461947687072586,1.495948244671898,0.3427594433790407,0.9570815563201904,0.2807922661304474,-0.07176979631185532
1727296638244,7i,9.357521607405276,2.5s : 10.7s,0.016759897979035245,0.019792459604947795,-0.0272121112793684,-0.04728435352444649,0.05357953533530235,-0.0041849613189697266,0.012248396873474121,-0.014973454177379608,-0.2839404553830559,1.4958483646028962,0.34289513953148415,0.9572641253471375,0.2801404893398285,-0.07187963277101517
1727296638254,7i,9.357521607405276,2.5s : 10.7s,0.027710800230020854,0.022602797450965724,-0.07072483003139496,-0.05210196599364281,0.05389855057001114,-0.008544564247131348,0.006042748689651489,-0.020034022629261017,-0.28331576217675575,1.4956971287588956,0.3435218447966282,0.9574276804924011,0.2795407474040985,-0.07203753292560577
1727296638264,7i,9.357521607405276,2.5s : 10.7s,0.03496533033047011,0.02422075163986986,-0.06922706961631775,-0.054431699216365814,0.06035352125763893,-0.012251675128936768,0.006280750036239624,-0.01992720365524292,-0.28275009367251525,1.4954067006979046,0.3443428994657434,0.9575641751289368,0.27899760007858276,-0.07232747972011566
1727296638274,7i,9.357521607405276,2.5s : 10.7s,0.03274647438124488,0.029012624285905175,-0.029696041718125343,-0.057706546038389206,0.05852729082107544,-0.002340257167816162,0.020038217306137085,-0.02085006982088089,-0.2822637569163939,1.4948992746262786,0.3448920568518088,0.9576626420021057,0.2785305380821228,-0.0728236585855484
1727296638284,7i,9.357521607405276,2.5s : 10.7s,0.025431748785729378,0.03810534983134145,0.010600512847304344,-0.05100416764616966,0.05241373926401138,0.0030985474586486816,0.030048012733459473,-0.023227863013744354,-0.2817076341563571,1.4943671485955679,0.34502865816596134,0.9577778577804565,0.27799636125564575,-0.07334504276514053
1727296638294,7i,9.357521607405276,2.5s : 10.7s,0.015257152118574143,0.04751596546616909,0.1010260209441185,-0.06493400782346725,0.040179044008255005,-0.0022629499435424805,0.0464959442615509,-0.009527496993541718,-0.281152792851256,1.493601031400943,0.3445246785786394,0.9578750729560852,0.2774633765220642,-0.07409068197011948
1727296638304,7i,9.357521607405276,2.5s : 10.7s,0.009295804148499533,0.07062518390868987,0.2227093130350113,-0.054656337946653366,0.02462059073150158,0.007956981658935547,0.06896936893463135,-0.012954890727996826,-0.2807587027280514,1.4923930834157944,0.34282462299194383,0.9578938484191895,0.27708473801612854,-0.07525625079870224
1727296638314,7i,9.357521607405276,2.5s : 10.7s,0.03181176099993257,0.07201994162551749,0.3516106903553009,-0.04673001915216446,0.016756976023316383,-0.0022091269493103027,0.06965112686157227,-0.01818549633026123,-0.28046205410313796,1.4909628834778572,0.3398456932041609,0.9578670859336853,0.27679967880249023,-0.07663270086050034
1727296638324,7i,9.357521607405276,2.5s : 10.7s,0.05297069787328398,0.06142940980581366,0.45771369338035583,-0.038740530610084534,0.020737070590257645,-0.017671525478363037,0.05874481797218323,-0.0032149553298950195,-0.28007705537356803,1.4892656038368774,0.33558970330911075,0.9578418135643005,0.2764297127723694,-0.07826703041791916
1727296638334,7i,9.357521607405276,2.5s : 10.7s,0.06784777494295831,0.05128466337425601,0.47084373235702515,-0.03131435438990593,0.03625381365418434,-0.014444291591644287,0.0473293662071228,-0.01346886157989502,-0.27947573726206265,1.4874638534860587,0.3307018765638161,0.9578647017478943,0.2758517563343048,-0.08000651746988297
1727296638344,7i,9.357521607405276,2.5s : 10.7s,0.0754437372449501,0.003825662263288705,0.43879473209381104,-0.042646102607250214,0.04856054484844208,-0.000440061092376709,0.0008517205715179443,-0.003703594207763672,-0.2787767005271801,1.485697039655316,0.3259939223742105,0.9579138159751892,0.27517977356910706,-0.08171513676643372
1727296638354,7i,9.357521607405276,2.5s : 10.7s,0.0768297634073992,0.041135943685462015,0.4263014495372772,-0.04300158843398094,0.0513383224606514,-0.0020371079444885254,-0.03842398524284363,0.014546938240528107,-0.2779986276580084,1.4839789160774892,0.32155946959599013,0.9579849243164062,0.27443167567253113,-0.0833793580532074
1727296638364,7i,9.357521607405276,2.5s : 10.7s,0.07486441452980933,0.03300298968237188,0.4271946847438812,-0.035673901438713074,0.05671045184135437,-0.01564568281173706,-0.029035210609436035,0.001168966293334961,-0.2772164017632581,1.482321937645461,0.31717404487923256,0.9580590128898621,0.27367937564849854,-0.08498554676771164
1727296638374,7i,9.357521607405276,2.5s : 10.7s,0.07593978001804305,0.02741690803799743,0.45347872376441956,-0.03236883133649826,0.04957138001918793,-0.02169203758239746,-0.01521390676498413,-0.007048361003398895,-0.27648992839356396,1.4807721566792809,0.31272669955580523,0.9581238031387329,0.27298057079315186,-0.08648806810379028
1727296638384,7i,9.357521607405276,2.5s : 10.7s,0.08516184573049834,0.025022915364089047,0.5264937877655029,-0.03415794298052788,0.03941461443901062,-0.018255770206451416,-0.017105847597122192,-0.0005129575729370117,-0.27583956061474746,1.4790641727248972,0.30770375584307,0.9581514000892639,0.2723548412322998,-0.08814065903425217
1727296638394,7i,9.357521607405276,2.5s : 10.7s,0.09973465645711381,0.012032989059763665,0.6041205525398254,-0.03740952908992767,0.031216975301504135,-0.010614633560180664,-0.004633009433746338,-0.003264598548412323,-0.27496078302822685,1.4771178607714712,0.30187301250724974,0.9582158923149109,0.27150920033454895,-0.09002769738435745
1727296638404,7i,9.357521607405276,2.5s : 10.7s,0.11006033765232122,0.00903799887214031,0.6167386174201965,-0.03227495402097702,0.029823876917362213,-0.006775796413421631,0.002649068832397461,-0.005362503230571747,-0.27406925865129955,1.4750475900268651,0.295513142694963,0.9582679867744446,0.27065104246139526,-0.09203437715768814
1727296638414,7i,9.357521607405276,2.5s : 10.7s,0.10620626197570786,0.018083680008348767,0.5203039646148682,-0.03912140801548958,0.042627885937690735,-0.0024643540382385254,-0.017659932374954224,0.0030121803283691406,-0.2731496496442196,1.4731166049220035,0.2896112036317326,0.9583358764648438,0.2697656452655792,-0.09390884637832642
1727296638424,7i,9.357521607405276,2.5s : 10.7s,0.08798728607212952,0.07076796994148976,0.374199241399765,-0.06260250508785248,0.05365896597504616,0.005541503429412842,-0.06416180729866028,0.029337003827095032,-0.2722234836153917,1.4713554397864343,0.28501405750989034,0.9584171175956726,0.2688736915588379,-0.09562123566865921
1727296638434,7i,9.357521607405276,2.5s : 10.7s,0.07174477537291359,0.10066513773151245,0.3028257191181183,-0.07345692813396454,0.056867409497499466,0.020340681076049805,-0.08692368865013123,0.046518802642822266,-0.271347877803231,1.4697398283427998,0.28163637839303235,0.9584953784942627,0.26803022623062134,-0.09719327092170715
1727296638444,7i,9.357521607405276,2.5s : 10.7s,0.05872712584310988,0.08433687023803628,0.2717388868331909,-0.08853814005851746,0.07087749987840652,0.024530231952667236,-0.07324650883674622,0.0338515043258667,-0.27039221281041365,1.468145810794326,0.2787876563416514,0.9585935473442078,0.2671094238758087,-0.09874720126390457
1727296638454,7i,9.357521607405276,2.5s : 10.7s,0.04933402205560855,0.04567254043741836,0.2705433964729309,-0.0832495465874672,0.08282424509525299,0.018167555332183838,-0.03927531838417053,0.014607198536396027,-0.2693419621468656,1.4665715227768992,0.2760812372108586,0.9587153196334839,0.26609718799591064,-0.10028530657291412
1727296638464,7i,9.357521607405276,2.5s : 10.7s,0.04905940052534124,0.01837918655785363,0.34430524706840515,-0.08907520771026611,0.06676804274320602,0.006734907627105713,-0.016383469104766846,0.0049007609486579895,-0.26827777441645506,1.4648854885844973,0.27306275552564774,0.9588258862495422,0.26507121324539185,-0.10193146765232086
1727296638474,7i,9.357521607405276,2.5s : 10.7s,0.057979989311750295,0.0312542731906966,0.4568910300731659,-0.08024083822965622,0.0676436573266983,-0.004800140857696533,0.018399417400360107,-0.02480422705411911,-0.2671775741442637,1.4629565218400102,0.26899622842704657,0.9589169025421143,0.2640102207660675,-0.10381214320659637
1727296638484,7i,9.357521607405276,2.5s : 10.7s,0.06579018803500035,0.0565192171994734,0.48512375354766846,-0.0851394534111023,0.07005728036165237,-0.00556790828704834,0.029389560222625732,-0.04795491695404053,-0.26597149876453036,1.4608636381521714,0.2641730044719172,0.9590133428573608,0.2628467381000519,-0.10585367679595947
1727296638494,7i,9.357521607405276,2.5s : 10.7s,0.0721943919317548,0.04005585616216804,0.5197722315788269,-0.10029097646474838,0.06946053355932236,-0.003989279270172119,-0.01044490933418274,-0.038463763892650604,-0.2647159025381226,1.4585944715624628,0.2591023308855394,0.9590978026390076,0.26163506507873535,-0.10806642472743988
1727296638504,7i,9.357521607405276,2.5s : 10.7s,0.07722807852177384,0.03678484109426519,0.5448853373527527,-0.09148523211479187,0.07403504103422165,-0.00613325834274292,-0.013889461755752563,-0.03350508213043213,-0.26338407901780764,1.4562019032056195,0.253698089303686,0.9591819643974304,0.26034942269325256,-0.11040058732032776
1727296638514,7i,9.357521607405276,2.5s : 10.7s,0.08635882052844744,0.02868085455596861,0.6054303646087646,-0.10430840402841568,0.09324685484170914,-0.0039048194885253906,0.003221273422241211,-0.028230607509613037,-0.26189295983123245,1.4537086584566783,0.24787871300793055,0.9592881202697754,0.2589094340801239,-0.11283692717552185
1727296638524,7i,9.357521607405276,2.5s : 10.7s,0.0956677964371244,0.043382688610085714,0.6267989873886108,-0.10606635361909866,0.103193499147892,0.009520173072814941,-0.01598811149597168,-0.03918933868408203,-0.26015419579800114,1.451031281239461,0.2415907750766822,0.9594281911849976,0.2572295665740967,-0.11545851826667786
1727296638534,7i,9.357521607405276,2.5s : 10.7s,0.09125394871193934,0.04479718597316963,0.5324211120605469,-0.09907937049865723,0.11689653247594833,0.009589612483978271,-0.015749245882034302,-0.04082632064819336,-0.258359995027602,1.4484855362750406,0.23571481196900526,0.9595876336097717,0.2554953098297119,-0.11795671284198761
1727296638544,7i,9.357521607405276,2.5s : 10.7s,0.07911317562653036,0.054339482205331364,0.46470728516578674,-0.12875710427761078,0.12171285599470139,0.0071263909339904785,-0.051149338483810425,-0.016903817653656006,-0.2565451354438735,1.4460997169652645,0.2308193026277684,0.9597619771957397,0.2537402808666229,-0.12030325829982758
1727296638554,7i,9.357521607405276,2.5s : 10.7s,0.07784229001694434,0.06684651061381681,0.5010486841201782,-0.13043645024299622,0.11811801791191101,0.02271592617034912,-0.05780261754989624,-0.024724483489990234,-0.2547476546719687,1.4435605599427703,0.22603668233699467,0.9599043130874634,0.25200122594833374,-0.12279753386974335
1727296638564,7i,9.357521607405276,2.5s : 10.7s,0.07330995425911223,0.058153559373798944,0.502566397190094,-0.13414889574050903,0.11509878933429718,0.008655428886413574,-0.01840662956237793,-0.0544804185628891,-0.25293708054585357,1.4409681585076384,0.2210017336587101,0.9600334167480469,0.25024867057800293,-0.1253444105386734
1727296638574,7i,9.357521607405276,2.5s : 10.7s,0.06591181613369286,0.04299501285026017,0.5176674723625183,-0.14280740916728973,0.11222713440656662,-0.013320505619049072,-0.014180794358253479,-0.03834110498428345,-0.2511417400398419,1.4383319972177582,0.2159878775077921,0.9601436257362366,0.24851004779338837,-0.12793393433094025
1727296638584,7i,9.357521607405276,2.5s : 10.7s,0.06539197985819604,0.05613855374258118,0.5704656839370728,-0.15577727556228638,0.10797353833913803,-0.014424681663513184,-0.01765027642250061,-0.05130237340927124,-0.24932071910573356,1.435509227892076,0.21060337327704254,0.9602254033088684,0.2467457354068756,-0.13070449233055115
1727296638594,7i,9.357521607405276,2.5s : 10.7s,0.06444638382204608,0.06970773952585246,0.5839596390724182,-0.15416543185710907,0.11365699023008347,-0.0186883807182312,0.015221446752548218,-0.06540811061859131,-0.24742723965324195,1.432531304083892,0.20479682653819992,0.9602929949760437,0.2449103593826294,-0.13362754881381989
1727296638604,7i,9.357521607405276,2.5s : 10.7s,0.05826676672799409,0.07004904170879193,0.5504421591758728,-0.18029478192329407,0.11571560800075531,-0.02074211835861206,0.01922735571861267,-0.06408542394638062,-0.24549932000557495,1.4294902687154367,0.1991827977375937,0.9603478312492371,0.24304071068763733,-0.13661344349384308
1727296638614,7i,9.357521607405276,2.5s : 10.7s,0.05680724451234112,0.039615692430950394,0.5590198040008545,-0.19604334235191345,0.11958149075508118,-0.003454148769378662,-0.005912914872169495,-0.03901934623718262,-0.24352710854000983,1.4262923177537266,0.19374833164394412,0.9603785276412964,0.241127148270607,-0.13975265622138977
1727296638624,7i,9.357521607405276,2.5s : 10.7s,0.06349748318942998,0.03403446883484323,0.6189406514167786,-0.1952694207429886,0.11773937940597534,0.008243560791015625,0.01277361810207367,-0.03045034408569336,-0.24148928594235122,1.4229095924561974,0.18790939941966026,0.9603843092918396,0.23914895951747894,-0.14307264983654022
1727296638634,7i,9.357521607405276,2.5s : 10.7s,0.06616334177769767,0.04216032630579032,0.6397867202758789,-0.1842222362756729,0.13016752898693085,-0.007544338703155518,0.03053918480873108,-0.02807016670703888,-0.2393010866033458,1.4195270691785937,0.18166826558259141,0.9604099988937378,0.23702368140220642,-0.1463988721370697
1727296638644,7i,9.357521607405276,2.5s : 10.7s,0.07180964903120542,0.032096477410841755,0.6883928775787354,-0.1956740915775299,0.1287861466407776,-0.010970652103424072,0.024810954928398132,-0.017153576016426086,-0.23699926650889588,1.4160634183694198,0.17515451642375754,0.9604336023330688,0.23478683829307556,-0.14980818331241608
1727296638654,7i,9.357521607405276,2.5s : 10.7s,0.08221761242807614,0.02398437076298235,0.7473042011260986,-0.1803274005651474,0.13231725990772247,-0.0061836838722229,0.010079964995384216,-0.02086639404296875,-0.23458897424075983,1.4125217898448288,0.1680609734643362,0.9604530334472656,0.23244324326515198,-0.15329748392105103
1727296638664,7i,9.357521607405276,2.5s : 10.7s,0.09479007948878007,0.012725571088703076,0.7991693019866943,-0.1776229590177536,0.1372331827878952,-0.0059084296226501465,0.004709690809249878,-0.010239601135253906,-0.23201599408415005,1.4089278564856618,0.1604173575746964,0.9604830145835876,0.22993996739387512,-0.15684416890144348
1727296638674,7i,9.357521607405276,2.5s : 10.7s,0.1064152809782624,0.025310853056971432,0.8646166324615479,-0.18309687077999115,0.14874520897865295,-0.012394547462463379,-0.018643274903297424,-0.011808589100837708,-0.22923331271131536,1.4052679320354362,0.15226253765338021,0.9605299830436707,0.227230966091156,-0.16046321392059326
1727296638684,7i,9.357521607405276,2.5s : 10.7s,0.12414313512878536,0.041333219611117716,0.9671419262886047,-0.16955043375492096,0.15534158051013947,-0.01192772388458252,-0.03694802522659302,-0.014177724719047546,-0.22620434360804115,1.401435348857107,0.14325667456925323,0.9605817794799805,0.2242801934480667,-0.16425856947898865
1727296638694,7i,9.357521607405276,2.5s : 10.7s,0.14506910117513863,0.025310711645226303,1.0777287483215332,-0.18958641588687897,0.16373310983181,-0.00956803560256958,-0.009613215923309326,-0.02136985957622528,-0.22286399423335637,1.3974270385742071,0.13322613278110623,0.960648238658905,0.22102369368076324,-0.16823583841323853
1727296638704,7i,9.357521607405276,2.5s : 10.7s,0.16855305041503246,0.03402432648492161,1.2044429779052734,-0.18821169435977936,0.17237161099910736,-0.007160186767578125,-0.006717085838317871,-0.03257709741592407,-0.2192231731980489,1.3931005867509814,0.12204735425446481,0.9606971144676208,0.21747145056724548,-0.17253156006336212
1727296638714,7i,9.357521607405276,2.5s : 10.7s,0.19354088858030497,0.047143775690930124,1.3307806253433228,-0.17882490158081055,0.18457424640655518,-0.014029085636138916,-0.03716890513896942,-0.025380954146385193,-0.21518684751493575,1.388567665328825,0.10956703243542436,0.9607605934143066,0.21352997422218323,-0.177042156457901
1727296638724,7i,9.357521607405276,2.5s : 10.7s,0.21616649341928493,0.05895999867523255,1.4460949897766113,-0.17443227767944336,0.18510767817497253,-0.029492855072021484,-0.04724286496639252,-0.019353672862052917,-0.21078760232490074,1.383933166648607,0.09596480549511716,0.9608435034751892,0.20923013985157013,-0.18166564404964447
1727296638734,7i,9.357521607405276,2.5s : 10.7s,0.24344091011859842,0.06042008461703372,1.6256285905838013,-0.17388424277305603,0.15598176419734955,-0.045223355293273926,-0.03927771747112274,-0.007918059825897217,-0.20621773215034428,1.3790455515213134,0.08098861397597422,0.9608727693557739,0.20475924015045166,-0.18653997778892517
1727296638744,7i,9.357521607405276,2.5s : 10.7s,0.3025124519954882,0.053529401787032416,2.044966697692871,-0.1751745343208313,0.12599751353263855,-0.04309612512588501,0.03162957727909088,-0.0027732104063034058,-0.20129443974125247,1.3736850006407457,0.0630534231285841,0.960835874080658,0.19993780553340912,-0.1918831765651703
1727296638754,7i,9.357521607405276,2.5s : 10.7s,0.3883732152086541,0.156069925341985,2.48346209526062,-0.15652748942375183,0.10439059138298035,-0.017647504806518555,0.13927717506885529,-0.06817811727523804,-0.1956477741531537,1.3676322841982247,0.04057794881784477,0.9607474207878113,0.19440199434757233,-0.19791994988918304
1727296638764,7i,9.357521607405276,2.5s : 10.7s,0.4801393847709758,0.20740371445663025,2.8238108158111572,-0.15023016929626465,0.10899599641561508,0.014153003692626953,0.19340276718139648,-0.07356196641921997,-0.1891470137444612,1.3610492906104883,0.014203802478500801,0.960639476776123,0.18802118301391602,-0.2044990062713623
1727296638774,7i,9.357521607405276,2.5s : 10.7s,0.5515924142860446,0.18635461824184407,2.953235626220703,-0.13618630170822144,0.11812720447778702,0.04188036918640137,0.172721266746521,-0.056048572063446045,-0.18188714804339443,1.354374622145025,-0.01441068675101289,0.9605609774589539,0.180885910987854,-0.21119391918182373
1727296638784,7i,9.357521607405276,2.5s : 10.7s,0.5815550720591888,0.13070474313067357,2.8681859970092773,-0.13317321240901947,0.09541469812393188,0.04013639688491821,0.12377911806106567,0.012309730052947998,-0.1744524371412449,1.3479707458739265,-0.043100977639025526,0.9604739546775818,0.17356890439987183,-0.21763204038143158
1727296638794,7i,9.357521607405276,2.5s : 10.7s,0.5828336096843615,0.1283413345589645,2.7441012859344482,-0.12929120659828186,0.05557854101061821,0.031573712825775146,0.11794525384902954,0.03954131901264191,-0.16741203591087245,1.3419321284012913,-0.07069745941948026,0.9603085517883301,0.16663113236427307,-0.2236996591091156
1727296638804,7i,9.357521607405276,2.5s : 10.7s,0.5897688129288269,0.18882240046179874,2.749831199645996,-0.13337010145187378,-0.016857843846082687,0.05402183532714844,0.17907823622226715,0.025817155838012695,-0.16094058992549262,1.3362325318694115,-0.09757556921613,0.9600467085838318,0.16024671494960785,-0.22941520810127258
1727296638814,7i,9.357521607405276,2.5s : 10.7s,0.6069979095122132,0.30740088797961446,2.9237735271453857,-0.11958718299865723,-0.07213348150253296,0.0311548113822937,0.30581796169281006,0.00024075806140899658,-0.15472907236392844,1.3305450001094934,-0.12559748861729808,0.9596745371818542,0.15411241352558136,-0.235104039311409
1727296638824,7i,9.357521607405276,2.5s : 10.7s,0.6269051871805685,0.392261699429243,3.030879020690918,-0.08896908164024353,-0.094805508852005,0.012721240520477295,0.38388264179229736,-0.07963371276855469,-0.1483379894189449,1.3250086319088814,-0.1551672852726326,0.9592941403388977,0.14779457449913025,-0.2406482994556427
1727296638834,7i,9.357521607405276,2.5s : 10.7s,0.6287256044099485,0.35860065171046807,2.9465742111206055,-0.05052688345313072,-0.13620281219482422,-0.011377155780792236,0.3522498607635498,-0.0662195086479187,-0.14207837130384623,1.3200366475590957,-0.18474470461910328,0.9589632153511047,0.1416008472442627,-0.24563966691493988
1727296638844,7i,9.357521607405276,2.5s : 10.7s,0.6213242678844519,0.35866936615241907,2.9962377548217773,-0.057279594242572784,-0.20296159386634827,-0.07303506135940552,0.35068458318710327,0.018163621425628662,-0.13627855484430218,1.315406519166039,-0.21406706373642387,0.9585941433906555,0.13585712015628815,-0.2502804100513458
1727296638854,7i,9.357521607405276,2.5s : 10.7s,0.6154426384710142,0.47996425027275386,3.048506498336792,-0.046096980571746826,-0.2613457441329956,-0.10453587770462036,0.4683087468147278,-0.011173605918884277,-0.1308189368311343,1.3108973230247187,-0.24424941205285042,0.9581583142280579,0.13044612109661102,-0.2547871470451355
1727296638864,7i,9.357521607405276,2.5s : 10.7s,0.6010103808268331,0.5445105379730182,2.8964650630950928,-0.05520445853471756,-0.32396838068962097,-0.08584892749786377,0.537700355052948,-0.00012564659118652344,-0.12587025220979475,1.3065760259609398,-0.27413346843783715,0.9576597809791565,0.1255381554365158,-0.2590906620025635
1727296638874,7i,9.357521607405276,2.5s : 10.7s,0.5851553191734102,0.5137253454501794,2.870619058609009,-0.0725548267364502,-0.4221290647983551,-0.09742772579193115,0.4990648031234741,0.07318395376205444,-0.12188800988271314,1.3023532985042365,-0.30297309987411103,0.9570316076278687,0.12158642709255219,-0.2632627785205841
1727296638884,7i,9.357521607405276,2.5s : 10.7s,0.5719913914668006,0.5991474163343128,2.954648733139038,-0.0730789378285408,-0.5039265155792236,-0.14493805170059204,0.5793412923812866,0.04831412434577942,-0.11858354676894158,1.2980756862914746,-0.3324379667571505,0.9562784433364868,0.11830581724643707,-0.2674609422683716
1727296638894,7i,9.357521607405276,2.5s : 10.7s,0.5582802109323296,0.7050332622988431,2.991101026535034,-0.09421373903751373,-0.6239755153656006,-0.17740756273269653,0.6811339855194092,-0.04068109393119812,-0.11593955098084482,1.2936839984016877,-0.3627115367352615,0.955392062664032,0.11567997932434082,-0.2717426121234894
1727296638904,7i,9.357521607405276,2.5s : 10.7s,0.5260764268826604,0.7074626796486362,2.951890468597412,-0.09627369046211243,-0.715388834476471,-0.25115448236465454,0.6567243337631226,-0.07834550738334656,-0.11416866571904635,1.2892424286489004,-0.39340573264697404,0.95437091588974,0.11392080783843994,-0.27603983879089355
1727296638914,7i,9.357521607405276,2.5s : 10.7s,0.49070720071442275,0.6832952512631392,2.8734750747680664,-0.13107219338417053,-0.8173463940620422,-0.2756221890449524,0.6195747256278992,-0.08397600054740906,-0.11328764730600904,1.2846482251728433,-0.423848940650843,0.9531885981559753,0.11304547637701035,-0.28044968843460083
1727296638924,7i,9.357521607405276,2.5s : 10.7s,0.4246845178853117,0.6306688258175179,2.514115571975708,-0.14654169976711273,-0.9651068449020386,-0.2955790162086487,0.5492570996284485,-0.09323546290397644,-0.11413753121346952,1.2800029608255385,-0.4523777609593788,0.9517833590507507,0.11388987302780151,-0.28484687209129333
1727296638934,7i,9.357521607405276,2.5s : 10.7s,0.35534440797248595,0.6666214171707825,2.352168321609497,-0.17285878956317902,-1.1677507162094116,-0.34768402576446533,0.5677498579025269,-0.034059226512908936,-0.11734896147419065,1.2753785702638427,-0.478742787836872,0.9501009583473206,0.11707981675863266,-0.28913721442222595
1727296638944,7i,9.357521607405276,2.5s : 10.7s,0.3054877364327088,0.8285188975805917,2.32407546043396,-0.2148009091615677,-1.3599419593811035,-0.3629290461540222,0.7428674697875977,-0.053609639406204224,-0.12258210667149229,1.2703174547034575,-0.504998836304042,0.9480271935462952,0.12227534502744675,-0.2937566637992859
1727296638954,7i,9.357521607405276,2.5s : 10.7s,0.2912862232073794,0.9679283600120799,2.353073835372925,-0.2701328694820404,-1.562355637550354,-0.2933872938156128,0.9193452000617981,-0.07492402195930481,-0.12953969397291615,1.2645110232843437,-0.5317879537455416,0.9454715251922607,0.12917770445346832,-0.2989926040172577
1727296638964,7i,9.357521607405276,2.5s : 10.7s,0.29637202930492956,1.017045214981098,2.4730169773101807,-0.2889787256717682,-1.7690656185150146,-0.26899951696395874,0.9770364165306091,-0.08613982796669006,-0.1380870286483972,1.2579361993808336,-0.560125861354332,0.9424002766609192,0.13764861226081848,-0.3048514127731323
1727296638974,7i,9.357521607405276,2.5s : 10.7s,0.2970344381148789,1.060323520873944,2.533426284790039,-0.3085920810699463,-1.9586563110351562,-0.28861182928085327,1.0152606964111328,-0.10116767883300781,-0.1480295159607994,1.2506841754371856,-0.5900550699913187,0.9388192892074585,0.1474894881248474,-0.3112316131591797
1727296638984,7i,9.357521607405276,2.5s : 10.7s,0.29467557277932166,1.0830071540400354,2.6007087230682373,-0.3671283423900604,-2.148589611053467,-0.2994624972343445,1.038652777671814,-0.06653657555580139,-0.1592854959795079,1.242546781848869,-0.6212825051567042,0.9346249103546143,0.15861278772354126,-0.3183054029941559
1727296638994,7i,9.357521607405276,2.5s : 10.7s,0.2872716123339568,1.0711331838823384,2.639580488204956,-0.4188587963581085,-2.346014976501465,-0.30261921882629395,1.0237514972686768,-0.08764004707336426,-0.1719647004930098,1.233236926983498,-0.6538504319867892,0.9296486377716064,0.17111839354038239,-0.32630038261413574
1727296639004,7i,9.357521607405276,2.5s : 10.7s,0.28067079168516473,1.059663347719877,2.579009532928467,-0.4783506393432617,-2.524228811264038,-0.2511475086212158,1.0235202312469482,-0.11053359508514404,-0.18612492211136789,1.2228279195576364,-0.6872108928112922,0.9238311648368835,0.18505214154720306,-0.33509933948516846
1727296639014,7i,9.357521607405276,2.5s : 10.7s,0.26495935746878363,1.0213157267224569,2.4319190979003906,-0.563658595085144,-2.7323453426361084,-0.19155895709991455,0.9975947141647339,-0.10581004619598389,-0.20204993544729857,1.2111851624341428,-0.7205367219371965,0.9169922471046448,0.2006779909133911,-0.3447514772415161
1727296639024,7i,9.357521607405276,2.5s : 10.7s,0.22910472338451815,0.9914148292460634,2.2097628116607666,-0.6519434452056885,-2.975738286972046,-0.1555715799331665,0.9727394580841064,-0.11170852184295654,-0.22040106200498819,1.198320965982659,-0.7530759536578,0.9088979959487915,0.21862100064754486,-0.35511884093284607
1727296639034,7i,9.357521607405276,2.5s : 10.7s,0.2229442955147269,1.0618167913344052,2.2626237869262695,-0.7549917101860046,-3.193159818649292,-0.06647127866744995,1.0557740926742554,-0.09152886271476746,-0.2408437394683946,1.1837388279323122,-0.7860524150123513,0.8992959260940552,0.23852209746837616,-0.36657044291496277
1727296639044,7i,9.357521607405276,2.5s : 10.7s,0.24346685631234485,1.1626973559850373,2.3244950771331787,-0.8394179344177246,-3.3683674335479736,0.06625187397003174,1.1507707834243774,-0.15232345461845398,-0.26227516808291473,1.167068366949943,-0.8210481740507085,0.8881548047065735,0.2592785954475403,-0.3794148564338684
1727296639054,7i,9.357521607405276,2.5s : 10.7s,0.24981007853170795,1.1370756972312888,2.179471015930176,-0.9416682720184326,-3.552504539489746,0.1645020842552185,1.1140518188476562,-0.15738090872764587,-0.28486588689841613,1.148446987681622,-0.8569620907365696,0.8753690719604492,0.28102874755859375,-0.39338505268096924
1727296639064,7i,9.357521607405276,2.5s : 10.7s,0.2287432687060802,1.0479761290365037,1.9511748552322388,-1.0297735929489136,-3.7154579162597656,0.21282100677490234,1.0174317359924316,-0.13339358568191528,-0.30923537093643877,1.1281810480713852,-0.892520977664163,0.8607721328735352,0.30433037877082825,-0.4079882502555847
1727296639074,7i,9.357521607405276,2.5s : 10.7s,0.21075352649770623,1.0319524346242792,1.7870103120803833,-1.1310588121414185,-3.889582872390747,0.3007996678352356,0.9825124740600586,-0.09547054767608643,-0.3352236662034814,1.1062259995799324,-0.9277150132182281,0.8442503809928894,0.32898038625717163,-0.4230993986129761
1727296639084,7i,9.357521607405276,2.5s : 10.7s,0.2077062450127273,1.100599239797743,1.73189377784729,-1.2368695735931396,-4.075158596038818,0.40838032960891724,1.0138403177261353,-0.1291201114654541,-0.3626313272355036,1.0820930714465697,-0.9637172909673583,0.8255216479301453,0.35473567247390747,-0.4389493465423584
1727296639094,7i,9.357521607405276,2.5s : 10.7s,0.23419693139729028,1.2268308463780855,1.8867053985595703,-1.3244301080703735,-4.205002784729004,0.5364134311676025,1.0889402627944946,-0.177717924118042,-0.390233978499277,1.055094154349208,-1.002221949075859,0.8045441508293152,0.3804048001766205,-0.4560711681842804
1727296639104,7i,9.357521607405276,2.5s : 10.7s,0.26141822839402157,1.2656187152997889,1.8565869331359863,-1.3815616369247437,-4.3277363777160645,0.6553390026092529,1.0642993450164795,-0.19896841049194336,-0.4175295926279746,1.0253269895142325,-1.0434128299841021,0.7814437747001648,0.405503511428833,-0.4742494225502014
1727296639114,7i,9.357521607405276,2.5s : 10.7s,0.2673206883673917,1.2114863999653072,1.7394076585769653,-1.4680423736572266,-4.438992977142334,0.7018311619758606,0.979458212852478,-0.12567389011383057,-0.4451477333868229,0.9933491431407875,-1.0858811308203933,0.7562071084976196,0.4305912256240845,-0.49268853664398193
1727296639124,7i,9.357521607405276,2.5s : 10.7s,0.26561920399557104,1.1825193658670596,1.6442627906799316,-1.5320935249328613,-4.4977593421936035,0.7644646167755127,0.899188220500946,-0.07352852821350098,-0.4725421696723591,0.9590384328757804,-1.1296478942356147,0.7289283275604248,0.45515134930610657,-0.5113714337348938
1727296639134,7i,9.357521607405276,2.5s : 10.7s,0.25712539557861663,1.1933002489451434,1.3597573041915894,-1.6387112140655518,-4.62672233581543,0.8836819529533386,0.7986581325531006,-0.07222795486450195,-0.5006522693121551,0.9225509096504776,-1.173650637989068,0.6993106603622437,0.479997843503952,-0.5296854972839355
1727296639144,7i,9.357521607405276,2.5s : 10.7s,0.2626693782755663,1.25737349058352,1.3983056545257568,-1.6766327619552612,-4.713691234588623,0.9692922234535217,0.7997992634773254,-0.04221159219741821,-0.528881263066985,0.883517831950983,-1.2192765979926805,0.6673654913902283,0.5045677423477173,-0.5477542281150818
1727296639154,7i,9.357521607405276,2.5s : 10.7s,0.266736520238449,1.301023949472634,1.3663825988769531,-1.7544845342636108,-4.794954776763916,1.0120141506195068,0.8127409815788269,-0.0891222357749939,-0.5559058992188287,0.8413472891788837,-1.2677109894514045,0.6332800388336182,0.5277130007743835,-0.5661053657531738
1727296639164,7i,9.357521607405276,2.5s : 10.7s,0.27484605736681794,1.3176254932365197,1.3974359035491943,-1.7962770462036133,-4.85232400894165,1.0694541931152344,0.7645469307899475,-0.08872801065444946,-0.5818316823495003,0.7960803599283083,-1.3187285077008681,0.5970343351364136,0.5495551228523254,-0.5844134092330933
1727296639174,7i,9.357521607405276,2.5s : 10.7s,0.2846658234225628,1.3374506683279397,1.373677134513855,-1.8326066732406616,-4.862488746643066,1.1296902894973755,0.7138291597366333,-0.05497336387634277,-0.6056512116792278,0.7478070073230714,-1.3725415904311393,0.5590761303901672,0.5692975521087646,-0.6027719378471375
1727296639184,7i,9.357521607405276,2.5s : 10.7s,0.27899791580440075,1.3240273029125014,1.151533842086792,-1.8972362279891968,-4.877336502075195,1.1862529516220093,0.5873345732688904,-0.0298384428024292,-0.6284193521966177,0.6973388538065574,-1.4275081669361671,0.5194965600967407,0.5878668427467346,-0.6201096773147583
1727296639194,7i,9.357521607405276,2.5s : 10.7s,0.2743274339267851,1.3313205464190503,1.117295742034912,-1.9425219297409058,-4.909968376159668,1.2231087684631348,0.5230357646942139,0.053412795066833496,-0.6500542088653528,0.6444440831724605,-1.483950557368768,0.47823092341423035,0.6052295565605164,-0.6363901495933533
1727296639204,7i,9.357521607405276,2.5s : 10.7s,0.2748484299168103,1.3694589059465088,1.11894953250885,-1.9769402742385864,-4.91095495223999,1.2614644765853882,0.5323572158813477,0.026848912239074707,-0.6692896171547084,0.5886924974527481,-1.5429212423181011,0.4354807138442993,0.6204290390014648,-0.6522457003593445
1727296639214,7i,9.357521607405276,2.5s : 10.7s,0.27556657603538437,1.4187683125099049,1.0030443668365479,-2.044860601425171,-4.885651111602783,1.3285435438156128,0.4978640675544739,0.0026357173919677734,-0.6862640830347152,0.5306423826816439,-1.6034490519148628,0.3915187418460846,0.6336514353752136,-0.6672323346138
1727296639224,7i,9.357521607405276,2.5s : 10.7s,0.26875221903887003,1.4045888991808535,0.9521719217300415,-2.085170269012451,-4.874648094177246,1.3400332927703857,0.42077624797821045,-0.011318087577819824,-0.7011487813471502,0.47048767574549144,-1.6652322017579644,0.34638336300849915,0.6450958847999573,-0.6810799837112427
1727296639234,7i,9.357521607405276,2.5s : 10.7s,0.25502169782325,1.3661192939892373,0.8919509053230286,-2.0881307125091553,-4.8688645362854,1.3196241855621338,0.35192859172821045,-0.031940579414367676,-0.713615831347376,0.40859037188510544,-1.7283602698272973,0.300370991230011,0.6545715928077698,-0.6937674880027771
1727296639244,7i,9.357521607405276,2.5s : 10.7s,0.2494424584228762,1.3538389386194154,0.9264497756958008,-2.103579521179199,-4.822469711303711,1.3126623630523682,0.3306540846824646,-0.02157008647918701,-0.723024464493228,0.34527186207892935,-1.7926749281687397,0.25377440452575684,0.6616554856300354,-0.7055569887161255
1727296639254,7i,9.357521607405276,2.5s : 10.7s,0.24104394720831598,1.3269922927607787,0.8739126324653625,-2.128204584121704,-4.798283576965332,1.2940857410430908,0.29179614782333374,-0.033251285552978516,-0.72917877004279,0.28099765639269264,-1.8575806344617714,0.20679932832717896,0.6662574410438538,-0.7164740562438965
1727296639264,7i,9.357521607405276,2.5s : 10.7s,0.22862546959946725,1.294066304114473,0.7322362065315247,-2.15134859085083,-4.805850982666016,1.2757512331008911,0.21613305807113647,0.018785417079925537,-0.7332304865495878,0.21606297665344504,-1.922756241225044,0.15929213166236877,0.6692734360694885,-0.725740373134613
1727296639274,7i,9.357521607405276,2.5s : 10.7s,0.2237230990646773,1.2779200468380203,0.7389790415763855,-2.183443069458008,-4.799993991851807,1.2604209184646606,0.2106226682662964,0.007539629936218262,-0.7349183086732851,0.15056881612304057,-1.988116937551502,0.11128322780132294,0.6705265641212463,-0.7334917783737183
1727296639284,7i,9.357521607405276,2.5s : 10.7s,0.22240414728540947,1.2868750673841838,0.8239858150482178,-2.1930837631225586,-4.79991340637207,1.2539700269699097,0.2826801538467407,-0.060815632343292236,-0.7326713132280056,0.08489102319032478,-2.053555860431559,0.0630313903093338,0.6688578724861145,-0.7407132983207703
1727296639294,7i,9.357521607405276,2.5s : 10.7s,0.22405676602561736,1.2865133013169099,0.8845838904380798,-2.221492052078247,-4.771910190582275,1.240512490272522,0.32183581590652466,-0.11254751682281494,-0.7267733579273634,0.01961837304650254,-2.1183367997720643,0.0146603062748909,0.6644617319107056,-0.7471784353256226
1727296639304,7i,9.357521607405276,2.5s : 10.7s,0.21161490569332744,1.2403413596337594,1.1608483791351318,-1.9779679775238037,-4.799270153045654,1.2094700336456299,0.27036184072494507,-0.05033290386199951,-0.714737718982609,-0.042961690395439164,-2.1817100847311717,-0.032437488436698914,0.6554193496704102,-0.7545682787895203
1727296639314,7i,9.357521607405276,2.5s : 10.7s,0.30521015749367014,1.369196218799077,2.2145228385925293,-2.122446298599243,-4.851858139038086,1.233853816986084,0.5619316697120667,-0.19114351272583008,-0.6941449645048514,-0.1039340298556673,-2.2426251055590534,-0.07974005490541458,0.6397284865379333,-0.7644534111022949
1727296639324,7i,9.357521607405276,2.5s : 10.7s,0.28113971948455957,1.3354116353196301,1.4746530055999756,-2.3223040103912354,-4.724404811859131,1.1320515871047974,0.5160729289054871,-0.4852341413497925,-0.6692547108169262,-0.1629836456067433,-2.300703883363797,-0.12726034224033356,0.6204016208648682,-0.7738906145095825
1727296639334,7i,9.357521607405276,2.5s : 10.7s,0.25557817401686433,1.1322130868557039,0.8405370712280273,-2.562326669692993,-4.774161338806152,1.1209897994995117,-0.061695396900177,0.1465674638748169,-0.6488652618651499,-0.22201906249307024,-2.357193357104349,-0.17544841766357422,0.6042826771736145,-0.7772132158279419
1727296639344,7i,9.357521607405276,2.5s : 10.7s,0.2754713750143858,1.1103596314107351,0.8978301882743835,-2.6446046829223633,-4.690858840942383,1.106329321861267,0.08001965284347534,0.05030703544616699,-0.6291248193406805,-0.28062220101645863,-2.411585929440999,-0.22392882406711578,0.5884373784065247,-0.7769153118133545
1727296639354,7i,9.357521607405276,2.5s : 10.7s,0.27890005053422756,1.2741022406505036,1.0347790718078613,-2.609527826309204,-4.5801496505737305,1.1879295110702515,0.4073486924171448,-0.21500474214553833,-0.6056421023499022,-0.3361245791773278,-2.462165162372106,-0.27116620540618896,0.5692901015281677,-0.7761299014091492
1727296639364,7i,9.357521607405276,2.5s : 10.7s,0.29775606820592626,1.1835015921116856,0.9441072940826416,-2.6444268226623535,-4.491673946380615,1.1248289346694946,0.34161943197250366,-0.13686507940292358,-0.5802432236811137,-0.3885364019548636,-2.5089912502098635,-0.31683024764060974,0.5482273697853088,-0.7739930748939514
1727296639374,7i,9.357521607405276,2.5s : 10.7s,0.32803513011727475,1.0840784747335872,0.8256962895393372,-2.666651487350464,-4.42040491104126,1.062190055847168,0.18518728017807007,-0.11262369155883789,-0.5542426599195857,-0.4387927768770458,-2.5531398076606355,-0.3612470030784607,0.5262994766235352,-0.7697463035583496
1727296639384,7i,9.357521607405276,2.5s : 10.7s,0.3468779516138217,1.1187308007817254,0.8199304938316345,-2.691115140914917,-4.3494462966918945,1.0841965675354004,0.22021609544754028,-0.16607612371444702,-0.5274248785376778,-0.4870471187403043,-2.5946848290129347,-0.4044175148010254,0.5033098459243774,-0.7636266350746155
1727296639394,7i,9.357521607405276,2.5s : 10.7s,0.34587541138274247,1.1549046853748999,0.9186296463012695,-2.66552734375,-4.256542682647705,1.0918691158294678,0.31827035546302795,-0.20082491636276245,-0.49876941517723045,-0.5325865631266964,-2.6328805169160874,-0.445903480052948,0.47834524512290955,-0.7565420866012573
1727296639404,7i,9.357521607405276,2.5s : 10.7s,0.36029156989587446,1.155033129026069,0.8288145065307617,-2.7256453037261963,-4.19899845123291,1.089538812637329,0.3355175852775574,-0.1855657696723938,-0.46902748453428755,-0.5759207573124505,-2.66824836510425,-0.48579415678977966,0.45201900601387024,-0.7481194734573364
1727296639414,7i,9.357521607405276,2.5s : 10.7s,0.3856512338810956,1.1530380072156299,0.7171298265457153,-2.7816762924194336,-4.1005859375,1.0852022171020508,0.30596670508384705,-0.24128234386444092,-0.4392377533622162,-0.618109563776772,-2.701588670835421,-0.5244875550270081,0.42524969577789307,-0.7376147508621216
1727296639424,7i,9.357521607405276,2.5s : 10.7s,0.40869362322154645,1.1547421787058898,0.5837041139602661,-2.7730822563171387,-4.007761478424072,1.0896950960159302,0.2383192479610443,-0.29866039752960205,-0.40987101718660396,-0.6588243144241629,-2.733023060480154,-0.5614815354347229,0.3984910249710083,-0.7252196073532104
1727296639434,7i,9.357521607405276,2.5s : 10.7s,0.4404864056660727,1.0938789589053322,0.4773404002189636,-2.78916597366333,-3.9342949390411377,1.047537088394165,0.18414202332496643,-0.25559526681900024,-0.3808614958073183,-0.6981786764286323,-2.762952231133723,-0.59676194190979,0.3717203736305237,-0.7111253142356873
1727296639444,7i,9.357521607405276,2.5s : 10.7s,0.45613481006307766,1.0849372882486628,0.4793689250946045,-2.761836290359497,-3.847024917602539,1.0386912822723389,0.20592918992042542,-0.23622554540634155,-0.35170729551508956,-0.7360144167602679,-2.7910113924362956,-0.6302438974380493,0.3445011079311371,-0.6957812905311584
1727296639454,7i,9.357521607405276,2.5s : 10.7s,0.45606165540821497,1.1343250516358394,0.4708268344402313,-2.760103225708008,-3.7336838245391846,1.0787380933761597,0.26255854964256287,-0.23255205154418945,-0.32227591374740144,-0.7721536604553657,-2.816830043699406,-0.6617611646652222,0.31672611832618713,-0.6795268654823303
1727296639464,7i,9.357521607405276,2.5s : 10.7s,0.46048275126278065,1.1513298076314868,0.3792705535888672,-2.7757205963134766,-3.6172890663146973,1.1052021980285645,0.23236048221588135,-0.2238236665725708,-0.29315211783429124,-0.8070845230134825,-2.840768803023826,-0.6914600729942322,0.28897130489349365,-0.6621016263961792
1727296639474,7i,9.357521607405276,2.5s : 10.7s,0.4742025727480476,1.155490864986831,0.19185325503349304,-2.7683959007263184,-3.507112741470337,1.1245152950286865,0.1458679437637329,-0.22214192152023315,-0.26503022445740415,-0.8411425258293553,-2.86373298574402,-0.7193790674209595,0.2619384229183197,-0.6433365941047668
1727296639484,7i,9.357521607405276,2.5s : 10.7s,0.4756208335630671,1.162665839982062,0.1391969621181488,-2.732609272003174,-3.3835558891296387,1.149153470993042,0.10014575719833374,-0.1456330418586731,-0.23792329026396977,-0.8741237446970932,-2.8857851221983375,-0.7453752756118774,0.23568493127822876,-0.6235930323600769
1727296639494,7i,9.357521607405276,2.5s : 10.7s,0.47577305588345864,1.1389318696121438,0.11747369915246964,-2.698796033859253,-3.231856107711792,1.1327965259552002,0.08080577850341797,-0.08607125282287598,-0.2113994142699676,-0.9058378541134066,-2.906132827612496,-0.7694237232208252,0.20982836186885834,-0.6032903790473938
1727296639504,7i,9.357521607405276,2.5s : 10.7s,0.46298274371627307,1.1498283980326305,0.10284895449876785,-2.632206678390503,-3.084890842437744,1.1496376991271973,-0.000836983323097229,-0.02092379331588745,-0.1856478747005584,-0.9361387033095325,-2.9247538344470443,-0.7914376258850098,0.18458332121372223,-0.5827139616012573
1727296639514,7i,9.357521607405276,2.5s : 10.7s,0.43744169833705837,1.1697463114746336,0.1438712179660797,-2.566122055053711,-2.921527624130249,1.1671152114868164,-0.05304798483848572,0.057744503021240234,-0.16047103444638697,-0.96506604795523,-2.941464358229586,-0.8115244507789612,0.15978321433067322,-0.5620474815368652
1727296639524,7i,9.357521607405276,2.5s : 10.7s,0.4132789187937381,1.1873189104727988,0.1034255251288414,-2.49277400970459,-2.7493598461151123,1.175218105316162,-0.13801538944244385,0.09767472743988037,-0.1362699972055502,-0.9925654380836227,-2.956429578028283,-0.8296675682067871,0.13584864139556885,-0.5414766073226929
1727296639534,7i,9.357521607405276,2.5s : 10.7s,0.37271245734703506,1.2310773280965044,0.18061724305152893,-2.3643453121185303,-2.565429449081421,1.1803216934204102,-0.2849201261997223,0.20300889015197754,-0.11319515139268468,-1.0185109252246212,-2.9696728923340796,-0.8458794951438904,0.11295357346534729,-0.5212767124176025
1727296639544,7i,9.357521607405276,2.5s : 10.7s,0.3371607365208654,1.2472838680500697,0.21810176968574524,-2.2553696632385254,-2.357961416244507,1.1427371501922607,-0.4000931680202484,0.2996569871902466,-0.0911066208992494,-1.0428002683578714,-2.980732877019945,-0.860235869884491,0.0909806340932846,-0.5017138719558716
1727296639554,7i,9.357521607405276,2.5s : 10.7s,0.2974728785360579,1.2870468121697138,0.23683896660804749,-2.113626718521118,-2.1365811824798584,1.1283867359161377,-0.50355464220047,0.36009109020233154,-0.07046171233764344,-1.0653802157902055,-2.989944866648032,-0.8728019595146179,0.07040341943502426,-0.4829701781272888
1727296639564,7i,9.357521607405276,2.5s : 10.7s,0.23979439986248777,1.3847034696443672,0.2845476567745209,-1.908373236656189,-1.887397050857544,1.1471636295318604,-0.6162872314453125,0.4707540273666382,-0.0515517947482782,-1.0859431711903729,-2.9972231281221737,-0.8835680484771729,0.051528964191675186,-0.46545925736427307
1727296639574,7i,9.357521607405276,2.5s : 10.7s,0.18725600867154996,1.4230817385708578,0.305391401052475,-1.6864969730377197,-1.600335717201233,1.1021699905395508,-0.6739845275878906,0.5967644453048706,-0.034678734905514846,-1.1041491423789946,-3.0026076583422983,-0.8925448060035706,0.034671783447265625,-0.4496240019798279
1727296639584,7i,9.357521607405276,2.5s : 10.7s,0.14493993175562314,1.4879594147304782,0.2802567481994629,-1.4316257238388062,-1.299067735671997,1.031562328338623,-0.7641198635101318,0.7523451447486877,-0.020407874747697927,-1.1198515817099166,-3.006394420798351,-0.8998483419418335,0.020406458526849747,-0.43572530150413513
1727296639594,7i,9.357521607405276,2.5s : 10.7s,0.12362333762061678,1.6040150867950274,0.2979719638824463,-1.1372824907302856,-0.977527916431427,1.0115092992782593,-0.8835270404815674,0.876979649066925,-0.00893916593451825,-1.1326930681162621,-3.008699296204499,-0.905521810054779,0.00893904734402895,-0.4242056906223297
1727296639604,7i,9.357521607405276,2.5s : 10.7s,0.17211470618608313,1.7081568428128906,0.37969347834587097,-0.8046161532402039,-0.630686342716217,0.9965888857841492,-0.9720024466514587,0.989859402179718,-0.00036852450375418725,-1.1423168977682163,-3.00900828202901,-0.9095985889434814,0.00036852448829449713,-0.41548818349838257
1727296639614,7i,9.357521607405276,2.5s : 10.7s,0.27297591225132956,1.7941367223617612,0.425574392080307,-0.4343237280845642,-0.24174675345420837,0.9730795621871948,-1.0337806940078735,1.096968650817871,0.005297082654671329,-1.1485336574697722,-3.0070747983191226,-0.9121511578559875,-0.005297057796269655,-0.40981966257095337
1727296639624,7i,9.357521607405276,2.5s : 10.7s,0.40814292272311026,1.940751784943377,0.4396691620349884,-0.04787082597613335,0.18841581046581268,0.9980300664901733,-1.135349154472351,1.2171424627304077,0.007305302503578852,-1.1509571552324929,-3.0032280649519922,-0.9131301045417786,-0.007305237464606762,-0.4076026976108551
1727296639634,7i,9.357521607405276,2.5s : 10.7s,0.5695747968246653,2.0870387282666543,0.43967756628990173,0.378947913646698,0.6232547760009766,1.0474884510040283,-1.2441078424453735,1.307935118675232,0.005373369551324464,-1.1493714848682601,-2.9975539804691858,-0.9124937653541565,-0.005373343825340271,-0.40905508399009705
1727296639644,7i,9.357521607405276,2.5s : 10.7s,0.7530616604543888,2.218880561200023,0.4722789227962494,0.8085994124412537,1.0655066967010498,1.1044328212738037,-1.3248828649520874,1.3958311080932617,-0.0004657243404027862,-1.1434444984406948,-2.9899525846848287,-0.9100664258003235,0.00046572432620450854,-0.41446220874786377
1727296639654,7i,9.357521607405276,2.5s : 10.7s,0.9596436369054553,2.313627066022863,0.5727056860923767,1.2629938125610352,1.4986048936843872,1.1672782897949219,-1.3616275787353516,1.4616093635559082,-0.009943152244082333,-1.1330543705048803,-2.9798465478037883,-0.9056663513183594,0.009942988865077496,-0.42387446761131287
1727296639664,7i,9.357521607405276,2.5s : 10.7s,1.1852554421475598,2.386884765059662,0.6500468254089355,1.7226392030715942,1.9270342588424683,1.2573368549346924,-1.3787951469421387,1.4883705377578735,-0.022763846752158177,-1.1179071153270856,-2.966932331620068,-0.8989536762237549,0.022761881351470947,-0.43745192885398865
1727296639674,7i,9.357521607405276,2.5s : 10.7s,1.4201560466471432,2.4347651998298603,0.7501388192176819,2.1776015758514404,2.363452434539795,1.3358150720596313,-1.3965294361114502,1.4810081720352173,-0.038812105931380916,-1.0978764843128606,-2.9510817585723683,-0.8895717263221741,0.038802362978458405,-0.45514458417892456
1727296639684,7i,9.357521607405276,2.5s : 10.7s,1.6640093206477244,2.473641434044822,0.8336653709411621,2.632357597351074,2.8434627056121826,1.438315749168396,-1.4245518445968628,1.4215490818023682,-0.0581295378185554,-1.0728836842173668,-2.931906809779433,-0.8770974278450012,0.058096807450056076,-0.4767860174179077
1727296639694,7i,9.357521607405276,2.5s : 10.7s,1.9349090212115065,2.590285964909604,0.9636662602424622,3.0955848693847656,3.3487749099731445,1.6057239770889282,-1.473242163658142,1.4002819061279297,-0.08069056943653928,-1.0426397817328814,-2.90884914976885,-0.860927164554596,0.08060303330421448,-0.5023022890090942
1727296639704,7i,9.357521607405276,2.5s : 10.7s,2.2317860160875806,2.7346220496477227,1.1029072999954224,3.5622122287750244,3.9028661251068115,1.8113009929656982,-1.5014082193374634,1.393958330154419,-0.10629880280466533,-1.0067681479492567,-2.8810746098908067,-0.840338408946991,0.1060987263917923,-0.5315772891044617
1727296639714,7i,9.357521607405276,2.5s : 10.7s,2.551395485812046,2.9577159261046706,1.1627599000930786,4.048276901245117,4.475870132446289,2.074618339538574,-1.5544636249542236,1.4239680767059326,-0.13492021778266722,-0.9647562976549723,-2.8482277326027385,-0.8144407272338867,0.13451124727725983,-0.5644405484199524
1727296639724,7i,9.357521607405276,2.5s : 10.7s,2.8959758880514856,3.285599047284907,1.1759276390075684,4.548906326293945,5.07193660736084,2.3959288597106934,-1.651199221611023,1.525852918624878,-0.16657111688667833,-0.916069526799042,-2.810195451016746,-0.7822355031967163,0.16580191254615784,-0.6005142331123352
1727296639734,7i,9.357521607405276,2.5s : 10.7s,3.2760078623213578,3.660468107161423,1.1583738327026367,5.110179424285889,5.727644443511963,2.7850489616394043,-1.7334471940994263,1.6240966320037842,-0.20104636155568703,-0.8598175500092554,-2.7663349303526372,-0.742461621761322,0.19969472289085388,-0.6394316554069519
1727296639744,7i,9.357521607405276,2.5s : 10.7s,3.6952062310561473,4.087517149116691,1.0702775716781616,5.757311820983887,6.487185001373291,3.2271416187286377,-1.807013750076294,1.7401306629180908,-0.23838810458065698,-0.7944449989796415,-2.7155860003394134,-0.6932976841926575,0.23613663017749786,-0.680865466594696
1727296639754,7i,9.357521607405276,2.5s : 10.7s,4.162732295532849,4.542656361236926,1.0434199571609497,6.471784591674805,7.321835994720459,3.6984736919403076,-1.8878026008605957,1.8420696258544922,-0.2781236416649134,-0.7181720240102089,-2.656232778564584,-0.6327235102653503,0.2745518684387207,-0.7240733504295349
1727296639764,7i,9.357521607405276,2.5s : 10.7s,4.701345242427514,5.069859311054938,1.0208579301834106,7.276718616485596,8.246963500976562,4.286932945251465,-1.9416601657867432,1.8856391906738281,-0.3185086949957135,-0.6288315607532425,-2.585843734859755,-0.5586158037185669,0.3131506145000458,-0.7680397629737854
1727296639774,7i,9.357521607405276,2.5s : 10.7s,5.367902102812818,5.75278911830273,0.950264036655426,8.340627670288086,9.313783645629883,5.105625152587891,-1.9255415201187134,1.8219397068023682,-0.3579895927579273,-0.5230464137522772,-2.5021852302197214,-0.46785348653793335,0.3503919839859009,-0.8113806843757629
1727296639784,7i,9.357521607405276,2.5s : 10.7s,6.145578740468918,6.627029065189411,0.6806003451347351,9.40140438079834,10.531699180603027,6.108919143676758,-1.8735369443893433,1.757407307624817,-0.3946747741906264,-0.3976003379725847,-2.4026789183718225,-0.35743916034698486,0.3845079839229584,-0.8511115312576294
1727296639794,7i,9.357521607405276,2.5s : 10.7s,6.981441842378239,7.686836668254398,0.20312242209911346,10.221007347106934,11.566338539123535,7.306288719177246,-1.7835404872894287,1.5888947248458862,-0.42587531130713563,-0.2528945495558168,-2.2868102150085554,-0.22785831987857819,0.41311806440353394,-0.8817108273506165
1727296639804,7i,9.357521607405276,2.5s : 10.7s,7.8142437715762645,8.871268689761347,-0.38093408942222595,10.703876495361328,12.351105690002441,8.631427764892578,-1.5198041200637817,1.3740663528442383,-0.4473238895553163,-0.0929315329111652,-2.156739541556748,-0.08366725593805313,0.4325542747974396,-0.8977174162864685
1727296639814,7i,9.357521607405276,2.5s : 10.7s,8.592067934030828,10.217269887807715,-1.5110615491867065,11.03980541229248,12.85055923461914,10.126259803771973,-0.8528196215629578,1.0602664947509766,-0.4569847588832263,0.07750186915092824,-2.016584451736819,0.0694795697927475,0.4412442743778229,-0.8946933150291443
1727296639824,7i,9.357521607405276,2.5s : 10.7s,9.177392738990564,11.59119744030826,-3.683082103729248,11.109858512878418,13.077973365783691,11.56744384765625,0.02372342348098755,0.7413083910942078,-0.46060759391971057,0.253867383155715,-1.8690455734177978,0.22497513890266418,0.4444924592971802,-0.8670713305473328
1727296639834,7i,9.357521607405276,2.5s : 10.7s,9.357521607405276,12.725234241512524,-6.921908855438232,10.453140258789062,13.261887550354004,12.65830135345459,1.2592272758483887,0.33666008710861206,-0.46543437585657366,0.4327755481281568,-1.7106279500560708,0.37477993965148926,0.44881102442741394,-0.8112389445304871
1727296639844,7i,9.357521607405276,2.5s : 10.7s,9.022254228243424,13.785531761963151,-10.994702339172363,9.050572395324707,13.481833457946777,13.446258544921875,3.022630453109741,-0.3205031156539917,-0.47600847721196,0.612582668463289,-1.5303019634320094,0.5110622644424438,0.4582350552082062,-0.7272111177444458
1727296639854,7i,9.357521607405276,2.5s : 10.7s,8.143129145649064,14.679439465685336,-15.177497863769531,7.038641452789307,14.19616985321045,13.695772171020508,5.230229377746582,-0.7459680438041687,-0.4869199633776911,0.7925968875352682,-1.3168918390320798,0.6294080018997192,0.46790602803230286,-0.6204107403755188
1727296639864,7i,9.357521607405276,2.5s : 10.7s,6.909686921216451,15.38005287149167,-18.13153839111328,5.355392932891846,15.53158187866211,13.209731101989746,7.868923664093018,-0.35926440358161926,-0.4851517192371008,0.9714232637008422,-1.0696214660244765,0.7304083108901978,0.466342568397522,-0.4990272521972656
1727296639874,7i,9.357521607405276,2.5s : 10.7s,5.466456623750609,15.864721754216632,-19.2497615814209,3.692187547683716,14.984435081481934,11.787679672241211,10.602959632873535,0.5632506608963013,-0.45326498219123706,1.139005422722554,-0.8039345683188706,0.8165077567100525,0.43790316581726074,-0.37623894214630127
1727296639884,7i,9.357521607405276,2.5s : 10.7s,3.7151218511406907,15.555683757451295,-17.600656509399414,0.17318837344646454,14.09315013885498,9.23146915435791,12.405831336975098,1.6895630359649658,-0.3863967221816004,1.2593281119908186,-0.5582177700770015,0.8817049860954285,0.37685325741767883,-0.2838623821735382
1727296639894,7i,9.357521607405276,2.5s : 10.7s,1.778111442432362,15.17228659464774,-17.650279998779297,-1.0450795888900757,13.861684799194336,6.833975791931152,13.255805969238281,2.7890255451202393,-0.2981681098868721,1.3271814791408074,-0.3419038590323289,0.9276514649391174,0.29376962780952454,-0.23056910932064056
1727296639904,7i,9.357521607405276,2.5s : 10.7s,0.6055719107813788,12.531636190020391,-20.693777084350586,-3.0067338943481445,13.316247940063477,4.2941131591796875,11.286576271057129,3.3489840030670166,-0.20852335547615133,1.3636766086087537,-0.11559210449723532,0.9574278593063354,0.20701546967029572,-0.2011873424053192
1727296639914,7i,9.357521607405276,2.5s : 10.7s,3.413421714869016,7.557378852163115,-26.771787643432617,-7.447774410247803,14.536118507385254,3.010751962661743,6.424860954284668,2.602020263671875,-0.1195672161467704,1.3589432073677645,0.13408444872241698,0.9706628918647766,0.11928252130746841,-0.20877067744731903
1727296639924,7i,9.357521607405276,2.5s : 10.7s,3.1510002300073765,6.399956173152024,-18.341989517211914,-2.0114641189575195,5.118374347686768,5.19252872467041,-0.9135710597038269,-3.628012180328369,-0.012570410067330288,1.3306588541325366,0.27197558139533845,0.9712285995483398,0.012570079416036606,-0.23781737685203552
1727296639934,7i,9.357521607405276,2.5s : 10.7s,5.151448987155664,14.217095028626849,-25.886804580688477,-21.425012588500977,2.5558218955993652,8.15224838256836,-11.467503547668457,2.0403430461883545,-0.10017850059957956,1.2343387399508416,0.5711619319544863,0.9391976594924927,0.10001102089881897,-0.32849016785621643
1727296639944,7i,9.357521607405276,2.5s : 10.7s,2.1349700977375368,26.436432773547736,-11.773993492126465,-8.576323509216309,9.008991241455078,16.72100830078125,14.068294525146484,14.878707885742188,-0.06051104908662127,1.1366733037971681,0.7333756049641401,0.9055787920951843,0.060474127531051636,-0.4198451042175293
1727296639954,7i,9.357521607405276,2.5s : 10.7s,2.4826473815120447,11.23031656725139,-15.86365032196045,-9.881547927856445,-5.3046159744262695,8.223485946655273,5.748824596405029,-5.0443339347839355,-0.12419025085387639,1.0600075283140518,0.876632543175882,0.8656404614448547,0.12387125939130783,-0.4851003885269165
1727296639964,7i,9.357521607405276,2.5s : 10.7s,5.127810759769333,11.858085777856786,-11.774019241333008,-14.097391128540039,2.5961570739746094,-1.01070237159729,-0.20891053974628448,11.813087463378906,-0.18975301156204508,0.9421160161048523,0.9816014668074182,0.7942869067192078,0.18861635029315948,-0.5775223970413208
1727296639974,7i,9.357521607405276,2.5s : 10.7s,3.2509059828806572,17.348952469581814,-10.926824569702148,-15.187280654907227,-4.853999137878418,13.805032730102539,8.918314933776855,5.556157112121582,-0.27603370077639733,0.8194398700050358,1.0700906001192345,0.7030998468399048,0.2725416421890259,-0.6567890048027039
1727296639984,7i,9.357521607405276,2.5s : 10.7s,5.028760631245017,7.489695065422089,-8.961687088012695,-16.68977928161621,-3.3908605575561523,2.415689468383789,3.5753793716430664,6.121816635131836,-0.37224501835851365,0.6700551212254897,1.107113852167915,0.5784968733787537,0.36370760202407837,-0.7301083207130432
1727296639994,7i,9.357521607405276,2.5s : 10.7s,5.439459770876192,6.364270816176737,-6.649065971374512,-15.077481269836426,-4.354414939880371,3.246189594268799,2.381603479385376,4.928910732269287,-0.4608626262422614,0.5177549067149647,1.12165270964291,0.44329407811164856,0.44472089409828186,-0.7782761454582214
1727296640004,7i,9.357521607405276,2.5s : 10.7s,5.288926407499453,7.39646068406574,-3.2637200355529785,-14.559587478637695,-3.4015254974365234,2.719572067260742,4.30001974105835,5.368555545806885,-0.5202350254564281,0.3612365322907414,1.1041723594225552,0.3066731095314026,0.4970840811729431,-0.8117012977600098
1727296640014,7i,9.357521607405276,2.5s : 10.7s,4.914708632928763,4.938179645170457,-2.0781795978546143,-13.687968254089355,-3.5130844116210938,2.851527214050293,2.1893985271453857,3.385401725769043,-0.5562181031433191,0.20348405412399306,1.072265681025841,0.17162035405635834,0.5279781818389893,-0.8317364454269409
1727296640024,7i,9.357521607405276,2.5s : 10.7s,4.59928992464057,4.883904822842745,-1.3201204538345337,-13.016685485839844,-2.8847451210021973,2.4597928524017334,0.3910980820655823,4.2010698318481445,-0.5765324516228534,0.050237496759037534,1.0350702090369082,0.04209928959608078,0.5451201796531677,-0.8373002409934998
1727296640034,7i,9.357521607405276,2.5s : 10.7s,4.185504358170733,5.483580780250755,-0.2676422894001007,-12.346453666687012,-2.4259183406829834,2.521944999694824,0.02771151065826416,4.869156360626221,-0.5851822365341868,-0.09974487422374685,0.9923287591545042,-0.08301065862178802,0.5523512959480286,-0.8294680118560791
1727296640044,7i,9.357521607405276,2.5s : 10.7s,3.6896763731586986,5.336487630711452,0.5795150995254517,-11.597380638122559,-3.268690586090088,2.7528152465820312,0.727874755859375,4.513347625732422,-0.5765507684283808,-0.24466202041179577,0.9470901435840616,-0.2030716985464096,0.5451355576515198,-0.8133812546730042
1727296640054,7i,9.357521607405276,2.5s : 10.7s,3.355684216158549,4.628099668924228,0.7004603147506714,-10.8672513961792,-4.516815185546875,2.434678077697754,-0.12474507093429565,3.9339659214019775,-0.5583165151132864,-0.3816809671162139,0.9017281341542203,-0.31591907143592834,0.5297591090202332,-0.7871152758598328
1727296640064,7i,9.357521607405276,2.5s : 10.7s,3.0335926164937255,3.950194196781226,1.8832640647888184,-10.136910438537598,-4.769589424133301,1.9880163669586182,-0.2598409652709961,3.4035727977752686,-0.5267720432733449,-0.508435964886937,0.8597618377768824,-0.4208167493343353,0.5027456283569336,-0.755089521408081
1727296640074,7i,9.357521607405276,2.5s : 10.7s,2.734044193541765,2.850651461905426,2.394064426422119,-9.451799392700195,-4.596292972564697,1.7752039432525635,-0.11038351058959961,2.2277073860168457,-0.483218476363088,-0.6217563703321309,0.8279074151774356,-0.5157740116119385,0.4646315574645996,-0.7197878956794739
1727296640084,7i,9.357521607405276,2.5s : 10.7s,2.522029707062841,2.7044455734009247,2.3639721870422363,-8.963030815124512,-4.503256320953369,1.5890545845031738,-0.7790517807006836,2.0449962615966797,-0.4363866523292753,-0.7238494168048828,0.804682360281062,-0.6002086997032166,0.4226675033569336,-0.6790447235107422
1727296640094,7i,9.357521607405276,2.5s : 10.7s,2.3389968597054387,2.4393057064784847,2.6717188358306885,-8.605247497558594,-4.463382720947266,1.452792763710022,-0.6810221672058105,1.837338924407959,-0.3873526415669406,-0.8178734790119396,0.7889588447080652,-0.675632119178772,0.37773850560188293,-0.6331152319908142
1727296640104,7i,9.357521607405276,2.5s : 10.7s,2.106158579327764,2.214055893280612,2.9490716457366943,-8.169731140136719,-4.511261463165283,1.588639497756958,-0.03898623585700989,1.541670560836792,-0.3346896113243579,-0.9046002702986808,0.7810302671438293,-0.7425550222396851,0.3284760117530823,-0.5837085247039795
1727296640114,7i,9.357521607405276,2.5s : 10.7s,1.8700894626170543,2.4715184548196607,2.8189244270324707,-7.837604999542236,-4.695533752441406,1.8417346477508545,0.37220892310142517,1.605576992034912,-0.2806140599609437,-0.9857647168231577,0.7769863732928439,-0.8010851740837097,0.27694573998451233,-0.5306257605552673
1727296640124,7i,9.357521607405276,2.5s : 10.7s,1.6481421835845138,2.4076830958563553,3.170811176300049,-7.609996318817139,-4.901477336883545,1.9215292930603027,0.44066789746284485,1.3821992874145508,-0.2245130986213691,-1.062936845147832,0.777278926564587,-0.8518577218055725,0.22263170778751373,-0.4741029739379883
1727296640134,7i,9.357521607405276,2.5s : 10.7s,1.4115999896142994,2.3579989849898695,3.732778310775757,-7.380754470825195,-5.144599437713623,2.04852557182312,0.8051967620849609,0.8457897901535034,-0.16370360712710758,-1.1361312258086118,0.7858758429335465,-0.8948848247528076,0.16297340393066406,-0.4154766798019409
1727296640144,7i,9.357521607405276,2.5s : 10.7s,1.2518130246406114,2.376632683672437,3.6219286918640137,-7.17380952835083,-5.259353160858154,2.097306251525879,0.8583468198776245,0.7161914110183716,-0.1014370133909561,-1.2070022088217858,0.799891869651681,-0.929749608039856,0.1012631505727768,-0.3539935350418091
1727296640154,7i,9.357521607405276,2.5s : 10.7s,1.0991879460109077,2.2598155990049924,3.9645204544067383,-6.8480706214904785,-5.291136264801025,2.042520046234131,0.6180035471916199,0.7436060905456543,-0.03944686663241356,-1.2759740736543914,0.8178598111847937,-0.9561094045639038,0.03943663835525513,-0.2903437316417694
1727296640164,7i,9.357521607405276,2.5s : 10.7s,0.8871227261649451,2.2968039392330453,4.679566383361816,-6.3845343589782715,-5.1172194480896,2.0686943531036377,0.8233810663223267,0.5637868642807007,0.022021779288726423,-1.341952670606487,0.8465058495107858,-0.9736931920051575,-0.022019999101758003,-0.2267964631319046
1727296640174,7i,9.357521607405276,2.5s : 10.7s,0.6911788129621624,2.1978772469197376,4.927285194396973,-5.780959606170654,-4.7975053787231445,2.0003502368927,0.6922916173934937,0.5916042923927307,0.08021020676327016,-1.4047635160729879,0.8842098355629323,-0.9830772876739502,-0.08012422919273376,-0.1647396683692932
1727296640184,7i,9.357521607405276,2.5s : 10.7s,0.5174144773668378,2.3182847282836585,5.235453128814697,-5.103610038757324,-4.498255729675293,2.0371203422546387,0.4669286012649536,1.0032758712768555,0.1330310671959465,-1.4638343802252183,0.9283957156567071,-0.9854999780654907,-0.13263903558254242,-0.1058148443698883
1727296640194,7i,9.357521607405276,2.5s : 10.7s,0.5319035474468065,2.67214223268031,5.609401226043701,-4.63737678527832,-4.365662574768066,2.324894666671753,0.7452927827835083,1.0861618518829346,0.18134362077465074,-1.5203307759630862,0.9793115101736084,-0.9823499917984009,-0.18035131692886353,-0.04961696267127991
1727296640204,7i,9.357521607405276,2.5s : 10.7s,0.6985518332840447,2.584742159635681,6.101781368255615,-4.236480712890625,-4.222077369689941,2.2069942951202393,0.9618163108825684,0.940732479095459,0.22564331560799997,-1.576685320769714,1.0384997433741139,-0.9746334552764893,-0.22373341023921967,0.005739676766097546
1727296640214,7i,9.357521607405276,2.5s : 10.7s,0.8565430395424503,2.4181311633317035,6.2643961906433105,-3.891728639602661,-4.019650936126709,2.0827202796936035,0.8671808242797852,0.8704205751419067,0.26462170701662213,-1.6330787540526155,1.1038210588781072,-0.9633199572563171,-0.2615441679954529,0.06007560342550278
1727296640224,7i,9.357521607405276,2.5s : 10.7s,0.9505125629931948,2.4113006213870216,6.1220383644104,-3.599940061569214,-3.82835054397583,1.9458508491516113,0.9206308126449585,1.0864962339401245,0.29800806829376186,-1.6892647159181036,1.1714602996081067,-0.949222981929779,-0.2936166524887085,0.11298197507858276
1727296640234,7i,9.357521607405276,2.5s : 10.7s,0.9431150397780809,2.20274294685494,6.134416103363037,-3.406275510787964,-3.586306571960449,1.5340142250061035,0.9624760150909424,1.2540003061294556,0.32565389978888476,-1.7455214910722658,1.2407328353931955,-0.933016300201416,-0.319928377866745,0.16470089554786682
1727296640244,7i,9.357521607405276,2.5s : 10.7s,0.8704128876268493,1.8774079053729384,5.875847339630127,-3.139225959777832,-3.3668038845062256,1.2118775844573975,0.7816778421401978,1.2020785808563232,0.34753021014670965,-1.8012805784981054,1.3104491314975433,-0.9153534770011902,-0.340576708316803,0.21479155123233795
1727296640254,7i,9.357521607405276,2.5s : 10.7s,0.8134414016261872,1.6960449117197238,5.766080856323242,-2.8972363471984863,-3.0607948303222656,1.0182440280914307,0.7112621068954468,1.15492582321167,0.3637137643102189,-1.8553580014209916,1.379319391044227,-0.8969975709915161,-0.3557474911212921,0.2623715400695801
1727296640264,7i,9.357521607405276,2.5s : 10.7s,0.7427294661073768,1.4151653245916611,5.526500701904297,-2.6773767471313477,-2.819129705429077,0.8008875250816345,0.4327659010887146,1.0835062265396118,0.37450334603287283,-1.907541464142006,1.4465567689170487,-0.8784175515174866,-0.3658103346824646,0.3075154721736908
1727296640274,7i,9.357521607405276,2.5s : 10.7s,0.7116231435962534,1.1836971766905968,5.389838695526123,-2.258392095565796,-2.5556766986846924,0.6908382177352905,0.2606770098209381,0.9251643419265747,0.38032998730372397,-1.9564799517417906,1.511685239611083,-0.8603328466415405,-0.3712269067764282,0.3493107259273529
1727296640284,7i,9.357521607405276,2.5s : 10.7s,0.7632608369010125,1.3358019984824028,5.085147857666016,-1.733904480934143,-2.2868313789367676,0.7823333740234375,0.47792768478393555,0.9715485572814941,0.3818380263472213,-1.9996045912020233,1.5740147855357742,-0.843963623046875,-0.37262675166130066,0.38584280014038086
1727296640294,7i,9.357521607405276,2.5s : 10.7s,0.8251752385200462,1.5941808168306415,4.728703022003174,-1.3860201835632324,-1.9311891794204712,0.7637445330619812,0.4417364299297333,1.3277709484100342,0.3796548295077843,-2.0364764990683235,1.6314738301318366,-0.8298913836479187,-0.3705998957157135,0.4170563519001007
1727296640304,7i,9.357521607405276,2.5s : 10.7s,0.8693343120626761,1.5420263223818378,4.468326091766357,-1.0751125812530518,-1.5688000917434692,0.6879799962043762,0.2360331416130066,1.3597121238708496,0.3738954241288282,-2.0682020088882997,1.6840304526040355,-0.8181068301200867,-0.36524447798728943,0.4441818296909332
1727296640314,7i,9.357521607405276,2.5s : 10.7s,0.8800299604096345,1.3023445859203953,4.2137346267700195,-0.7852888703346252,-1.281365156173706,0.5350882411003113,0.24895557761192322,1.1609492301940918,0.36497582342230017,-2.094817198803971,1.732093308921348,-0.8087850213050842,-0.35692670941352844,0.46740755438804626
1727296640324,7i,9.357521607405276,2.5s : 10.7s,0.8375788071223712,1.3123955881848373,3.8551900386810303,-0.5328172445297241,-1.0726138353347778,0.3072846531867981,0.17149904370307922,1.264336347579956,0.3545391685777316,-2.1167370057601826,1.7755930539899303,-0.8014864325523376,-0.3471582233905792,0.48693010210990906
1727296640334,7i,9.357521607405276,2.5s : 10.7s,0.8412283912556688,1.3661328157480457,3.5686194896698,-0.1992509812116623,-0.8556438088417053,0.3187673091888428,0.18120673298835754,1.3160054683685303,0.34304700061526344,-2.1337399302251545,1.8146211337560614,-0.7964133024215698,-0.33635810017585754,0.5025827884674072
1727296640344,7i,9.357521607405276,2.5s : 10.7s,0.8409425064506784,1.2067513383918929,3.193106174468994,0.04777425155043602,-0.7238807082176208,0.2631657123565674,0.26475632190704346,1.1475611925125122,0.33149378927138073,-2.145893501472391,1.8493100421359496,-0.7934545874595642,-0.32545584440231323,0.5143041610717773
1727296640354,7i,9.357521607405276,2.5s : 10.7s,0.7839748325819192,1.080662215045214,2.8475570678710938,0.21420468389987946,-0.6014333963394165,0.041759610176086426,0.07875815033912659,1.076979160308838,0.32051533650763603,-2.1542762313428434,1.879745114868784,-0.7920494675636292,-0.3150556981563568,0.5228742361068726
1727296640364,7i,9.357521607405276,2.5s : 10.7s,0.744876514200289,0.996670051521469,2.6547954082489014,0.35147011280059814,-0.5118499994277954,-0.01989048719406128,0.04054638743400574,0.9956462979316711,0.3099026785956376,-2.1599011420550194,1.9070278194885464,-0.7918314337730408,-0.30496594309806824,0.5291492342948914
1727296640374,7i,9.357521607405276,2.5s : 10.7s,0.7019310136685262,0.8674433489364339,2.3782434463500977,0.4845285713672638,-0.4088853895664215,-0.08942967653274536,0.15486466884613037,0.8488093018531799,0.2996325642631515,-2.163091136502847,1.9317178685174161,-0.7926960587501526,-0.2951691746711731,0.5333927869796753
1727296640384,7i,9.357521607405276,2.5s : 10.7s,0.6370093747290507,0.9610285568854735,1.9348028898239136,0.5805094242095947,-0.3757801651954651,-0.15168696641921997,0.1317254900932312,0.9397953748703003,0.29080567366140464,-2.1638817624798854,1.9526695779250884,-0.794403612613678,-0.28672415018081665,0.5354546904563904
1727296640394,7i,9.357521607405276,2.5s : 10.7s,0.5886689013144232,0.9846370800364388,1.6882030963897705,0.6153045892715454,-0.33299392461776733,-0.14711296558380127,0.0020322203636169434,0.9735829830169678,0.2837161888363777,-2.1628685137515964,1.970287210940005,-0.7966125011444092,-0.2799251973628998,0.5357704758644104
1727296640404,7i,9.357521607405276,2.5s : 10.7s,0.5457700360065869,0.7263516768676626,1.511993169784546,0.6458081603050232,-0.2921130657196045,-0.16564565896987915,-0.0014831125736236572,0.7072100639343262,0.2773582966997449,-2.160855274549579,1.9859077108844052,-0.7991521954536438,-0.2738158702850342,0.535145103931427
1727296640414,7i,9.357521607405276,2.5s : 10.7s,0.4922254853414718,0.5218345997139843,1.326697587966919,0.6384427547454834,-0.2630838453769684,-0.21532154083251953,-0.022054612636566162,0.47482794523239136,0.2717754694451076,-2.15817352154114,1.9997853656482933,-0.8018445372581482,-0.26844215393066406,0.5338389873504639
1727296640424,7i,9.357521607405276,2.5s : 10.7s,0.4211084390804342,0.5430439143449006,1.127338171005249,0.5831805467605591,-0.20272277295589447,-0.27392303943634033,-0.05592253804206848,0.46554863452911377,0.26693853746344776,-2.1552189825120647,2.011743322041219,-0.8044920563697815,-0.2637796401977539,0.5321778655052185
1727296640434,7i,9.357521607405276,2.5s : 10.7s,0.35032563736728295,0.541685282844722,0.9432950615882874,0.49927693605422974,-0.10781711339950562,-0.27479803562164307,-0.0711837112903595,0.46134787797927856,0.262509314136662,-2.152368735457337,2.021541012066094,-0.8069737553596497,-0.2595047056674957,0.5305191874504089
1727296640444,7i,9.357521607405276,2.5s : 10.7s,0.28062562298910887,0.4972627703940299,0.7034925818443298,0.45262476801872253,-0.08261322230100632,-0.258941650390625,-0.05111044645309448,0.4214347004890442,0.2586485207129229,-2.1495556873158015,2.0292644543368192,-0.8092955946922302,-0.25577425956726074,0.528791069984436
1727296640454,7i,9.357521607405276,2.5s : 10.7s,0.2092296169910651,0.5260521525104417,0.4417037069797516,0.4183846116065979,-0.09774573147296906,-0.2595110535621643,-0.01013132929801941,0.4574737548828125,0.25627552319516633,-2.1465341259090693,2.0346767099201974,-0.8113965392112732,-0.2534794807434082,0.52667236328125
1727296640464,7i,9.357521607405276,2.5s : 10.7s,0.1606288526669243,0.523495504736429,0.3353348970413208,0.3883489668369293,-0.07803115248680115,-0.23601126670837402,0.02543872594833374,0.46658235788345337,0.2547948946907697,-2.143354875563411,2.038468973870704,-0.8133813738822937,-0.25204694271087646,0.5242927670478821
1727296640474,7i,9.357521607405276,2.5s : 10.7s,0.13786243201349044,0.38646720549481994,0.22165295481681824,0.39646854996681213,-0.03549211472272873,-0.17487335205078125,0.028006404638290405,0.34349942207336426,0.25345923090540595,-2.1399350700090003,2.0411787698764203,-0.8154525756835938,-0.250754177570343,0.5216891169548035
1727296640484,7i,9.357521607405276,2.5s : 10.7s,0.12425523826409794,0.32326135233151415,0.08381760120391846,0.41131433844566345,-0.006015448365360498,-0.13502848148345947,0.011107534170150757,0.29349929094314575,0.2527108815929004,-2.136182805357149,2.0425926856949648,-0.8175625801086426,-0.25002965331077576,0.518726110458374
1727296640494,7i,9.357521607405276,2.5s : 10.7s,0.10154435590447482,0.32789340963883734,0.00012363801943138242,0.39876529574394226,0.03537609800696373,-0.16225194931030273,-0.05134877562522888,0.2802707552909851,0.25231469984129173,-2.1321285130698127,2.042849893595987,-0.8197425603866577,-0.24964603781700134,0.5154597759246826
1727296640504,7i,9.357521607405276,2.5s : 10.7s,0.08765855397131322,0.27310636007731465,-0.02420034259557724,0.37694573402404785,0.06632442772388458,-0.14581966400146484,-0.0605032742023468,0.22285211086273193,0.25189009931236456,-2.128118837420876,2.042435486475896,-0.8218927383422852,-0.2492348551750183,0.5122247934341431
1727296640514,7i,9.357521607405276,2.5s : 10.7s,0.08837104366188099,0.18826707331474724,0.019125157967209816,0.36556771397590637,0.08324412256479263,-0.11798238754272461,-0.017048165202140808,0.14571893215179443,0.2512737392481787,-2.124330594560659,2.0419860464538453,-0.8239580392837524,-0.24863789975643158,0.5091884136199951
1727296640524,7i,9.357521607405276,2.5s : 10.7s,0.09006831408751631,0.16888421564280037,-0.00741190928965807,0.37310898303985596,0.07643388956785202,-0.10357463359832764,0.03895673155784607,0.12757956981658936,0.25050708854745474,-2.1205249957998973,2.0416199421876597,-0.8260517120361328,-0.2478952556848526,0.5061482787132263
1727296640534,7i,9.357521607405276,2.5s : 10.7s,0.09607847837475844,0.14348812353580956,-0.05811956152319908,0.37847161293029785,0.08218404650688171,-0.06571352481842041,0.013467490673065186,0.12684321403503418,0.24996431329279398,-2.116570970645725,2.0409121107723114,-0.8281614184379578,-0.24736937880516052,0.5029478669166565
1727296640544,7i,9.357521607405276,2.5s : 10.7s,0.10713856471959864,0.11667981990383317,-0.09480034559965134,0.38557079434394836,0.09026993811130524,-0.022926688194274902,0.016031205654144287,0.1132764220237732,0.24961820685845373,-2.1124531044832726,2.0397754187658412,-0.8302991390228271,-0.2470340132713318,0.49957767128944397
1727296640554,7i,9.357521607405276,2.5s : 10.7s,0.11070488919295532,0.057322536996322865,-0.1330312192440033,0.3801814019680023,0.10937755554914474,-0.01564890146255493,0.0029864460229873657,0.05506420135498047,0.24935203702592107,-2.1082461412037317,2.038232960011863,-0.8324498534202576,-0.24677608907222748,0.4961138069629669
1727296640564,7i,9.357521607405276,2.5s : 10.7s,0.11019198431212794,0.045035118430582236,-0.1752106249332428,0.3715468943119049,0.12669901549816132,-0.0024637579917907715,-0.00850270688533783,0.04415649175643921,0.24908513825556028,-2.103974351615027,2.036193647190833,-0.8346182703971863,-0.24651743471622467,0.49258673191070557
1727296640574,7i,9.357521607405276,2.5s : 10.7s,0.10693982108503024,0.05497598854333592,-0.20001530647277832,0.3369763195514679,0.13935787975788116,0.015979886054992676,-0.026859953999519348,0.04522770643234253,0.24887951389327223,-2.0998132969033088,2.0338036010399283,-0.8367044925689697,-0.24631814658641815,0.48913517594337463
1727296640584,7i,9.357521607405276,2.5s : 10.7s,0.11065352341065035,0.03203830632418726,-0.15140436589717865,0.3412184715270996,0.1572314202785492,0.02387899160385132,-0.0206279456615448,0.005543887615203857,0.2484295846663702,-2.0958254804171155,2.0314879714154817,-0.8387442231178284,-0.2458820641040802,0.48585015535354614
1727296640594,7i,9.357521607405276,2.5s : 10.7s,0.11123890290365021,0.031083138886645857,-0.15833643078804016,0.3392286002635956,0.16604280471801758,0.021120309829711914,0.01707950234413147,-0.01511240005493164,0.2477399789507483,-2.0918678882580006,2.0292864805664057,-0.8408070206642151,-0.2452135682106018,0.4826110899448395
1727296640604,7i,9.357521607405276,2.5s : 10.7s,0.11068348054030698,0.03426382257267323,-0.17073744535446167,0.34194663166999817,0.15804532170295715,0.021682143211364746,0.015151888132095337,0.021778762340545654,0.24713679132355312,-2.087889273927915,2.026970067997279,-0.8428489565849304,-0.24462875723838806,0.47933509945869446
1727296640614,7i,9.357521607405276,2.5s : 10.7s,0.11504902375274978,0.04592750524551021,-0.1731693297624588,0.3502347767353058,0.15923626720905304,0.03670698404312134,0.01823514699935913,0.020722270011901855,0.24657142081849848,-2.0838710226398627,2.0246334814316196,-0.8448889255523682,-0.24408051371574402,0.4760124683380127
1727296640624,7i,9.357521607405276,2.5s : 10.7s,0.1227109304894257,0.060019738688684474,-0.14812521636486053,0.35860374569892883,0.17291931807994843,0.04187130928039551,0.042933881282806396,0.0024175047874450684,0.24590517089163613,-2.0797478804603124,2.0223158089446382,-0.8469861745834351,-0.2434343695640564,0.4726039171218872
1727296640634,7i,9.357521607405276,2.5s : 10.7s,0.1313956266528702,0.05458584487966504,-0.10258077085018158,0.36284810304641724,0.16702470183372498,0.0376889705657959,0.03812010586261749,-0.010296285152435303,0.24498533888261495,-2.075629406154964,2.0203228296072555,-0.8491209745407104,-0.24254210293293,0.4692196846008301
1727296640644,7i,9.357521607405276,2.5s : 10.7s,0.13705509759673382,0.04411991007885915,-0.07570041716098785,0.3444776237010956,0.16047945618629456,0.03914999961853027,0.005662247538566589,-0.01953926682472229,0.24396058633998344,-2.071697108764247,2.0187037798555347,-0.851176917552948,-0.2415478229522705,0.465996116399765
1727296640654,7i,9.357521607405276,2.5s : 10.7s,0.13783032484220792,0.06522146803202343,-0.0681128054857254,0.3313888907432556,0.17521752417087555,0.03801262378692627,-0.012616708874702454,-0.05147522687911987,0.24282967192092192,-2.067926331151416,2.017211296072011,-0.8531674742698669,-0.24045023322105408,0.4629131555557251
1727296640664,7i,9.357521607405276,2.5s : 10.7s,0.13409784607029057,0.056527929847060385,-0.08928733319044113,0.3308786153793335,0.12402650713920593,0.03351998329162598,-0.014919653534889221,-0.043002575635910034,0.24176200902225764,-2.0642953210604085,2.0158696601017527,-0.8550682663917542,-0.2394137680530548,0.4599335789680481
1727296640674,7i,9.357521607405276,2.5s : 10.7s,0.13965040704544449,0.03622306024405366,-0.031158916652202606,0.3457382023334503,0.15479283034801483,0.03256797790527344,0.008444175124168396,0.013421356678009033,0.24085330833686475,-2.060631882221167,2.014621254425519,-0.8569391369819641,-0.23853139579296112,0.4569002091884613
1727296640684,7i,9.357521607405276,2.5s : 10.7s,0.14838343424836886,0.08564311856907422,-0.03165612742304802,0.3351404070854187,0.1387941688299179,0.057559311389923096,0.06034666299819946,-0.019492298364639282,0.23965121900054542,-2.0569367628316377,2.013641176387218,-0.8588745594024658,-0.23736383020877838,0.4538642466068268
1727296640694,7i,9.357521607405276,2.5s : 10.7s,0.1649848691589348,0.07205042060539565,0.1066998764872551,0.3427928388118744,0.15545517206192017,0.0472448468208313,0.02217961847782135,-0.049671441316604614,0.23818570374914672,-2.0535334601126394,2.0131440239491627,-0.8607213497161865,-0.23593993484973907,0.45109960436820984
1727296640704,7i,9.357521607405276,2.5s : 10.7s,0.15903951246311918,0.09853936247725573,-0.00566980242729187,0.3129635751247406,0.1560027152299881,0.04710608720779419,0.03242656588554382,-0.08024674654006958,0.23649875543818422,-2.050111419595163,2.0130274251095788,-0.8626119494438171,-0.23430028557777405,0.4483344554901123
1727296640714,7i,9.357521607405276,2.5s : 10.7s,0.1338786017137317,0.05495608585917245,0.05978177487850189,0.21028615534305573,0.16121993958950043,-0.010301828384399414,0.052513375878334045,-0.012505561113357544,0.23503005066997704,-2.0473221132012362,2.0122522461990386,-0.8641640543937683,-0.23287220299243927,0.44608402252197266
1727296640724,7i,9.357521607405276,2.5s : 10.7s,0.12440885003878586,0.08074218495010431,0.10820870101451874,0.2338617891073227,0.17154262959957123,0.0007120966911315918,-0.06819400191307068,-0.04322466254234314,0.23305856625482294,-2.045671917587577,2.0124037220804367,-0.8653054237365723,-0.23095448315143585,0.4448663294315338
1727296640734,7i,9.357521607405276,2.5s : 10.7s,0.15891557170383017,0.19420040193805052,0.10224241763353348,0.25381118059158325,0.18079790472984314,0.1437503695487976,0.019015297293663025,-0.12918221950531006,0.23063393964660442,-2.042829867344104,2.012852356954674,-0.8670627474784851,-0.22859472036361694,0.44265878200531006
1727296640744,7i,9.357521607405276,2.5s : 10.7s,0.12208173097014431,0.061856994699460766,0.05441257357597351,0.21627658605575562,0.11786794662475586,-0.04190850257873535,-0.025596484541893005,-0.037613630294799805,0.22893089760780458,-2.040446027012133,2.0129729453048846,-0.8684613704681396,-0.2269364446401596,0.4407660961151123
1727296640754,7i,9.357521607405276,2.5s : 10.7s,0.08247504833514488,0.14241985451185582,0.13010653853416443,0.1597396284341812,0.154279887676239,-0.11565661430358887,-0.07030025124549866,0.04432648420333862,0.2272907500688837,-2.0386372980795096,2.013160055455087,-0.8695882558822632,-0.22533878684043884,0.4393618404865265
1727296640764,7i,9.357521607405276,2.5s : 10.7s,0.09978425302752798,0.09243470446293858,0.21468187868595123,0.15273551642894745,0.1397233009338379,0.019181668758392334,0.021237611770629883,-0.08789312839508057,0.2251303580513118,-2.0373368169267025,2.0141127774604937,-0.8705915808677673,-0.2232334315776825,0.4384484887123108
1727296640774,7i,9.357521607405276,2.5s : 10.7s,0.09555684924236314,0.09435745914652165,0.17679600417613983,0.14173932373523712,0.12249212712049484,-0.011322557926177979,0.004568755626678467,-0.09356418251991272,0.22304245821664878,-2.0360580330083455,2.0153040898295567,-0.8715661764144897,-0.22119773924350739,0.43754300475120544
1727296640784,7i,9.357521607405276,2.5s : 10.7s,0.08993835120329959,0.027474202571768486,0.2018960416316986,0.10877630859613419,0.10953078418970108,-0.016830146312713623,-0.02148348093032837,-0.0031682848930358887,0.22115972201529668,-2.0350542290794786,2.016445091675612,-0.8723759055137634,-0.21936124563217163,0.43685367703437805
1727296640794,7i,9.357521607405276,2.5s : 10.7s,0.08237693714990899,0.037273553617138085,0.2314271777868271,0.0825740396976471,0.10943714529275894,-0.026237428188323975,-0.02083495259284973,-0.016334623098373413,0.2191660609110468,-2.0343915307550553,2.0179413995966824,-0.8730543851852417,-0.2174157053232193,0.43647000193595886
1727296640804,7i,9.357521607405276,2.5s : 10.7s,0.07301914075229923,0.0761538141506997,0.21285375952720642,0.06244933232665062,0.11407078057527542,-0.023423492908477783,-0.029029682278633118,-0.0663929283618927,0.21713351216145096,-2.033985090820791,2.0194952111383238,-0.8736253976821899,-0.2154313325881958,0.4363117218017578
1727296640814,7i,9.357521607405276,2.5s : 10.7s,0.06362723552616412,0.06908958062228827,0.17829591035842896,0.040784917771816254,0.1073422059416771,-0.011487305164337158,-0.04692456126213074,-0.04939126968383789,0.21524697403680232,-2.0337219457606537,2.020760287061413,-0.8741022944450378,-0.21358871459960938,0.4362625479698181
1727296640824,7i,9.357521607405276,2.5s : 10.7s,0.05271435724001798,0.05671903564431621,0.1687450110912323,0.024417662993073463,0.10715179145336151,-0.017562270164489746,-0.03717455267906189,-0.03907260298728943,0.2134663218489049,-2.0335940881416,2.0218431213584207,-0.8744968771934509,-0.21184881031513214,0.43631982803344727
1727296640834,7i,9.357521607405276,2.5s : 10.7s,0.04309610375922462,0.04341912511158626,0.1781981736421585,0.004291445016860962,0.09958634525537491,-0.02323770523071289,0.004082158207893372,-0.03644949197769165,0.21174614873095357,-2.03367200234313,2.0229527795663795,-0.8747879266738892,-0.21016736328601837,0.43655017018318176
1727296640844,7i,9.357521607405276,2.5s : 10.7s,0.042131828510683644,0.04686262246348647,0.19488020241260529,0.002171569038182497,0.09388132393360138,-0.0072386860847473145,0.017667382955551147,-0.04279685020446777,0.21001903038828187,-2.0339057101845204,2.0242316845887722,-0.8750092387199402,-0.20847851037979126,0.4369160830974579
1727296640854,7i,9.357521607405276,2.5s : 10.7s,0.046365404136703016,0.052322924122519154,0.19294807314872742,0.013811624608933926,0.09016089141368866,0.007844328880310059,0.011618241667747498,-0.05041003227233887,0.2082807646759539,-2.034103914997146,2.0255876783181495,-0.8752454519271851,-0.2067781239748001,0.4372507631778717
1727296640864,7i,9.357521607405276,2.5s : 10.7s,0.049746676747401006,0.024223015874205656,0.19849170744419098,0.022547325119376183,0.08648945391178131,0.002913177013397217,-0.01648697257041931,-0.017505645751953125,0.20658262192135352,-2.0341621531042726,2.026956103180306,-0.8755328059196472,-0.2051163911819458,0.4374580681324005
1727296640874,7i,9.357521607405276,2.5s : 10.7s,0.04940262712933229,0.03507145998306497,0.20319631695747375,0.019128847867250443,0.08165937662124634,-0.008424758911132812,-0.032167479395866394,0.011148273944854736,0.20504510338651394,-2.0341783468152257,2.0284112628268227,-0.8758069276809692,-0.2036113142967224,0.43761274218559265
1727296640884,7i,9.357521607405276,2.5s : 10.7s,0.0493694959544318,0.04142853561436571,0.1948065608739853,0.020717423409223557,0.08155151456594467,-0.004089713096618652,-0.04112260043621063,0.0029205381870269775,0.20355092497545182,-2.0340622087793383,2.02980731380151,-0.876128613948822,-0.2021482139825821,0.43764635920524597
1727296640894,7i,9.357521607405276,2.5s : 10.7s,0.05364026067349887,0.039429091686084314,0.18347960710525513,0.03089788928627968,0.06437885761260986,0.012478291988372803,-0.03682968020439148,-0.006520748138427734,0.20238786327004318,-2.0337815491187476,2.0311437649770974,-0.8764614462852478,-0.20100902020931244,0.43750524520874023
1727296640904,7i,9.357521607405276,2.5s : 10.7s,0.05782268928630302,0.021771798675102552,0.16279937326908112,0.050320856273174286,0.03861304000020027,0.01710498332977295,-0.009468823671340942,0.009579777717590332,0.20142408374320045,-2.033401765182424,2.032468229215153,-0.8768004179000854,-0.20006482303142548,0.4372585713863373
1727296640914,7i,9.357521607405276,2.5s : 10.7s,0.06233244762215738,0.045255503776649046,0.14001348614692688,0.056998688727617264,0.016164954751729965,0.02700144052505493,0.020462602376937866,0.030004411935806274,0.2005455673044613,-2.0328331846232004,2.0336672838333834,-0.8772057294845581,-0.1992039978504181,0.4368380904197693
1727296640924,7i,9.357521607405276,2.5s : 10.7s,0.06552330277246772,0.047169391335131323,0.13384880125522614,0.05972975865006447,0.010367519222199917,0.029577910900115967,0.016973257064819336,0.032588452100753784,0.19977211677938633,-2.032210035253899,2.0347973457092206,-0.8776155710220337,-0.19844599068164825,0.43635988235473633
1727296640934,7i,9.357521607405276,2.5s : 10.7s,0.06894709990402577,0.03800051034353655,0.13497252762317657,0.06554543972015381,0.009686515666544437,0.0325465202331543,0.006408765912055969,0.01853889226913452,0.19911281065249078,-2.0314442492411993,2.0359055287184327,-0.8780666589736938,-0.19779974222183228,0.43574583530426025
1727296640944,7i,9.357521607405276,2.5s : 10.7s,0.07299557943742095,0.03892904702233326,0.137630894780159,0.06810607016086578,0.017572667449712753,0.03742784261703491,0.00569993257522583,0.009063005447387695,0.1985920477269404,-2.0308884630720345,2.037084252638133,-0.8784007430076599,-0.19728924334049225,0.43530339002609253
1727296640954,7i,9.357521607405276,2.5s : 10.7s,0.0762670033664183,0.04230408535990805,0.14503447711467743,0.07265039533376694,0.035386551171541214,0.0360528826713562,0.002318069338798523,0.02201026678085327,0.19802186138789277,-2.0305275777445653,2.038276785303062,-0.8786582946777344,-0.19673024117946625,0.4350361227989197
1727296640964,7i,9.357521607405276,2.5s : 10.7s,0.08395632071723781,0.05717460595540195,0.14843587577342987,0.0964348241686821,0.055854275822639465,0.04607576131820679,-0.004111140966415405,0.033601462841033936,0.19734740682836494,-2.0299634171446566,2.039432032868434,-0.8790226578712463,-0.1960689127445221,0.43459922075271606
1727296640974,7i,9.357521607405276,2.5s : 10.7s,0.09107748085374441,0.07174634845829851,0.11463703215122223,0.12324703484773636,0.06829952448606491,0.053178250789642334,0.006751492619514465,0.04768678545951843,0.19659883607997125,-2.0290897682182307,2.0403970803480527,-0.8795331716537476,-0.19533482193946838,0.4338957667350769
1727296640984,7i,9.357521607405276,2.5s : 10.7s,0.09705093741017913,0.08440493890837998,0.09939656406641006,0.1444213092327118,0.08261268585920334,0.051073312759399414,-0.0057464540004730225,0.06695288419723511,0.19557104490773483,-2.028059238414946,2.041103290146164,-0.8801594972610474,-0.1943267285823822,0.43307754397392273
1727296640994,7i,9.357521607405276,2.5s : 10.7s,0.10288409955713079,0.07427721902795814,0.09010838717222214,0.1517629772424698,0.09650024026632309,0.056312620639801025,-0.007592618465423584,0.04783666133880615,0.19424919212318417,-2.027061037402727,2.0416452627103507,-0.8808212876319885,-0.19302989542484283,0.43231162428855896
1727296641004,7i,9.357521607405276,2.5s : 10.7s,0.10539389387889635,0.0647259964951987,0.08599486947059631,0.1565614640712738,0.1143263727426529,0.051509976387023926,0.009175986051559448,0.0381048321723938,0.19281789740152377,-2.0261405995246053,2.0420843036892293,-0.8814661502838135,-0.19162532687187195,0.431621789932251
1727296641014,7i,9.357521607405276,2.5s : 10.7s,0.1017901690454692,0.0603888869399859,0.053277935832738876,0.15610294044017792,0.11992999911308289,0.04443788528442383,0.010148346424102783,0.03961190581321716,0.19150785752731306,-2.0250509100287886,2.0423005815427766,-0.8821609020233154,-0.19033940136432648,0.4307708442211151
