timestamp,club,max_speed,tempo,w.rotation,l.speed,t.spped,acc,rotation.x,rotation.y,rotation.z,userAcceleration.x,userAcceleration.y,userAcceleration.z,pitch,roll,yaw,gravity.x,gravity.y,gravity.z,impactIndex,minDownIndex,StartIndex,endIndex
1733261589065,6i,19.080493651723916,2.0s : 0.3s,-10.387336757864134,0.000307635953665354,0.08709386456581178,0.01690110563223048,0.16745978593826294,-0.0411771759390831,0.04790549352765083,0.00029480457305908203,-0.007969558238983154,0.014901228249073029,-0.2119141306215129,1.5043735643710918,0.19837808010219934,0.9754741191864014,0.21033158898353577,-0.06488914787769318, 283, 217, 56, 255
1733261589075,6i,19.080493651723916,2.0s : 0.3s,-10.387336757864134,0.0008685691831246535,0.1296526891955758,0.013612108362994918,0.167399063706398,-0.04374588280916214,0.044087719172239304,-0.005282938480377197,0.0009514540433883667,0.012508988380432129,-0.21120174433675004,1.5038484980453404,0.19676518996069042,0.9755892753601074,0.20963509380817413,-0.06541133671998978, 283, 217, 56, 255
1733261589085,6i,19.080493651723916,2.0s : 0.3s,-10.387336757864134,0.0013551026053173776,0.15913895574854645,0.017895134203614448,0.16100294888019562,-0.040469393134117126,0.04574979841709137,-0.016226530075073242,0.005558103322982788,0.0051032379269599915,-0.21054786642760007,1.5034409807987945,0.19518228516826808,0.9756990671157837,0.20899569988250732,-0.06581810861825943, 283, 217, 56, 255
1733261589095,6i,19.080493651723916,2.0s : 0.3s,-10.387336757864134,0.001765473166643032,0.17526511621319435,0.022468739962475604,0.1476619839668274,-0.04174624755978584,0.04221335053443909,-0.021774768829345703,0.001114875078201294,0.0054277777671813965,-0.20998918108790585,1.5029757101685188,0.19367889123648907,0.9757847189903259,0.2084493190050125,-0.06627997756004333, 283, 217, 56, 255
1733261589105,6i,19.080493651723916,2.0s : 0.3s,-10.387336757864134,0.0021053568312309015,0.17765224949294642,0.025789453733840766,0.1382857859134674,-0.03945380076766014,0.03730381280183792,-0.02402418851852417,-0.005997270345687866,0.007208816707134247,-0.20944479679608458,1.502518875266347,0.19231164487878666,0.975867509841919,0.20791685581207275,-0.0667334794998169, 283, 217, 56, 255
1733261589115,6i,19.080493651723916,2.0s : 0.3s,-10.387336757864134,0.002369460772777639,0.17982827723533562,0.027221736057074935,0.14084495604038239,-0.036912743002176285,0.030911527574062347,-0.026384830474853516,-0.006683379411697388,-0.00044280290603637695,-0.2089762330156751,1.5021419337320892,0.19098125220926174,0.9759392142295837,0.2074585109949112,-0.06710798293352127, 283, 217, 56, 255
1733261589125,6i,19.080493651723916,2.0s : 0.3s,-10.387336757864134,0.002557388514877818,0.18147494369167472,0.029871661072876633,0.14072617888450623,-0.035646677017211914,0.022236546501517296,-0.028306782245635986,-0.008063837885856628,-0.005100660026073456,-0.20868720313413755,1.5016967838163304,0.18961401099127534,0.9759690165519714,0.20717576146125793,-0.0675465539097786, 283, 217, 56, 255
1733261589135,6i,19.080493651723916,2.0s : 0.3s,-10.387336757864134,0.002695720306261885,0.18369322207062577,0.026337540219133627,0.16017310321331024,0.048243697732686996,-0.06125934422016144,-0.02550715208053589,-0.006426751613616943,0.0013221502304077148,-0.20863593112266846,1.5014329277319414,0.18815839268341764,0.9759618043899536,0.20712560415267944,-0.06780480593442917, 283, 217, 56, 255
1733261589145,6i,19.080493651723916,2.0s : 0.3s,-10.387336757864134,0.002751064871420469,0.46097721468406944,0.03357341682145089,0.18532267212867737,0.47333958745002747,-0.933152973651886,-0.033316731452941895,0.0016879737377166748,-0.0037842392921447754,-0.2089196980812506,1.5009073311170968,0.18663077892220534,0.9758673310279846,0.20740321278572083,-0.06831365078687668, 283, 217, 56, 255
1733261589155,6i,19.080493651723916,2.0s : 0.3s,-10.387336757864134,0.0028153722252241254,0.8088541094477059,0.011270960643589418,0.15188907086849213,0.5561074018478394,-1.0913323163986206,-0.003605961799621582,0.010659173130989075,0.0006431341171264648,-0.20683101049762473,1.4997322485680817,0.18503929712587583,0.9762163758277893,0.20535948872566223,-0.0694909393787384, 283, 217, 56, 255
1733261589165,6i,19.080493651723916,2.0s : 0.3s,-10.387336757864134,0.002937048046780243,0.6843423344524797,0.031122699003673787,0.18534743785858154,0.13804522156715393,-0.21131181716918945,0.0228116512298584,0.020338594913482666,0.005881540477275848,-0.2068411709141104,1.499039602125145,0.18341703598611567,0.9761660695075989,0.20536942780017853,-0.07016695290803909, 283, 217, 56, 255
1733261589175,6i,19.080493651723916,2.0s : 0.3s,-10.387336757864134,0.0030642063191757118,0.4818347663528666,0.04973161063539548,0.21802549064159393,-0.02735421434044838,0.0874795988202095,-0.042904436588287354,0.015564396977424622,0.01975327730178833,-0.20707317994475577,1.4985812518426451,0.18143455727359148,0.9760861396789551,0.20559649169445038,-0.07061092555522919, 283, 217, 56, 255
1733261589185,6i,19.080493651723916,2.0s : 0.3s,-10.387336757864134,0.003240529485757307,0.3875300693907196,0.035666858649361644,0.19692260026931763,-0.02777605876326561,-0.030766882002353668,-0.010839760303497314,0.03393395245075226,-0.0017638802528381348,-0.20693492823497583,1.4978822048497233,0.17932488141968753,0.976064920425415,0.20546118915081024,-0.07129530608654022, 283, 217, 56, 255
1733261589195,6i,19.080493651723916,2.0s : 0.3s,-10.387336757864134,0.0034606206830076636,0.3954186382540179,0.033716529355674894,0.16251243650913239,-0.10385014116764069,-0.3054712116718292,-0.005420327186584473,0.033110111951828,-0.0033383965492248535,-0.20670091454921713,1.496966387049425,0.17733772381451832,0.9760470986366272,0.2052321583032608,-0.0721927210688591, 283, 217, 56, 255
1733261589205,6i,19.080493651723916,2.0s : 0.3s,-10.387336757864134,0.0037246879744591674,0.33175470519302763,0.032223222640784914,0.2011764645576477,-0.36009737849235535,0.06973755359649658,0.026556432247161865,0.017242804169654846,0.0059814453125,-0.20646520040099517,1.4963793160411651,0.17504672212158134,0.9760528206825256,0.20500145852565765,-0.07276930660009384, 283, 217, 56, 255
1733261589215,6i,19.080493651723916,2.0s : 0.3s,-10.387336757864134,0.003913432735579096,0.34647452197831446,0.05175027446232479,0.2819160521030426,-0.2829302251338959,0.2599894404411316,-0.04045295715332031,0.02449667453765869,-0.021013379096984863,-0.20694243350596656,1.4955296469427255,0.17239591234653057,0.9758930206298828,0.2054685354232788,-0.07359124720096588, 283, 217, 56, 255
1733261589225,6i,19.080493651723916,2.0s : 0.3s,-10.387336757864134,0.004159860868225102,0.3655816465252338,0.05646345218250591,0.3158886730670929,-0.06672976166009903,0.05237714201211929,-0.03873884677886963,0.03670161962509155,-0.01845031976699829,-0.20683543075377375,1.4945466758830215,0.1692903848642422,0.9758420586585999,0.20536381006240845,-0.07455215603113174, 283, 217, 56, 255
1733261589235,6i,19.080493651723916,2.0s : 0.3s,-10.387336757864134,0.004487595271782353,0.36474950007452495,0.04287881422726291,0.2765192985534668,-0.03657465800642967,-0.05665497109293938,-0.0012199878692626953,0.038586750626564026,-0.018659234046936035,-0.2065306994341054,1.4935460460484093,0.16617502599976114,0.9758293032646179,0.2050655633211136,-0.07553339749574661, 283, 217, 56, 255
1733261589245,6i,19.080493651723916,2.0s : 0.3s,-10.387336757864134,0.004853526463656639,0.36101808557062226,0.02945171773757293,0.2475997507572174,-0.041765689849853516,-0.019403738901019096,-0.008303046226501465,0.019117429852485657,-0.02080833911895752,-0.20660775581713875,1.4925884705891856,0.16347005080347152,0.9757407307624817,0.20514099299907684,-0.07646655291318893, 283, 217, 56, 255
1733261589255,6i,19.080493651723916,2.0s : 0.3s,-10.387336757864134,0.005217438305038899,0.34150745273820354,0.01172111403979229,0.21563464403152466,-0.05018438398838043,-0.03907451033592224,-0.005801498889923096,-0.007056772708892822,-0.00734364241361618,-0.2067691521095222,1.4916408621230872,0.1611190038401662,0.975634753704071,0.20529894530773163,-0.07738851755857468, 283, 217, 56, 255
1733261589265,6i,19.080493651723916,2.0s : 0.3s,-10.387336757864134,0.005566387254180659,0.31745597331049186,0.013333820536348684,0.18403463065624237,-0.0556422658264637,-0.04088785871863365,-0.008395493030548096,-0.008858829736709595,-0.005369134247303009,-0.20700458735404006,1.4906922005963987,0.1590632858626752,0.9755128622055054,0.2055293619632721,-0.07831016927957535, 283, 217, 56, 255
1733261589275,6i,19.080493651723916,2.0s : 0.3s,-10.387336757864134,0.0058911001032785175,0.3036096658531567,0.018542020515881302,0.19128255546092987,-0.04567632079124451,-0.03369149938225746,-0.012015879154205322,-0.014019578695297241,-0.0016960501670837402,-0.20722622150147954,1.4897698600763625,0.1571437719110556,0.9753947257995605,0.20574626326560974,-0.0792062059044838, 283, 217, 56, 255
1733261589285,6i,19.080493651723916,2.0s : 0.3s,-10.387336757864134,0.00619536404580779,0.30212769469240613,0.02444729012064958,0.2207413911819458,-0.01674293912947178,-0.0077605657279491425,-0.019112586975097656,-0.015243381261825562,-0.00013542920351028442,-0.20729177345483146,1.4889978754336304,0.15501263287890973,0.9753199219703674,0.20581041276454926,-0.07995807379484177, 283, 217, 56, 255
1733261589295,6i,19.080493651723916,2.0s : 0.3s,-10.387336757864134,0.006492668670875333,0.3052624671187693,0.016793053597004823,0.25214964151382446,0.01280163787305355,0.02432546392083168,-0.015895068645477295,-0.005399525165557861,-0.00044561177492141724,-0.20700914435670684,1.4884915713230862,0.15260900640157435,0.9753372669219971,0.20553381741046906,-0.08045665174722672, 283, 217, 56, 255
1733261589305,6i,19.080493651723916,2.0s : 0.3s,-10.387336757864134,0.006755028944003781,0.30518887553714397,0.03170231604030875,0.23934756219387054,0.027214931324124336,0.026405658572912216,0.0030263662338256836,-0.018817543983459473,0.025333337485790253,-0.20651589895230538,1.4881802197700837,0.1500840207307041,0.9754130244255066,0.20505107939243317,-0.08076867461204529, 283, 217, 56, 255
1733261589315,6i,19.080493651723916,2.0s : 0.3s,-10.387336757864134,0.006680180405318647,0.28054773531394495,0.10197686492719867,0.16581794619560242,-0.01500602439045906,-0.009985370561480522,0.014169633388519287,-0.07507918775081635,0.0675397515296936,-0.20625337348639153,1.4878400136456187,0.1480316665338043,0.9754390716552734,0.20479412376880646,-0.08110496401786804, 283, 217, 56, 255
1733261589325,6i,19.080493651723916,2.0s : 0.3s,-10.387336757864134,0.00634486593999203,0.270725539443837,0.14228532482394562,0.165716752409935,-0.05080476775765419,-0.039969634264707565,0.010889708995819092,-0.12172831594944,0.07286113500595093,-0.20641235411645004,1.487106027164279,0.14637498273079094,0.9753468036651611,0.2049497365951538,-0.08181817829608917, 283, 217, 56, 255
1733261589335,6i,19.080493651723916,2.0s : 0.3s,-10.387336757864134,0.006234371363119856,0.29035997193236807,0.046918353868280874,0.24870550632476807,-0.025952104479074478,-0.022370699793100357,0.02426522970199585,-0.03745318949222565,0.014484100043773651,-0.2065674511265906,1.4862709459917463,0.14424859274277174,0.9752465486526489,0.20510153472423553,-0.0826299637556076, 283, 217, 56, 255
1733261589345,6i,19.080493651723916,2.0s : 0.3s,-10.387336757864134,0.006299152546894489,0.3080307665102195,0.07974515233856945,0.2614825665950775,-0.007524628192186356,-0.011391818523406982,0.027439534664154053,0.06612467765808105,-0.03512674570083618,-0.20650381809364207,1.4855569217119695,0.14156799038678752,0.9752001762390137,0.20503926277160645,-0.08332739025354385, 283, 217, 56, 255
1733261589355,6i,19.080493651723916,2.0s : 0.3s,-10.387336757864134,0.006406352577959037,0.3053369543193001,0.05002220007954371,0.20889298617839813,-0.017873184755444527,-0.005238019861280918,0.0042716264724731445,0.02300700545310974,-0.04421143978834152,-0.20637534056982504,1.484939225444875,0.13915458980452416,0.9751746654510498,0.20491351187229156,-0.08393200486898422, 283, 217, 56, 255
1733261589365,6i,19.080493651723916,2.0s : 0.3s,-10.387336757864134,0.006495595874731606,0.2934768277091138,0.041152177597989614,0.18931369483470917,-0.03520769998431206,-0.003426005132496357,0.010073840618133545,-0.01383279263973236,-0.03742557018995285,-0.20625581222405318,1.4842416961442033,0.1371475431069137,0.9751402735710144,0.20479652285575867,-0.08461431413888931, 283, 217, 56, 255
1733261589375,6i,19.080493651723916,2.0s : 0.3s,-10.387336757864134,0.006564386014401433,0.2925082305345303,0.03810997818567264,0.20858325064182281,-0.034549009054899216,-0.008486077189445496,0.028611958026885986,-0.014162898063659668,-0.020811982452869415,-0.20615661659276063,1.483480039901147,0.13512366355461122,0.9750959873199463,0.20469942688941956,-0.08535879850387573, 283, 217, 56, 255
1733261589385,6i,19.080493651723916,2.0s : 0.3s,-10.387336757864134,0.006644021032298273,0.2930781023792571,0.02972808332425241,0.21973071992397308,-0.036709900945425034,0.003550345078110695,0.029406607151031494,-0.0034346282482147217,-0.00268583744764328,-0.2059369580432605,1.4827655714998527,0.13294526582910948,0.975079357624054,0.20448440313339233,-0.08605939149856567, 283, 217, 56, 255
1733261589395,6i,19.080493651723916,2.0s : 0.3s,-10.387336757864134,0.006742142161104879,0.2936686532034023,0.03129378448940803,0.21636195480823517,-0.06051558628678322,-0.005491852760314941,0.030486643314361572,0.0044304728507995605,0.005498766899108887,-0.20554031215300994,1.4820470371923071,0.13080021462332345,0.9750980138778687,0.20409612357616425,-0.08676718175411224, 283, 217, 56, 255
1733261589405,6i,19.080493651723916,2.0s : 0.3s,-10.387336757864134,0.006851441272429642,0.3120458342024065,0.03129887341735842,0.25672319531440735,-0.06663046777248383,-0.009833604097366333,0.030944347381591797,-0.003763914108276367,0.002810657024383545,-0.20507315649963265,1.4811351005062394,0.12844378151752098,0.9751133322715759,0.20363877713680267,-0.0876649022102356, 283, 217, 56, 255
1733261589415,6i,19.080493651723916,2.0s : 0.3s,-10.387336757864134,0.006938276149515834,0.3361801709599437,0.03420038937141955,0.28637245297431946,-0.05960691720247269,-0.004460543394088745,0.028361201286315918,0.01704135537147522,-0.00865454226732254,-0.20478495118149706,1.4800041584977701,0.1256561764751269,0.9750720858573914,0.20335660874843597,-0.0887729674577713, 283, 217, 56, 255
1733261589425,6i,19.080493651723916,2.0s : 0.3s,-10.387336757864134,0.0069921153091376635,0.3399602613801174,0.037370714332222534,0.26504960656166077,-0.06554283946752548,-0.006049651652574539,0.017463207244873047,0.03106987476348877,-0.011236973106861115,-0.20473239326505946,1.4787256942712814,0.12279631934286384,0.9749684929847717,0.20330515503883362,-0.09002047777175903, 283, 217, 56, 255
1733261589435,6i,19.080493651723916,2.0s : 0.3s,-10.387336757864134,0.007035128317603718,0.33895390694276567,0.013722249782554657,0.23558638989925385,-0.0743604302406311,-0.0045861448161304,0.008004605770111084,0.005235776305198669,-0.009839363396167755,-0.2046086981052103,1.4774197032291423,0.12023880801635521,0.9748750925064087,0.20318403840065002,-0.09129603952169418, 283, 217, 56, 255
1733261589445,6i,19.080493651723916,2.0s : 0.3s,-10.387336757864134,0.007103392536792456,0.3367081747389331,0.019929330620754002,0.22483892738819122,-0.07503979653120041,-0.008375823497772217,0.011185288429260254,-0.016462281346321106,0.00102996826171875,-0.20442173342069003,1.476103380021427,0.11787824860983648,0.9747918248176575,0.2030009627342224,-0.09258279949426651, 283, 217, 56, 255
1733261589455,6i,19.080493651723916,2.0s : 0.3s,-10.387336757864134,0.00719233297655857,0.33618203188770873,0.016559422667926448,0.23598171770572662,-0.07555356621742249,-0.006077415309846401,0.010942935943603516,-0.012400567531585693,0.0008322000503540039,-0.20423181359472928,1.4748541922143374,0.11551001468932678,0.9747138023376465,0.2028149962425232,-0.09380411356687546, 283, 217, 56, 255
1733261589465,6i,19.080493651723916,2.0s : 0.3s,-10.387336757864134,0.007282931710754623,0.3354489144836473,0.011299250985024455,0.23372521996498108,-0.07547847181558609,-0.0095589654520154,0.009667277336120605,0.005844861268997192,0.00023327767848968506,-0.20406459877296537,1.4736247023025835,0.11312289480950993,0.9746314883232117,0.2026512622833252,-0.09500574320554733, 283, 217, 56, 255
1733261589475,6i,19.080493651723916,2.0s : 0.3s,-10.387336757864134,0.007368889940353208,0.3311879356643602,0.014528184392490687,0.21035118401050568,-0.08464720100164413,-0.014503191225230694,0.007797896862030029,0.012202471494674683,0.0011664628982543945,-0.2039764692011659,1.4724028101161886,0.11084012484216337,0.9745323657989502,0.20256495475769043,-0.09619831293821335, 283, 217, 56, 255
1733261589485,6i,19.080493651723916,2.0s : 0.3s,-10.387336757864134,0.007457017417157321,0.31917592400401423,0.00377042266843088,0.19275648891925812,-0.087178535759449,-0.02039143815636635,0.00200808048248291,0.0030111074447631836,0.0010568499565124512,-0.20388868519037262,1.4711861089570875,0.10878538477507062,0.9744322896003723,0.20247898995876312,-0.0973857194185257, 283, 217, 56, 255
1733261589495,6i,19.080493651723916,2.0s : 0.3s,-10.387336757864134,0.007564643709653693,0.30212562504184287,0.009101902002394632,0.17753826081752777,-0.08403515815734863,-0.018174191936850548,0.0014401078224182129,-0.0012373775243759155,0.00890166312456131,-0.2039576748445804,1.4699613537903256,0.1069190964644431,0.9742982983589172,0.20254655182361603,-0.09857767075300217, 283, 217, 56, 255
1733261589505,6i,19.080493651723916,2.0s : 0.3s,-10.387336757864134,0.007686929893398406,0.2957341090047836,0.016130900274553862,0.18252156674861908,-0.07447068393230438,-0.016761651262640953,-0.01216733455657959,0.0012424290180206299,0.010517522692680359,-0.20415224947432078,1.468784187561507,0.1050605883102966,0.9741424918174744,0.20273709297180176,-0.09972051531076431, 283, 217, 56, 255
1733261589515,6i,19.080493651723916,2.0s : 0.3s,-10.387336757864134,0.007807485448016953,0.2873157890363193,0.02168456633287391,0.18052618205547333,-0.05694357678294182,-0.014414506033062935,-0.01981443166732788,0.004937455058097839,0.0072959065437316895,-0.20414977250681707,1.4677367780187593,0.10319129858452862,0.9740380048751831,0.20273466408252716,-0.10074083507061005, 283, 217, 56, 255
1733261589525,6i,19.080493651723916,2.0s : 0.3s,-10.387336757864134,0.007916319786524068,0.2731692701752711,0.021450211287836304,0.16918350756168365,-0.047724511474370956,-0.013709034770727158,-0.01929163932800293,0.007886841893196106,0.005073651671409607,-0.20392712608177993,1.4669525817418996,0.10140643467107804,0.9740036129951477,0.20251663029193878,-0.10150932520627975, 283, 217, 56, 255
1733261589535,6i,19.080493651723916,2.0s : 0.3s,-10.387336757864134,0.008027594212795058,0.2538884104116267,0.023139305187823655,0.15221865475177765,-0.030805537477135658,-0.02110290341079235,-0.02159041166305542,-0.0001892000436782837,0.008321404457092285,-0.20379108290366896,1.4663312737384615,0.09975821396718527,0.9739676713943481,0.20238341391086578,-0.10211732238531113, 283, 217, 56, 255
1733261589545,6i,19.080493651723916,2.0s : 0.3s,-10.387336757864134,0.00815406693499193,0.22919213084042578,0.026848223629510937,0.1267114281654358,-0.015913940966129303,-0.02139904722571373,-0.02352428436279297,-0.008866965770721436,0.009424015879631042,-0.20389559441780278,1.465901940576457,0.09833773146912916,0.9739027619361877,0.20248575508594513,-0.102533258497715, 283, 217, 56, 255
1733261589555,6i,19.080493651723916,2.0s : 0.3s,-10.387336757864134,0.008301737646647848,0.20179730318570077,0.02848008639084709,0.10252020508050919,-0.003951509483158588,-0.02298339456319809,-0.02212923765182495,-0.01597532629966736,0.008136406540870667,-0.20409581099145985,1.4656372215503235,0.09718024580169822,0.9738350510597229,0.20268182456493378,-0.10278678685426712, 283, 217, 56, 255
1733261589565,6i,19.080493651723916,2.0s : 0.3s,-10.387336757864134,0.008502816194513181,0.17142151695410407,0.03442270480604959,0.07555623352527618,0.013201644644141197,-0.024169299751520157,-0.021920979022979736,-0.023369327187538147,0.012580454349517822,-0.20426060983734523,1.4655671134493427,0.09624716691084503,0.97379469871521,0.20284318923950195,-0.10285156220197678, 283, 217, 56, 255
1733261589575,6i,19.080493651723916,2.0s : 0.3s,-10.387336757864134,0.008740457184385583,0.1433487142742248,0.03399126793758495,0.055461347103118896,0.016570720821619034,-0.02902890369296074,-0.02371978759765625,-0.019595056772232056,0.014450319111347198,-0.20442653376405384,1.4657272934228014,0.09560820295788784,0.9737776517868042,0.20300567150115967,-0.10269204527139664, 283, 217, 56, 255
1733261589585,6i,19.080493651723916,2.0s : 0.3s,-10.387336757864134,0.009039278929218249,0.12033543268744192,0.03972381535728123,0.042517051100730896,0.028597556054592133,-0.03455576300621033,-0.023024260997772217,-0.028589099645614624,0.015183158218860626,-0.20474497591062787,1.4659706527826968,0.09509461689181113,0.9737382531166077,0.20331746339797974,-0.10244829207658768, 283, 217, 56, 255
1733261589595,6i,19.080493651723916,2.0s : 0.3s,-10.387336757864134,0.009439002655944745,0.11486242286667397,0.047079562295208204,0.04472481086850166,0.035522572696208954,-0.03614393621683121,-0.021347343921661377,-0.03762735426425934,0.018573053181171417,-0.20510857751823883,1.4662579176738284,0.09462132147398494,0.9736940264701843,0.20367346704006195,-0.10216084122657776, 283, 217, 56, 255
1733261589605,6i,19.080493651723916,2.0s : 0.3s,-10.387336757864134,0.009897618825187042,0.1110329075513136,0.04430378226164626,0.04488326981663704,0.04038550704717636,-0.03207196295261383,-0.01746046543121338,-0.03401485085487366,0.022381849586963654,-0.20547097269922115,1.4665695524600657,0.09414121759919357,0.9736524224281311,0.20402824878692627,-0.10184971988201141, 283, 217, 56, 255
1733261589615,6i,19.080493651723916,2.0s : 0.3s,-10.387336757864134,0.010406461155696524,0.10506088372771324,0.04235034361986335,0.024990525096654892,0.05038558691740036,-0.026605626568198204,-0.009907901287078857,-0.034682050347328186,0.02219325304031372,-0.20574726160053572,1.4669766462403273,0.09373404705224245,0.9736377000808716,0.2042987197637558,-0.10144750028848648, 283, 217, 56, 255
1733261589625,6i,19.080493651723916,2.0s : 0.3s,-10.387336757864134,0.010960842791443368,0.09314275230773049,0.04159147726701884,-0.011229799129068851,0.04852962866425514,-0.023840732872486115,-0.0026993751525878906,-0.033741578459739685,0.02416754513978958,-0.20595559049902398,1.4674831845597802,0.09364259679838866,0.9736465811729431,0.2045026421546936,-0.10094990581274033, 283, 217, 56, 255
1733261589635,6i,19.080493651723916,2.0s : 0.3s,-10.387336757864134,0.011552061362217241,0.08262206698489963,0.042896109009223665,-0.04355338215827942,0.04870380088686943,-0.029391294345259666,-0.0003610849380493164,-0.03797416388988495,0.01994764804840088,-0.20617988499993664,1.4680512377211392,0.09391713718714845,0.9736581444740295,0.20472219586372375,-0.10039211064577103, 283, 217, 56, 255
1733261589645,6i,19.080493651723916,2.0s : 0.3s,-10.387336757864134,0.012168304198741832,0.06492618019884515,0.04296794123999924,-0.06794367730617523,0.052160050719976425,-0.028492743149399757,0.002158045768737793,-0.04053981602191925,0.014075160026550293,-0.20643153676502166,1.468701847819467,0.09445433901749034,0.9736720323562622,0.20496851205825806,-0.09975336492061615, 283, 217, 56, 255
1733261589655,6i,19.080493651723916,2.0s : 0.3s,-10.387336757864134,0.012796408784926907,0.061693602059631994,0.03831760642992067,-0.08724772930145264,0.05493546277284622,-0.02828405052423477,0.002416849136352539,-0.0367102324962616,0.010712452232837677,-0.2067125239122719,1.469438296337329,0.09520470923566564,0.9736878275871277,0.2052435278892517,-0.09903043508529663, 283, 217, 56, 255
1733261589665,6i,19.080493651723916,2.0s : 0.3s,-10.387336757864134,0.013429681226734904,0.07957412684607762,0.035074359012036156,-0.0974138155579567,0.04884641245007515,-0.02869178168475628,0.0007159113883972168,-0.03386929631233215,0.009086742997169495,-0.20697469940051272,1.470209110522389,0.09615267124267261,0.9737101793289185,0.20550011098384857,-0.09827446192502975, 283, 217, 56, 255
1733261589675,6i,19.080493651723916,2.0s : 0.3s,-10.387336757864134,0.01404924381406688,0.09521240648448757,0.02955984675565869,-0.08560802787542343,0.04999787360429764,-0.02652136981487274,-0.0007970333099365234,-0.02952754497528076,0.0011284351348876953,-0.20716897212095736,1.4709502134992916,0.0970682161178626,0.9737431406974792,0.20569023489952087,-0.09754884243011475, 283, 217, 56, 255
1733261589685,6i,19.080493651723916,2.0s : 0.3s,-10.387336757864134,0.014624864789080457,0.09762037187975901,0.018889311313360135,-0.07521690428256989,0.04598475620150566,-0.02193913608789444,0.006743192672729492,-0.016758188605308533,-0.005522549152374268,-0.20731161152380229,1.4716974647415375,0.09788661512044804,0.9737865328788757,0.20582982897758484,-0.09681828320026398, 283, 217, 56, 255
1733261589695,6i,19.080493651723916,2.0s : 0.3s,-10.387336757864134,0.015135702318722844,0.09708788894044607,0.01567356611623628,-0.05229174718260765,0.03912707418203354,-0.022067800164222717,0.008391380310058594,-0.006598725914955139,-0.01147615909576416,-0.20739253707056285,1.4723409554164553,0.09853403830825899,0.9738320708274841,0.20590901374816895,-0.09619000554084778, 283, 217, 56, 255
1733261589705,6i,19.080493651723916,2.0s : 0.3s,-10.387336757864134,0.015568477508593213,0.09531858126487067,0.023361331532816155,-0.04259065166115761,0.03672756627202034,-0.01865575835108757,0.008728206157684326,-0.003960534930229187,-0.02130456268787384,-0.20739418625786515,1.4729694602536574,0.09900990154682228,0.973892092704773,0.20591062307357788,-0.0955779030919075, 283, 217, 56, 255
1733261589715,6i,19.080493651723916,2.0s : 0.3s,-10.387336757864134,0.01590176010797134,0.09289591079301016,0.0316061495109729,-0.04537751525640488,0.025738520547747612,-0.013824284076690674,0.009891510009765625,0.007188752293586731,-0.029144957661628723,-0.20722765074571117,1.4735342256142003,0.09949121959804746,0.9739800095558167,0.20574766397476196,-0.09503119438886642, 283, 217, 56, 255
1733261589725,6i,19.080493651723916,2.0s : 0.3s,-10.387336757864134,0.016141977551215044,0.08851070654398764,0.03274974443174567,-0.04119954630732536,0.017524531111121178,-0.01091371662914753,0.011484801769256592,0.00930739939212799,-0.029223576188087463,-0.2069961464520864,1.4739329853858127,0.09993419478349727,0.9740652441978455,0.2055211067199707,-0.09464740753173828, 283, 217, 56, 255
1733261589735,6i,19.080493651723916,2.0s : 0.3s,-10.387336757864134,0.016276262193711588,0.08011154116240703,0.03791241740075298,-0.03355787694454193,0.009911442175507545,-0.009405700489878654,0.017074286937713623,0.010242491960525513,-0.03226315975189209,-0.20677342560210793,1.4742069811794751,0.10030729060730023,0.9741365909576416,0.2053031325340271,-0.09438491612672806, 283, 217, 56, 255
1733261589745,6i,19.080493651723916,2.0s : 0.3s,-10.387336757864134,0.016153544148411407,0.0705743033431259,0.047481600844295854,-0.026873871684074402,0.0016218204982578754,-0.010418234393000603,0.01625978946685791,0.021175697445869446,-0.03926463425159454,-0.20659389111141085,1.4743648999010859,0.1006095823736524,0.9741882681846619,0.20512741804122925,-0.0942346379160881, 283, 217, 56, 255
1733261589755,6i,19.080493651723916,2.0s : 0.3s,-10.387336757864134,0.015743421443935094,0.06359487234929942,0.0544007433064715,-0.02425158955156803,-0.0031231779139488935,-0.008694403804838657,0.012084007263183594,0.021714836359024048,-0.04839301109313965,-0.2064795384573142,1.4743865659784952,0.10085765471111309,0.9742136001586914,0.20501549541950226,-0.09421578794717789, 283, 217, 56, 255
1733261589765,6i,19.080493651723916,2.0s : 0.3s,-10.387336757864134,0.015221483305201945,0.060553680413498054,0.053619682033553696,-0.0286287609487772,-0.006142403930425644,-0.009674446657299995,0.009798407554626465,0.017747342586517334,-0.049639634788036346,-0.20646413289126508,1.4743195212776563,0.10109300946243428,0.9742103219032288,0.20500041544437408,-0.0942813977599144, 283, 217, 56, 255
1733261589775,6i,19.080493651723916,2.0s : 0.3s,-10.387336757864134,0.014676081469252797,0.05827686282371555,0.04743130523451035,-0.03712917119264603,-0.01482914574444294,-0.005012549925595522,0.006828188896179199,0.013037994503974915,-0.04509007930755615,-0.2065051933158525,1.4741908756841307,0.1014029289386785,0.974189817905426,0.2050406038761139,-0.09440591186285019, 283, 217, 56, 255
1733261589785,6i,19.080493651723916,2.0s : 0.3s,-10.387336757864134,0.014126524518065394,0.055629928327565956,0.042182006397839714,-0.030808959156274796,-0.02072831429541111,-0.008003279566764832,0.0055122971534729,0.00924132764339447,-0.04078644514083862,-0.2065803135271146,1.4739067580640528,0.10172841683629529,0.9741476774215698,0.20511412620544434,-0.09468121081590652, 283, 217, 56, 255
1733261589795,6i,19.080493651723916,2.0s : 0.3s,-10.387336757864134,0.013586370372525195,0.05039101493184577,0.037120177570037674,-0.007274604868143797,-0.022240281105041504,-0.003575641196221113,0.004468739032745361,0.007994696497917175,-0.03597252815961838,-0.20671591516925822,1.4734578172155262,0.10186413690269155,0.9740772843360901,0.20524685084819794,-0.09511582553386688, 283, 217, 56, 255
1733261589805,6i,19.080493651723916,2.0s : 0.3s,-10.387336757864134,0.0130598674127584,0.04127282841948293,0.03155684119125262,0.028628269210457802,-0.029230279847979546,-0.0024414011277258396,0.0013623833656311035,0.012148678302764893,-0.02909274399280548,-0.2067902380134332,1.4729099473468545,0.10170684988826088,0.9740099906921387,0.2053195834159851,-0.09564799815416336, 283, 217, 56, 255
1733261589815,6i,19.080493651723916,2.0s : 0.3s,-10.387336757864134,0.012539103080611062,0.0312478776669194,0.033313891772668476,0.042497746646404266,-0.028362974524497986,0.001153333461843431,0.0005554556846618652,0.017501667141914368,-0.02834075689315796,-0.20680870011494945,1.472294149031464,0.10126661834179425,0.9739470481872559,0.20533765852451324,-0.09624739736318588, 283, 217, 56, 255
1733261589825,6i,19.080493651723916,2.0s : 0.3s,-10.387336757864134,0.012027385339276081,0.016968748687033842,0.02957868260639729,0.04245113953948021,-0.0314628928899765,0.0035597658716142178,0.0002371072769165039,0.020091906189918518,-0.02170616388320923,-0.2068749178617233,1.4716221270387706,0.10077397017964704,0.9738686680793762,0.2054024636745453,-0.09690054506063461, 283, 217, 56, 255
1733261589835,6i,19.080493651723916,2.0s : 0.3s,-10.387336757864134,0.011562091740153135,0.021085544055854222,0.011441420389624899,0.04019278287887573,-0.033526044338941574,0.0055684554390609264,-0.0007492899894714355,0.009171083569526672,-0.0067996978759765625,-0.20691712665907663,1.4708705623552376,0.10029148825232169,0.9737869501113892,0.20544376969337463,-0.09763157367706299, 283, 217, 56, 255
1733261589845,6i,19.080493651723916,2.0s : 0.3s,-10.387336757864134,0.011177393079352426,0.03307625998468634,0.003265681099352892,0.0439065545797348,-0.02917524054646492,0.008590877056121826,-0.000919342041015625,0.002457648515701294,-0.0019440799951553345,-0.20691671641796852,1.4701149697846665,0.09978262853624056,0.9737129807472229,0.2054433673620224,-0.09836734086275101, 283, 217, 56, 255
1733261589855,6i,19.080493651723916,2.0s : 0.3s,-10.387336757864134,0.01082670669329559,0.03549733217694867,0.009041648309760396,0.03377855569124222,-0.026818254962563515,0.006220064125955105,-0.0035592317581176758,0.00783202052116394,-0.002782575786113739,-0.2068821253350331,1.4694254237556685,0.09933845260853023,0.9736519455909729,0.20540951192378998,-0.09903945028781891, 283, 217, 56, 255
1733261589865,6i,19.080493651723916,2.0s : 0.3s,-10.387336757864134,0.010512557975879648,0.03768325914964622,0.0070791316881277655,0.03220595791935921,-0.028145840391516685,0.005017912946641445,-0.003545045852661133,0.00582943856716156,0.0018879622220993042,-0.20685475894721142,1.4687663831556796,0.09894381016895072,0.9735921025276184,0.20538273453712463,-0.09968168288469315, 283, 217, 56, 255
1733261589875,6i,19.080493651723916,2.0s : 0.3s,-10.387336757864134,0.010235959844218564,0.04015521636625694,0.009913084615779983,0.041907984763383865,-0.023403238505125046,0.002722634468227625,-0.002109825611114502,0.004512369632720947,0.008570671081542969,-0.20684407028745322,1.46812470407227,0.09851604660469356,0.9735300540924072,0.20537227392196655,-0.10030661523342133, 283, 217, 56, 255
1733261589885,6i,19.080493651723916,2.0s : 0.3s,-10.387336757864134,0.009982304432002395,0.0437797196381101,0.015198062825316957,0.04757439345121384,-0.0227611493319273,0.0019428608939051628,-0.004655420780181885,0.009175047278404236,0.011186003684997559,-0.20688190468559853,1.4675689938591288,0.09800458590732623,0.9734663963317871,0.20540930330753326,-0.1008467972278595, 283, 217, 56, 255
1733261589895,6i,19.080493651723916,2.0s : 0.3s,-10.387336757864134,0.009745172169019952,0.045611841025863166,0.01581576630103252,0.042419712990522385,-0.020806699991226196,0.0027732679154723883,-0.005469381809234619,0.009782135486602783,0.011159487068653107,-0.20696316843893792,1.4670301713552574,0.09750469018069186,0.9733952879905701,0.20548883080482483,-0.10136958211660385, 283, 217, 56, 255
1733261589905,6i,19.080493651723916,2.0s : 0.3s,-10.387336757864134,0.009536716831966245,0.04692026378768481,0.016549027242466458,0.04149613156914711,-0.017450053244829178,3.7402380257844925e-05,-0.006744384765625,0.0033645927906036377,0.01473306119441986,-0.20708140147002035,1.4666012484377435,0.09704587613877902,0.9733276963233948,0.20560453832149506,-0.10178457200527191, 283, 217, 56, 255
1733261589915,6i,19.080493651723916,2.0s : 0.3s,-10.387336757864134,0.00936858851507661,0.04728191897227353,0.0197001717309316,0.03480999916791916,-0.016115276142954826,-0.004392899107187986,-0.00932997465133667,-0.003341853618621826,0.017025873064994812,-0.20713619445628692,1.4663294020815223,0.09663964358169702,0.9732887744903564,0.20565815269947052,-0.10204798728227615, 283, 217, 56, 255
1733261589925,6i,19.080493651723916,2.0s : 0.3s,-10.387336757864134,0.00924112587205411,0.04515014316021784,0.020186320673492023,0.013494855724275112,-0.014533359557390213,-0.0017539728432893753,-0.0048348307609558105,-0.005916908383369446,0.018684275448322296,-0.20716355117931384,1.4661456149203074,0.0964010561603114,0.9732642769813538,0.20568493008613586,-0.10222625732421875, 283, 217, 56, 255
1733261589935,6i,19.080493651723916,2.0s : 0.3s,-10.387336757864134,0.00917055746969983,0.04123177127981246,0.029252675281368632,0.0025541908107697964,-0.01105948630720377,-0.003910900559276342,-0.00396043062210083,-0.007845476269721985,0.0279012992978096,-0.2072632100944889,1.4660015722882902,0.09632191746074831,0.9732291102409363,0.2057824581861496,-0.10236430168151855, 283, 217, 56, 255
1733261589945,6i,19.080493651723916,2.0s : 0.3s,-10.387336757864134,0.009172975027276598,0.03734809969045196,0.032344826321621084,-0.0029646779876202345,-0.008329479955136776,-0.005379633978009224,-0.0021787285804748535,-0.007443860173225403,0.03140111267566681,-0.20736735789443692,1.4659464958236863,0.09631695480329491,0.973202109336853,0.20588438212871552,-0.10241565853357315, 283, 217, 56, 255
1733261589955,6i,19.080493651723916,2.0s : 0.3s,-10.387336757864134,0.009198906335210862,0.03332627627502601,0.025086860493863723,-0.00914507545530796,-0.007187604904174805,-0.007035387214273214,-0.003122270107269287,-0.0033176541328430176,0.024669721722602844,-0.2074700356891401,1.4659779355307392,0.0963869568438913,0.9731844067573547,0.20598484575748444,-0.1023828536272049, 283, 217, 56, 255
1733261589965,6i,19.080493651723916,2.0s : 0.3s,-10.387336757864134,0.009238866202897655,0.029154387929691203,0.021111835613245422,-0.019700780510902405,-0.010771687142550945,-0.0064649381674826145,-0.00635761022567749,0.0002070218324661255,0.020130760967731476,-0.20764167893047555,1.4660284610341687,0.09655342418520663,0.9731543660163879,0.2061528116464615,-0.10232998430728912, 283, 217, 56, 255
1733261589975,6i,19.080493651723916,2.0s : 0.3s,-10.387336757864134,0.009290382163904752,0.02524200048599113,0.020045839434731778,-0.01693282462656498,-0.003962917253375053,-0.006210240535438061,-0.009456276893615723,0.0013187378644943237,0.01762598752975464,-0.20781545756953612,1.46608970777138,0.09676035439211536,0.9731251001358032,0.20632284879684448,-0.10226663947105408, 283, 217, 56, 255
1733261589985,6i,19.080493651723916,2.0s : 0.3s,-10.387336757864134,0.009348749121346102,0.022399217832569634,0.01951937249677547,-0.008972902782261372,-0.0028577048797160387,-0.00530290137976408,-0.011158525943756104,0.003493890166282654,0.01562964916229248,-0.2079160224635159,1.4662259830015116,0.09692654673875667,0.9731183052062988,0.20642125606536865,-0.10213185846805573, 283, 217, 56, 255
1733261589995,6i,19.080493651723916,2.0s : 0.3s,-10.387336757864134,0.009401815307159932,0.02060540479358699,0.02153512741627471,-0.0018397588282823563,-0.004483875818550587,-0.004354116506874561,-0.011438250541687012,0.009869381785392761,0.015346772968769073,-0.20794994091292815,1.4663434682692849,0.09700045924468194,0.97312331199646,0.20645444095134735,-0.10201679915189743, 283, 217, 56, 255
1733261590005,6i,19.080493651723916,2.0s : 0.3s,-10.387336757864134,0.009435629793306359,0.019259384056295188,0.02157790267897156,-0.003287719329819083,-0.007765156216919422,-0.00337034510448575,-0.006184875965118408,0.016185402870178223,0.012860246002674103,-0.20795109158006908,1.466452493110375,0.09704794552247455,0.9731342196464539,0.20645557343959808,-0.10191068053245544, 283, 217, 56, 255
1733261590015,6i,19.080493651723916,2.0s : 0.3s,-10.387336757864134,0.009450570577852271,0.018164413944145048,0.022670960331778244,-0.0018998130690306425,-0.0063028596341609955,-0.008097955025732517,-0.0029231905937194824,0.01779286563396454,0.013741955161094666,-0.20794570760698045,1.466628523583782,0.09712483132956586,0.9731533527374268,0.20645029842853546,-0.10173950344324112, 283, 217, 56, 255
1733261590025,6i,19.080493651723916,2.0s : 0.3s,-10.387336757864134,0.009459415294173615,0.01721535077885025,0.019557343689588266,0.00048478145617991686,-0.005689000710844994,-0.0053857918828725815,-0.003262460231781006,0.013537347316741943,0.013732671737670898,-0.20795956058361997,1.4668415521440896,0.097171718000766,0.9731720685958862,0.20646385848522186,-0.10153188556432724, 283, 217, 56, 255
1733261590035,6i,19.080493651723916,2.0s : 0.3s,-10.387336757864134,0.009461609003113217,0.016778172663213825,0.018462702181245363,-0.00042535399552434683,-0.007943233475089073,-0.009825048968195915,-0.005203962326049805,0.01405574381351471,0.010780826210975647,-0.20802231784740202,1.4670040972149734,0.09721143226331697,0.973175585269928,0.2065252661705017,-0.10137234628200531, 283, 217, 56, 255
1733261590045,6i,19.080493651723916,2.0s : 0.3s,-10.387336757864134,0.00947042056388798,0.016202041052896802,0.011781197585610538,0.003197610378265381,-0.004057947546243668,-0.009630637243390083,-0.007662057876586914,0.006407409906387329,0.006247766315937042,-0.20813527426232878,1.4670969122170372,0.09721968158068853,0.9731618165969849,0.20663577318191528,-0.101279616355896, 283, 217, 56, 255
1733261590055,6i,19.080493651723916,2.0s : 0.3s,-10.387336757864134,0.009490628732252945,0.015384519695313386,0.005836116363814829,0.0014821352669969201,-0.0011133344378322363,-0.010473627597093582,-0.005559325218200684,0.0004535764455795288,0.00171709805727005,-0.20824740155705054,1.4672029879454982,0.09719920523517597,0.9731495380401611,0.20674549043178558,-0.10117398947477341, 283, 217, 56, 255
1733261590065,6i,19.080493651723916,2.0s : 0.3s,-10.387336757864134,0.009528175812987778,0.014750558041550926,0.008093171460991718,0.002052850555628538,-0.00218925136141479,-0.008646700531244278,-0.004353165626525879,-0.0011027604341506958,0.0067330002784729,-0.20837212198749658,1.467298692226603,0.09720036310119477,0.9731336236000061,0.206867516040802,-0.10107819736003876, 283, 217, 56, 255
1733261590075,6i,19.080493651723916,2.0s : 0.3s,-10.387336757864134,0.009584774429386198,0.013759917749558138,0.007460213692450295,-0.00505339540541172,-0.0022213426418602467,-0.006989780813455582,-0.0031949877738952637,-0.005406081676483154,0.00402754545211792,-0.20855964137444327,1.4673934006753158,0.09724042469529261,0.9731045961380005,0.20705096423625946,-0.10098202526569366, 283, 217, 56, 255
1733261590085,6i,19.080493651723916,2.0s : 0.3s,-10.387336757864134,0.009651706148219303,0.012783973564056292,0.005696335534524556,-0.007004160434007645,-0.0007608651649206877,-0.007483797147870064,-0.0007319450378417969,-0.002130180597305298,0.005232095718383789,-0.2087828238312925,1.4674835018558743,0.09730684944442719,0.9730677008628845,0.2072693109512329,-0.10088957846164703, 283, 217, 56, 255
1733261590095,6i,19.080493651723916,2.0s : 0.3s,-10.387336757864134,0.009726363132107025,0.011212722433270312,0.008249886713142621,-0.01591123640537262,0.001993864309042692,-0.0027864137664437294,-0.002138793468475342,0.0007705837488174438,0.007930472493171692,-0.2089839494659106,1.467622740050554,0.09743516049368167,0.9730401635169983,0.20746606588363647,-0.10074978321790695, 283, 217, 56, 255
1733261590105,6i,19.080493651723916,2.0s : 0.3s,-10.387336757864134,0.00982342821856509,0.010365868225117342,0.012931577548836141,-0.017737099900841713,0.002558987122029066,-0.004237303975969553,-0.004931211471557617,-0.005136579275131226,0.01079464703798294,-0.20914201145869357,1.4677963427263636,0.09763003024280752,0.9730249643325806,0.20762068033218384,-0.10057748109102249, 283, 217, 56, 255
1733261590115,6i,19.080493651723916,2.0s : 0.3s,-10.387336757864134,0.009923869417276939,0.009934536369180466,0.0050344397067737775,-0.02027229405939579,0.004947886802256107,-0.002111935056746006,-0.0026711225509643555,-0.0014664530754089355,0.004007518291473389,-0.20930541213371215,1.4679621354516026,0.09784443042591137,0.9730079770088196,0.20778052508831024,-0.10041268914937973, 283, 217, 56, 255
1733261590125,6i,19.080493651723916,2.0s : 0.3s,-10.387336757864134,0.010013508400931513,0.010620884101099353,0.006609888356675252,-0.02611340582370758,0.008509865030646324,-0.0021484200842678547,-0.004925370216369629,0.004389718174934387,0.00040215253829956055,-0.20940227560684188,1.4681212562980517,0.09808295210514324,0.9730039238929749,0.20787526667118073,-0.1002558022737503, 283, 217, 56, 255
1733261590135,6i,19.080493651723916,2.0s : 0.3s,-10.387336757864134,0.01009680737362898,0.014228426616999482,0.004288480864434811,-0.03185238689184189,0.004708956927061081,-0.003713193815201521,-0.0041016340255737305,0.0011110156774520874,-0.0005773305892944336,-0.20946269529502576,1.4682483994422741,0.09837761606827393,0.973004162311554,0.20793436467647552,-0.10013080388307571, 283, 217, 56, 255
1733261590145,6i,19.080493651723916,2.0s : 0.3s,-10.387336757864134,0.01017407969520063,0.01666402745545904,0.0030483375929756125,-0.029349280521273613,-0.00012388150207698345,-0.005751310847699642,-0.002023458480834961,-0.0010076463222503662,-0.002045147120952606,-0.20953832725321983,1.4683752642934798,0.09870480472522553,0.9730011224746704,0.20800834894180298,-0.10000574588775635, 283, 217, 56, 255
1733261590155,6i,19.080493651723916,2.0s : 0.3s,-10.387336757864134,0.010247840485975199,0.018070869541149556,0.0014851116843659611,-0.023571286350488663,0.004536739084869623,-0.004356480203568935,-0.00036334991455078125,-0.0014388561248779297,-5.6803226470947266e-05,-0.2095736157586302,1.4684794369788863,0.09896416045617275,0.9730042815208435,0.20804286003112793,-0.0999036356806755, 283, 217, 56, 255
1733261590165,6i,19.080493651723916,2.0s : 0.3s,-10.387336757864134,0.01031807260088004,0.020304400491582688,0.0025694106756936684,-0.03178953379392624,0.0067860446870327,-0.001042709220200777,-0.002339482307434082,0.00031125545501708984,0.001015782356262207,-0.20960956229934924,1.4686308788083107,0.09924910494904027,0.9730120301246643,0.2080780267715454,-0.09975552558898926, 283, 217, 56, 255
1733261590175,6i,19.080493651723916,2.0s : 0.3s,-10.387336757864134,0.010393006673483859,0.02250617126496236,0.009782961393488604,-0.03230046480894089,0.007543225772678852,-0.0012404154986143112,-0.007918715476989746,-0.005347087979316711,-0.002099744975566864,-0.2096536096859912,1.4688209340870921,0.09959399556796213,0.9730218052864075,0.20812110602855682,-0.0995696559548378, 283, 217, 56, 255
1733261590185,6i,19.080493651723916,2.0s : 0.3s,-10.387336757864134,0.010473734569347252,0.024245557995109596,0.01296423589767625,-0.030414678156375885,0.005684339441359043,0.0007644121069461107,-0.0077422261238098145,-0.009172499179840088,-0.004898428916931152,-0.20964897970789814,1.4690313929822059,0.09992771877495062,0.97304368019104,0.2081165760755539,-0.09936497360467911, 283, 217, 56, 255
1733261590195,6i,19.080493651723916,2.0s : 0.3s,-10.387336757864134,0.010553935505333099,0.02797955566486871,0.013031092901390795,-0.03985252231359482,0.009270330891013145,0.004993145354092121,-0.00823211669921875,-0.007315486669540405,-0.006966009736061096,-0.2096536608236171,1.469211598317252,0.10028325478795831,0.973060667514801,0.2081211507320404,-0.09918953478336334, 283, 217, 56, 255
1733261590205,6i,19.080493651723916,2.0s : 0.3s,-10.387336757864134,0.010645561535312705,0.03948132501561623,0.017345776332490744,-0.05500910431146622,0.008553939871490002,0.0022128054406493902,-0.006635844707489014,-0.014835566282272339,-0.006061971187591553,-0.20971348589617705,1.4693946503193858,0.10076695466187739,0.9730664491653442,0.20817966759204865,-0.0990101546049118, 283, 217, 56, 255
1733261590215,6i,19.080493651723916,2.0s : 0.3s,-10.387336757864134,0.010752631383324267,0.04757436509550226,0.02036506839298623,-0.059380147606134415,0.0036954465322196484,-0.0014155516400933266,-0.004624426364898682,-0.01891396939754486,-0.005967617034912109,-0.2097802934654224,1.469562762403756,0.1013529114357812,0.9730691909790039,0.20824500918388367,-0.09884515404701233, 283, 217, 56, 255
1733261590225,6i,19.080493651723916,2.0s : 0.3s,-10.387336757864134,0.010864536913909501,0.0520551976869078,0.020805708819012333,-0.0591745525598526,0.005027026869356632,-0.0010136805940419436,-0.0025788545608520508,-0.017842769622802734,-0.010385692119598389,-0.20985513692911387,1.4697107903395843,0.10194820628190028,0.973068356513977,0.20831821858882904,-0.09869954735040665, 283, 217, 56, 255
1733261590235,6i,19.080493651723916,2.0s : 0.3s,-10.387336757864134,0.010979434411678582,0.054400636921359616,0.017018886311041967,-0.055895671248435974,0.005809729918837547,-0.0028068535029888153,-0.0034963488578796387,-0.014327332377433777,-0.008493855595588684,-0.20992712707407535,1.4698820256927647,0.10254863782250032,0.9730703830718994,0.20838862657546997,-0.09853141754865646, 283, 217, 56, 255
1733261590245,6i,19.080493651723916,2.0s : 0.3s,-10.387336757864134,0.011104159758578924,0.061442198490043905,0.02026230575358605,-0.06811132282018661,0.01037012692540884,-0.0038787759840488434,-0.00810331106185913,-0.016351565718650818,-0.008804753422737122,-0.21003102713466,1.4700894700445037,0.10315490388710243,0.9730691909790039,0.208490252494812,-0.09832736849784851, 283, 217, 56, 255
1733261590255,6i,19.080493651723916,2.0s : 0.3s,-10.387336757864134,0.011241962424339412,0.0775290073725219,0.022060785522150194,-0.08505887538194656,0.010078421793878078,-0.004242297727614641,-0.009360194206237793,-0.017819508910179138,-0.009029403328895569,-0.21011220733062314,1.4703186072101817,0.10391852827755284,0.9730748534202576,0.20856964588165283,-0.09810270369052887, 283, 217, 56, 255
1733261590265,6i,19.080493651723916,2.0s : 0.3s,-10.387336757864134,0.01140583121028245,0.09271183510024426,0.027272306260683356,-0.09581884741783142,0.009546589106321335,-0.010022422298789024,-0.011422991752624512,-0.02357575297355652,-0.0075814127922058105,-0.2102095465074339,1.4705533904857258,0.10482070773775885,0.9730775952339172,0.20866483449935913,-0.09787220507860184, 283, 217, 56, 255
1733261590275,6i,19.080493651723916,2.0s : 0.3s,-10.387336757864134,0.011609714739533409,0.09957470082328561,0.03278126095539075,-0.0948830097913742,0.016838768497109413,-0.014033942483365536,-0.012268126010894775,-0.029671713709831238,-0.006610110402107239,-0.21037347592970534,1.4708061506917027,0.10575407822188164,0.973068356513977,0.20882515609264374,-0.0976228341460228, 283, 217, 56, 255
1733261590285,6i,19.080493651723916,2.0s : 0.3s,-10.387336757864134,0.011844369054410876,0.10657984697227756,0.031612663863302526,-0.09914540499448776,0.02122100070118904,-0.01684410870075226,-0.013112068176269531,-0.02760326862335205,-0.008092820644378662,-0.21050518656525202,1.471135342270617,0.10671548331342161,0.9730729460716248,0.20895396173000336,-0.09729975461959839, 283, 217, 56, 255
1733261590295,6i,19.080493651723916,2.0s : 0.3s,-10.387336757864134,0.012112536714140617,0.1086206351785525,0.03474976466072191,-0.09107696264982224,0.019453059881925583,-0.020012173801660538,-0.013344347476959229,-0.030657604336738586,-0.00946497917175293,-0.21064826501003972,1.4714761302180432,0.10764923184944489,0.973076343536377,0.2090938836336136,-0.09696518629789352, 283, 217, 56, 255
1733261590305,6i,19.080493651723916,2.0s : 0.3s,-10.387336757864134,0.01243208604908929,0.10888894982575001,0.041362705070137507,-0.07896623760461807,0.02353621833026409,-0.015020078048110008,-0.010340571403503418,-0.03811906278133392,-0.01228344440460205,-0.21077300043048636,1.471766877592959,0.10848111388276173,0.9730785489082336,0.20921584963798523,-0.0966796800494194, 283, 217, 56, 255
1733261590315,6i,19.080493651723916,2.0s : 0.3s,-10.387336757864134,0.012785962112425138,0.1082386835049914,0.03901723804970912,-0.07228489220142365,0.02496189810335636,-0.010785650461912155,-0.01016700267791748,-0.03570416569709778,-0.01200789213180542,-0.21087813616675885,1.4720929836393783,0.10921042092110203,0.9730881452560425,0.20931866765022278,-0.09636017680168152, 283, 217, 56, 255
1733261590325,6i,19.080493651723916,2.0s : 0.3s,-10.387336757864134,0.013161449944142003,0.10768788843476512,0.03212073699768639,-0.07247957587242126,0.025278281420469284,-0.009472711943089962,-0.0069168806076049805,-0.029629409313201904,-0.010295465588569641,-0.210954370088688,1.472417121726214,0.10992125563653764,0.9731034636497498,0.2093932032585144,-0.09604319930076599, 283, 217, 56, 255
1733261590335,6i,19.080493651723916,2.0s : 0.3s,-10.387336757864134,0.01355133701015846,0.10584320805311431,0.029480126145052524,-0.06264358758926392,0.022538643330335617,-0.008778725750744343,-0.0015178918838500977,-0.02798384428024292,-0.009147584438323975,-0.21100359342193512,1.4727104624399054,0.11058557423396409,0.9731212258338928,0.20944133400917053,-0.09575671702623367, 283, 217, 56, 255
1733261590345,6i,19.080493651723916,2.0s : 0.3s,-10.387336757864134,0.013953646746848933,0.08826331796110663,0.030364129198246017,-0.030875273048877716,0.02201985940337181,-0.0011551612988114357,0.0012256503105163574,-0.02872978150844574,-0.009750783443450928,-0.21095499896142042,1.4729550153278568,0.11104705241719702,0.9731547832489014,0.20939382910728455,-0.09551973640918732, 283, 217, 56, 255
1733261590355,6i,19.080493651723916,2.0s : 0.3s,-10.387336757864134,0.014341856942295254,0.07038674377381485,0.027844779667274354,-0.009087817743420601,0.025480592623353004,0.010236609727144241,0.0025793910026550293,-0.019730493426322937,-0.019477836787700653,-0.2107400036675464,1.4731707489708759,0.11121667839376069,0.9732200503349304,0.20918358862400055,-0.09531416743993759, 283, 217, 56, 255
1733261590365,6i,19.080493651723916,2.0s : 0.3s,-10.387336757864134,0.014688694777611888,0.06515607598712266,0.033085738147107746,-0.013766991905868053,0.017241571098566055,0.021495122462511063,0.005346775054931641,-0.00984528660774231,-0.03113114833831787,-0.21039927889714446,1.4733301414572442,0.11132381301900154,0.9733061194419861,0.20885038375854492,-0.09516597539186478, 283, 217, 56, 255
1733261590375,6i,19.080493651723916,2.0s : 0.3s,-10.387336757864134,0.015011830455348556,0.059171186833402646,0.04150913413873489,0.001210892340168357,0.008754165843129158,0.03369872644543648,0.009361863136291504,-0.01881416141986847,-0.035796523094177246,-0.20991227081916444,1.4733677163169963,0.11140283284121615,0.9734109044075012,0.20837409794330597,-0.09513929486274719, 283, 217, 56, 255
1733261590385,6i,19.080493651723916,2.0s : 0.3s,-10.387336757864134,0.015295427504634572,0.05164978380362807,0.048336533787651494,0.022045601159334183,0.004693643655627966,0.04151776805520058,0.01811385154724121,-0.01945696771144867,-0.04036998003721237,-0.2092590124413773,1.473298630661872,0.11130781115033699,0.9735394716262817,0.20773513615131378,-0.09521976113319397, 283, 217, 56, 255
1733261590395,6i,19.080493651723916,2.0s : 0.3s,-10.387336757864134,0.015376719683801004,0.036186324734615145,0.05884928803547189,0.046362657099962234,-0.004008767660707235,0.05096666142344475,0.02568340301513672,0.007632464170455933,-0.05239605903625488,-0.20852071879896647,1.4731280948710275,0.11097869668814223,0.9736756682395935,0.20701289176940918,-0.09540072083473206, 283, 217, 56, 255
1733261590405,6i,19.080493651723916,2.0s : 0.3s,-10.387336757864134,0.015193806693109825,0.038079116191138664,0.07114817695716216,0.06675208359956741,-0.01872805878520012,0.05200822278857231,0.021866202354431152,0.017222285270690918,-0.06547766923904419,-0.20776468947428844,1.4728040109069156,0.110443602060009,0.9738002419471741,0.2062731832265854,-0.09573155641555786, 283, 217, 56, 255
1733261590415,6i,19.080493651723916,2.0s : 0.3s,-10.387336757864134,0.014936143403732798,0.07136042951378863,0.0729087353509865,0.10485579818487167,-0.035653866827487946,0.06102196127176285,0.020084261894226074,0.010608896613121033,-0.06928028166294098,-0.20694479679798589,1.472291556286355,0.10960860791443748,0.9739190936088562,0.20547084510326385,-0.09624718129634857, 283, 217, 56, 255
1733261590425,6i,19.080493651723916,2.0s : 0.3s,-10.387336757864134,0.014696824393023108,0.11512600693894734,0.07068558496316503,0.14686742424964905,-0.04411260038614273,0.06573894619941711,0.01903676986694336,0.011954426765441895,-0.06701600551605225,-0.2060377053994101,1.4715835970233244,0.10837735233307251,0.9740356802940369,0.2045830339193344,-0.0969550684094429, 283, 217, 56, 255
1733261590435,6i,19.080493651723916,2.0s : 0.3s,-10.387336757864134,0.014485177963934214,0.15573747743538893,0.07275202810410955,0.1637454628944397,-0.05361688882112503,0.07487545162439346,0.016157865524291992,0.01952040195465088,-0.06819629669189453,-0.2051049344469685,1.4706843148752387,0.10682815610154517,0.9741374850273132,0.20366989076137543,-0.09784997999668121, 283, 217, 56, 255
1733261590445,6i,19.080493651723916,2.0s : 0.3s,-10.387336757864134,0.014353894059419624,0.18336566153432463,0.07488937965352016,0.1511087715625763,-0.06916921585798264,0.08246280252933502,0.009596049785614014,0.011313408613204956,-0.07340532541275024,-0.2041364337511153,1.469629769388436,0.10527698133000349,0.9742295742034912,0.20272159576416016,-0.09889707714319229, 283, 217, 56, 255
1733261590455,6i,19.080493651723916,2.0s : 0.3s,-10.387336757864134,0.014370393035126338,0.20539435616438886,0.0693960644691255,0.1482250988483429,-0.08628801256418228,0.08817900717258453,0.005519747734069824,-0.010862678289413452,-0.06831799447536469,-0.20306653574513095,1.4684087441196525,0.10382729239387205,0.9743231534957886,0.20167380571365356,-0.10010865330696106, 283, 217, 56, 255
1733261590465,6i,19.080493651723916,2.0s : 0.3s,-10.387336757864134,0.014563252343088138,0.22509422538790602,0.06662835704564359,0.1492442935705185,-0.10267071425914764,0.0932624489068985,0.0017547011375427246,-0.024195805191993713,-0.062054991722106934,-0.20192630396341193,1.4670164775636467,0.10238421455419097,0.9744110107421875,0.20055687427520752,-0.10148884356021881, 283, 217, 56, 255
1733261590475,6i,19.080493651723916,2.0s : 0.3s,-10.387336757864134,0.014910225434060176,0.24594071609379806,0.06659340906105925,0.16013103723526,-0.11587822437286377,0.09807045757770538,-0.00484234094619751,-0.016027316451072693,-0.06445431709289551,-0.2008466013372178,1.4654148565861649,0.10088330688732737,0.9744620323181152,0.1994989812374115,-0.10307207703590393, 283, 217, 56, 255
1733261590485,6i,19.080493651723916,2.0s : 0.3s,-10.387336757864134,0.015396344237657135,0.2649924879649281,0.06830189226314427,0.16249778866767883,-0.12742727994918823,0.1047736331820488,-0.010224103927612305,-0.012183070182800293,-0.06642431020736694,-0.1997576765786697,1.463592423705745,0.09927748566215211,0.9744879603385925,0.1984318345785141,-0.10487096756696701, 283, 217, 56, 255
1733261590495,6i,19.080493651723916,2.0s : 0.3s,-10.387336757864134,0.016018424409006873,0.27547896494249163,0.06833490528760283,0.1513921469449997,-0.1329597383737564,0.11384536325931549,-0.012178957462310791,-0.01736105978488922,-0.06496095657348633,-0.19856442492690424,1.4616785199155313,0.09773373928451705,0.974520206451416,0.19726216793060303,-0.10676156729459763, 283, 217, 56, 255
1733261590505,6i,19.080493651723916,2.0s : 0.3s,-10.387336757864134,0.01678493068519748,0.27588814284277496,0.06865130677261051,0.11553293466567993,-0.1338966339826584,0.11962655186653137,-0.021476268768310547,-0.03474318981170654,-0.05517864227294922,-0.1973373731289369,1.4597784073776552,0.09643106123330032,0.9745554327964783,0.19605907797813416,-0.10863981395959854, 283, 217, 56, 255
1733261590515,6i,19.080493651723916,2.0s : 0.3s,-10.387336757864134,0.017677612345348013,0.275419181513026,0.06961209208498541,0.10046117752790451,-0.14063093066215515,0.1185087263584137,-0.030596613883972168,-0.045166656374931335,-0.04323960840702057,-0.1961877922351975,1.457840155896938,0.09542533791164959,0.9745664000511169,0.19493168592453003,-0.11055388301610947, 283, 217, 56, 255
1733261590525,6i,19.080493651723916,2.0s : 0.3s,-10.387336757864134,0.018648750407167885,0.27847756214204106,0.060912939999836775,0.11222968250513077,-0.15124042332172394,0.1289815902709961,-0.030022919178009033,-0.04128943383693695,-0.03322940319776535,-0.1949262508603619,1.455848593385771,0.09443343787621476,0.974587619304657,0.19369418919086456,-0.1125226616859436, 283, 217, 56, 255
1733261590535,6i,19.080493651723916,2.0s : 0.3s,-10.387336757864134,0.0196482909455354,0.28608386838631183,0.04664762759538672,0.1236739531159401,-0.15025989711284637,0.13689056038856506,-0.022373676300048828,-0.02868904173374176,-0.029195182025432587,-0.19345234326880534,1.4538566579827084,0.09333546648950489,0.9746440649032593,0.19224797189235687,-0.11449693888425827, 283, 217, 56, 255
1733261590545,6i,19.080493651723916,2.0s : 0.3s,-10.387336757864134,0.02064165354778164,0.30242624911558325,0.0398744298806812,0.13699401915073395,-0.15484718978405,0.1490473598241806,-0.027204394340515137,-0.021586894989013672,-0.019593290984630585,-0.19179748116122475,1.4518711446196886,0.09214273568692027,0.9747292995452881,0.19062373042106628,-0.11646945774555206, 283, 217, 56, 255
1733261590555,6i,19.080493651723916,2.0s : 0.3s,-10.387336757864134,0.021625551821649974,0.30884178639679666,0.04367487801292105,0.11787199229001999,-0.15759886801242828,0.1603519469499588,-0.032064974308013916,-0.024914652109146118,-0.016080811619758606,-0.19007384044382022,1.4498263370166253,0.09096693537491328,0.9748140573501587,0.188931405544281,-0.11850184947252274, 283, 217, 56, 255
1733261590565,6i,19.080493651723916,2.0s : 0.3s,-10.387336757864134,0.022583279326108405,0.31070059248570636,0.03731385438081319,0.09693954885005951,-0.16000662744045258,0.1643139272928238,-0.025619089603424072,-0.02602657675743103,-0.007655277848243713,-0.18830069665350951,1.447767792077006,0.09001750770554523,0.9748989343643188,0.18718990683555603,-0.12054920941591263, 283, 217, 56, 255
1733261590575,6i,19.080493651723916,2.0s : 0.3s,-10.387336757864134,0.023488402814200355,0.3105334667792105,0.04095657357356823,0.07503052055835724,-0.1611214131116867,0.1579868495464325,-0.023049354553222656,-0.0311146080493927,0.013343513011932373,-0.1865682085535197,1.4457087601958172,0.08929356509384019,0.9749688506126404,0.185487762093544,-0.12259656935930252, 283, 217, 56, 255
1733261590585,6i,19.080493651723916,2.0s : 0.3s,-10.387336757864134,0.02433655504955728,0.3108845429583106,0.044392773252632446,0.07197001576423645,-0.16214540600776672,0.1633765548467636,-0.02372986078262329,-0.03236444294452667,0.01897774636745453,-0.1847658265052061,1.4437290268505225,0.0887403905077852,0.9750543832778931,0.18371635675430298,-0.12456868588924408, 283, 217, 56, 255
1733261590595,6i,19.080493651723916,2.0s : 0.3s,-10.387336757864134,0.02509800221607418,0.3130138688346854,0.03890395163795998,0.10122350603342056,-0.15853318572044373,0.1632848083972931,-0.020309388637542725,-0.019334852695465088,0.026966825127601624,-0.1829047999708879,1.4418711488700882,0.08805476303529625,0.9751585125923157,0.181886687874794,-0.12642373144626617, 283, 217, 56, 255
1733261590605,6i,19.080493651723916,2.0s : 0.3s,-10.387336757864134,0.02574201937118498,0.32106643085703374,0.029389089490882894,0.14229291677474976,-0.15863092243671417,0.15467481315135956,-0.006668210029602051,0.0005682259798049927,0.02861696481704712,-0.18106835850073355,1.440004145863662,0.08702974108102257,0.9752503037452698,0.1800805628299713,-0.12828747928142548, 283, 217, 56, 255
1733261590615,6i,19.080493651723916,2.0s : 0.3s,-10.387336757864134,0.02622047993523083,0.334730947992188,0.04827147696528908,0.16807258129119873,-0.15858520567417145,0.15291813015937805,0.009926080703735352,0.020408332347869873,0.04260408878326416,-0.17929648858609754,1.4380965357430797,0.08565352019359043,0.9753186106681824,0.17833738029003143,-0.1301896572113037, 283, 217, 56, 255
1733261590625,6i,19.080493651723916,2.0s : 0.3s,-10.387336757864134,0.02637266123719027,0.3502998530734234,0.052764131052290844,0.19724750518798828,-0.14764226973056793,0.15509764850139618,0.014006853103637695,0.025145843625068665,0.044221580028533936,-0.17752151896163998,1.436246540083446,0.08400721107734994,0.97538822889328,0.17659059166908264,-0.1320360153913498, 283, 217, 56, 255
1733261590635,6i,19.080493651723916,2.0s : 0.3s,-10.387336757864134,0.026163293853563918,0.3674461985571558,0.05031806979825456,0.23312121629714966,-0.1370755285024643,0.1494501829147339,0.010803282260894775,0.020187169313430786,0.04480709135532379,-0.17570758411318432,1.4344389118795806,0.08203241469285687,0.9754636287689209,0.17480486631393433,-0.13384225964546204, 283, 217, 56, 255
1733261590645,6i,19.080493651723916,2.0s : 0.3s,-10.387336757864134,0.02569303131437054,0.3865577192029338,0.052694747180000126,0.2659854292869568,-0.12653419375419617,0.1437278538942337,0.009668350219726562,0.019384965300559998,0.04803626239299774,-0.1738880937275555,1.4327216167160368,0.07972157253029924,0.9755459427833557,0.1730131059885025,-0.1355607956647873, 283, 217, 56, 255
1733261590655,6i,19.080493651723916,2.0s : 0.3s,-10.387336757864134,0.02501337388435806,0.4039227003369352,0.05945102853214988,0.2770436704158783,-0.11686167865991592,0.14856934547424316,0.011966168880462646,0.03354950249195099,0.04759901762008667,-0.17199385894828675,1.4311827945384474,0.07719814536384725,0.9756588935852051,0.17114712297916412,-0.13710717856884003, 283, 217, 56, 255
1733261590665,6i,19.080493651723916,2.0s : 0.3s,-10.387336757864134,0.024277965907424717,0.42643921714242905,0.05441055371871087,0.307851642370224,-0.11713492125272751,0.14685587584972382,0.016885578632354736,0.0275098979473114,0.043801724910736084,-0.17002438906300138,1.4297273368430692,0.07453266554344677,0.9757901430130005,0.1692063808441162,-0.13857418298721313, 283, 217, 56, 255
1733261590675,6i,19.080493651723916,2.0s : 0.3s,-10.387336757864134,0.023519699852135187,0.46089140821150765,0.05180516233046017,0.3625495135784149,-0.11559952050447464,0.14706052839756012,0.021090924739837646,0.014048457145690918,0.0451839417219162,-0.16810818583837536,1.4280292321877779,0.07138046679075022,0.9758726358413696,0.16731750965118408,-0.14027686417102814, 283, 217, 56, 255
1733261590685,6i,19.080493651723916,2.0s : 0.3s,-10.387336757864134,0.02275067140114779,0.4981011083678422,0.044933444109092224,0.3980851471424103,-0.11096881330013275,0.14965684711933136,0.02431386709213257,0.019245877861976624,0.032518401741981506,-0.1660869342644927,1.4262969019934195,0.06777131341145018,0.9759606719017029,0.165324404835701,-0.14201557636260986, 283, 217, 56, 255
1733261590695,6i,19.080493651723916,2.0s : 0.3s,-10.387336757864134,0.02200342853008278,0.5362459134341173,0.03439717415309455,0.42718949913978577,-0.11525402218103409,0.15264472365379333,0.021754741668701172,0.007440358400344849,0.025583937764167786,-0.16399376904325363,1.424525919944194,0.0638587334096202,0.9760478734970093,0.16325968503952026,-0.14379388093948364, 283, 217, 56, 255
1733261590705,6i,19.080493651723916,2.0s : 0.3s,-10.387336757864134,0.021312980965483858,0.5716861813693276,0.03788012643713658,0.4462803900241852,-0.1213340163230896,0.15751777589321136,0.017391979694366455,-0.015935882925987244,0.029639005661010742,-0.16182867635639792,1.4226440949693553,0.05969964794532838,0.9761229753494263,0.16112326085567474,-0.145682230591774, 283, 217, 56, 255
1733261590715,6i,19.080493651723916,2.0s : 0.3s,-10.387336757864134,0.020688071720343825,0.6058977782248196,0.04850348229177567,0.468784362077713,-0.12493444234132767,0.16209740936756134,0.021056711673736572,-0.026929304003715515,0.034409523010253906,-0.15957898053675804,1.4207193285103996,0.0553699751171273,0.9761966466903687,0.15890255570411682,-0.14761458337306976, 283, 217, 56, 255
1733261590725,6i,19.080493651723916,2.0s : 0.3s,-10.387336757864134,0.02014522348591383,0.6464947187441779,0.044110387166449945,0.5092002153396606,-0.1337582767009735,0.16835211217403412,0.015539944171905518,-0.03044717013835907,0.027878418564796448,-0.15720778578367073,1.4186984668263225,0.05076600872484725,0.9762659668922424,0.15656103193759918,-0.1496436893939972, 283, 217, 56, 255
1733261590735,6i,19.080493651723916,2.0s : 0.3s,-10.387336757864134,0.01970288920491512,0.7096904789298109,0.03445538184851642,0.5994925498962402,-0.1421157270669937,0.1726122945547104,0.004999756813049316,-0.030573591589927673,0.015080824494361877,-0.15469444569467253,1.4165198642304564,0.045506882486737614,0.9763233661651611,0.15407820045948029,-0.15183021128177643, 283, 217, 56, 255
1733261590745,6i,19.080493651723916,2.0s : 0.3s,-10.387336757864134,0.01934948476750276,0.8094694731862871,0.013861348990948076,0.7472103834152222,-0.13169130682945251,0.18006755411624908,-0.0004737973213195801,-0.011252790689468384,-0.008080050349235535,-0.15191204274135386,1.414147225949799,0.03908107822887736,0.9763800501823425,0.1513284295797348,-0.15421253442764282, 283, 217, 56, 255
1733261590755,6i,19.080493651723916,2.0s : 0.3s,-10.387336757864134,0.01907578384550127,0.9438630444723028,0.03832644108232951,0.9160904884338379,-0.11539294570684433,0.1850069910287857,-0.008917927742004395,0.007632583379745483,-0.03648465871810913,-0.14879967072252354,1.4117145184730477,0.031080921016872907,0.9764624238014221,0.14825117588043213,-0.15666118264198303, 283, 217, 56, 255
1733261590765,6i,19.080493651723916,2.0s : 0.3s,-10.387336757864134,0.01897691289848861,1.1158126460514775,0.06322426166899275,1.1158661842346191,-0.09505731612443924,0.18925100564956665,-0.02289605140686035,0.02313120663166046,-0.05420355498790741,-0.14533333008201313,1.4092228033660519,0.021273561816117857,0.9765702486038208,0.14482225477695465,-0.15917545557022095, 283, 217, 56, 255
1733261590775,6i,19.080493651723916,2.0s : 0.3s,-10.387336757864134,0.019033126622117005,1.327178048345181,0.07418327359091383,1.3448065519332886,-0.07106059044599533,0.1996861696243286,-0.024276435375213623,0.02613292634487152,-0.06504523754119873,-0.141437154246916,1.4066985546063313,0.009362048145687592,0.9767147302627563,0.14096605777740479,-0.16173101961612701, 283, 217, 56, 255
1733261590785,6i,19.080493651723916,2.0s : 0.3s,-10.387336757864134,0.019255696649520506,1.5709505795937708,0.08196724161169311,1.5827580690383911,-0.0602838471531868,0.2106243073940277,-0.016971170902252197,0.027371123433113098,-0.0753752589225769,-0.13701282329216302,1.404036935538863,-0.004919639644061442,0.9768862724304199,0.1365845501422882,-0.16443200409412384, 283, 217, 56, 255
1733261590795,6i,19.080493651723916,2.0s : 0.3s,-10.387336757864134,0.01974155491220541,1.8109722953207472,0.09903128741213066,1.7531377077102661,-0.0165653508156538,0.2395731508731842,-0.009954392910003662,0.023116543889045715,-0.09577959775924683,-0.13200584750847436,1.401437780737061,-0.021175651554932607,0.9771174192428589,0.1316228061914444,-0.16708369553089142, 283, 217, 56, 255
1733261590805,6i,19.080493651723916,2.0s : 0.3s,-10.387336757864134,0.020382658298941075,2.030426826273682,0.07565288589341171,1.8766790628433228,-0.03670977056026459,0.26059773564338684,5.84721565246582e-05,-0.017245471477508545,-0.07366104423999786,-0.12642290042461285,1.3989308663329771,-0.03877681603744518,0.9774043560028076,0.12608639895915985,-0.16965575516223907, 283, 217, 56, 255
1733261590815,6i,19.080493651723916,2.0s : 0.3s,-10.387336757864134,0.021245399029407468,2.266343902221428,0.08498827086977082,2.083359956741333,-0.05291496962308884,0.25287535786628723,0.015094995498657227,-0.06490594893693924,-0.05274812877178192,-0.12049515086359253,1.396116441752376,-0.05787531297150312,0.9776417016983032,0.12020378559827805,-0.17253275215625763, 283, 217, 56, 255
1733261590825,6i,19.080493651723916,2.0s : 0.3s,-10.387336757864134,0.022222482204153998,2.515996963757926,0.08190252467862846,2.2967536449432373,-0.021736808121204376,0.24394789338111877,0.03774327039718628,-0.05718901753425598,-0.044865190982818604,-0.11418437620510433,1.3932272992452626,-0.07865603688919212,0.9778664112091064,0.1139364168047905,-0.17548708617687225, 283, 217, 56, 255
1733261590835,6i,19.080493651723916,2.0s : 0.3s,-10.387336757864134,0.02344911230334782,2.681124694615537,0.13055736118422093,2.2770943641662598,-0.018118683248758316,0.20061883330345154,0.06282126903533936,-0.002841271460056305,-0.11441433429718018,-0.1079089457704443,1.3906073860482846,-0.10043511911699754,0.9780874848365784,0.10769964754581451,-0.1781730353832245, 283, 217, 56, 255
1733261590845,6i,19.080493651723916,2.0s : 0.3s,-10.387336757864134,0.024990467793125856,2.781990613304182,0.157200303112773,2.244424819946289,-0.032729584723711014,0.1508163958787918,0.0637940764427185,0.01565644145011902,-0.14281851053237915,-0.10210509161768916,1.38805981669218,-0.12199483409489394,0.9782285690307617,0.10192777216434479,-0.1807747483253479, 283, 217, 56, 255
1733261590855,6i,19.080493651723916,2.0s : 0.3s,-10.387336757864134,0.026614458012413963,2.8490887857216034,0.11934702704169921,2.2387022972106934,-0.03702078014612198,0.1042477935552597,0.05290186405181885,0.02493184804916382,-0.10403609275817871,-0.09675527972783905,1.3855130730282006,-0.14339707583409547,0.9782870411872864,0.09660438448190689,-0.18336330354213715, 283, 217, 56, 255
1733261590865,6i,19.080493651723916,2.0s : 0.3s,-10.387336757864134,0.027906945451972642,2.944108344119828,0.1580702887068047,2.3615336418151855,-0.008155309595167637,0.04589953273534775,0.05115610361099243,0.11964516341686249,-0.08974577486515045,-0.09175671896881245,1.3832075691567542,-0.16588949767710573,0.9783239364624023,0.09162801504135132,-0.1857060045003891, 283, 217, 56, 255
1733261590875,6i,19.080493651723916,2.0s : 0.3s,-10.387336757864134,0.028593303580582374,3.044624959608513,0.2923698126136608,2.446481466293335,0.03208083659410477,0.004614643752574921,0.03589695692062378,0.2793281674385071,-0.07853209972381592,-0.08702304024942072,1.3812313877093614,-0.18924975505045305,0.978369951248169,0.08691324293613434,-0.18771860003471375, 283, 217, 56, 255
1733261590885,6i,19.080493651723916,2.0s : 0.3s,-10.387336757864134,0.028825904976397962,3.096322386808521,0.3878934121288973,2.3988075256347656,0.07271482050418854,-0.021714165806770325,-0.001595616340637207,0.38588932156562805,-0.039346978068351746,-0.08249641657388114,1.379729781189521,-0.21290536807930557,0.9784631729125977,0.08240287750959396,-0.18926027417182922, 283, 217, 56, 255
1733261590895,6i,19.080493651723916,2.0s : 0.3s,-10.387336757864134,0.029225350007878497,3.098181799936178,0.4293455305154938,2.3224971294403076,0.08587296307086945,-0.07117905467748642,-0.057415664196014404,0.4254801571369171,-0.0027680248022079468,-0.07843013272290199,1.3786200963290227,-0.23588609792839688,0.9785733819007874,0.07834974676370621,-0.1904083788394928, 283, 217, 56, 255
1733261590905,6i,19.080493651723916,2.0s : 0.3s,-10.387336757864134,0.030510161850957927,3.079498895805647,0.4709782976037673,2.2612247467041016,0.1002630889415741,-0.15397433936595917,-0.11320805549621582,0.45618736743927,0.02995961904525757,-0.07513325747224914,1.377752146532317,-0.2584808849449635,0.978655993938446,0.0750625878572464,-0.19130617380142212, 283, 217, 56, 255
1733261590915,6i,19.080493651723916,2.0s : 0.3s,-10.387336757864134,0.03370137321403946,3.0783311971863667,0.5625551458510734,2.2811198234558105,0.12122952938079834,-0.2496452033519745,-0.16555756330490112,0.5370993614196777,0.024150803685188293,-0.07276707043103538,1.3771579431446856,-0.280993293974967,0.9787136316299438,0.07270286977291107,-0.19192129373550415, 283, 217, 56, 255
1733261590925,6i,19.080493651723916,2.0s : 0.3s,-10.387336757864134,0.03980126667785465,3.099303773291566,0.6918954791493507,2.3285014629364014,0.17140188813209534,-0.3727908432483673,-0.2308899164199829,0.65220046043396,0.006615132093429565,-0.0713708128512776,1.376931657828596,-0.30421534751520724,0.9787687659263611,0.07131023705005646,-0.19216211140155792, 283, 217, 56, 255
1733261590935,6i,19.080493651723916,2.0s : 0.3s,-10.387336757864134,0.04929434232973543,3.1313013678139794,0.8079920618263975,2.345529794692993,0.2112703025341034,-0.5183059573173523,-0.2976239323616028,0.7508841753005981,-0.02107420563697815,-0.07124330235200164,1.3771617821160034,-0.3280122281013625,0.9788221120834351,0.07118304818868637,-0.19193865358829498, 283, 217, 56, 255
1733261590945,6i,19.080493651723916,2.0s : 0.3s,-10.387336757864134,0.06165846530664406,3.1585939752673475,0.863379337777912,2.3239901065826416,0.20699620246887207,-0.6637973785400391,-0.3465423583984375,0.7907637357711792,-0.004998892545700073,-0.07255054629576559,1.3775563193659133,-0.35212255806977455,0.9788056015968323,0.07248691469430923,-0.19153442978858948, 283, 217, 56, 255
1733261590955,6i,19.080493651723916,2.0s : 0.3s,-10.387336757864134,0.07612763259904551,3.1946425353164387,0.8707744790732297,2.3212027549743652,0.18534225225448608,-0.8266416788101196,-0.37488287687301636,0.7859151363372803,-0.006958484649658203,-0.0754081239737784,1.377708571220009,-0.3763857223206104,0.9786273837089539,0.07533667981624603,-0.19134485721588135, 283, 217, 56, 255
1733261590965,6i,19.080493651723916,2.0s : 0.3s,-10.387336757864134,0.09241409478483086,3.2443549516910895,0.9228903305093833,2.3152835369110107,0.16937261819839478,-1.0273984670639038,-0.4001232981681824,0.8314235806465149,-0.01904568076133728,-0.08005405672190619,1.3775776907000168,-0.40099429343749876,0.9782483577728271,0.07996857911348343,-0.19140367209911346, 283, 217, 56, 255
1733261590975,6i,19.080493651723916,2.0s : 0.3s,-10.387336757864134,0.11064142582411296,3.355181653033401,1.02093498367389,2.421957492828369,0.14399951696395874,-1.246584415435791,-0.4210208058357239,0.9293428659439087,-0.037034571170806885,-0.08666520303468864,1.3770156979137325,-0.42630688714135206,0.9776003360748291,0.08655675500631332,-0.19184739887714386, 283, 217, 56, 255
1733261590985,6i,19.080493651723916,2.0s : 0.3s,-10.387336757864134,0.13075535970744656,3.5128197018647285,1.0999290074685415,2.5233755111694336,0.15146754682064056,-1.4701908826828003,-0.4267701506614685,1.012963891029358,-0.04018974304199219,-0.09522738085267746,1.3760466143780141,-0.4533580618998428,0.9766510725021362,0.09508351981639862,-0.19264419376850128, 283, 217, 56, 255
1733261590995,6i,19.080493651723916,2.0s : 0.3s,-10.387336757864134,0.152621974596343,3.688120819854832,1.1633119804249112,2.573517084121704,0.1464354246854782,-1.694916009902954,-0.4347681403160095,1.0778604745864868,-0.04988211393356323,-0.1057931255126959,1.3747287989026389,-0.4817483560899068,0.9753564596176147,0.1055958941578865,-0.19372454285621643, 283, 217, 56, 255
1733261591005,6i,19.080493651723916,2.0s : 0.3s,-10.387336757864134,0.1758681270841829,3.824570272571151,1.1858461914061427,2.4875502586364746,0.09213250130414963,-1.8860512971878052,-0.44602757692337036,1.0973522663116455,-0.05575476586818695,-0.11840874436982103,1.3727364159767115,-0.5104171903121787,0.9735848307609558,0.11813224107027054,-0.1953897327184677, 283, 217, 56, 255
1733261591015,6i,19.080493651723916,2.0s : 0.3s,-10.387336757864134,0.19974859651861743,3.93500658381655,1.1368663340201772,2.386960983276367,0.03240228071808815,-2.077369213104248,-0.42939668893814087,1.051528811454773,-0.04868987202644348,-0.13300600845997096,1.3698369621672295,-0.5385122560172805,0.9712210893630981,0.13261419534683228,-0.19784648716449738, 283, 217, 56, 255
1733261591025,6i,19.080493651723916,2.0s : 0.3s,-10.387336757864134,0.22368771665958995,4.0698015855400955,1.0862616299612846,2.3792929649353027,-0.01681213639676571,-2.293463945388794,-0.39627254009246826,1.0113980770111084,0.002516448497772217,-0.149605449182999,1.365954464439842,-0.566574484950896,0.968156635761261,0.14904800057411194,-0.20114019513130188, 283, 217, 56, 255
1733261591035,6i,19.080493651723916,2.0s : 0.3s,-10.387336757864134,0.2479406144274593,4.264391481471973,1.1278819134746643,2.4813194274902344,-0.03401154279708862,-2.529050350189209,-0.3780466914176941,1.0625765323638916,0.011376410722732544,-0.16821128837753022,1.3611007074191157,-0.5959456084205197,0.9642891883850098,0.16741915047168732,-0.20522412657737732, 283, 217, 56, 255
1733261591045,6i,19.080493651723916,2.0s : 0.3s,-10.387336757864134,0.27299047862674364,4.47348117589777,1.2071938356915608,2.506044626235962,-0.06451938301324844,-2.7493419647216797,-0.35342472791671753,1.1530840396881104,-0.05296334624290466,-0.18874813840858204,1.3552177558267056,-0.6266937436846947,0.9595038890838623,0.18762941658496857,-0.2101135551929474, 283, 217, 56, 255
1733261591055,6i,19.080493651723916,2.0s : 0.3s,-10.387336757864134,0.298530843563412,4.672427339661334,1.1991905245359726,2.469416379928589,-0.1307544708251953,-2.953152894973755,-0.3159306049346924,1.1550883054733276,-0.06337802112102509,-0.21117805907567477,1.3480404433939657,-0.6582600228175614,0.9536257982254028,0.2096119374036789,-0.2160104662179947, 283, 217, 56, 255
1733261591065,6i,19.080493651723916,2.0s : 0.3s,-10.387336757864134,0.3240539213950267,4.836118894324207,1.1380968035183048,2.338913917541504,-0.2284109890460968,-3.135751247406006,-0.2592334747314453,1.106889247894287,-0.05346524715423584,-0.23541274324026604,1.339418714506302,-0.689619807375949,0.9465045928955078,0.23324435949325562,-0.2229936122894287, 283, 217, 56, 255
1733261591075,6i,19.080493651723916,2.0s : 0.3s,-10.387336757864134,0.34914382051953463,5.019395274636873,1.1008265116145368,2.33009672164917,-0.30577561259269714,-3.341071367263794,-0.1689838171005249,1.0874491930007935,-0.026790499687194824,-0.2614828258704557,1.3290604712661678,-0.7212291807591599,0.9379199147224426,0.2585132420063019,-0.23125100135803223, 283, 217, 56, 255
1733261591085,6i,19.080493651723916,2.0s : 0.3s,-10.387336757864134,0.3741562746612097,5.223090786639386,1.1237215849936624,2.359694480895996,-0.3799334764480591,-3.53281307220459,-0.08013689517974854,1.1206663846969604,-0.020859837532043457,-0.28904209896884947,1.3168566518706233,-0.7539999881355093,0.9277778267860413,0.2850341796875,-0.2407979816198349, 283, 217, 56, 255
1733261591095,6i,19.080493651723916,2.0s : 0.3s,-10.387336757864134,0.3990668069132311,5.4520814803777276,1.1565309213022825,2.405888557434082,-0.4388915002346039,-3.747546672821045,-0.004534780979156494,1.155900001525879,-0.037926167249679565,-0.31807954612392086,1.3025989768949517,-0.7885346431465091,0.9158810973167419,0.31274300813674927,-0.2517009675502777, 283, 217, 56, 255
1733261591105,6i,19.080493651723916,2.0s : 0.3s,-10.387336757864134,0.4238101232161029,5.690827737423299,1.1650835094174596,2.4194629192352295,-0.4965643882751465,-3.960771322250366,0.06061506271362305,1.1609411239624023,-0.07720819115638733,-0.34857746782897175,1.286231072419681,-0.8247750597409691,0.9020618200302124,0.3415611684322357,-0.26385632157325745, 283, 217, 56, 255
1733261591115,6i,19.080493651723916,2.0s : 0.3s,-10.387336757864134,0.4483071004871414,5.922137774997791,1.1719458699573047,2.4126205444335938,-0.5931360125541687,-4.137908458709717,0.1418015956878662,1.1611055135726929,-0.07199594378471375,-0.3803802435664677,1.2674787544370953,-0.8626039578061339,0.8861371874809265,0.37127354741096497,-0.27733880281448364, 283, 217, 56, 255
1733261591125,6i,19.080493651723916,2.0s : 0.3s,-10.387336757864134,0.47243424556330316,6.121735444986563,1.1843873430057734,2.3207311630249023,-0.7043898701667786,-4.284230709075928,0.25440579652786255,1.1562154293060303,-0.03488481044769287,-0.4131300192163818,1.2461105625077467,-0.9016889669087151,0.868015468120575,0.40147796273231506,-0.2921721637248993, 283, 217, 56, 255
1733261591135,6i,19.080493651723916,2.0s : 0.3s,-10.387336757864134,0.4960997138291639,6.319030611212961,1.2096628351085381,2.238112449645996,-0.8429043292999268,-4.469913959503174,0.38769060373306274,1.145430088043213,-0.03114616870880127,-0.4469382673056285,1.2219130266923797,-0.9416512297076577,0.8474473357200623,0.43220657110214233,-0.3082704246044159, 283, 217, 56, 255
1733261591145,6i,19.080493651723916,2.0s : 0.3s,-10.387336757864134,0.5192327356224979,6.511042894324629,1.2366818173660128,2.2064974308013916,-0.9525429606437683,-4.612067699432373,0.5129212737083435,1.1251838207244873,-0.01597040891647339,-0.4815795819319272,1.1943999878761697,-0.9835130335380275,0.824221670627594,0.46317967772483826,-0.3257654905319214, 283, 217, 56, 255
1733261591155,6i,19.080493651723916,2.0s : 0.3s,-10.387336757864134,0.5419470395374594,6.700149679907452,1.286275867813652,2.2020645141601562,-1.0243109464645386,-4.746870040893555,0.6322152614593506,1.120182752609253,-0.0002684295177459717,-0.5166652760786504,1.1634930915846946,-1.0277342272147079,0.7983419299125671,0.4939834475517273,-0.3444276452064514, 283, 217, 56, 255
1733261591165,6i,19.080493651723916,2.0s : 0.3s,-10.387336757864134,0.564527435523987,6.881871843497697,1.3546791936197298,2.202104330062866,-1.1117279529571533,-4.86195182800293,0.740337610244751,1.1344845294952393,0.0008904039859771729,-0.5514250241828511,1.1292020156581186,-1.0748266840105627,0.7700687646865845,0.5239015817642212,-0.36403435468673706, 283, 217, 56, 255
1733261591175,6i,19.080493651723916,2.0s : 0.3s,-10.387336757864134,0.5869691664057968,7.045989595137754,1.376103380635118,2.1880922317504883,-1.209972620010376,-4.946418762207031,0.8198049664497375,1.1052508354187012,0.0009602010250091553,-0.5856101621285651,1.0910776007722147,-1.1246432478349457,0.7393075227737427,0.5527079701423645,-0.38462722301483154, 283, 217, 56, 255
1733261591185,6i,19.080493651723916,2.0s : 0.3s,-10.387336757864134,0.6091117480991557,7.195791629891539,1.406182125565292,2.1917810440063477,-1.2935562133789062,-5.019144058227539,0.9280831813812256,1.0555579662322998,0.04251068830490112,-0.6188423048953131,1.048910014146355,-1.177660648303772,0.7061178684234619,0.5800925493240356,-0.4060666561126709, 283, 217, 56, 255
1733261591195,6i,19.080493651723916,2.0s : 0.3s,-10.387336757864134,0.631012092512935,7.3333742751934725,1.4504620302016114,2.1647307872772217,-1.3752906322479248,-5.099896430969238,1.0284498929977417,1.0210342407226562,0.06016641855239868,-0.6508052491112462,1.0024913890886418,-1.2340378911122512,0.6705399751663208,0.605827271938324,-0.42819321155548096, 283, 217, 56, 255
1733261591205,6i,19.080493651723916,2.0s : 0.3s,-10.387336757864134,0.6527750528868888,7.477448685713842,1.477443287978289,2.23769474029541,-1.4608500003814697,-5.175917148590088,1.1010076999664307,0.9846152067184448,0.03396481275558472,-0.6811715680902247,0.9514473448032956,-1.2944253917400603,0.6325434446334839,0.6297035813331604,-0.4509570598602295, 283, 217, 56, 255
1733261591215,6i,19.080493651723916,2.0s : 0.3s,-10.387336757864134,0.6745104754377731,7.607436123598988,1.512229562160912,2.2499101161956787,-1.556644320487976,-5.224515438079834,1.1757800579071045,0.9508783221244812,0.014488637447357178,-0.709047733406096,0.8951594524116844,-1.3595084915723263,0.5922405123710632,0.6511113047599792,-0.47466325759887695, 283, 217, 56, 255
1733261591225,6i,19.080493651723916,2.0s : 0.3s,-10.387336757864134,0.6961828852123307,7.712685703376348,1.5524082009094653,2.17016863822937,-1.6501511335372925,-5.270916938781738,1.2675542831420898,0.8960893154144287,-0.017358005046844482,-0.7346767925503297,0.8343477269294041,-1.4280382042815627,0.5497521758079529,0.6703473329544067,-0.4984043836593628, 283, 217, 56, 255
1733261591235,6i,19.080493651723916,2.0s : 0.3s,-10.387336757864134,0.7178745992853287,7.790795087455943,1.5866428641996748,2.1192545890808105,-1.7387707233428955,-5.276068687438965,1.337951898574829,0.8524651527404785,-0.024969160556793213,-0.7576591528523368,0.7691838292589178,-1.4999074503883372,0.5052793025970459,0.6872228384017944,-0.5219363570213318, 283, 217, 56, 255
1733261591245,6i,19.080493651723916,2.0s : 0.3s,-10.387336757864134,0.7395504534037108,7.837462605293266,1.605719365468967,1.9931292533874512,-1.8604021072387695,-5.264981269836426,1.395197868347168,0.7948289513587952,-0.0021276473999023438,-0.7777266625605654,0.7001265165995115,-1.573437677230129,0.4590807855129242,0.7016614675521851,-0.5449000000953674, 283, 217, 56, 255
1733261591255,6i,19.080493651723916,2.0s : 0.3s,-10.387336757864134,0.7611610360011222,7.861975732463077,1.6187242580681904,1.8736592531204224,-1.9641588926315308,-5.250561237335205,1.4437730312347412,0.7316858768463135,0.020577549934387207,-0.7949230043064728,0.6275119640346366,-1.6489419698559369,0.4111922085285187,0.7138096690177917,-0.5669185519218445, 283, 217, 56, 255
1733261591265,6i,19.080493651723916,2.0s : 0.3s,-10.387336757864134,0.7828027334336762,7.862318633487026,1.613351104722209,1.7959295511245728,-2.0111024379730225,-5.215573787689209,1.4586831331253052,0.6892251372337341,0.010677754878997803,-0.8088067651748924,0.5520884798237574,-1.7261700343144415,0.36207184195518494,0.7234639525413513,-0.5877957344055176, 283, 217, 56, 255
1733261591275,6i,19.080493651723916,2.0s : 0.3s,-10.387336757864134,0.8047482046401263,7.860859393998685,1.6104199493533151,1.756821632385254,-2.049912691116333,-5.200112819671631,1.4586892127990723,0.682120680809021,-0.019737541675567627,-0.818930568055052,0.4745301575524252,-1.8048908259887497,0.31207796931266785,0.7304158210754395,-0.6075359582901001, 283, 217, 56, 255
1733261591285,6i,19.080493651723916,2.0s : 0.3s,-10.387336757864134,0.827394709027015,7.862058021209734,1.600751600794841,1.7925000190734863,-2.0994293689727783,-5.187786102294922,1.441828966140747,0.6915073990821838,-0.07316035032272339,-0.824776090397908,0.39506743650406373,-1.88500859061448,0.2612197697162628,0.7343958020210266,-0.6264398694038391, 283, 217, 56, 255
1733261591295,6i,19.080493651723916,2.0s : 0.3s,-10.387336757864134,0.8508121103928286,7.864663300493929,1.5886177547973954,1.7486213445663452,-2.18223237991333,-5.17639684677124,1.4216395616531372,0.6946138739585876,-0.14198201894760132,-0.8260677570184211,0.31426255030391076,-1.9657819097949842,0.2095097303390503,0.7352718710899353,-0.6445780992507935, 283, 217, 56, 255
1733261591305,6i,19.080493651723916,2.0s : 0.3s,-10.387336757864134,0.874891784938617,7.87256943701638,1.5878574579274485,1.6495224237442017,-2.269719123840332,-5.186216831207275,1.434938907623291,0.6640337109565735,-0.14594817161560059,-0.8238888188784793,0.23301178587907628,-2.046009056440457,0.15687325596809387,0.733793318271637,-0.6610129475593567, 283, 217, 56, 255
1733261591315,6i,19.080493651723916,2.0s : 0.3s,-10.387336757864134,0.8996258523168627,7.891738840699226,1.6355756775231156,1.6673879623413086,-2.3667216300964355,-5.1685709953308105,1.4768552780151367,0.695185124874115,-0.10355639457702637,-0.8175199423298207,0.15193350120354607,-2.125121340032596,0.10352805256843567,0.7294516563415527,-0.6761525273323059, 283, 217, 56, 255
1733261591325,6i,19.080493651723916,2.0s : 0.3s,-10.387336757864134,0.9253458955683125,7.894464658671278,1.6851185186294189,1.6334614753723145,-2.412198305130005,-5.1350884437561035,1.509293794631958,0.7299952507019043,-0.16959834098815918,-0.8068437765832538,0.0719670960045269,-2.202289616537628,0.04974250867962837,0.7221073508262634,-0.6899903416633606, 283, 217, 56, 255
1733261591335,6i,19.080493651723916,2.0s : 0.3s,-10.387336757864134,0.9520842197289091,7.909193725633637,1.6957637075521148,1.5972402095794678,-2.488982677459717,-5.1371917724609375,1.5108989477157593,0.750227153301239,-0.17308419942855835,-0.7923744172674391,-0.005829956580134111,-2.2766782859949086,-0.004093519411981106,0.7120224833488464,-0.7021446824073792, 283, 217, 56, 255
1733261591345,6i,19.080493651723916,2.0s : 0.3s,-10.387336757864134,0.9796272930454548,7.925541628595468,1.6800575114318335,1.546636939048767,-2.588700294494629,-5.120339393615723,1.495806336402893,0.7459378838539124,-0.16950905323028564,-0.7744792978021907,-0.0816624088121017,-2.3480823977756753,-0.05830623209476471,0.6993439793586731,-0.7124032378196716, 283, 217, 56, 255
1733261591355,6i,19.080493651723916,2.0s : 0.3s,-10.387336757864134,1.007786922397033,7.93501792824552,1.673595934721325,1.482966423034668,-2.64608097076416,-5.107791900634766,1.4900827407836914,0.7300127148628235,-0.21830761432647705,-0.7533419641149877,-0.1547739062834897,-2.4158995261296923,-0.11244295537471771,0.6840802431106567,-0.720687747001648, 283, 217, 56, 255
1733261591365,6i,19.080493651723916,2.0s : 0.3s,-10.387336757864134,1.0366405422886211,7.939528620930847,1.6896455962773689,1.3929105997085571,-2.692279815673828,-5.108108043670654,1.4928197860717773,0.7474850416183472,-0.26011043787002563,-0.7295874925288993,-0.22499679947985948,-2.480290798185089,-0.16631218791007996,0.6665621995925903,-0.7266602516174316, 283, 217, 56, 255
1733261591375,6i,19.080493651723916,2.0s : 0.3s,-10.387336757864134,1.066052502084625,7.940648789577454,1.6715950084261713,1.4673986434936523,-2.684025526046753,-5.078360557556152,1.4683977365493774,0.7599912285804749,-0.24586844444274902,-0.703151510721321,-0.291895171098892,-2.5408570829554478,-0.21951156854629517,0.6466248631477356,-0.7305415272712708, 283, 217, 56, 255
1733261591385,6i,19.080493651723916,2.0s : 0.3s,-10.387336757864134,1.0959938053106417,7.941705882231929,1.680493440042062,1.6138557195663452,-2.7380428314208984,-5.006385803222656,1.4794650077819824,0.7652138471603394,-0.22291088104248047,-0.6723968832618155,-0.3530653320623378,-2.595916664750647,-0.27051103115081787,0.6228629350662231,-0.734074592590332, 283, 217, 56, 255
1733261591395,6i,19.080493651723916,2.0s : 0.3s,-10.387336757864134,1.128222072142172,8.057849309967251,1.8971647129678046,1.9556375741958618,-2.7684483528137207,-5.206963539123535,1.565671443939209,0.9941877722740173,-0.3993714451789856,-0.6362973896067161,-0.41181824821571206,-2.6471755798054972,-0.3219427168369293,0.5942215323448181,-0.7370573878288269, 283, 217, 56, 255
1733261591405,6i,19.080493651723916,2.0s : 0.3s,-10.387336757864134,1.1619192687788724,8.12048227292652,1.8482537308005582,1.5266660451889038,-2.9283740520477295,-5.206971645355225,1.4355636835098267,1.015150785446167,-0.5697961449623108,-0.5978692920345168,-0.4683894728078767,-2.6956166842714464,-0.3731398582458496,0.562882661819458,-0.737515926361084, 283, 217, 56, 255
1733261591415,6i,19.080493651723916,2.0s : 0.3s,-10.387336757864134,1.1942004831296789,8.136330573664862,1.5604788756692216,1.3651398420333862,-3.1112396717071533,-5.071541786193848,1.4223339557647705,0.6284769773483276,-0.13067948818206787,-0.5609423477785007,-0.5239032366331375,-2.7418432991815993,-0.42360034584999084,0.5319843888282776,-0.7331817150115967, 283, 217, 56, 255
1733261591425,6i,19.080493651723916,2.0s : 0.3s,-10.387336757864134,1.2265653484917802,8.073521289310285,1.6938625488854164,1.1698064804077148,-3.15667986869812,-4.874938488006592,1.568751335144043,0.6388219594955444,-0.009802401065826416,-0.5240068915242898,-0.5768524500688538,-2.7833554921443904,-0.4722089171409607,0.5003533959388733,-0.7257170677185059, 283, 217, 56, 255
1733261591435,6i,19.080493651723916,2.0s : 0.3s,-10.387336757864134,1.25904354654682,7.960566460119533,1.7745975860431933,1.0295552015304565,-3.0595810413360596,-4.754794597625732,1.6223548650741577,0.6565881371498108,-0.29334843158721924,-0.48782050242957764,-0.6265002076158352,-2.821721854957859,-0.5179235935211182,0.46870172023773193,-0.7155933380126953, 283, 217, 56, 255
1733261591445,6i,19.080493651723916,2.0s : 0.3s,-10.387336757864134,1.290701673610982,7.83027877633961,1.6244452007699375,0.9820653200149536,-3.0411953926086426,-4.618076324462891,1.5212771892547607,0.5574327707290649,-0.11750161647796631,-0.4514100421898628,-0.6727717063901469,-2.8566901433791263,-0.560736358165741,0.4362347722053528,-0.7037570476531982, 283, 217, 56, 255
1733261591455,6i,19.080493651723916,2.0s : 0.3s,-10.387336757864134,1.320849268321844,7.686934140063578,1.504675241554041,0.933979332447052,-3.024590015411377,-4.478845119476318,1.4386361837387085,0.4278331696987152,-0.10645323991775513,-0.41493445680221475,-0.7165011083155836,-2.8884678581460936,-0.601020097732544,0.4031299352645874,-0.6901166439056396, 283, 217, 56, 255
1733261591465,6i,19.080493651723916,2.0s : 0.3s,-10.387336757864134,1.3504797754460567,7.53200621619707,1.5912650983946448,0.9205929040908813,-2.99556040763855,-4.3323822021484375,1.5274250507354736,0.4148346483707428,-0.16434580087661743,-0.3784682838199632,-0.7576306292604404,-2.9170513153426287,-0.6385699510574341,0.3694975972175598,-0.6750554442405701, 283, 217, 56, 255
1733261591475,6i,19.080493651723916,2.0s : 0.3s,-10.387336757864134,1.3801493557750462,7.384733547324759,1.6394576378556385,0.9150441288948059,-2.9767088890075684,-4.225721836090088,1.586242437362671,0.40612518787384033,-0.08196711540222168,-0.3419553726071852,-0.7966194518160761,-2.942838139542042,-0.6735990047454834,0.33532989025115967,-0.6586488485336304, 283, 217, 56, 255
1733261591485,6i,19.080493651723916,2.0s : 0.3s,-10.387336757864134,1.4098435893916872,7.224297187772564,1.6341280303837287,0.963146448135376,-2.9165072441101074,-4.078637599945068,1.5987164974212646,0.3338313400745392,-0.055105507373809814,-0.3053041436019509,-0.8333924874601111,-2.9656944265847116,-0.7059857249259949,0.30058327317237854,-0.6412751078605652, 283, 217, 56, 255
1733261591495,6i,19.080493651723916,2.0s : 0.3s,-10.387336757864134,1.4394567599786914,7.041854957423683,1.631310619742376,1.121433973312378,-2.8170840740203857,-3.89251446723938,1.6113498210906982,0.25148284435272217,-0.03850287199020386,-0.2684852870293598,-0.8675475782137536,-2.984983095418173,-0.735418975353241,0.26527130603790283,-0.6235302686691284, 283, 217, 56, 255
1733261591505,6i,19.080493651723916,2.0s : 0.3s,-10.387336757864134,1.4689126370335184,6.839726271155662,1.6114041789512898,1.2197391986846924,-2.7354769706726074,-3.6900956630706787,1.598975419998169,0.1996021568775177,-0.0077468156814575195,-0.23174204203573276,-0.8991092398919546,-3.000408657462582,-0.7618476152420044,0.2296733409166336,-0.6056718230247498, 283, 217, 56, 255
1733261591515,6i,19.080493651723916,2.0s : 0.3s,-10.387336757864134,1.498026000600778,6.602426206686155,1.6145472085842105,1.2676624059677124,-2.6521120071411133,-3.430084705352783,1.6104885339736938,0.06378726661205292,0.09497660398483276,-0.19594814674578984,-0.9286310306223905,-3.0125535730721853,-0.7854762673377991,0.19469662010669708,-0.5874693989753723, 283, 217, 56, 255
1733261591525,6i,19.080493651723916,2.0s : 0.3s,-10.387336757864134,1.525013440628172,6.341199082641896,1.6439384807621973,1.2495648860931396,-2.5820956230163574,-3.1776750087738037,1.6251864433288574,-0.1269274801015854,0.2125844955444336,-0.16179691917846395,-0.9564732787667706,-3.022046752414393,-0.8064911961555481,0.1610919088125229,-0.5688772797584534, 283, 217, 56, 255
1733261591535,6i,19.080493651723916,2.0s : 0.3s,-10.387336757864134,1.5496067942215355,6.077567797044112,1.6843398399596798,1.2923834323883057,-2.5172858238220215,-2.9438161849975586,1.6276588439941406,-0.2812991142272949,0.3295423984527588,-0.12934624587850807,-0.9828354998215657,-3.028805987294805,-0.8251227140426636,0.12898588180541992,-0.5500320196151733, 283, 217, 56, 255
1733261591545,6i,19.080493651723916,2.0s : 0.3s,-10.387336757864134,1.5718546730386638,5.782260417951326,1.7161714234507146,1.2940382957458496,-2.412694215774536,-2.650820732116699,1.6031215190887451,-0.4254819452762604,0.44069361686706543,-0.09881467875640086,-1.0079831373237225,-3.03311805717124,-0.8416317105293274,0.09865394979715347,-0.530964732170105, 283, 217, 56, 255
1733261591555,6i,19.080493651723916,2.0s : 0.3s,-10.387336757864134,1.591842027658335,5.449364610802569,1.7442413655729827,1.2623822689056396,-2.264237880706787,-2.3488571643829346,1.5595167875289917,-0.5487642288208008,0.5560064315795898,-0.07079601115568658,-1.031555375329693,-3.0353723045766645,-0.8559491634368896,0.07073688507080078,-0.5121985673904419, 283, 217, 56, 255
1733261591565,6i,19.080493651723916,2.0s : 0.3s,-10.387336757864134,1.609490647451693,5.055369341429822,1.8464261965024404,1.147382140159607,-2.072876214981079,-1.9959204196929932,1.5265367031097412,-0.7089987993240356,0.7591416835784912,-0.04592902815526114,-1.0533129611951644,-3.035954657242031,-0.8681503534317017,0.04591288045048714,-0.4941728711128235, 283, 217, 56, 255
1733261591575,6i,19.080493651723916,2.0s : 0.3s,-10.387336757864134,1.6247387562129023,4.605567835341344,1.9355106274746012,1.046101450920105,-1.8018391132354736,-1.6602643728256226,1.4793181419372559,-0.8775871992111206,0.8875020742416382,-0.024653913982104935,-1.072704075929759,-3.0352773918423948,-0.8782286047935486,0.024651415646076202,-0.47760525345802307, 283, 217, 56, 255
1733261591585,6i,19.080493651723916,2.0s : 0.3s,-10.387336757864134,1.6378697763954804,4.0992581493287314,2.0350573726586254,0.9704622626304626,-1.4859660863876343,-1.2884905338287354,1.434488296508789,-0.9891049861907959,1.0513672828674316,-0.0068815560198674025,-1.0891102168620843,-3.0333171726049644,-0.8861940503120422,0.006881501525640488,-0.4632631242275238, 283, 217, 56, 255
1733261591595,6i,19.080493651723916,2.0s : 0.3s,-10.387336757864134,1.6490941419479987,3.5420745854380846,2.096896571724798,0.9043147563934326,-1.1459449529647827,-0.882668673992157,1.361380934715271,-1.0827962160110474,1.1709694862365723,0.00704760988002942,-1.1022840292104654,-3.0299648387115403,-0.8922188878059387,-0.007047551684081554,-0.45154815912246704, 283, 217, 56, 255
1733261591605,6i,19.080493651723916,2.0s : 0.3s,-10.387336757864134,1.6588038627181754,2.9588465081006006,2.171265477117538,0.9832812547683716,-0.7309523820877075,-0.46259307861328125,1.3194383382797241,-1.1658811569213867,1.2705106735229492,0.01724035998551963,-1.111785093955502,-3.0246331292353212,-0.8963578343391418,-0.017239505425095558,-0.4429960548877716, 283, 217, 56, 255
1733261591615,6i,19.080493651723916,2.0s : 0.3s,-10.387336757864134,1.6674727368621807,2.362997479523421,2.2464698375118504,1.0918813943862915,-0.24250167608261108,0.020093902945518494,1.2908296585083008,-1.2295352220535278,1.3669779300689697,0.023747673065712228,-1.1167342411924361,-3.0162825130186572,-0.8984193801879883,-0.023745441809296608,-0.438495934009552, 283, 217, 56, 255
1733261591625,6i,19.080493651723916,2.0s : 0.3s,-10.387336757864134,1.675622977666101,1.814610202589832,2.3327565421858574,1.1539223194122314,0.3158377707004547,0.5455433130264282,1.2897679805755615,-1.2920854091644287,1.4521594047546387,0.02615488911966037,-1.1166631324972986,-3.0049472014300123,-0.898334264755249,-0.026151906698942184,-0.4385335147380829, 283, 217, 56, 255
1733261591635,6i,19.080493651723916,2.0s : 0.3s,-10.387336757864134,1.6837055876666436,1.5164990603553772,2.5043989007203975,1.1969836950302124,0.9101998209953308,1.0878231525421143,1.3286092281341553,-1.4014408588409424,1.5946080684661865,0.024007011314279358,-1.1108977391238373,-2.990763541539558,-0.8958393335342407,-0.024004705250263214,-0.44372934103012085, 283, 217, 56, 255
1733261591645,6i,19.080493651723916,2.0s : 0.3s,-10.387336757864134,1.6923540486734798,1.7244846816081663,2.71268502247015,1.2165850400924683,1.5073976516723633,1.6471980810165405,1.4111382961273193,-1.5207924842834473,1.747723937034607,0.01720278626194944,-1.0991202542330873,-2.9738319798030917,-0.8906761407852173,-0.01720193773508072,-0.4543127417564392, 283, 217, 56, 255
1733261591655,6i,19.080493651723916,2.0s : 0.3s,-10.387336757864134,1.702506981916855,2.3634539396585215,2.8862605275645725,1.238659143447876,2.098842144012451,2.188966751098633,1.5350415706634521,-1.6019366979599,1.8460623025894165,0.00588188957853852,-1.0813125851604535,-2.954053251260807,-0.8825604319572449,-0.005881855729967356,-0.47016215324401855, 283, 217, 56, 255
1733261591665,6i,19.080493651723916,2.0s : 0.3s,-10.387336757864134,1.7152645884692244,3.230891349356474,3.0502490085243417,1.2621338367462158,2.7362749576568604,2.7737088203430176,1.7069023847579956,-1.6598271131515503,1.9066927433013916,-0.00981814555251812,-1.0570615337407123,-2.9311987698125046,-0.8708731532096863,0.00981798768043518,-0.49140962958335876, 283, 217, 56, 255
1733261591675,6i,19.080493651723916,2.0s : 0.3s,-10.387336757864134,1.7316848709074433,4.218835445795843,3.2103744341057925,1.281463384628296,3.3730287551879883,3.390111207962036,1.9002838134765625,-1.6927732229232788,1.957024335861206,-0.029996930174513308,-1.0259608261217232,-2.9046424254246586,-0.8548277616500854,0.02999243140220642,-0.5180442333221436, 283, 217, 56, 255
1733261591685,6i,19.080493651723916,2.0s : 0.3s,-10.387336757864134,1.7528989155606134,5.291892150087512,3.3855355092053196,1.3169901371002197,4.033130168914795,4.038872718811035,2.1545605659484863,-1.721218466758728,1.9639568328857422,-0.05443619502501209,-0.9876548091274977,-2.87380240756163,-0.8335003852844238,0.05440931394696236,-0.5498332977294922, 283, 217, 56, 255
1733261591695,6i,19.080493651723916,2.0s : 0.3s,-10.387336757864134,1.7801183503803317,6.446922816884597,3.624538652017798,1.3221639394760132,4.762021064758301,4.7348809242248535,2.4815104007720947,-1.7624759674072266,1.968010425567627,-0.0829445372436714,-0.9412493867531618,-2.837871049683958,-0.8055155277252197,0.08284946531057358,-0.5867544412612915, 283, 217, 56, 255
1733261591705,6i,19.080493651723916,2.0s : 0.3s,-10.387336757864134,1.8169805578906946,7.690940069202985,4.285480962029956,1.3199725151062012,5.554784297943115,5.4843058586120605,3.276970863342285,-1.850104808807373,2.050346612930298,-0.1152831011629028,-0.8855804118552824,-2.796043753400364,-0.7691429853439331,0.11502791196107864,-0.6286395788192749, 283, 217, 56, 255
1733261591715,6i,19.080493651723916,2.0s : 0.3s,-10.387336757864134,1.8612891876757613,9.034419186237562,4.287819631293934,1.2925845384597778,6.415151596069336,6.303308963775635,3.230156421661377,-1.8855805397033691,2.0966813564300537,-0.15107763637345525,-0.8192750445902504,-2.746948367704287,-0.7223285436630249,0.15050357580184937,-0.6749741435050964, 283, 217, 56, 255
1733261591725,6i,19.080493651723916,2.0s : 0.3s,-10.387336757864134,1.914599612017245,10.494696766000652,4.718295512253056,1.1367377042770386,7.453622817993164,7.134754180908203,3.70918607711792,-1.941938877105713,2.175574541091919,-0.18954706111024652,-0.7403691969247924,-2.689800209766377,-0.6624789237976074,0.1884140819311142,-0.7249978184700012, 283, 217, 56, 255
1733261591735,6i,19.080493651723916,2.0s : 0.3s,-10.387336757864134,1.9788641865265417,12.113088943783152,5.300382671763264,0.8336442112922668,8.601754188537598,8.134642601013184,4.29128360748291,-2.0071144104003906,2.3770639896392822,-0.2306820139490689,-0.646257992305259,-2.6233592923588502,-0.5862512588500977,0.22864152491092682,-0.7771952748298645, 283, 217, 56, 255
1733261591745,6i,19.080493651723916,2.0s : 0.3s,-10.387336757864134,2.0568978098012867,13.895672543817383,6.056079617255766,0.5840330719947815,9.835638046264648,9.199777603149414,5.066521167755127,-2.0308384895324707,2.623386859893799,-0.2731442271047011,-0.5345082157491743,-2.545028172989294,-0.4905325174331665,0.2697604298591614,-0.8286176323890686, 283, 217, 56, 255
1733261591755,6i,19.080493651723916,2.0s : 0.3s,-10.387336757864134,2.1524001114497535,15.782693232272592,7.011101776959,0.4830358624458313,10.972162246704102,10.300187110900879,6.138604640960693,-2.0125136375427246,2.724494457244873,-0.3125770443686465,-0.4033332300747219,-2.451710596530306,-0.3734680712223053,0.3075118362903595,-0.8751903176307678, 283, 217, 56, 255
1733261591765,6i,19.080493651723916,2.0s : 0.3s,-10.387336757864134,2.269098777542798,17.670644358561955,8.098667389151442,0.3895285427570343,11.938146591186523,11.323419570922852,7.428898811340332,-1.8909103870391846,2.612342596054077,-0.34381083515671607,-0.25383768868009116,-2.34128101276467,-0.23642417788505554,0.3370773494243622,-0.9113081097602844, 283, 217, 56, 255
1733261591775,6i,19.080493651723916,2.0s : 0.3s,-10.387336757864134,2.410875737971726,19.289204562791557,9.381649367313681,-0.40799030661582947,12.619009017944336,11.707108497619629,8.921040534973145,-1.5556342601776123,2.451608180999756,-0.362518473773173,-0.08871967287668385,-2.2204224843974645,-0.08284470438957214,0.35463014245033264,-0.9313292503356934, 283, 217, 56, 255
1733261591785,6i,19.080493651723916,2.0s : 0.3s,-10.387336757864134,2.5806480828366425,20.530400701911134,10.757907558036873,-2.442216157913208,12.848639488220215,11.793268203735352,10.474040031433105,-1.0457391738891602,2.2211461067199707,-0.3764192079594433,0.08471983946675589,-2.0941086226462824,0.07869412004947662,0.3675927519798279,-0.9266513586044312, 283, 217, 56, 255
1733261591795,6i,19.080493651723916,2.0s : 0.3s,-10.387336757864134,2.7807621416908357,21.593057372588248,12.236681918286639,-5.358698844909668,12.565048217773438,12.271509170532227,12.057843208312988,-0.3047681748867035,2.0620179176330566,-0.39355379662815065,0.2626367156666659,-1.9594005679344857,0.2397797554731369,0.3834729492664337,-0.8918823599815369, 283, 217, 56, 255
1733261591805,6i,19.080493651723916,2.0s : 0.3s,-10.387336757864134,3.0117430305494923,22.655767151202046,13.650793220058583,-8.831564903259277,11.666000366210938,12.948664665222168,13.529396057128906,0.8386008739471436,1.6113182306289673,-0.4159004400233114,0.44536710931599555,-1.8038109611822961,0.3940656781196594,0.4040137827396393,-0.8255211114883423, 283, 217, 56, 255
1733261591815,6i,19.080493651723916,2.0s : 0.3s,-10.387336757864134,3.2733163258479983,23.679309194884024,15.173456417190948,-12.56057071685791,10.086908340454102,12.934003829956055,14.9249267578125,2.620201349258423,0.7841465473175049,-0.4409465173593433,0.6311682106333978,-1.6206628405503996,0.5336452126502991,0.42679563164711,-0.7301152348518372, 283, 217, 56, 255
1733261591825,6i,19.080493651723916,2.0s : 0.3s,-10.387336757864134,3.5608453377599707,24.9297591332464,16.34087057837139,-16.478443145751953,7.044933795928955,13.597188949584961,15.565967559814453,4.967915058135986,-0.21100986003875732,-0.46138190893933906,0.8126757733301001,-1.4043854617246514,0.650204062461853,0.44518595933914185,-0.6156655550003052, 283, 217, 56, 255
1733261591835,6i,19.080493651723916,2.0s : 0.3s,-10.387336757864134,3.8694030297174566,26.88529614464809,17.59324484167556,-21.281784057617188,2.8958005905151367,14.301706314086914,15.637048721313477,8.015145301818848,-0.8731650114059448,-0.4713877854587568,0.9792881163040428,-1.141346058489732,0.7395688891410828,0.4541231691837311,-0.49679964780807495, 283, 217, 56, 255
1733261591845,6i,19.080493651723916,2.0s : 0.3s,-10.387336757864134,4.1927563129258045,29.371319928759643,18.611100167751513,-22.955158233642578,1.3618676662445068,15.241789817810059,14.756471633911133,11.3341064453125,-0.39702072739601135,-0.45081464531134263,1.1343095720577487,-0.841708341641143,0.815701961517334,0.435698926448822,-0.3805214464664459, 283, 217, 56, 255
1733261591855,6i,19.080493651723916,2.0s : 0.3s,-10.387336757864134,4.515422028189233,29.867766821303,18.53829809510677,-19.31890106201172,-2.0436453819274902,14.41471004486084,11.849246978759766,14.2437162399292,0.6167576313018799,-0.39111839664975423,1.2438642022146287,-0.5655271376607488,0.8755151629447937,0.38122260570526123,-0.29688775539398193, 283, 217, 56, 255
1733261591865,6i,19.080493651723916,2.0s : 0.3s,-10.387336757864134,4.822066494823287,29.536383142645587,18.748279706223084,-16.83780860900879,-4.187153339385986,14.113479614257812,8.03364086151123,16.88933753967285,1.3072428703308105,-0.3081594333818527,1.2900732925899423,-0.3374460646655834,0.9155927896499634,0.3033052980899811,-0.2639995515346527, 283, 217, 56, 255
1733261591875,6i,19.080493651723916,2.0s : 0.3s,-10.387336757864134,5.10410346875815,29.44325539699516,17.87930170720859,-17.007003784179688,-3.8130671977996826,13.397346496582031,4.685994625091553,17.05463981628418,2.6172780990600586,-0.22031578217249043,1.3031324491852245,-0.13253533083065444,0.941080629825592,0.21853777766227722,-0.2580863833427429, 283, 217, 56, 255
1733261591885,6i,19.080493651723916,2.0s : 0.3s,-10.387336757864134,5.350417547212788,30.44261471465487,14.300299590768548,-20.95340347290039,-4.7726569175720215,12.725000381469727,1.62107515335083,13.597350120544434,4.121013641357422,-0.14408460473411266,1.3017821103265097,0.08876058738912225,0.9540438055992126,0.14358657598495483,-0.263027161359787, 283, 217, 56, 255
1733261591895,6i,19.080493651723916,2.0s : 0.3s,-10.387336757864134,5.552967664760233,21.871742273522145,9.37154759840306,12.579597473144531,-6.450021266937256,12.930930137634277,-0.025253236293792725,8.664901733398438,3.5699782371520996,-0.06922295770225938,1.2861899576216185,0.2914907359450719,0.957473635673523,0.06916768848896027,-0.2801072299480438, 283, 217, 56, 255
1733261591905,6i,19.080493651723916,2.0s : 0.3s,-10.387336757864134,5.6923650638759264,30.862303000228106,4.8907199584800205,-46.71712875366211,-3.713711738586426,3.595296859741211,0.3190839886665344,-1.1655423641204834,-4.739075660705566,-0.028049152938633744,1.2996348678525473,0.433026149337306,0.9630814790725708,0.028045475482940674,-0.2677452862262726, 283, 217, 56, 255
1733261591915,6i,19.080493651723916,2.0s : 0.3s,-10.387336757864134,5.799540900195423,29.922171638910353,9.196773308241843,-17.539587020874023,-9.556748390197754,7.979976654052734,4.092343807220459,-7.8555989265441895,2.474454879760742,-0.05450891498907099,1.213072719031312,0.7411453105165905,0.9353049993515015,0.054481927305459976,-0.34962278604507446, 283, 217, 56, 255
1733261591925,6i,19.080493651723916,2.0s : 0.3s,-10.387336757864134,5.99253027474792,30.250003737821007,19.379406922022063,-24.752410888671875,-7.457518100738525,-3.5989086627960205,14.033120155334473,7.090795040130615,11.329323768615723,-0.12330795225542587,1.132526683603321,0.9517002298500413,0.8986120820045471,0.12299571186304092,-0.4211510717868805, 283, 217, 56, 255
1733261591935,6i,19.080493651723916,2.0s : 0.3s,-10.387336757864134,6.156592201122465,30.45059174034935,6.733623316233581,-20.035505294799805,-15.36429500579834,-2.5161216259002686,5.889033317565918,-1.1535906791687012,-3.054537296295166,-0.26206410520246576,1.0695363472638715,1.1636221669143112,0.8470353484153748,0.25907474756240845,-0.46412423253059387, 283, 217, 56, 255
1733261591945,6i,19.080493651723916,2.0s : 0.3s,-10.387336757864134,6.30599923861666,28.166924236647596,15.979966195032093,-14.456585884094238,-10.421123504638672,-3.9616341590881348,0.5710779428482056,3.736164093017578,15.526566505432129,-0.3667438100719621,0.9872519551731718,1.283310477129509,0.7790196537971497,0.358577698469162,-0.5143446326255798, 283, 217, 56, 255
1733261591955,6i,19.080493651723916,2.0s : 0.3s,-10.387336757864134,6.482951447515922,25.778627762666385,13.639349236783154,-10.865860939025879,-11.345818519592285,-6.992049217224121,6.005517482757568,11.931974411010742,2.755647659301758,-0.4949728248909876,0.9160230777763105,1.3680336526171637,0.6979891061782837,0.4750077426433563,-0.5358906388282776, 283, 217, 56, 255
1733261591965,6i,19.080493651723916,2.0s : 0.3s,-10.387336757864134,6.622268221040287,23.598266267687702,5.238370231891923,-7.901780128479004,-11.724932670593262,-6.495274543762207,-0.2986506223678589,4.351815223693848,2.9005231857299805,-0.600555222174233,0.8145748741555283,1.3968879611270915,0.6001489758491516,0.5651006102561951,-0.56611168384552, 283, 217, 56, 255
1733261591975,6i,19.080493651723916,2.0s : 0.3s,-10.387336757864134,6.737571921615129,22.7723682156842,2.6928095500767943,-8.458540916442871,-12.228184700012207,-7.368147373199463,1.7500725984573364,1.7631494998931885,1.0391212701797485,-0.7103151664894278,0.7011397485200092,1.4051595967591857,0.4890783429145813,0.6520727276802063,-0.5793129801750183, 283, 217, 56, 255
1733261591985,6i,19.080493651723916,2.0s : 0.3s,-10.387336757864134,6.837306940982603,22.280526219321885,3.009401348695747,-6.903881072998047,-12.844304084777832,-8.260351181030273,2.3690261840820312,1.8310062885284424,-0.3027001619338989,-0.8157333797078032,0.5577091079355853,1.3809220341630206,0.36270907521247864,0.7282283902168274,-0.5814856290817261, 283, 217, 56, 255
1733261591995,6i,19.080493651723916,2.0s : 0.3s,-10.387336757864134,6.9269759035306935,22.361175655861857,3.534972228896503,-7.001776695251465,-12.876199722290039,-9.451004981994629,2.9901366233825684,-0.3591465950012207,1.8509795665740967,-0.9190305159242573,0.37204879703692867,1.3065053160721745,0.22051095962524414,0.7950139045715332,-0.5650909543037415, 283, 217, 56, 255
1733261592005,6i,19.080493651723916,2.0s : 0.3s,-10.387336757864134,7.009858911460658,22.192667071983852,3.417088834691789,-5.65221643447876,-11.859358787536621,-10.623635292053223,3.0566067695617676,-0.16634076833724976,1.5185459852218628,-1.0054073748879424,0.1306232814668015,1.1645395217233632,0.0697818323969841,0.844380259513855,-0.531180202960968, 283, 217, 56, 255
1733261592015,6i,19.080493651723916,2.0s : 0.3s,-10.387336757864134,7.0946109888678075,21.709006562273107,4.3459702140241605,-4.544138431549072,-10.437538146972656,-11.133956909179688,3.226722478866577,1.1378809213638306,2.6797287464141846,-1.0541360092450882,-0.1655663536591973,0.9484490842646366,-0.0814131498336792,0.8694737553596497,-0.48722389340400696, 283, 217, 56, 255
1733261592025,6i,19.080493651723916,2.0s : 0.3s,-10.387336757864134,7.180941239954416,20.71944306279805,4.387302281555389,-2.4767284393310547,-8.82486629486084,-11.154319763183594,3.3608322143554688,0.9439281225204468,2.657485246658325,-1.0538855000898888,-0.46787355617814647,0.7121782963595259,-0.22287748754024506,0.8693499565124512,-0.4410850703716278, 283, 217, 56, 255
1733261592035,6i,19.080493651723916,2.0s : 0.3s,-10.387336757864134,7.269154833281839,19.39328859597634,4.3920239580522455,0.1885477602481842,-7.529627323150635,-10.785527229309082,3.69185209274292,0.7646079063415527,2.2528820037841797,-1.00155542305843,-0.711651694215031,0.5227835422183621,-0.35200831294059753,0.84231036901474,-0.4081706702709198, 283, 217, 56, 255
1733261592045,6i,19.080493651723916,2.0s : 0.3s,-10.387336757864134,7.356850275182634,18.073235647330414,3.963673974721811,1.9053747653961182,-6.5594282150268555,-10.10673713684082,3.693896770477295,0.7550472617149353,1.2230051755905151,-0.9194126993003755,-0.875468048073287,0.40899758441180084,-0.46553370356559753,0.7952457070350647,-0.38841038942337036, 283, 217, 56, 255
1733261592055,6i,19.080493651723916,2.0s : 0.3s,-10.387336757864134,7.444164856258467,16.96230822770811,4.087851517082189,2.7443559169769287,-5.838675022125244,-9.549861907958984,4.007878303527832,0.025781571865081787,0.8042243719100952,-0.8265540611581359,-0.984965822437851,0.3470424714125315,-0.5644578337669373,0.7356014251708984,-0.37453678250312805, 283, 217, 56, 255
1733261592065,6i,19.080493651723916,2.0s : 0.3s,-10.387336757864134,7.527762370024688,16.072594056958955,4.14867165264837,3.3812856674194336,-5.393880367279053,-9.029997825622559,3.9545159339904785,-0.8611949682235718,0.9119338989257812,-0.7315430808477636,-1.0631925434302862,0.3155873619885564,-0.650316596031189,0.6680186986923218,-0.3617171347141266, 283, 217, 56, 255
1733261592075,6i,19.080493651723916,2.0s : 0.3s,-10.387336757864134,7.607113198148114,15.364297217985804,3.903698594288467,4.083293914794922,-5.01458215713501,-8.5625638961792,3.672524929046631,-0.9214200377464294,0.9499518275260925,-0.6362268463259703,-1.1211859498162555,0.30625757422985495,-0.7244049310684204,0.5941647887229919,-0.34957942366600037, 283, 217, 56, 255
1733261592085,6i,19.080493651723916,2.0s : 0.3s,-10.387336757864134,7.68447844345164,14.79429153000972,3.8208351666401956,4.788745880126953,-4.5034613609313965,-8.180843353271484,3.5976688861846924,-0.5704033374786377,1.1533429622650146,-0.5415579521479544,-1.1650584086743359,0.3130428941736733,-0.7873355150222778,0.5154716372489929,-0.3382183313369751, 283, 217, 56, 255
1733261592095,6i,19.080493651723916,2.0s : 0.3s,-10.387336757864134,7.762318880380001,14.409427379482855,4.008593153336921,5.687010288238525,-4.12803840637207,-7.833077907562256,3.6423349380493164,-0.3339419960975647,1.6403347253799438,-0.4476682185318496,-1.1980451269818804,0.33367414224209396,-0.8395547270774841,0.4328646957874298,-0.32829245924949646, 283, 217, 56, 255
1733261592105,6i,19.080493651723916,2.0s : 0.3s,-10.387336757864134,7.841067702025197,14.170965359666093,4.031337800939537,5.71834135055542,-4.002734184265137,-7.7025227546691895,3.588919162750244,-0.16188019514083862,1.8289719820022583,-0.3555093584039658,-1.2279508166929713,0.3627805888180424,-0.8829103112220764,0.34806790947914124,-0.3151474893093109, 283, 217, 56, 255
1733261592115,6i,19.080493651723916,2.0s : 0.3s,-10.387336757864134,7.917001253900465,13.94130960263859,3.4944668056723565,5.58392858505249,-3.7423453330993652,-7.565882682800293,3.176126003265381,-0.28336071968078613,1.4294154644012451,-0.26961710319813137,-1.2585329135796803,0.39597058199987095,-0.9172606468200684,0.26636239886283875,-0.29611465334892273, 283, 217, 56, 255
1733261592125,6i,19.080493651723916,2.0s : 0.3s,-10.387336757864134,7.986178870712549,13.599997437264832,2.9561844803515167,5.8855881690979,-3.724498748779297,-6.713652610778809,2.5595574378967285,-0.6672024726867676,1.3200504779815674,-0.18970049759980526,-1.2899153216945012,0.43326819661171406,-0.9435753226280212,0.18856477737426758,-0.2722294330596924, 283, 217, 56, 255
1733261592135,6i,19.080493651723916,2.0s : 0.3s,-10.387336757864134,8.049990343339553,13.269632704716397,2.684588987744956,6.3311285972595215,-3.6669228076934814,-6.022609710693359,2.293161153793335,-0.34202682971954346,1.3533098697662354,-0.11401749364503513,-1.3215583130697952,0.47560067355180735,-0.9628081917762756,0.11377061903476715,-0.24506397545337677, 283, 217, 56, 255
1733261592145,6i,19.080493651723916,2.0s : 0.3s,-10.387336757864134,8.111933491107987,13.054323156347895,2.688987554517368,6.78316593170166,-3.3449654579162598,-5.769458770751953,2.3542885780334473,0.3311907947063446,1.256300926208496,-0.04133380024766499,-1.352967039684648,0.5253697181750702,-0.9755347967147827,0.04132203012704849,-0.21592611074447632, 283, 217, 56, 255
