timestamp,club,max_speed,tempo,w.rotation,l.speed,t.spped,acc,rotation.x,rotation.y,rotation.z,userAcceleration.x,userAcceleration.y,userAcceleration.z,pitch,roll,yaw,gravity.x,gravity.y,gravity.z,impactIndex,minDownIndex,StartIndex,endIndex
1733261841216,6i,20.73119080677209,1.9s : 0.3s,-11.397580293218383,0.00040893112639682234,0.20463018607137834,0.12436526819723588,0.48346981406211853,-0.0651811808347702,-0.011747218668460846,0.042372047901153564,0.10725849866867065,-0.0465504452586174,-0.16048887592288769,1.4568252419120347,0.14322890852760417,0.9807448983192444,0.15980081260204315,-0.11226306110620499, 247, 180, 29, 219
1733261841226,6i,20.73119080677209,1.9s : 0.3s,-11.397580293218383,0.001346690332496944,0.34964803263211747,0.08373046235648372,0.5205501914024353,-0.019666466861963272,0.006551128346472979,-0.005389273166656494,0.07286469638347626,-0.040895991027355194,-0.15991745988193204,1.4556289649667926,0.13803205171719157,0.9807004332542419,0.15923671424388885,-0.11344669759273529, 247, 180, 29, 219
1733261841236,6i,20.73119080677209,1.9s : 0.3s,-11.397580293218383,0.0021904603304116247,0.4151592606071214,0.05129108078801512,0.4247587025165558,-0.04003805294632912,0.0068368855863809586,-0.02993685007095337,-0.006935879588127136,-0.041066452860832214,-0.15929632605233812,1.4546008139844468,0.13327165078392464,0.980681300163269,0.15862348675727844,-0.11446638405323029, 247, 180, 29, 219
1733261841246,6i,20.73119080677209,1.9s : 0.3s,-11.397580293218383,0.002944661485119751,0.4543126832178664,0.022643488435087733,0.40445834398269653,-0.06864319741725922,0.0030235385056585073,0.011258840560913086,-0.014989584684371948,-0.012699544429779053,-0.1587833910688286,1.453395925875608,0.12918700768385172,0.9806234240531921,0.15811702609062195,-0.11565743386745453, 247, 180, 29, 219
1733261841256,6i,20.73119080677209,1.9s : 0.3s,-11.397580293218383,0.003660066223060955,0.5021795390569969,0.03415215313631327,0.45414626598358154,-0.05988326296210289,0.012775768525898457,0.03349769115447998,0.0036203116178512573,0.005582794547080994,-0.15821755122767625,1.4520505152852774,0.12486571740552285,0.9805557131767273,0.15755827724933624,-0.11698726564645767, 247, 180, 29, 219
1733261841266,6i,20.73119080677209,1.9s : 0.3s,-11.397580293218383,0.004328478195787097,0.5281514576271833,0.025206420574813596,0.4357808530330658,-0.045589543879032135,0.03381780534982681,0.019696474075317383,0.006610557436943054,0.014272809028625488,-0.15744550424629278,1.4508279631462342,0.12035173753697156,0.9805323481559753,0.15679581463336945,-0.11820047348737717, 247, 180, 29, 219
1733261841276,6i,20.73119080677209,1.9s : 0.3s,-11.397580293218383,0.0046584866624740685,0.5217670059183044,0.0643424185510553,0.3597332239151001,-0.06280288845300674,0.03384070843458176,0.01601344347000122,-0.03264397382736206,0.05308377742767334,-0.15662029120112164,1.4496686201491167,0.1163835525519794,0.9805227518081665,0.15598076581954956,-0.11935275793075562, 247, 180, 29, 219
1733261841286,6i,20.73119080677209,1.9s : 0.3s,-11.397580293218383,0.004641662677318679,0.4956339067092694,0.08939211221718203,0.31547975540161133,-0.08222807198762894,0.018750237300992012,0.03065013885498047,-0.05605955421924591,0.06252075731754303,-0.15596473796041482,1.448413579427996,0.11306218160918505,0.9804733991622925,0.15533320605754852,-0.12059570103883743, 247, 180, 29, 219
1733261841296,6i,20.73119080677209,1.9s : 0.3s,-11.397580293218383,0.004685999505738875,0.47190929687883537,0.05495934926230439,0.30115726590156555,-0.07699975371360779,0.02354312874376774,0.026704370975494385,-0.03734205663204193,0.030215516686439514,-0.15538291354151812,1.447119987631095,0.10999919226330812,0.9804061055183411,0.15475840866565704,-0.12187506258487701, 247, 180, 29, 219
1733261841306,6i,20.73119080677209,1.9s : 0.3s,-11.397580293218383,0.004822081063161166,0.44827055356521445,0.028557235611640662,0.28541943430900574,-0.057470131665468216,0.037935614585876465,0.008630156517028809,-0.01967063546180725,0.018817603588104248,-0.1547325147154133,1.4459960782978776,0.10708837452303649,0.9803681969642639,0.15411581099033356,-0.12298937886953354, 247, 180, 29, 219
1733261841316,6i,20.73119080677209,1.9s : 0.3s,-11.397580293218383,0.005015062819041115,0.4154300550595001,0.03437967524026865,0.2455545961856842,-0.04417456313967705,0.04475144296884537,-0.004021108150482178,-0.023431256413459778,0.024834834039211273,-0.15399830022162522,1.445102362679495,0.10445933436150465,0.9803698062896729,0.1533903330564499,-0.12387964129447937, 247, 180, 29, 219
1733261841326,6i,20.73119080677209,1.9s : 0.3s,-11.397580293218383,0.005224471333966195,0.3784823645488067,0.044514504917440446,0.20789869129657745,-0.05311226472258568,0.04429980739951134,-0.010011017322540283,-0.038944318890571594,0.019096091389656067,-0.15326739825722271,1.4442776830581778,0.10227430964823266,0.9803783297538757,0.1526680439710617,-0.12470221519470215, 247, 180, 29, 219
1733261841336,6i,20.73119080677209,1.9s : 0.3s,-11.397580293218383,0.005464188501908524,0.3704588760436588,0.025194135570030668,0.24164892733097076,-0.05845962464809418,0.042308028787374496,-0.00472790002822876,-0.02383233606815338,0.006664171814918518,-0.15255137134762764,1.4433850136556003,0.10012153702639669,0.9803747534751892,0.1519603729248047,-0.12559117376804352, 247, 180, 29, 219
1733261841346,6i,20.73119080677209,1.9s : 0.3s,-11.397580293218383,0.005750323817622232,0.3697260334907765,0.012416551696075289,0.2630414366722107,-0.0495864599943161,0.039838846772909164,0.0025697946548461914,0.011421248316764832,-0.004137873649597168,-0.15181996703415557,1.4424799314209455,0.09761686480813501,0.980370819568634,0.15123741328716278,-0.12649264931678772, 247, 180, 29, 219
1733261841356,6i,20.73119080677209,1.9s : 0.3s,-11.397580293218383,0.006058459913356173,0.3592782964006985,0.012271526505111614,0.23234717547893524,-0.05040937662124634,0.04659555107355118,-0.0011559128761291504,0.010859698057174683,0.005596533417701721,-0.15107601340284788,1.4416237317153484,0.09516769925086961,0.9803733825683594,0.15050198137760162,-0.1273464411497116, 247, 180, 29, 219
1733261841366,6i,20.73119080677209,1.9s : 0.3s,-11.397580293218383,0.006373535062027268,0.3424844480412916,0.02346665251465552,0.2205517739057541,-0.04726427420973778,0.018518708646297455,0.0035491585731506348,-0.01982778310775757,0.012039363384246826,-0.15039901930965796,1.4407929465896303,0.09297836971329565,0.9803680777549744,0.14983266592025757,-0.1281740665435791, 247, 180, 29, 219
1733261841376,6i,20.73119080677209,1.9s : 0.3s,-11.397580293218383,0.006701073737650796,0.3250659877994027,0.0302772215119636,0.15334822237491608,-0.08396396785974503,-0.21607542037963867,0.005780160427093506,-0.025682717561721802,0.014956533908843994,-0.1494531835569589,1.4397972414439186,0.0910156915560069,0.9803800582885742,0.1488974392414093,-0.12916861474514008, 247, 180, 29, 219
1733261841386,6i,20.73119080677209,1.9s : 0.3s,-11.397580293218383,0.007021710556638861,0.3177855641344326,0.02636308338352994,0.14531226456165314,-0.23774966597557068,0.061928004026412964,-0.011034607887268066,-0.014937058091163635,0.018711864948272705,-0.14857017724355198,1.4391438320329493,0.08900087732586037,0.9804254174232483,0.14802421629428864,-0.1298263967037201, 247, 180, 29, 219
1733261841396,6i,20.73119080677209,1.9s : 0.3s,-11.397580293218383,0.007470598836425183,0.3482871696082304,0.04991583459392998,0.16739574074745178,-0.21693865954875946,0.26364779472351074,0.048085153102874756,-0.004837259650230408,0.012490376830101013,-0.14801631255111022,1.4384657942608907,0.0872734695751063,0.98041832447052,0.1474764198064804,-0.13050192594528198, 247, 180, 29, 219
1733261841406,6i,20.73119080677209,1.9s : 0.3s,-11.397580293218383,0.007913447665332793,0.3295595345341123,0.017828431937941046,0.1686447560787201,-0.07946912199258804,0.11258179694414139,0.008486330509185791,-0.012842446565628052,0.008994817733764648,-0.147254647067493,1.4377508188648818,0.08562088868866416,0.9804357290267944,0.14672304689884186,-0.13121771812438965, 247, 180, 29, 219
1733261841416,6i,20.73119080677209,1.9s : 0.3s,-11.397580293218383,0.008317977508675195,0.2813623264533007,0.015534098382407107,0.11987855285406113,-0.048856087028980255,0.02075839228928089,-0.006182551383972168,-0.013646572828292847,0.004105523228645325,-0.14626282519100722,1.4370456380950862,0.0842222981084189,0.9804866909980774,0.14574187994003296,-0.13192841410636902, 247, 180, 29, 219
1733261841426,6i,20.73119080677209,1.9s : 0.3s,-11.397580293218383,0.008722455265774023,0.24198386587120485,0.024131990929683524,0.08146604895591736,-0.043715786188840866,0.0691366121172905,0.003814399242401123,-0.017858698964118958,0.015775620937347412,-0.14563121562715667,1.4364541552585095,0.08326439151547357,0.9804995059967041,0.14511699974536896,-0.1325206309556961, 247, 180, 29, 219
1733261841436,6i,20.73119080677209,1.9s : 0.3s,-11.397580293218383,0.009100607981817855,0.19808024275703093,0.0242308853990665,0.030402865260839462,-0.047978710383176804,0.05731217935681343,-0.0076253414154052734,-0.020827293395996094,0.009757757186889648,-0.14522330633241573,1.4360947252911038,0.08280550367020653,0.980510413646698,0.1447133868932724,-0.13288098573684692, 247, 180, 29, 219
1733261841446,6i,20.73119080677209,1.9s : 0.3s,-11.397580293218383,0.00945597141013995,0.15270385997336433,0.03283261448642836,-0.031931616365909576,-0.04931757226586342,0.05611388757824898,-0.010487973690032959,-0.02923610806465149,0.010641098022460938,-0.14437644734549393,1.4359420089519437,0.0829293553463122,0.980611264705658,0.143875390291214,-0.1330471634864807, 247, 180, 29, 219
1733261841456,6i,20.73119080677209,1.9s : 0.3s,-11.397580293218383,0.009791889575466515,0.13986314531020108,0.046595174347109684,-0.08143232762813568,-0.05257808044552803,0.05142325907945633,-0.0175703763961792,-0.038072094321250916,0.02032013237476349,-0.1435604101068436,1.4358908039940443,0.08364597110055991,0.9807202816009521,0.14306779205799103,-0.1331131011247635, 247, 180, 29, 219
1733261841466,6i,20.73119080677209,1.9s : 0.3s,-11.397580293218383,0.010140047915693975,0.12488609686385008,0.036015510415410144,-0.1082141324877739,-0.048718713223934174,0.044221676886081696,-0.013457655906677246,-0.01881510019302368,0.0276043564081192,-0.14308209161806645,1.4358942546457425,0.08469611405346408,0.9807884693145752,0.1425943821668625,-0.1331188976764679, 247, 180, 29, 219
1733261841476,6i,20.73119080677209,1.9s : 0.3s,-11.397580293218383,0.010503996414476071,0.11221565554013922,0.029396226063493104,-0.12826348841190338,-0.057939112186431885,0.03916912525892258,-0.0055297017097473145,0.004428669810295105,0.028529763221740723,-0.14272285806331564,1.4359067758248576,0.08600218156278447,0.9808409214019775,0.1422388106584549,-0.13311351835727692, 247, 180, 29, 219
1733261841486,6i,20.73119080677209,1.9s : 0.3s,-11.397580293218383,0.010884580835337413,0.12302437959952896,0.030781445821309043,-0.11561746150255203,-0.07214299589395523,0.02596936747431755,0.0020462870597839355,0.013398602604866028,0.027636706829071045,-0.1424168065666651,1.4356409101866312,0.08730256096453831,0.9808485507965088,0.14193587005138397,-0.13338014483451843, 247, 180, 29, 219
1733261841496,6i,20.73119080677209,1.9s : 0.3s,-11.397580293218383,0.011238506563533347,0.12451661787905732,0.03795401532033598,-0.07917369902133942,-0.06880339235067368,0.027492694556713104,0.0001653432846069336,0.03550611436367035,0.01340879499912262,-0.14215722440206408,1.4351705701379176,0.0883552835542337,0.9808220863342285,0.14167889952659607,-0.13384641706943512, 247, 180, 29, 219
1733261841506,6i,20.73119080677209,1.9s : 0.3s,-11.397580293218383,0.011315391692538843,0.11450893008403801,0.06341950021444744,-0.011485994793474674,-0.056657955050468445,0.022068634629249573,-0.009477853775024414,0.06228967010974884,-0.007224977016448975,-0.14181372318370308,1.4348078621993121,0.08884636164821921,0.9808217883110046,0.14133885502815247,-0.1342087686061859, 247, 180, 29, 219
1733261841516,6i,20.73119080677209,1.9s : 0.3s,-11.397580293218383,0.011151610871760495,0.09399690304062838,0.07173234346828172,0.028013210743665695,-0.04194691777229309,-0.020233280956745148,-0.015949547290802002,0.06841997802257538,-0.014486119151115417,-0.14158629276440957,1.4343590911282473,0.08876947664090183,0.9807932376861572,0.14111371338367462,-0.13465328514575958, 247, 180, 29, 219
1733261841526,6i,20.73119080677209,1.9s : 0.3s,-11.397580293218383,0.010900075883942933,0.22357488880151066,0.0600842321546886,-0.0007148395525291562,0.012084448710083961,-0.6002069115638733,-0.024164915084838867,0.05246861279010773,-0.01652926206588745,-0.14146898316059653,1.4338307963756014,0.08846814025808022,0.9807383418083191,0.14099757373332977,-0.13517367839813232, 247, 180, 29, 219
1733261841536,6i,20.73119080677209,1.9s : 0.3s,-11.397580293218383,0.010522946560230907,0.46686251433961695,0.06612546473631688,0.025015290826559067,0.13021588325500488,-0.7824440598487854,-0.05944085121154785,0.026003077626228333,-0.012775063514709473,-0.14064357842825403,1.433753091241384,0.0879801407701562,0.9808427691459656,0.14018036425113678,-0.13526573777198792, 247, 180, 29, 219
1733261841546,6i,20.73119080677209,1.9s : 0.3s,-11.397580293218383,0.010242530061679071,0.3809334098544014,0.03157007877680769,0.08051743358373642,0.01296204887330532,-0.13175781071186066,0.004466056823730469,0.031238198280334473,0.0009482502937316895,-0.14048812025051044,1.433345872209716,0.08745484134290114,0.9808091521263123,0.14002643525600433,-0.13566811382770538, 247, 180, 29, 219
1733261841556,6i,20.73119080677209,1.9s : 0.3s,-11.397580293218383,0.01004567335176771,0.22817866929965233,0.021320344148279352,0.09025794267654419,-0.060367558151483536,0.11088332533836365,-0.013535559177398682,0.01369088888168335,0.009159982204437256,-0.1405340522278627,1.4331401956709915,0.08665690042997606,0.9807749390602112,0.14007192850112915,-0.13586896657943726, 247, 180, 29, 219
1733261841566,6i,20.73119080677209,1.9s : 0.3s,-11.397580293218383,0.009943715887466493,0.17566425680957223,0.011963239808886703,0.07800780236721039,-0.05682213976979256,-0.008076516911387444,-0.004128456115722656,0.002085477113723755,0.011032938957214355,-0.14026549001374425,1.4326981783903339,0.08589621584586202,0.9807519316673279,0.13980600237846375,-0.13630764186382294, 247, 180, 29, 219
1733261841576,6i,20.73119080677209,1.9s : 0.3s,-11.397580293218383,0.00993607097204791,0.16492008304872918,0.023065644055484173,0.12111692130565643,-0.04490475729107857,0.012850070372223854,0.0022429227828979492,-0.0038623660802841187,0.022629082202911377,-0.14023156286724683,1.432154869602291,0.0849055889780465,0.9806824326515198,0.1397724151611328,-0.13684113323688507, 247, 180, 29, 219
1733261841586,6i,20.73119080677209,1.9s : 0.3s,-11.397580293218383,0.00996012411501331,0.14487588811851743,0.01702505064321841,0.1435382068157196,-0.06005437299609184,0.0546206533908844,-0.014637231826782227,0.007457509636878967,0.004470944404602051,-0.1403107722831638,1.4314844236772002,0.08355311214449028,0.9805795550346375,0.13985083997249603,-0.13749706745147705, 247, 180, 29, 219
1733261841596,6i,20.73119080677209,1.9s : 0.3s,-11.397580293218383,0.009987918656973157,0.16036410664137488,0.018739789523239764,0.1444154530763626,-0.12095686793327332,0.12067929655313492,-0.01615762710571289,-0.009451374411582947,-0.0008844882249832153,-0.14046704615965633,1.4308272775948305,0.08209108346875099,0.9804673790931702,0.14000557363033295,-0.13813836872577667, 247, 180, 29, 219
1733261841606,6i,20.73119080677209,1.9s : 0.3s,-11.397580293218383,0.010007769103512698,0.22036998135244323,0.025242098354192912,0.1550409346818924,-0.18651440739631653,0.19681040942668915,-0.012505292892456055,-0.02191096544265747,-0.0008311271667480469,-0.14058341276053998,1.4301323862893656,0.08058960469069928,0.9803550243377686,0.14012078940868378,-0.13881736993789673, 247, 180, 29, 219
1733261841616,6i,20.73119080677209,1.9s : 0.3s,-11.397580293218383,0.01000880532833148,0.3016139101035445,0.03255587818088441,0.14227373898029327,-0.24549436569213867,0.26734238862991333,-0.013859093189239502,-0.029458045959472656,0.00018511712551116943,-0.14059275913116828,1.4294535606387406,0.07903805577189056,0.9802592992782593,0.14013004302978516,-0.13948264718055725, 247, 180, 29, 219
1733261841626,6i,20.73119080677209,1.9s : 0.3s,-11.397580293218383,0.010003983242731586,0.3952362908635423,0.04054130711650137,0.130116268992424,-0.30887097120285034,0.330612450838089,-0.009020388126373291,-0.037488847970962524,0.012522637844085693,-0.14056663878469797,1.4289785428476072,0.07766830732019155,0.980196475982666,0.14010418951511383,-0.1399487853050232, 247, 180, 29, 219
1733261841636,6i,20.73119080677209,1.9s : 0.3s,-11.397580293218383,0.010033689885111344,0.4937759333870839,0.04593030159459969,0.12111345678567886,-0.3669465184211731,0.38727039098739624,2.9027462005615234e-05,-0.03981654345989227,0.022896170616149902,-0.14046722413844054,1.4285471234156804,0.07635923854992382,0.9801498055458069,0.14000575244426727,-0.1403736174106598, 247, 180, 29, 219
1733261841646,6i,20.73119080677209,1.9s : 0.3s,-11.397580293218383,0.010139396075447098,0.5932164136715038,0.04490049533204272,0.09719853848218918,-0.4263036847114563,0.4415650963783264,0.00953686237335205,-0.033942535519599915,0.027803003787994385,-0.14031375827345655,1.4280586698116777,0.07518613120039902,0.9801024198532104,0.13985379040241241,-0.14085541665554047, 247, 180, 29, 219
1733261841656,6i,20.73119080677209,1.9s : 0.3s,-11.397580293218383,0.010395074014543513,0.6922691754588365,0.05730522306116695,0.05641010031104088,-0.4890650808811188,0.4908175766468048,0.013214111328125,-0.04108691215515137,0.03769803047180176,-0.14022457836069202,1.4275392839019094,0.07433842624108206,0.98004150390625,0.13976548612117767,-0.14136624336242676, 247, 180, 29, 219
1733261841666,6i,20.73119080677209,1.9s : 0.3s,-11.397580293218383,0.01077613500584859,0.7894975454393863,0.06609474708300823,0.030321108177304268,-0.5421292185783386,0.5356497764587402,0.012126743793487549,-0.05170881748199463,0.03934025764465332,-0.14018014859064654,1.4269854957736874,0.07381237337656658,0.9799691438674927,0.13972149789333344,-0.14190983772277832, 247, 180, 29, 219
1733261841676,6i,20.73119080677209,1.9s : 0.3s,-11.397580293218383,0.011221548234981971,0.884103612250516,0.05948969112024932,0.034928105771541595,-0.5807090997695923,0.585412859916687,0.004291117191314697,-0.049684733152389526,0.03243511915206909,-0.140108487943611,1.4264346715664526,0.07338594453428628,0.9799007773399353,0.13965053856372833,-0.14245104789733887, 247, 180, 29, 219
1733261841686,6i,20.73119080677209,1.9s : 0.3s,-11.397580293218383,0.011715978856342525,0.9519148185909169,0.045271166609664105,0.058632638305425644,-0.5924895405769348,0.5745804905891418,0.0006712079048156738,-0.03796888887882233,0.024645313620567322,-0.13998815319676852,1.4259156911896826,0.07280819428925761,0.9798433780670166,0.13953138887882233,-0.1429620087146759, 247, 180, 29, 219
1733261841696,6i,20.73119080677209,1.9s : 0.3s,-11.397580293218383,0.01221834820013715,0.9770988755462406,0.027948599592803353,0.07961542159318924,-0.5552833080291748,0.5302801132202148,0.0018752217292785645,-0.027033939957618713,0.006839141249656677,-0.13982433399981214,1.4253419862108923,0.07196368221698077,0.9797837734222412,0.1393691599369049,-0.14352743327617645, 247, 180, 29, 219
1733261841706,6i,20.73119080677209,1.9s : 0.3s,-11.397580293218383,0.012708459328535296,0.9754036151995374,0.03729718839673594,0.0716170147061348,-0.5150375366210938,0.4913909137248993,-0.007477223873138428,-0.036518990993499756,0.0012388229370117188,-0.13954098727397168,1.4248498453371683,0.07108349449225705,0.9797519445419312,0.13908857107162476,-0.1440153419971466, 247, 180, 29, 219
1733261841716,6i,20.73119080677209,1.9s : 0.3s,-11.397580293218383,0.013207788676774473,0.950643610630799,0.04102006912532451,0.08211999386548996,-0.48064497113227844,0.4529540240764618,-0.011694371700286865,-0.03780899941921234,0.010787367820739746,-0.1391486936050882,1.4244098478113958,0.07024806077763038,0.9797424674034119,0.13870008289813995,-0.14445436000823975, 247, 180, 29, 219
1733261841726,6i,20.73119080677209,1.9s : 0.3s,-11.397580293218383,0.013663031165533631,0.9117536193625942,0.0134118235205852,0.09532394260168076,-0.4479280412197113,0.40682995319366455,-0.002581179141998291,-0.013154208660125732,-0.0004258155822753906,-0.13868996212938683,1.4239499888212064,0.0692691077996051,0.979738712310791,0.13824577629566193,-0.1449141800403595, 247, 180, 29, 219
1733261841736,6i,20.73119080677209,1.9s : 0.3s,-11.397580293218383,0.01403870869175185,0.8641420982978292,0.0050042720533791055,0.08871504664421082,-0.4152829945087433,0.3676428496837616,0.0035639405250549316,0.0007340759038925171,-0.0034354329109191895,-0.13819413560865082,1.423512276483644,0.06825429495270616,0.9797428846359253,0.13775469362735748,-0.1453530490398407, 247, 180, 29, 219
1733261841746,6i,20.73119080677209,1.9s : 0.3s,-11.397580293218383,0.014388338221378987,0.8107227454912525,0.00920304136999852,0.06652345508337021,-0.3836994171142578,0.33155861496925354,0.0035099387168884277,-0.00774712860584259,-0.0035154372453689575,-0.13769846430366423,1.4231058048701308,0.0674117573785529,0.9797512292861938,0.1372637301683426,-0.14576132595539093, 247, 180, 29, 219
1733261841756,6i,20.73119080677209,1.9s : 0.3s,-11.397580293218383,0.01471136325335746,0.7554556584436412,0.020921123187544903,0.07326817512512207,-0.3587133586406708,0.29078853130340576,0.004108428955078125,-0.019266203045845032,-0.007044687867164612,-0.13715801245155856,1.4226854279896237,0.06666949618801875,0.9797630906105042,0.13672837615013123,-0.14618410170078278, 247, 180, 29, 219
1733261841766,6i,20.73119080677209,1.9s : 0.3s,-11.397580293218383,0.014992752147119611,0.7006158989255993,0.016128267830662926,0.10480133444070816,-0.3272912800312042,0.25715115666389465,0.008680403232574463,-0.004808738827705383,-0.012714073061943054,-0.13658061320531203,1.4221919004304389,0.06568661452380771,0.9797685742378235,0.1361563801765442,-0.14667925238609314, 247, 180, 29, 219
1733261841776,6i,20.73119080677209,1.9s : 0.3s,-11.397580293218383,0.015236777444610827,0.6440913256255293,0.019248052075407904,0.10129261761903763,-0.2980108857154846,0.21995851397514343,0.01310819387435913,0.011573761701583862,-0.008044302463531494,-0.13593923888636908,1.4216905604882992,0.06454505929612823,0.9797811508178711,0.13552094995975494,-0.1471833884716034, 247, 180, 29, 219
1733261841786,6i,20.73119080677209,1.9s : 0.3s,-11.397580293218383,0.01547403568775781,0.587368759621885,0.013828204443396497,0.06704596430063248,-0.2766617238521576,0.18647173047065735,0.01357799768447876,-0.0018575936555862427,0.0018456876277923584,-0.13534227046321548,1.4211709694217198,0.0636243797407282,0.9797842502593994,0.13492946326732635,-0.14770446717739105, 247, 180, 29, 219
1733261841796,6i,20.73119080677209,1.9s : 0.3s,-11.397580293218383,0.015721732783136048,0.5323123784248757,0.021006348782646882,0.04301786050200462,-0.26099783182144165,0.1493171602487564,0.012771785259246826,-0.015642091631889343,0.00578559935092926,-0.13480918538393774,1.4205713500164532,0.06298864431238792,0.9797666072845459,0.13440123200416565,-0.14830270409584045, 247, 180, 29, 219
1733261841806,6i,20.73119080677209,1.9s : 0.3s,-11.397580293218383,0.015963657470808818,0.4784807510541006,0.015094331814661252,0.03559962660074234,-0.23327314853668213,0.12174925953149796,0.007629811763763428,-0.013019129633903503,0.00035649538040161133,-0.1343334162784083,1.419939523104569,0.0625206249778383,0.9797358512878418,0.1339297592639923,-0.1489313244819641, 247, 180, 29, 219
1733261841816,6i,20.73119080677209,1.9s : 0.3s,-11.397580293218383,0.016204507419797266,0.42703347436569467,0.009827125066515957,0.04334729537367821,-0.20507027208805084,0.09703272581100464,0.00014966726303100586,-0.007626563310623169,0.0061956048011779785,-0.13383445142484146,1.4193162815628273,0.06205375669163069,0.979708731174469,0.13343527913093567,-0.14955195784568787, 247, 180, 29, 219
1733261841826,6i,20.73119080677209,1.9s : 0.3s,-11.397580293218383,0.016415734666109027,0.3830386924396588,0.005627722570767084,0.08713684976100922,-0.1869363784790039,0.06821026653051376,-0.002880692481994629,0.004351705312728882,-0.0021060705184936523,-0.13331087064137076,1.4186115469203728,0.06132597576973795,0.9796720147132874,0.13291636109352112,-0.15025292336940765, 247, 180, 29, 219
1733261841836,6i,20.73119080677209,1.9s : 0.3s,-11.397580293218383,0.016560759614877157,0.34214432786225263,0.0240394023504958,0.11042220145463943,-0.15518510341644287,0.04941154271364212,-0.003192424774169922,0.018181204795837402,-0.015399515628814697,-0.13276695676354464,1.417878168337757,0.060198324268665435,0.9796327948570251,0.1323772519826889,-0.1509823352098465, 247, 180, 29, 219
1733261841846,6i,20.73119080677209,1.9s : 0.3s,-11.397580293218383,0.016662039890879606,0.3034212043303117,0.026206993980139762,0.10462689399719238,-0.13105882704257965,0.028920050710439682,-0.004690587520599365,0.025563731789588928,-0.003361627459526062,-0.13220013632215502,1.4172057830750684,0.05905074877029497,0.9796050786972046,0.13181540369987488,-0.15165245532989502, 247, 180, 29, 219
1733261841856,6i,20.73119080677209,1.9s : 0.3s,-11.397580293218383,0.01675300016532145,0.2734745008872059,0.02239312432379727,0.10999076813459396,-0.12120432406663895,0.010681924410164356,-0.001819312572479248,0.02049306035041809,0.008841753005981445,-0.13163543418955306,1.416504646171534,0.05791349842024256,0.9795719981193542,0.1312555968761444,-0.15235067903995514, 247, 180, 29, 219
1733261841866,6i,20.73119080677209,1.9s : 0.3s,-11.397580293218383,0.016809343091534402,0.2506223087177904,0.025904616910468213,0.11226151138544083,-0.11004918813705444,0.002414307091385126,0.005121290683746338,0.025347113609313965,-0.0015314668416976929,-0.13106416713919763,1.415734695961459,0.05673674425095068,0.9795282483100891,0.13068926334381104,-0.1531164050102234, 247, 180, 29, 219
1733261841876,6i,20.73119080677209,1.9s : 0.3s,-11.397580293218383,0.016839985430704935,0.2249274300285113,0.02221785789888487,0.09140550345182419,-0.0930909663438797,-0.014815812930464745,-0.002143383026123047,0.022113680839538574,-0.0001556873321533203,-0.13050866267018676,1.4149802839974817,0.05563229719826993,0.9794840812683105,0.13013850152492523,-0.15386657416820526, 247, 180, 29, 219
1733261841886,6i,20.73119080677209,1.9s : 0.3s,-11.397580293218383,0.016890021547533145,0.20105769940039508,0.01548010458717652,0.07277002930641174,-0.08547300100326538,-0.024139340966939926,-0.0038663148880004883,0.004880070686340332,0.014172866940498352,-0.13000729829193178,1.4142578837992819,0.054747534764042545,0.9794368743896484,0.12964138388633728,-0.15458425879478455, 247, 180, 29, 219
1733261841896,6i,20.73119080677209,1.9s : 0.3s,-11.397580293218383,0.016970362822906048,0.17341567490477264,0.01628127554585576,0.03224071487784386,-0.07800176739692688,-0.02709890902042389,0.0018190741539001465,-0.002255767583847046,0.016021311283111572,-0.1295095756785929,1.4136895531304836,0.05416035569648641,0.9794126152992249,0.12914784252643585,-0.15515096485614777, 247, 180, 29, 219
1733261841906,6i,20.73119080677209,1.9s : 0.3s,-11.397580293218383,0.017091500049246092,0.1491450429846552,0.024416034103840092,0.004480321891605854,-0.07510145008563995,-0.04086316004395485,-0.0017642378807067871,-0.016482293605804443,0.01792663335800171,-0.1292995418857683,1.4130104332236302,0.05396160292385386,0.979333758354187,0.12893956899642944,-0.1558203250169754, 247, 180, 29, 219
1733261841916,6i,20.73119080677209,1.9s : 0.3s,-11.397580293218383,0.017312847819959756,0.13538769323004993,0.03560521544031163,-0.0028287237510085106,-0.06618225574493408,-0.04356653615832329,-0.008373856544494629,-0.025902479887008667,0.022949323058128357,-0.12938206059991358,1.4121179385059488,0.053895529075916465,0.9791838526725769,0.12902139127254486,-0.15669263899326324, 247, 180, 29, 219
1733261841926,6i,20.73119080677209,1.9s : 0.3s,-11.397580293218383,0.01756663209920175,0.13228929472796738,0.02616880616921739,0.018705328926444054,-0.0659400075674057,-0.05442783981561661,-0.0031164884567260742,-0.013207390904426575,0.022375404834747314,-0.12962848713376846,1.4113898989755471,0.05377367834692736,0.9790381193161011,0.12926575541496277,-0.15740042924880981, 247, 180, 29, 219
1733261841936,6i,20.73119080677209,1.9s : 0.3s,-11.397580293218383,0.017831164238811256,0.12912547483090184,0.016978687468606146,0.03473862633109093,-0.057157695293426514,-0.044060416519641876,-0.001583695411682129,-0.004553124308586121,0.016279950737953186,-0.12981054758041538,1.4108166845390495,0.05346294065812333,0.9789243340492249,0.12944628298282623,-0.15795783698558807, 247, 180, 29, 219
1733261841946,6i,20.73119080677209,1.9s : 0.3s,-11.397580293218383,0.018115936459153027,0.12494295463677207,0.02236654583289535,0.03679698333144188,-0.05521172285079956,-0.031773924827575684,-0.0020359158515930176,-0.0037716925144195557,0.021952033042907715,-0.12996117691504513,1.4101319188761967,0.05305943330202936,0.9787967205047607,0.12959565222263336,-0.1586250215768814, 247, 180, 29, 219
1733261841956,6i,20.73119080677209,1.9s : 0.3s,-11.397580293218383,0.018426566547548984,0.11721514008950899,0.02579246428040592,0.023778384551405907,-0.05579096078872681,-0.019144147634506226,-0.003523409366607666,-0.011346936225891113,0.022892877459526062,-0.13002968823491326,1.4094653933239123,0.052748913247879,0.9786821603775024,0.1296635866165161,-0.15927597880363464, 247, 180, 29, 219
1733261841966,6i,20.73119080677209,1.9s : 0.3s,-11.397580293218383,0.01876047179994787,0.1144605519971079,0.02627064217167815,0.011873790062963963,-0.06577062606811523,-0.015947023406624794,-0.0017703771591186523,-0.016791507601737976,0.020126044750213623,-0.1299191302264028,1.4090050645135985,0.05262725319846747,0.9786227345466614,0.12955395877361298,-0.1597287505865097, 247, 180, 29, 219
1733261841976,6i,20.73119080677209,1.9s : 0.3s,-11.397580293218383,0.019114830454924372,0.11261594796258662,0.026650939492002132,0.02683582901954651,-0.06784411519765854,-0.004664641339331865,-0.0008736848831176758,-0.019023984670639038,0.01864396035671234,-0.12976999841117656,1.4085269296485514,0.05247489939919894,0.9785653948783875,0.12940607964992523,-0.16019979119300842, 247, 180, 29, 219
1733261841986,6i,20.73119080677209,1.9s : 0.3s,-11.397580293218383,0.01947793671792476,0.11156821389826474,0.02190210971027997,0.03967319428920746,-0.07276603579521179,0.017682576552033424,-0.005748391151428223,-0.009636685252189636,0.018809378147125244,-0.12939751319762907,1.4080851725034031,0.05219096751413319,0.978541910648346,0.12903670966625214,-0.16063983738422394, 247, 180, 29, 219
1733261841996,6i,20.73119080677209,1.9s : 0.3s,-11.397580293218383,0.019811306621256478,0.11063441270319184,0.011635693822300598,0.03433249145746231,-0.07290025800466537,0.014836721122264862,-0.010596811771392822,-0.0020536333322525024,0.004345059394836426,-0.12882874797448465,1.4077064668594945,0.05189472764495773,0.9785533547401428,0.1284726858139038,-0.16102230548858643, 247, 180, 29, 219
1733261842006,6i,20.73119080677209,1.9s : 0.3s,-11.397580293218383,0.02009861591312783,0.1086713944239715,0.014576635841943178,0.009372549131512642,-0.07416215538978577,0.02088009938597679,-0.011176884174346924,-0.006210103631019592,-0.006999298930168152,-0.1284502107148613,1.407316339833155,0.05173622616785553,0.9785382747650146,0.1280972808599472,-0.16141194105148315, 247, 180, 29, 219
1733261842016,6i,20.73119080677209,1.9s : 0.3s,-11.397580293218383,0.020367736928745793,0.1061995216147503,0.02129217326270104,-0.024909259751439095,-0.07858939468860626,0.01667124032974243,-0.008791327476501465,-0.01930774748325348,-0.001811102032661438,-0.12824051785219262,1.406837146645318,0.05188787509731743,0.978487491607666,0.12788930535316467,-0.16188524663448334, 247, 180, 29, 219
1733261842026,6i,20.73119080677209,1.9s : 0.3s,-11.397580293218383,0.02062597413426272,0.10331052138113056,0.0332187277324499,-0.03775554895401001,-0.07307549566030502,0.020663650706410408,-0.011804461479187012,-0.03080420196056366,-0.003903806209564209,-0.12809329996925067,1.406483922628058,0.05228593230663547,0.978448748588562,0.12774330377578735,-0.16223391890525818, 247, 180, 29, 219
1733261842036,6i,20.73119080677209,1.9s : 0.3s,-11.397580293218383,0.020865620724018145,0.10111972617470179,0.020013423697102593,-0.02939082682132721,-0.06939660757780075,0.013627846725285053,-0.009216904640197754,-0.01741999387741089,-0.0034827589988708496,-0.12787563249422032,1.4061673910196595,0.052707274551562454,0.9784246683120728,0.1275274157524109,-0.16254816949367523, 247, 180, 29, 219
1733261842046,6i,20.73119080677209,1.9s : 0.3s,-11.397580293218383,0.021073986641307274,0.09935649136961051,0.013921083332909388,-0.004370560869574547,-0.06444929540157318,0.014408718794584274,-0.0005823969841003418,0.013803735375404358,0.001707121729850769,-0.12756369716679114,1.4058446559732751,0.052942408487926446,0.9784114956855774,0.12721800804138184,-0.16287048161029816, 247, 180, 29, 219
1733261842056,6i,20.73119080677209,1.9s : 0.3s,-11.397580293218383,0.021240901933922047,0.09783401069191558,0.03075284083792737,0.021742798388004303,-0.05999942123889923,0.015295018441975117,0.008048295974731445,0.029648765921592712,0.0013830512762069702,-0.127188023316193,1.4054976864351982,0.052889615171048815,0.9784019589424133,0.12684538960456848,-0.16321779787540436, 247, 180, 29, 219
1733261842066,6i,20.73119080677209,1.9s : 0.3s,-11.397580293218383,0.021377886119762397,0.09761638324596261,0.019825387877423863,0.03961567208170891,-0.06458685547113419,0.012410582974553108,0.005055069923400879,0.019136235117912292,0.0011387616395950317,-0.1269103177066525,1.4051138471163327,0.052648903682261765,0.9783737659454346,0.12656991183757782,-0.16359910368919373, 247, 180, 29, 219
1733261842076,6i,20.73119080677209,1.9s : 0.3s,-11.397580293218383,0.021494660146269412,0.09736567262245165,0.015178574551717929,0.054453738033771515,-0.058855727314949036,0.01795288734138012,-0.0032042264938354492,0.014349579811096191,0.0037698298692703247,-0.12670571453874943,1.4045188440331229,0.05220728840757464,0.9783017039299011,0.12636695802211761,-0.16418549418449402, 247, 180, 29, 219
1733261842086,6i,20.73119080677209,1.9s : 0.3s,-11.397580293218383,0.0215797915891534,0.09774823746341103,0.028396217787289766,0.0715339258313179,-0.05537453293800354,0.016750536859035492,-0.003810882568359375,0.027554914355278015,0.0057051777839660645,-0.1263915363953351,1.4037950251664468,0.05160057205049399,0.9782218337059021,0.1260552853345871,-0.16490016877651215, 247, 180, 29, 219
1733261842096,6i,20.73119080677209,1.9s : 0.3s,-11.397580293218383,0.02160381668077675,0.09839897702270892,0.034936984909435344,0.07749248296022415,-0.050281502306461334,0.01782192662358284,-0.001895904541015625,0.0347411185503006,0.0031706690788269043,-0.12588467311824147,1.403183510488129,0.05086459357215161,0.9781836867332458,0.1255524605512619,-0.16550897061824799, 247, 180, 29, 219
1733261842106,6i,20.73119080677209,1.9s : 0.3s,-11.397580293218383,0.021601454331929202,0.0977363822141613,0.02315321028284261,0.05076725780963898,-0.049832891672849655,0.018547870218753815,-0.00423961877822876,0.022636637091636658,-0.0023831576108932495,-0.12525838591593524,1.402588210530482,0.0502389810869758,0.9781622886657715,0.12493109703063965,-0.16610437631607056, 247, 180, 29, 219
1733261842116,6i,20.73119080677209,1.9s : 0.3s,-11.397580293218383,0.021598564683642737,0.0956647231755864,0.008657183029966682,0.019819464534521103,-0.05233466625213623,0.018919648602604866,-0.008056163787841797,0.0030362457036972046,0.0009089857339859009,-0.12485131554392737,1.4020235339873524,0.049920760305583005,0.978118360042572,0.124527208507061,-0.1666652262210846, 247, 180, 29, 219
1733261842126,6i,20.73119080677209,1.9s : 0.3s,-11.397580293218383,0.021605985784610628,0.09322467959278924,0.010841232180395333,0.011648619547486305,-0.051625821739435196,0.015733908861875534,-0.009564757347106934,-0.00022444874048233032,0.00509876012802124,-0.12486199033179626,1.4015618365821465,0.049813081204768975,0.9780400991439819,0.12453779578208923,-0.16711659729480743, 247, 180, 29, 219
1733261842136,6i,20.73119080677209,1.9s : 0.3s,-11.397580293218383,0.021604444593967362,0.08978993182878627,0.013044005617937064,-0.016891146078705788,-0.053785912692546844,0.012910157442092896,-0.008089005947113037,0.010230563580989838,0.0002227872610092163,-0.12510530616457533,1.401128327790888,0.049848201481944854,0.9779376983642578,0.12477921694517136,-0.1675354540348053, 247, 180, 29, 219
1733261842146,6i,20.73119080677209,1.9s : 0.3s,-11.397580293218383,0.021605120135159698,0.08675319902058486,0.008387634083968644,-0.056833766400814056,-0.06692071259021759,0.0100524527952075,-0.007864654064178467,0.002212628722190857,0.0018983930349349976,-0.12529696632547235,1.400659026228079,0.050235208219458684,0.9778354167938232,0.12496937811374664,-0.16799034178256989, 247, 180, 29, 219
1733261842156,6i,20.73119080677209,1.9s : 0.3s,-11.397580293218383,0.021633322648961086,0.09396726419135853,0.020677594866470538,-0.10194212943315506,-0.07769319415092468,0.002985222265124321,-0.006566286087036133,-0.018605276942253113,0.006187930703163147,-0.12556335945423164,1.4001207922881804,0.05104299613568977,0.9777118563652039,0.12523368000984192,-0.16851092875003815, 247, 180, 29, 219
1733261842166,6i,20.73119080677209,1.9s : 0.3s,-11.397580293218383,0.02169219814609169,0.1212171054866149,0.024454749413584387,-0.12820301949977875,-0.08907554298639297,8.750357665121555e-05,-0.006144225597381592,-0.02230912446975708,0.007911145687103271,-0.1260976250169016,1.3995482574115057,0.05221494710887683,0.9775491952896118,0.12576371431350708,-0.16905926167964935, 247, 180, 29, 219
1733261842176,6i,20.73119080677209,1.9s : 0.3s,-11.397580293218383,0.021773249128925646,0.15534982481017826,0.01954481518613068,-0.15801338851451874,-0.09381144493818283,-0.0016360944136977196,-0.006208956241607666,-0.01695820689201355,0.00747448205947876,-0.12676398431098504,1.3988875776963425,0.0536334909563797,0.9773545265197754,0.12642475962638855,-0.16969069838523865, 247, 180, 29, 219
1733261842186,6i,20.73119080677209,1.9s : 0.3s,-11.397580293218383,0.02187955403216072,0.19748939787305245,0.020439949087999513,-0.20224395394325256,-0.10062380880117416,-0.004949066322296858,-0.0019219517707824707,-0.01818312704563141,0.009136274456977844,-0.12735277423331642,1.3981577165371966,0.055407467063837736,0.9771568179130554,0.1270088106393814,-0.17039115726947784, 247, 180, 29, 219
1733261842196,6i,20.73119080677209,1.9s : 0.3s,-11.397580293218383,0.022070440453543755,0.24361771434117663,0.03406871069639465,-0.23971010744571686,-0.11128657311201096,-0.011499110609292984,0.001056373119354248,-0.028853267431259155,0.01808452606201172,-0.127833952582914,1.3974217801905833,0.05760880061075162,0.9769709706306458,0.12748606503009796,-0.1710996925830841, 247, 180, 29, 219
1733261842206,6i,20.73119080677209,1.9s : 0.3s,-11.397580293218383,0.022317961524504625,0.2830569870612501,0.033676661804462375,-0.2567177414894104,-0.11359993368387222,-0.004800829105079174,0.003773510456085205,-0.028092607855796814,0.018184706568717957,-0.1283131881828193,1.3966992450245703,0.060076537137644145,0.9767868518829346,0.12796138226985931,-0.17179495096206665, 247, 180, 29, 219
1733261842216,6i,20.73119080677209,1.9s : 0.3s,-11.397580293218383,0.022593892302555308,0.31555581607334493,0.025176392653503063,-0.2718311846256256,-0.10876017063856125,0.0020616045221686363,0.005284547805786133,-0.01642201840877533,0.018336892127990723,-0.1288694765244057,1.395952638770075,0.06270887309618876,0.9765879511833191,0.12851308286190033,-0.1725117415189743, 247, 180, 29, 219
1733261842226,6i,20.73119080677209,1.9s : 0.3s,-11.397580293218383,0.02290723015571482,0.3377949279036934,0.02944485020153694,-0.27323782444000244,-0.10046885907649994,0.019781412556767464,0.004980921745300293,-0.01599191129207611,0.024216696619987488,-0.1292358933169913,1.3953295609802623,0.06544968560103448,0.9764339327812195,0.1288764476776123,-0.17311199009418488, 247, 180, 29, 219
1733261842236,6i,20.73119080677209,1.9s : 0.3s,-11.397580293218383,0.02324427714903132,0.3582487201688736,0.02725280361372559,-0.2856058180332184,-0.10005580633878708,0.02126639150083065,0.011454164981842041,-0.01605994999408722,0.01880413293838501,-0.12927371807720026,1.3948085270389086,0.06828386046143567,0.9763387441635132,0.12891395390033722,-0.17361986637115479, 247, 180, 29, 219
1733261842246,6i,20.73119080677209,1.9s : 0.3s,-11.397580293218383,0.0235905404556848,0.36044274293908457,0.024157042918974844,-0.26591935753822327,-0.09598112106323242,0.025670427829027176,0.01221001148223877,-0.016574203968048096,0.012640178203582764,-0.1292537531020321,1.3943082787936028,0.07109436229874402,0.9762542843818665,0.1288941502571106,-0.17410869896411896, 247, 180, 29, 219
1733261842256,6i,20.73119080677209,1.9s : 0.3s,-11.397580293218383,0.0239289712555394,0.352722646565312,0.019862133154498033,-0.22224242985248566,-0.08417319506406784,0.0280385110527277,0.0006104707717895508,-0.019304782152175903,0.004632174968719482,-0.12920681123091043,1.3938531152260607,0.07359838275645014,0.976180911064148,0.12884759902954102,-0.17455409467220306, 247, 180, 29, 219
1733261842266,6i,20.73119080677209,1.9s : 0.3s,-11.397580293218383,0.024224204089243657,0.3184538868327481,0.021954565867601104,-0.16296154260635376,-0.06627365201711655,0.03156173974275589,-0.015325605869293213,-0.012860685586929321,-0.009040549397468567,-0.12903266112511896,1.3934985567862574,0.07556620118336989,0.976141095161438,0.12867490947246552,-0.17490416765213013, 247, 180, 29, 219
1733261842276,6i,20.73119080677209,1.9s : 0.3s,-11.397580293218383,0.024457057355554992,0.27897131601403785,0.029055873236036905,-0.12315314263105392,-0.0588223934173584,0.0360582210123539,-0.020014941692352295,-0.009349539875984192,-0.01887410879135132,-0.12861556420907932,1.3933120882649979,0.0770639688583223,0.9761611223220825,0.1282612681388855,-0.17509563267230988, 247, 180, 29, 219
1733261842286,6i,20.73119080677209,1.9s : 0.3s,-11.397580293218383,0.024634264774668756,0.24281514284232536,0.0290738710636274,-0.09891530871391296,-0.05663624778389931,0.041789110749959946,-0.015607476234436035,-0.012776747345924377,-0.020939230918884277,-0.128117187656546,1.39314134836974,0.07827334940780135,0.9761939644813538,0.12776698172092438,-0.1752735674381256, 247, 180, 29, 219
1733261842296,6i,20.73119080677209,1.9s : 0.3s,-11.397580293218383,0.024769889535400148,0.20827302966131062,0.03393929170735776,-0.0757756307721138,-0.045672278851270676,0.04565122723579407,-0.016795814037322998,-0.02179880440235138,-0.019864246249198914,-0.1276751673233109,1.392988227449723,0.0792476818366513,0.9762226343154907,0.12732857465744019,-0.17543300986289978, 247, 180, 29, 219
1733261842306,6i,20.73119080677209,1.9s : 0.3s,-11.397580293218383,0.024873221876440085,0.17199367087138528,0.033910528404643266,-0.03965504840016365,-0.04237142577767372,0.04754423350095749,-0.01823943853378296,-0.02112807333469391,-0.019257500767707825,-0.12716820228564243,1.392941094208302,0.07993988117832186,0.9762778878211975,0.1268257200717926,-0.17549043893814087, 247, 180, 29, 219
1733261842316,6i,20.73119080677209,1.9s : 0.3s,-11.397580293218383,0.024933002933444953,0.13706249386927644,0.026574955079542054,-0.004660312552005053,-0.04197407886385918,0.04837167635560036,-0.012200713157653809,-0.008875727653503418,-0.021876752376556396,-0.12658410097911904,1.3928084392141105,0.08028511326012366,0.9763273000717163,0.12624631822109222,-0.1756330281496048, 247, 180, 29, 219
1733261842326,6i,20.73119080677209,1.9s : 0.3s,-11.397580293218383,0.024943254639544367,0.11569673249263554,0.023588417790320584,0.01949642226099968,-0.04330761358141899,0.049958858639001846,-0.004885077476501465,0.0008714050054550171,-0.023060575127601624,-0.12592597311338422,1.3925669298782473,0.08030117537500606,0.9763665199279785,0.1255934238433838,-0.17588351666927338, 247, 180, 29, 219
1733261842336,6i,20.73119080677209,1.9s : 0.3s,-11.397580293218383,0.02491328531760417,0.10883794210451993,0.02768006874878449,0.03532705083489418,-0.04834791272878647,0.05109868943691254,0.0007602572441101074,-0.00891239196062088,-0.026194989681243896,-0.12520604980425676,1.3921522001677331,0.08013164464725266,0.9763820171356201,0.12487917393445969,-0.176304429769516, 247, 180, 29, 219
1733261842346,6i,20.73119080677209,1.9s : 0.3s,-11.397580293218383,0.024859873076307822,0.10352550320128073,0.03056973089076269,0.04556610435247421,-0.05230332911014557,0.05550522357225418,0.0004903674125671387,-0.01784641295671463,-0.02481478452682495,-0.1245370907416835,1.3914882900289314,0.07980634107681808,0.9763467311859131,0.12421542406082153,-0.17696747183799744, 247, 180, 29, 219
1733261842356,6i,20.73119080677209,1.9s : 0.3s,-11.397580293218383,0.024791361649915994,0.10056589143065038,0.027080985300110355,0.041845403611660004,-0.05524106323719025,0.059077586978673935,0.002884209156036377,-0.01606367528438568,-0.02161063253879547,-0.12386306200856251,1.3906910765442466,0.07943781256272034,0.9762876033782959,0.12354658544063568,-0.1777607500553131, 247, 180, 29, 219
1733261842366,6i,20.73119080677209,1.9s : 0.3s,-11.397580293218383,0.024721087354705254,0.10053735393197218,0.03047617460392694,0.0371883325278759,-0.0645189881324768,0.06487209349870682,0.006731688976287842,-0.022184446454048157,-0.019782111048698425,-0.12312700221032137,1.3898351098936348,0.07914616648911449,0.9762241840362549,0.12281613051891327,-0.17861266434192657, 247, 180, 29, 219
1733261842376,6i,20.73119080677209,1.9s : 0.3s,-11.397580293218383,0.02466113639910752,0.10751702920795926,0.03762540298192278,0.04195991903543472,-0.06987859308719635,0.07482858002185822,0.010169625282287598,-0.030503466725349426,-0.019539400935173035,-0.12220753924191048,1.3889351003485748,0.07884338859544043,0.9761735796928406,0.12190357595682144,-0.17951153218746185, 247, 180, 29, 219
1733261842386,6i,20.73119080677209,1.9s : 0.3s,-11.397580293218383,0.024601686992430327,0.1210596258450916,0.04245778735075184,0.0327196829020977,-0.07747069001197815,0.08421260118484497,0.00981050729751587,-0.032259389758110046,-0.025802120566368103,-0.12120952499419722,1.3879796095382233,0.07860988811753081,0.9761208295822144,0.12091294676065445,-0.1804662048816681, 247, 180, 29, 219
1733261842396,6i,20.73119080677209,1.9s : 0.3s,-11.397580293218383,0.02453327901415131,0.1329188926157664,0.04671882325938143,0.04192489758133888,-0.08187822252511978,0.08695486187934875,0.00704646110534668,-0.033695921301841736,-0.03158450126647949,-0.12028949107730003,1.386967857799311,0.07841404726181982,0.9760467410087585,0.11999960988759995,-0.1814739853143692, 247, 180, 29, 219
1733261842406,6i,20.73119080677209,1.9s : 0.3s,-11.397580293218383,0.024450791329727627,0.15616153323755427,0.05076983485491406,0.09963466227054596,-0.09096727520227432,0.09945843368768692,0.005469322204589844,-0.03469054400920868,-0.0366637259721756,-0.11930871209335148,1.3858622019874927,0.07785728698408936,0.9759607911109924,0.11902586370706558,-0.18257459998130798, 247, 180, 29, 219
1733261842416,6i,20.73119080677209,1.9s : 0.3s,-11.397580293218383,0.02436378255906868,0.18761305494262992,0.050569512671663555,0.1403016597032547,-0.09858737885951996,0.10993105173110962,0.013677716255187988,-0.031063906848430634,-0.03748638927936554,-0.1180382638685621,1.3845603404538975,0.07683778543951103,0.9758701324462891,0.11776434630155563,-0.18387286365032196, 247, 180, 29, 219
1733261842426,6i,20.73119080677209,1.9s : 0.3s,-11.397580293218383,0.024280544237348177,0.22335279014363138,0.04302294810220481,0.15543867647647858,-0.09881699085235596,0.14129406213760376,0.0198633074760437,-0.022270046174526215,-0.03099142014980316,-0.11642016104767436,1.3832726646146865,0.0756028041916582,0.975818395614624,0.11615735292434692,-0.18516458570957184, 247, 180, 29, 219
1733261842436,6i,20.73119080677209,1.9s : 0.3s,-11.397580293218383,0.024328599931905497,0.2591866883520654,0.06276777918819555,0.16913318634033203,-0.10346580296754837,0.16357272863388062,0.02548825740814209,-0.05433984100818634,-0.01836639642715454,-0.11454192230504541,1.3819944552733607,0.0742480318205962,0.9757934808731079,0.11429162323474884,-0.18645234405994415, 247, 180, 29, 219
1733261842446,6i,20.73119080677209,1.9s : 0.3s,-11.397580293218383,0.02480499703590084,0.30017413647581365,0.09435032062040358,0.21231502294540405,-0.12415811419487,0.16584621369838715,0.024206697940826416,-0.09117457270622253,0.0017933398485183716,-0.11246864246943418,1.3805981911218423,0.07274868452733942,0.975762665271759,0.11223168671131134,-0.18785901367664337, 247, 180, 29, 219
1733261842456,6i,20.73119080677209,1.9s : 0.3s,-11.397580293218383,0.025344131491677243,0.3802436760710019,0.060542496486904934,0.3760323226451874,-0.1414412409067154,0.16794025897979736,0.024088680744171143,-0.054551564157009125,-0.010452568531036377,-0.11016365353595899,1.378920734966294,0.07019567716497148,0.9756976366043091,0.10994096100330353,-0.18954439461231232, 247, 180, 29, 219
1733261842466,6i,20.73119080677209,1.9s : 0.3s,-11.397580293218383,0.025645852590179468,0.5377367338167423,0.07636062910780773,0.6743942499160767,-0.12217539548873901,0.1607113629579544,0.024894416332244873,0.0290529802441597,-0.06608432531356812,-0.10742977891362988,1.3770066453482614,0.065457219300121,0.9756243228912354,0.1072232574224472,-0.19146879017353058, 247, 180, 29, 219
1733261842476,6i,20.73119080677209,1.9s : 0.3s,-11.397580293218383,0.024857039343625428,0.7863614450677539,0.15549928572711133,1.033170223236084,-0.07374714314937592,0.14796015620231628,-0.0005951523780822754,0.09605904668569565,-0.12227973341941833,-0.10420266192953044,1.3750695005841571,0.057289767346589526,0.9755858778953552,0.10401418805122375,-0.19342462718486786, 247, 180, 29, 219
1733261842486,6i,20.73119080677209,1.9s : 0.3s,-11.397580293218383,0.023087224808235468,1.066843470292982,0.190334794713497,1.2903902530670166,-0.030633896589279175,0.13882946968078613,-0.032401204109191895,0.11092216521501541,-0.1512407660484314,-0.100520226144313,1.3734398737193703,0.04606344492560817,0.9756385087966919,0.10035102814435959,-0.19508801400661469, 247, 180, 29, 219
1733261842496,6i,20.73119080677209,1.9s : 0.3s,-11.397580293218383,0.020876960010723523,1.3104206282763833,0.15828481483293846,1.4000335931777954,-0.03832217678427696,0.12281642109155655,-0.03258734941482544,0.08394931256771088,-0.13017165660858154,-0.0965595478703682,1.3718172027246607,0.03298763196488579,0.9757025837898254,0.09640956670045853,-0.19674791395664215, 247, 180, 29, 219
1733261842506,6i,20.73119080677209,1.9s : 0.3s,-11.397580293218383,0.018696088366135538,1.5035997173327216,0.11978496829732097,1.453900694847107,-0.04169529303908348,0.11239803582429886,-0.0075034499168396,0.058163054287433624,-0.10444709658622742,-0.09257335645772838,1.3701127809779992,0.019194138912416937,0.9757347106933594,0.09244119375944138,-0.19848568737506866, 247, 180, 29, 219
1733261842516,6i,20.73119080677209,1.9s : 0.3s,-11.397580293218383,0.016577468278434284,1.6450377627205173,0.10571239161247979,1.4709901809692383,-0.03134731575846672,0.08454669266939163,0.01794952154159546,0.0754636749625206,-0.07182031869888306,-0.08866917426770721,1.3684458499639354,0.0049709918742822075,0.9757485389709473,0.0885530337691307,-0.20018288493156433, 247, 180, 29, 219
1733261842526,6i,20.73119080677209,1.9s : 0.3s,-11.397580293218383,0.014482259290951682,1.7459425495133776,0.12653651003775077,1.477664589881897,-0.018458591774106026,0.04918231442570686,0.022380471229553223,0.10668095201253891,-0.06426334381103516,-0.08504139182657186,1.3669587919848831,-0.009393035629343356,0.9757579565048218,0.08493892848491669,-0.20169734954833984, 247, 180, 29, 219
1733261842536,6i,20.73119080677209,1.9s : 0.3s,-11.397580293218383,0.012085999407312076,1.8300306422453976,0.15334339949477302,1.5125470161437988,-0.027792971581220627,-0.004693170078098774,0.018641233444213867,0.14182022213935852,-0.055260539054870605,-0.08178165794445741,1.365498290665134,-0.02399306519533598,0.9757282137870789,0.08169052749872208,-0.20317760109901428, 247, 180, 29, 219
1733261842546,6i,20.73119080677209,1.9s : 0.3s,-11.397580293218383,0.009205137535558083,1.918750387698773,0.19183196500316357,1.5862782001495361,-0.01675594411790371,-0.039877522736787796,0.005804955959320068,0.18612262606620789,-0.04608875513076782,-0.07885163069615272,1.3640137097332565,-0.03928706002936595,0.9756555557250977,0.07876994460821152,-0.20467418432235718, 247, 180, 29, 219
1733261842556,6i,20.73119080677209,1.9s : 0.3s,-11.397580293218383,0.0056583464012878604,1.987914591806768,0.24131542732701194,1.602439045906067,-0.009704692289233208,-0.0739007368683815,-0.018808305263519287,0.2373402714729309,-0.03935706615447998,-0.07610292803680713,1.362632715908375,-0.055094425506694876,0.975580096244812,0.07602948695421219,-0.2060653269290924, 247, 180, 29, 219
1733261842566,6i,20.73119080677209,1.9s : 0.3s,-11.397580293218383,0.0018081370014609258,2.020475997980712,0.24685121736189503,1.5607980489730835,-0.014835539273917675,-0.11230664700269699,-0.0465015172958374,0.24240455031394958,-0.003628551959991455,-0.0737480806119213,1.3613484455387395,-0.07082672160394206,0.9754871129989624,0.07368125021457672,-0.20735472440719604, 247, 180, 29, 219
1733261842576,6i,20.73119080677209,1.9s : 0.3s,-11.397580293218383,0.0031309719306767906,2.0012097783561846,0.24963804885487714,1.4547827243804932,-0.024668993428349495,-0.10727487504482269,-0.0768854022026062,0.2338063269853592,0.04174196720123291,-0.07169023536150566,1.3600757278944529,-0.08591922775027025,0.9753686785697937,0.07162884622812271,-0.2086273580789566, 247, 180, 29, 219
1733261842586,6i,20.73119080677209,1.9s : 0.3s,-11.397580293218383,0.007920437001028971,1.9640372591499349,0.29135360157532747,1.3909180164337158,-0.038810912519693375,-0.17932111024856567,-0.10573434829711914,0.25766921043395996,0.08552044630050659,-0.07000943540423175,1.3586921754577899,-0.10007841384523697,0.9751953482627869,0.06995225697755814,-0.21000166237354279, 247, 180, 29, 219
1733261842596,6i,20.73119080677209,1.9s : 0.3s,-11.397580293218383,0.01362290002868836,1.9635820066904324,0.3582521200815374,1.444417953491211,-0.031533557921648026,-0.2695000171661377,-0.15387088060379028,0.3112090528011322,0.08841526508331299,-0.06927847041311025,1.3573461973094225,-0.11458318724224557,0.974961519241333,0.0692230686545372,-0.21132484078407288, 247, 180, 29, 219
1733261842606,6i,20.73119080677209,1.9s : 0.3s,-11.397580293218383,0.02063491197418448,2.0068748405728227,0.4524500852696363,1.541930913925171,0.0085707176476717,-0.36212241649627686,-0.1909031867980957,0.40514275431632996,0.0642370730638504,-0.06915551501464742,1.3561513135104915,-0.12983136751484645,0.9747165441513062,0.06910040229558945,-0.2124914526939392, 247, 180, 29, 219
1733261842616,6i,20.73119080677209,1.9s : 0.3s,-11.397580293218383,0.029047158417409045,2.0685442443575006,0.5240000966019132,1.59682297706604,0.058864250779151917,-0.46308231353759766,-0.22550266981124878,0.4685485363006592,0.06470638513565063,-0.06983827990718655,1.3553305950054286,-0.14620579734793285,0.974495530128479,0.06978151947259903,-0.21328121423721313, 247, 180, 29, 219
1733261842626,6i,20.73119080677209,1.9s : 0.3s,-11.397580293218383,0.03865311975333068,2.1064131191774873,0.5591289833580022,1.5516549348831177,0.09707918763160706,-0.5644735097885132,-0.26624512672424316,0.48575684428215027,0.0760200023651123,-0.07147869749703935,1.3549379152426517,-0.1628159868417339,0.9742986559867859,0.07141784578561783,-0.2136390656232834, 247, 180, 29, 219
1733261842636,6i,20.73119080677209,1.9s : 0.3s,-11.397580293218383,0.049101238671591156,2.122148001296207,0.5594872800528772,1.4841538667678833,0.11541798710823059,-0.6651955842971802,-0.25886625051498413,0.48118454217910767,0.1203150749206543,-0.07424254554509685,1.3548166036015612,-0.17894032289252293,0.9740761518478394,0.07417435944080353,-0.213714137673378, 247, 180, 29, 219
1733261842646,6i,20.73119080677209,1.9s : 0.3s,-11.397580293218383,0.06017020478710194,2.1416221699532727,0.5628100763829567,1.449635624885559,0.13964040577411652,-0.7875126004219055,-0.24958401918411255,0.48614251613616943,0.13464194536209106,-0.07817660114409923,1.354877193829343,-0.19488122749471992,0.9737966060638428,0.07809699326753616,-0.21359096467494965, 247, 180, 29, 219
1733261842656,6i,20.73119080677209,1.9s : 0.3s,-11.397580293218383,0.07196077945982172,2.1726249488115634,0.603664871441436,1.4265702962875366,0.16612288355827332,-0.9108728766441345,-0.2807479500770569,0.523220419883728,0.10877618193626404,-0.08339784401707337,1.3551158404011838,-0.2108316834041248,0.9734360575675964,0.08330120146274567,-0.21326839923858643, 247, 180, 29, 219
1733261842666,6i,20.73119080677209,1.9s : 0.3s,-11.397580293218383,0.08463322904317971,2.2048027958729044,0.6603565086216674,1.3675633668899536,0.1956120729446411,-1.0438318252563477,-0.31828200817108154,0.5699472427368164,0.09963645040988922,-0.08994872947481279,1.3555553920045,-0.22667542646410568,0.9729755520820618,0.08982748538255692,-0.21271935105323792, 247, 180, 29, 219
1733261842676,6i,20.73119080677209,1.9s : 0.3s,-11.397580293218383,0.09824145125490234,2.271502185042666,0.7067236494845107,1.3902485370635986,0.22160105407238007,-1.1795024871826172,-0.3316301107406616,0.615135669708252,0.10529907047748566,-0.0978806193431228,1.3561593077207712,-0.24241867694855207,0.9723770618438721,0.09772440046072006,-0.21197329461574554, 247, 180, 29, 219
1733261842686,6i,20.73119080677209,1.9s : 0.3s,-11.397580293218383,0.11280192957541321,2.3938355139772245,0.751644273481253,1.489747166633606,0.26121994853019714,-1.3327457904815674,-0.3268662691116333,0.6742783784866333,0.058959513902664185,-0.1070846262276582,1.356815268324068,-0.2592703905343921,0.9715957045555115,0.1068800836801529,-0.21113543212413788, 247, 180, 29, 219
1733261842696,6i,20.73119080677209,1.9s : 0.3s,-11.397580293218383,0.12834245073520043,2.5316771016046378,0.802298057711818,1.5156270265579224,0.2920950651168823,-1.4880973100662231,-0.33379799127578735,0.7292468547821045,0.021449923515319824,-0.117704434735036,1.3575802370425678,-0.27702343905595017,0.9705929756164551,0.1174328401684761,-0.2101401388645172, 247, 180, 29, 219
1733261842706,6i,20.73119080677209,1.9s : 0.3s,-11.397580293218383,0.14480178344901518,2.702634092593033,0.8346286968174295,1.6093440055847168,0.3357206881046295,-1.641029953956604,-0.3638995289802551,0.7500218749046326,0.04061257839202881,-0.12970553466067028,1.3584243943223155,-0.2957248518211591,0.9693224430084229,0.12934215366840363,-0.20900858938694, 247, 180, 29, 219
1733261842716,6i,20.73119080677209,1.9s : 0.3s,-11.397580293218383,0.1619553812869135,2.8773389643959573,0.8434503503694982,1.6373447179794312,0.348793625831604,-1.8010361194610596,-0.3682916760444641,0.7584322094917297,0.023458868265151978,-0.14310248234910627,1.3591974157739901,-0.31546066198563183,0.9677027463912964,0.14261455833911896,-0.20787665247917175, 247, 180, 29, 219
1733261842726,6i,20.73119080677209,1.9s : 0.3s,-11.397580293218383,0.17953654566278043,3.067766126924294,0.8334102827121159,1.695639967918396,0.3373488187789917,-1.9771912097930908,-0.3356308937072754,0.7624112367630005,0.02556772530078888,-0.15807661152400979,1.3595272793334972,-0.33597084173115077,0.9655746221542358,0.1574190855026245,-0.20708630979061127, 247, 180, 29, 219
1733261842736,6i,20.73119080677209,1.9s : 0.3s,-11.397580293218383,0.19735798894560158,3.2578467219681437,0.8278454656401042,1.7261145114898682,0.33829689025878906,-2.1355514526367188,-0.2988516688346863,0.7719862461090088,0.007282227277755737,-0.1746244177769299,1.3593957888424837,-0.3572507120714184,0.9628684520721436,0.1737382858991623,-0.20663835108280182, 247, 180, 29, 219
1733261842746,6i,20.73119080677209,1.9s : 0.3s,-11.397580293218383,0.21525321237302508,3.4598346370833175,0.8234569791442786,1.8001748323440552,0.33489760756492615,-2.294062376022339,-0.2770555019378662,0.7750486731529236,0.02492387592792511,-0.19256994123699864,1.3586927360756085,-0.379468150183425,0.9595200419425964,0.19138196110725403,-0.2066255360841751, 247, 180, 29, 219
1733261842756,6i,20.73119080677209,1.9s : 0.3s,-11.397580293218383,0.2331447532500601,3.6482789771589177,0.8066000154456981,1.8264074325561523,0.307341068983078,-2.4252772331237793,-0.2452719807624817,0.7683343291282654,-0.01037299633026123,-0.2118228041630025,1.3572695696220973,-0.40250069249760273,0.9554464817047119,0.21024231612682343,-0.20717157423496246, 247, 180, 29, 219
1733261842766,6i,20.73119080677209,1.9s : 0.3s,-11.397580293218383,0.25066855333492294,3.830170655869878,0.7624012304041845,1.8720228672027588,0.27265244722366333,-2.5494797229766846,-0.19794446229934692,0.7354123592376709,-0.0352461040019989,-0.23218327092381558,1.3548756315825707,-0.42645107812900246,0.9505688548088074,0.2301027625799179,-0.2084977775812149, 247, 180, 29, 219
1733261842776,6i,20.73119080677209,1.9s : 0.3s,-11.397580293218383,0.26753630429925646,3.9909712491818135,0.7050886639759835,1.8511314392089844,0.24122260510921478,-2.671541213989258,-0.16465973854064941,0.6839431524276733,-0.04752850532531738,-0.25365901544644376,1.3515404626351706,-0.45088730413252615,0.9448263049125671,0.2509475648403168,-0.21054339408874512, 247, 180, 29, 219
1733261842786,6i,20.73119080677209,1.9s : 0.3s,-11.397580293218383,0.28394565401496435,4.159810179994173,0.7042361155105935,1.8800408840179443,0.21952077746391296,-2.822640895843506,-0.15416914224624634,0.6858347654342651,-0.042556509375572205,-0.2763642393224872,1.3472710179722187,-0.4759316424625317,0.9381198883056641,0.272859662771225,-0.21325711905956268, 247, 180, 29, 219
1733261842796,6i,20.73119080677209,1.9s : 0.3s,-11.397580293218383,0.30030051049560663,4.332568558850516,0.7312738555633864,1.9356476068496704,0.17351652681827545,-2.9502975940704346,-0.11327975988388062,0.7201436758041382,-0.05763882398605347,-0.3002627836370031,1.3418245797954025,-0.5018736135493593,0.9303268194198608,0.2957712411880493,-0.21682104468345642, 247, 180, 29, 219
1733261842806,6i,20.73119080677209,1.9s : 0.3s,-11.397580293218383,0.3165781949429767,4.507765255963695,0.7462550012672495,2.0275933742523193,0.10453985631465912,-3.0531845092773438,-0.02303767204284668,0.7430403828620911,-0.06524401903152466,-0.3249176426285503,1.33475315673184,-0.5292933343999968,0.9213988184928894,0.31923073530197144,-0.22162126004695892, 247, 180, 29, 219
1733261842816,6i,20.73119080677209,1.9s : 0.3s,-11.397580293218383,0.33270997276682995,4.6813019727227525,0.7415272948240603,2.1050374507904053,0.035569578409194946,-3.155107259750366,0.05146676301956177,0.7342789173126221,-0.0897127240896225,-0.35014850769039113,1.3257968313168624,-0.5583603550676945,0.9112711548805237,0.34303730726242065,-0.2278379648923874, 247, 180, 29, 219
1733261842826,6i,20.73119080677209,1.9s : 0.3s,-11.397580293218383,0.34846208954509883,4.828065705902228,0.7103059040417027,2.0759754180908203,-0.03337673097848892,-3.2505910396575928,0.08542990684509277,0.697211742401123,-0.10550826787948608,-0.3759922017744836,1.3151171234754184,-0.5883959391489983,0.8999063968658447,0.36719560623168945,-0.2352357655763626, 247, 180, 29, 219
1733261842836,6i,20.73119080677209,1.9s : 0.3s,-11.397580293218383,0.3633379581715956,4.959194162021042,0.6842912323226864,2.0574629306793213,-0.1293453425168991,-3.3453116416931152,0.1283094882965088,0.6664978265762329,-0.08701616525650024,-0.4025108396448323,1.3026226864978088,-0.6190077698703785,0.8871933817863464,0.3917297422885895,-0.24379442632198334, 247, 180, 29, 219
1733261842846,6i,20.73119080677209,1.9s : 0.3s,-11.397580293218383,0.37803425296888565,5.094376866296961,0.6972985133374345,2.0939693450927734,-0.2217056304216385,-3.4447216987609863,0.18368440866470337,0.6675552129745483,-0.08279669284820557,-0.4295645003130083,1.287930196849852,-0.6505501394416847,0.8730171918869019,0.4164749085903168,-0.2537511885166168, 247, 180, 29, 219
1733261842856,6i,20.73119080677209,1.9s : 0.3s,-11.397580293218383,0.39232595420594074,5.224551668267231,0.7608475385602659,2.0870556831359863,-0.2994512915611267,-3.54636549949646,0.2366078495979309,0.7150983214378357,-0.10742482542991638,-0.4570346558813758,1.2710036783950265,-0.6836221194617811,0.8573405742645264,0.4412890672683716,-0.2650117576122284, 247, 180, 29, 219
1733261842866,6i,20.73119080677209,1.9s : 0.3s,-11.397580293218383,0.4065332269238699,5.356309933926085,0.8049961240326037,2.092755079269409,-0.39396971464157104,-3.6516125202178955,0.28263145685195923,0.7473700046539307,-0.09785854816436768,-0.48499874141750804,1.251817826111997,-0.717967169359041,0.840049147605896,0.46620723605155945,-0.2774313688278198, 247, 180, 29, 219
1733261842876,6i,20.73119080677209,1.9s : 0.3s,-11.397580293218383,0.4207720381701376,5.49713479762293,0.8371736306651261,2.146944999694824,-0.4829275608062744,-3.748605966567993,0.33411669731140137,0.7617263793945312,-0.09486117959022522,-0.5131553571374663,1.2299462413629814,-0.7542179463663494,0.8210802674293518,0.49092862010002136,-0.2912319302558899, 247, 180, 29, 219
1733261842886,6i,20.73119080677209,1.9s : 0.3s,-11.397580293218383,0.43517652859088957,5.630440781163667,0.8883436099642182,2.135875701904297,-0.5677348375320435,-3.843071699142456,0.3976343870162964,0.7853907942771912,-0.11917451024055481,-0.5413740799131006,1.2053022367465214,-0.7923750187566323,0.8003940582275391,0.5153140425682068,-0.3063015341758728, 247, 180, 29, 219
1733261842896,6i,20.73119080677209,1.9s : 0.3s,-11.397580293218383,0.4497767093191384,5.74130329012636,0.9247625586976382,2.039022207260132,-0.6535805463790894,-3.9342596530914307,0.4622615575790405,0.7939966917037964,-0.10521072149276733,-0.569860595681539,1.1780867437571836,-0.8319247184880156,0.7778812050819397,0.5395146608352661,-0.32221853733062744, 247, 180, 29, 219
1733261842906,6i,20.73119080677209,1.9s : 0.3s,-11.397580293218383,0.4645466957004658,5.8448639976450405,0.9592639580005403,1.9900504350662231,-0.7593226432800293,-4.01474666595459,0.5346379280090332,0.7932137250900269,-0.07184436917304993,-0.5984392137862397,1.1483141488858595,-0.8727235267564174,0.7535699605941772,0.5633535981178284,-0.33876967430114746, 247, 180, 29, 219
1733261842916,6i,20.73119080677209,1.9s : 0.3s,-11.397580293218383,0.4796027440307114,5.9459510194728535,1.0200224102103772,1.9419958591461182,-0.8405365347862244,-4.101855754852295,0.6142930388450623,0.8105042576789856,-0.07856607437133789,-0.6268424816754681,1.1156293613131762,-0.9152868309532298,0.7274274826049805,0.5865904688835144,-0.3560348153114319, 247, 180, 29, 219
1733261842926,6i,20.73119080677209,1.9s : 0.3s,-11.397580293218383,0.4950859341494979,6.035992986868303,1.0742485923462302,1.8689498901367188,-0.9235532283782959,-4.172116756439209,0.67683345079422,0.8279500603675842,-0.1020059585571289,-0.6550115736332646,1.0800934073933193,-0.9596774677625048,0.6994634866714478,0.6091684103012085,-0.3737173080444336, 247, 180, 29, 219
1733261842936,6i,20.73119080677209,1.9s : 0.3s,-11.397580293218383,0.5109252157787879,6.118722074688925,1.1043991512348728,1.8434321880340576,-0.9930947422981262,-4.219826698303223,0.7372874617576599,0.815224289894104,-0.10730350017547607,-0.6826103230666677,1.041508474582453,-1.006112095791327,0.6697559952735901,0.6308205723762512,-0.3917809724807739, 247, 180, 29, 219
1733261842946,6i,20.73119080677209,1.9s : 0.3s,-11.397580293218383,0.5269249209405353,6.197043380766437,1.1211314797438487,1.776091456413269,-1.0722752809524536,-4.286253452301025,0.8020142316818237,0.778162956237793,-0.09039568901062012,-0.7093509130259178,0.9996933917931841,-1.0549158821483473,0.638369619846344,0.6513413786888123,-0.4101688861846924, 247, 180, 29, 219
1733261842956,6i,20.73119080677209,1.9s : 0.3s,-11.397580293218383,0.5431692104853009,6.279243744578954,1.1587437918706138,1.731354832649231,-1.1667858362197876,-4.355386734008789,0.8622435331344604,0.7698848843574524,-0.08062586188316345,-0.7354159740754963,0.9544130089332857,-1.1062182217170942,0.6050873398780823,0.6708956956863403,-0.42868199944496155, 247, 180, 29, 219
1733261842966,6i,20.73119080677209,1.9s : 0.3s,-11.397580293218383,0.5597625254560084,6.3536160117498515,1.2058542048538183,1.6335105895996094,-1.273964285850525,-4.41188907623291,0.9269313812255859,0.7654916048049927,-0.09436726570129395,-0.7604544807391883,0.9052839218182139,-1.1601259124953411,0.5699100494384766,0.6892508268356323,-0.44736555218696594, 247, 180, 29, 219
1733261842976,6i,20.73119080677209,1.9s : 0.3s,-11.397580293218383,0.5767533545386091,6.427441480711057,1.2285526971850524,1.6471922397613525,-1.344724178314209,-4.441451549530029,0.968284010887146,0.7537783980369568,-0.05988264083862305,-0.7841997032988242,0.8524459015819479,-1.2166730726848252,0.5330130457878113,0.7062588334083557,-0.46593528985977173, 247, 180, 29, 219
1733261842986,6i,20.73119080677209,1.9s : 0.3s,-11.397580293218383,0.5940908618172094,6.501693489726695,1.226322129196107,1.7001311779022217,-1.3910858631134033,-4.465852737426758,0.9853625297546387,0.7295600771903992,-0.025860071182250977,-0.8054666440794324,0.7953354764040386,-1.2770016144644598,0.49470943212509155,0.721153974533081,-0.4849736988544464, 247, 180, 29, 219
1733261842996,6i,20.73119080677209,1.9s : 0.3s,-11.397580293218383,0.6116120991027897,6.580046800489272,1.2072924369461375,1.8229840993881226,-1.4296029806137085,-4.4769368171691895,0.9903759956359863,0.6878722906112671,-0.05951577425003052,-0.8239274365939754,0.7341574017642545,-1.3412029525081666,0.45513486862182617,0.7338195443153381,-0.504342257976532, 247, 180, 29, 219
1733261843006,6i,20.73119080677209,1.9s : 0.3s,-11.397580293218383,0.6295575630955089,6.659604988503912,1.2413917043634275,1.9816468954086304,-1.4909337759017944,-4.461348056793213,1.0216015577316284,0.6990166306495667,-0.09359151124954224,-0.8381572366889652,0.6687731156248261,-1.409673227089017,0.4146929383277893,0.7434118986129761,-0.5247556567192078, 247, 180, 29, 219
1733261843016,6i,20.73119080677209,1.9s : 0.3s,-11.397580293218383,0.6486743440871185,6.792429590377561,1.364891389620941,2.1660122871398926,-1.571057915687561,-4.571807861328125,1.089076042175293,0.789305567741394,-0.2320314645767212,-0.8480175412266352,0.5986858079223032,-1.4825089678912249,0.37277698516845703,0.749970555305481,-0.5464261174201965, 247, 180, 29, 219
1733261843026,6i,20.73119080677209,1.9s : 0.3s,-11.397580293218383,0.6680200555176711,6.873395706575447,1.2206119252095604,2.032180070877075,-1.6950886249542236,-4.552526473999023,1.0544260740280151,0.604760468006134,-0.1111031174659729,-0.8544619676287292,0.5253401276227899,-1.557778332253889,0.3293019235134125,0.7542177438735962,-0.5680808424949646, 247, 180, 29, 219
1733261843036,6i,20.73119080677209,1.9s : 0.3s,-11.397580293218383,0.686171464541265,6.889936220088817,1.1636895180877522,1.7517493963241577,-1.8846720457077026,-4.490143299102783,1.074204683303833,0.4462171792984009,-0.03387951850891113,-0.8590120825275552,0.45112285938531616,-1.6318461813741887,0.2847735285758972,0.7571976184844971,-0.5878397822380066, 247, 180, 29, 219
1733261843046,6i,20.73119080677209,1.9s : 0.3s,-11.397580293218383,0.7045124584737712,6.88090531769491,1.210857280213404,1.6216850280761719,-1.976313591003418,-4.421985149383545,1.1195316314697266,0.4449924826622009,-0.12167978286743164,-0.8615918080433563,0.37644117085882856,-1.7041876591428544,0.23940084874629974,0.7588801383972168,-0.6056303977966309, 247, 180, 29, 219
1733261843056,6i,20.73119080677209,1.9s : 0.3s,-11.397580293218383,0.7231597989947449,6.849087215094889,1.2244748393145215,1.572950839996338,-2.0152649879455566,-4.368773460388184,1.1083303689956665,0.4919613003730774,-0.1700485348701477,-0.8610964009564883,0.3020270117078776,-1.7753671103608504,0.19382420182228088,0.7585574388504028,-0.6221114993095398, 247, 180, 29, 219
1733261843066,6i,20.73119080677209,1.9s : 0.3s,-11.397580293218383,0.7415140569801856,6.84529939128945,1.1484959387639733,1.524113416671753,-2.100116014480591,-4.378735065460205,1.0317109823226929,0.48459917306900024,-0.14063787460327148,-0.8576722951443344,0.22778617560540987,-1.8455461382740577,0.14773233234882355,0.7563218474388123,-0.637300968170166, 247, 180, 29, 219
1733261843076,6i,20.73119080677209,1.9s : 0.3s,-11.397580293218383,0.7598194476427425,6.842772201741927,1.1325274831436791,1.5262359380722046,-2.154975175857544,-4.359426498413086,1.0027531385421753,0.49615323543548584,-0.1758880615234375,-0.8509759279946152,0.15389067699450032,-1.9146774013424286,0.1010524109005928,0.7519241571426392,-0.651458740234375, 247, 180, 29, 219
1733261843086,6i,20.73119080677209,1.9s : 0.3s,-11.397580293218383,0.778553098883495,6.841591067313336,1.1684554695145402,1.6034824848175049,-2.1760716438293457,-4.326672554016113,1.0229430198669434,0.5374971032142639,-0.17312604188919067,-0.8406095451691977,0.08149384047354084,-1.9818526989061782,0.054296959191560745,0.7450498342514038,-0.6647951006889343, 247, 180, 29, 219
1733261843096,6i,20.73119080677209,1.9s : 0.3s,-11.397580293218383,0.7977798855374014,6.861114728945263,1.1880282906522963,1.6840497255325317,-2.2078702449798584,-4.341733932495117,1.0125430822372437,0.5836664438247681,-0.2133101224899292,-0.8261140243156574,0.011121703589086724,-2.046827176323116,0.007537448313087225,0.7353032827377319,-0.6776963472366333, 247, 180, 29, 219
1733261843106,6i,20.73119080677209,1.9s : 0.3s,-11.397580293218383,0.8174889716371055,6.919675807772662,1.18642510019847,1.8794465065002441,-2.2204606533050537,-4.3848700523376465,0.9869356155395508,0.6042848825454712,-0.2615385055541992,-0.8072752442352344,-0.05689374384283353,-2.1090869548858127,-0.03931906074285507,0.7224057912826538,-0.6903505325317383, 247, 180, 29, 219
1733261843116,6i,20.73119080677209,1.9s : 0.3s,-11.397580293218383,0.8379650599866263,6.971450664190485,1.2198958250807148,1.7916535139083862,-2.281930923461914,-4.419669151306152,1.0089665651321411,0.619645893573761,-0.29354941844940186,-0.7847710682853671,-0.12242400590948926,-2.168938882515264,-0.08640489727258682,0.706663191318512,-0.7022543549537659, 247, 180, 29, 219
1733261843126,6i,20.73119080677209,1.9s : 0.3s,-11.397580293218383,0.8592565586876562,7.0037201797530075,1.239202613684346,1.736151099205017,-2.367302894592285,-4.386325836181641,1.0365054607391357,0.6453028917312622,-0.21181058883666992,-0.7607638815875325,-0.18563836166459713,-2.225403567246016,-0.13368868827819824,0.6894749402999878,-0.7118649482727051, 247, 180, 29, 219
1733261843136,6i,20.73119080677209,1.9s : 0.3s,-11.397580293218383,0.8809907197592198,7.001612505151776,1.2526627289026804,1.641050934791565,-2.4323391914367676,-4.304427623748779,1.0859148502349854,0.5910423994064331,-0.20154833793640137,-0.7348322174462423,-0.24556096736141247,-2.2776301377207053,-0.18036678433418274,0.6704626679420471,-0.7196857929229736, 247, 180, 29, 219
1733261843146,6i,20.73119080677209,1.9s : 0.3s,-11.397580293218383,0.9030416137177919,6.998157307432152,1.2480051470340392,1.4283959865570068,-2.5376124382019043,-4.3188676834106445,1.0942034721374512,0.5777751803398132,-0.16251599788665771,-0.7084185213977636,-0.30327047931453305,-2.326616984057875,-0.22678706049919128,0.6506336331367493,-0.7247368097305298, 247, 180, 29, 219
1733261843156,6i,20.73119080677209,1.9s : 0.3s,-11.397580293218383,0.9256416608429624,6.9943927674859845,1.2661935683404102,1.3848042488098145,-2.602731227874756,-4.291805744171143,1.09397554397583,0.6182417273521423,-0.15569466352462769,-0.6811647806432872,-0.35916385474092183,-2.3737332930156705,-0.2730526328086853,0.6296982765197754,-0.7272704243659973, 247, 180, 29, 219
1733261843166,6i,20.73119080677209,1.9s : 0.3s,-11.397580293218383,0.948880747855868,6.991607762361644,1.2940068212310458,1.3940925598144531,-2.675462007522583,-4.250253677368164,1.1101927757263184,0.6391459703445435,-0.182806134223938,-0.6523487285222386,-0.4125447242358952,-2.416861807887217,-0.3186125159263611,0.6070545315742493,-0.7279909253120422, 247, 180, 29, 219
1733261843176,6i,20.73119080677209,1.9s : 0.3s,-11.397580293218383,0.9724191668811194,6.934058720702965,1.2651800586400657,1.0583609342575073,-2.715435743331909,-4.187417030334473,1.0774598121643066,0.6333073973655701,-0.19667911529541016,-0.623244315942503,-0.4639868371847522,-2.457614023555592,-0.3633789122104645,0.5836725831031799,-0.7261419296264648, 247, 180, 29, 219
1733261843186,6i,20.73119080677209,1.9s : 0.3s,-11.397580293218383,0.9958642940302711,6.930936760923573,1.2104356224594084,1.1184372901916504,-2.7801976203918457,-4.206762790679932,1.0496270656585693,0.573394238948822,-0.18616247177124023,-0.5939966875380264,-0.5138497281301609,-2.4960219861732806,-0.4073388874530792,0.5596776008605957,-0.7216896414756775, 247, 180, 29, 219
1733261843196,6i,20.73119080677209,1.9s : 0.3s,-11.397580293218383,1.0196739338086904,6.905232007291557,1.2906515331665651,1.021180272102356,-2.8461296558380127,-4.135501384735107,1.1082954406738281,0.5959543585777283,-0.2868815064430237,-0.563510570445954,-0.561787361065021,-2.5315337685418067,-0.45033639669418335,0.5341572761535645,-0.7154530882835388, 247, 180, 29, 219
1733261843206,6i,20.73119080677209,1.9s : 0.3s,-11.397580293218383,1.0438220094126487,6.90204039751899,1.326211824885929,0.8561926484107971,-2.8982813358306885,-4.168135166168213,1.1760985851287842,0.5637682676315308,-0.24040645360946655,-0.5327831766407802,-0.6084662972663001,-2.5653658505787895,-0.4923827052116394,0.507932722568512,-0.7067980766296387, 247, 180, 29, 219
1733261843216,6i,20.73119080677209,1.9s : 0.3s,-11.397580293218383,1.0681389898382487,6.899198429145652,1.309882036697399,0.8301627039909363,-2.9467804431915283,-4.139292240142822,1.174459457397461,0.5402534008026123,-0.2110975980758667,-0.5014318702839057,-0.6540147544077273,-2.5975978983672197,-0.5334833860397339,0.4806816279888153,-0.6959458589553833, 247, 180, 29, 219
1733261843226,6i,20.73119080677209,1.9s : 0.3s,-11.397580293218383,1.092685176759318,6.871008446724583,1.3404454486443667,0.8242128491401672,-2.9223170280456543,-4.0822434425354,1.2140519618988037,0.5248841047286987,-0.21764308214187622,-0.46931279416075133,-0.6975968051546318,-2.6273395647197786,-0.5729234218597412,0.45227348804473877,-0.6835257411003113, 247, 180, 29, 219
1733261843236,6i,20.73119080677209,1.9s : 0.3s,-11.397580293218383,1.1173761581852089,6.845685101387131,1.3157097679209362,0.8708320260047913,-2.912393569946289,-4.0495123863220215,1.2101730108261108,0.49142104387283325,-0.1583629846572876,-0.43610534913255106,-0.7389017994891394,-2.6544498521047206,-0.6104415655136108,0.42241254448890686,-0.6700214147567749, 247, 180, 29, 219
1733261843246,6i,20.73119080677209,1.9s : 0.3s,-11.397580293218383,1.141705363751891,6.805578389543217,1.2619959930191702,0.8500350117683411,-2.929278612136841,-3.9696617126464844,1.1677076816558838,0.4479283094406128,-0.1686798334121704,-0.4022483038686109,-0.7784975338197444,-2.679144844969822,-0.6461622714996338,0.3914881944656372,-0.6551421880722046, 247, 180, 29, 219
1733261843256,6i,20.73119080677209,1.9s : 0.3s,-11.397580293218383,1.1661127064044463,6.740663427441617,1.3093728419846467,0.7939456701278687,-2.927131175994873,-3.866748809814453,1.2317779064178467,0.4134387969970703,-0.16201478242874146,-0.3684463986301983,-0.8165104198229495,-2.701501284752269,-0.6798521280288696,0.3601665198802948,-0.638812243938446, 247, 180, 29, 219
1733261843266,6i,20.73119080677209,1.9s : 0.3s,-11.397580293218383,1.1903943487134996,6.6450782214322555,1.3158708741258673,0.7615814805030823,-2.898808240890503,-3.7350292205810547,1.2690210342407227,0.3398853838443756,-0.07469737529754639,-0.335065509845774,-0.8529358186383575,-2.7217419050672595,-0.7113275527954102,0.3288310468196869,-0.6211950182914734, 247, 180, 29, 219
1733261843276,6i,20.73119080677209,1.9s : 0.3s,-11.397580293218383,1.2145550721171028,6.526731711212966,1.290714047534801,0.7410995960235596,-2.8592660427093506,-3.604689598083496,1.2614400386810303,0.27317121624946594,0.00944817066192627,-0.302144784499406,-0.8875784282170547,-2.7396269933216373,-0.7404134273529053,0.29756852984428406,-0.6026946306228638, 247, 180, 29, 219
1733261843286,6i,20.73119080677209,1.9s : 0.3s,-11.397580293218383,1.2384795426038557,6.383701413555735,1.3042045941762634,0.688642680644989,-2.8291049003601074,-3.4461073875427246,1.28879714012146,0.1765858232975006,0.0936429500579834,-0.27002786364575626,-0.9208224629088224,-2.7556129911302585,-0.76725172996521,0.2667582929134369,-0.5832365155220032, 247, 180, 29, 219
1733261843296,6i,20.73119080677209,1.9s : 0.3s,-11.397580293218383,1.2608962557082286,6.205492011485637,1.3626704060061607,0.6976710557937622,-2.7627384662628174,-3.2438230514526367,1.3517608642578125,0.03419095277786255,0.16865402460098267,-0.23898188899451042,-0.9525434461075935,-2.7693518045120644,-0.791732668876648,0.23671357333660126,-0.5631394386291504, 247, 180, 29, 219
1733261843306,6i,20.73119080677209,1.9s : 0.3s,-11.397580293218383,1.2817382352750422,5.98598920755207,1.4103083707045734,0.7535101175308228,-2.634702682495117,-3.025681257247925,1.3803470134735107,-0.10282060503959656,0.27025866508483887,-0.209076832979134,-0.982278126761875,-2.7804429616360045,-0.8136507868766785,0.20755691826343536,-0.5430400371551514, 247, 180, 29, 219
1733261843316,6i,20.73119080677209,1.9s : 0.3s,-11.397580293218383,1.3005761246907304,5.729707132648324,1.468001395875448,0.7660043239593506,-2.49579119682312,-2.799112558364868,1.3715691566467285,-0.28444644808769226,0.43922245502471924,-0.18044359066253465,-1.009802690553086,-2.7888582036754785,-0.8329796195030212,0.17946597933769226,-0.5233899354934692, 247, 180, 29, 219
1733261843326,6i,20.73119080677209,1.9s : 0.3s,-11.397580293218383,1.3173016811697347,5.425609023815597,1.5892917216494256,0.7070940136909485,-2.341343879699707,-2.5286166667938232,1.392378807067871,-0.4654708504676819,0.6086594462394714,-0.15386722204346556,-1.0352952289891397,-2.795378819049597,-0.8498526811599731,0.15326079726219177,-0.5042436122894287, 247, 180, 29, 219
1733261843336,6i,20.73119080677209,1.9s : 0.3s,-11.397580293218383,1.332078982569987,5.075249752229352,1.7374357777318594,0.6652613282203674,-2.1378183364868164,-2.252686023712158,1.4293136596679688,-0.6319364309310913,0.7592113614082336,-0.1297519664314509,-1.0585657911542807,-2.800200587647903,-0.8643263578414917,0.12938819825649261,-0.48600277304649353, 247, 180, 29, 219
1733261843346,6i,20.73119080677209,1.9s : 0.3s,-11.397580293218383,1.344922821288232,4.6891122956260975,1.8331962337516137,0.6377471685409546,-1.9073811769485474,-1.9850245714187622,1.4032961130142212,-0.7826318144798279,0.8825281262397766,-0.10803717076741123,-1.0793301796733061,-2.8034426962935015,-0.8765016198158264,0.10782712697982788,-0.469167560338974, 247, 180, 29, 219
1733261843356,6i,20.73119080677209,1.9s : 0.3s,-11.397580293218383,1.3560781121843521,4.2622000852751265,1.913256228112391,0.6389027237892151,-1.652976632118225,-1.676163673400879,1.3690311908721924,-0.8916797637939453,0.995595395565033,-0.0888485976909451,-1.0974074971447592,-2.804952123180068,-0.8865177631378174,0.08873175084590912,-0.45410674810409546, 247, 180, 29, 219
1733261843366,6i,20.73119080677209,1.9s : 0.3s,-11.397580293218383,1.366009179145454,3.7886659202401245,1.9948014908592318,0.6666670441627502,-1.3268685340881348,-1.3577781915664673,1.3608890771865845,-0.9779208302497864,1.0820742845535278,-0.07237484195012599,-1.1124277417642996,-2.8045750412781865,-0.8944278359413147,0.07231167703866959,-0.4413272738456726, 247, 180, 29, 219
1733261843376,6i,20.73119080677209,1.9s : 0.3s,-11.397580293218383,1.3749779226455592,3.264994988925343,2.053084203581101,0.6917686462402344,-0.9763927459716797,-0.9900385141372681,1.318974256515503,-1.053166151046753,1.1688895225524902,-0.05883057196214916,-1.123887550471832,-2.802317439037571,-0.9002271890640259,0.05879664048552513,-0.43143224716186523, 247, 180, 29, 219
1733261843386,6i,20.73119080677209,1.9s : 0.3s,-11.397580293218383,1.3834904074681063,2.693890914490056,2.132528198272244,0.7866758704185486,-0.5398695468902588,-0.5978232622146606,1.309051513671875,-1.1000796556472778,1.2743176221847534,-0.0485392408005819,-1.131299637007893,-2.79768190030897,-0.9038999676704407,0.04852018132805824,-0.42498287558555603, 247, 180, 29, 219
1733261843396,6i,20.73119080677209,1.9s : 0.3s,-11.397580293218383,1.3920176713532093,2.085654967738134,2.233030706698481,0.8726201057434082,-0.04191460460424423,-0.15017437934875488,1.3046053647994995,-1.1383447647094727,1.4101780652999878,-0.04160075157610226,-1.1339300706690698,-2.790439954260863,-0.905298113822937,0.04158875346183777,-0.4227360785007477, 247, 180, 29, 219
1733261843406,6i,20.73119080677209,1.9s : 0.3s,-11.397580293218383,1.400679654421639,1.5067491103261716,2.366934488883243,0.9048113226890564,0.4763619303703308,0.3150687515735626,1.2910172939300537,-1.2319968938827515,1.5549395084381104,-0.038586081304298664,-1.1314218967808054,-2.7805158081680577,-0.9043443202972412,0.038576506078243256,-0.4250567853450775, 247, 180, 29, 219
1733261843416,6i,20.73119080677209,1.9s : 0.3s,-11.397580293218383,1.4098938270835104,1.164566157497727,2.5244325613653245,0.942562460899353,1.0272133350372314,0.7805056571960449,1.3423476219177246,-1.3497437238693237,1.6580272912979126,-0.039573444315499175,-1.1234928354478824,-2.768297768181001,-0.9009108543395996,0.03956311568617821,-0.4321972727775574, 247, 180, 29, 219
1733261843426,6i,20.73119080677209,1.9s : 0.3s,-11.397580293218383,1.420282495954948,1.3831394634823035,2.6651488167460338,1.0032514333724976,1.5958828926086426,1.2662336826324463,1.4340065717697144,-1.4629794359207153,1.7047975063323975,-0.044445515592249914,-1.1098115074366066,-2.7534185789200665,-0.8947303295135498,0.04443088546395302,-0.44439101219177246, 247, 180, 29, 219
1733261843436,6i,20.73119080677209,1.9s : 0.3s,-11.397580293218383,1.4326995054138112,2.044144039522709,2.8026571002471967,1.0505324602127075,2.1458632946014404,1.8152661323547363,1.5666825771331787,-1.5485796928405762,1.732712745666504,-0.053533804583618644,-1.0903093993270008,-2.735813940948046,-0.8854995369911194,0.05350823700428009,-0.4615488350391388, 247, 180, 29, 219
1733261843446,6i,20.73119080677209,1.9s : 0.3s,-11.397580293218383,1.4484328694057056,2.9048686269540043,2.9617771907779584,1.1513042449951172,2.702543258666992,2.380376100540161,1.7782938480377197,-1.5873945951461792,1.7578320503234863,-0.06678387766212535,-1.0649020914212082,-2.71479585677539,-0.8727914690971375,0.06673424690961838,-0.4835096001625061, 247, 180, 29, 219
1733261843456,6i,20.73119080677209,1.9s : 0.3s,-11.397580293218383,1.4687414905860754,3.871180413072792,3.160848932680477,1.2259340286254883,3.2826409339904785,3.0148119926452637,2.0409388542175293,-1.6265056133270264,1.783259391784668,-0.08420094300614316,-1.033193348563616,-2.689692446322909,-0.8558955788612366,0.08410148322582245,-0.5102643966674805, 247, 180, 29, 219
1733261843466,6i,20.73119080677209,1.9s : 0.3s,-11.397580293218383,1.4945850837792223,4.924356681787394,3.4281605422077486,1.2612979412078857,3.919830322265625,3.7011191844940186,2.330944538116455,-1.721131443977356,1.8321268558502197,-0.10612666835973421,-0.994496973042089,-2.6600577671685532,-0.8337675333023071,0.10592756420373917,-0.5418589115142822, 247, 180, 29, 219
1733261843476,6i,20.73119080677209,1.9s : 0.3s,-11.397580293218383,1.5271260696258895,6.070817171490594,3.7794326353919736,1.3291970491409302,4.58524751663208,4.470431327819824,2.6917929649353027,-1.8419125080108643,1.909376859664917,-0.132506870669531,-0.9479561765681574,-2.624948336958978,-0.8051047921180725,0.13211944699287415,-0.578230619430542, 247, 180, 29, 219
1733261843486,6i,20.73119080677209,1.9s : 0.3s,-11.397580293218383,1.5677826328080402,7.325713393637613,4.231966918203594,1.3338782787322998,5.3510332107543945,5.316362380981445,3.133230686187744,-1.9942691326141357,2.0286202430725098,-0.16328296949738327,-0.8923029791687878,-2.5830452982491514,-0.7681640386581421,0.16255837678909302,-0.6192727088928223, 247, 180, 29, 219
1733261843496,6i,20.73119080677209,1.9s : 0.3s,-11.397580293218383,1.6183438410442579,8.713729372354148,4.807751705837134,1.1253095865249634,6.255892276763916,6.277503490447998,3.657731294631958,-2.165767192840576,2.2460923194885254,-0.19895271881120857,-0.8256734547874871,-2.533905740418529,-0.720505952835083,0.19764281809329987,-0.6646867394447327, 247, 180, 29, 219
1733261843506,6i,20.73119080677209,1.9s : 0.3s,-11.397580293218383,1.6814768035162175,10.296428069285591,5.580476276869255,0.8447623252868652,7.357028007507324,7.3839802742004395,4.342933654785156,-2.3480777740478516,2.601379156112671,-0.24032281760316077,-0.7454459534400856,-2.4763508044712497,-0.6588060259819031,0.23801617324352264,-0.7136686444282532, 247, 180, 29, 219
1733261843516,6i,20.73119080677209,1.9s : 0.3s,-11.397580293218383,1.7600074380842963,12.095926694725199,6.41458553566247,0.7741068005561829,8.636079788208008,8.530423164367676,5.154593467712402,-2.5077569484710693,2.8789284229278564,-0.28529304578956777,-0.6477066598330283,-2.406845309861605,-0.5789709091186523,0.2814386785030365,-0.7652352452278137, 247, 180, 29, 219
1733261843526,6i,20.73119080677209,1.9s : 0.3s,-11.397580293218383,1.8559740279299353,14.016848664417498,7.1833177520373095,0.8901056051254272,9.911635398864746,9.549955368041992,6.061067581176758,-2.6424503326416016,2.8073065280914307,-0.32871209033639065,-0.529483268966059,-2.322171569913918,-0.4780444800853729,0.3228243291378021,-0.8168585300445557, 247, 180, 29, 219
1733261843536,6i,20.73119080677209,1.9s : 0.3s,-11.397580293218383,1.9722869845669342,15.88125064271321,8.140479767706061,0.8340559005737305,10.94942855834961,10.337908744812012,7.243008613586426,-2.6633074283599854,2.590951681137085,-0.36508964050570436,-0.3912532268770429,-2.2223816964294256,-0.3562133014202118,0.35703301429748535,-0.86350417137146, 247, 180, 29, 219
1733261843546,6i,20.73119080677209,1.9s : 0.3s,-11.397580293218383,2.113085188678789,17.57818140303156,9.343153108288,0.20772212743759155,11.61356258392334,11.103554725646973,8.667657852172852,-2.342400312423706,2.584449291229248,-0.39273225213199403,-0.2368313173241589,-2.1100685488497524,-0.21676093339920044,0.38271406292915344,-0.8980783224105835, 247, 180, 29, 219
1733261843556,6i,20.73119080677209,1.9s : 0.3s,-11.397580293218383,2.2824137603019534,19.02186847017318,10.74249050429487,-1.2666478157043457,12.110587120056152,11.536391258239746,10.268460273742676,-1.6935244798660278,2.66304349899292,-0.41480593995975495,-0.0707313714674962,-1.9886023015284753,-0.06467900425195694,0.40301233530044556,-0.9129061698913574, 247, 180, 29, 219
1733261843566,6i,20.73119080677209,1.9s : 0.3s,-11.397580293218383,2.482900699203079,20.251419151292673,12.288233868257098,-3.4659812450408936,12.11404037475586,12.109185218811035,12.017976760864258,-0.9171146154403687,2.3932878971099854,-0.4360514066081631,0.10466040708270018,-1.8580022763405946,0.0946938619017601,0.42236366868019104,-0.9014666080474854, 247, 180, 29, 219
1733261843576,6i,20.73119080677209,1.9s : 0.3s,-11.397580293218383,2.715324034258399,21.442949842579413,13.855792934196069,-5.865320205688477,11.873604774475098,12.878347396850586,13.75080394744873,0.357515424489975,1.6645033359527588,-0.4573500822706987,0.28769641064138596,-1.7121151168905961,0.2545824944972992,0.4415720999240875,-0.8603498339653015, 247, 180, 29, 219
1733261843586,6i,20.73119080677209,1.9s : 0.3s,-11.397580293218383,2.9786726617515726,22.606726317790574,15.456619603261803,-8.970325469970703,11.217303276062012,13.296761512756348,15.261242866516113,2.349651336669922,0.6933212280273438,-0.47628932062256424,0.478766081559106,-1.5449515715192026,0.4094112515449524,0.4584846496582031,-0.7887802720069885, 247, 180, 29, 219
1733261843596,6i,20.73119080677209,1.9s : 0.3s,-11.397580293218383,3.2699988422098207,23.72466542055431,16.990805540168957,-12.779189109802246,8.93974494934082,13.849591255187988,16.287630081176758,4.83211612701416,-0.22634702920913696,-0.49373063437350617,0.6720210385228607,-1.3496068687581408,0.5482160449028015,0.4739142656326294,-0.6891040205955505, 247, 180, 29, 219
1733261843606,6i,20.73119080677209,1.9s : 0.3s,-11.397580293218383,3.586794379088386,25.22492298475571,18.770627098753607,-17.461597442626953,5.648099899291992,14.446370124816895,16.919788360595703,8.082143783569336,-0.8579949736595154,-0.501844038839321,0.8591382259061235,-1.1151578978218901,0.6639050841331482,0.4810430109500885,-0.5725622773170471, 247, 180, 29, 219
1733261843616,6i,20.73119080677209,1.9s : 0.3s,-11.397580293218383,3.9208081647126836,27.412949424703775,19.75381776035341,-21.487043380737305,1.2667250633239746,15.515788078308105,16.110431671142578,11.397604942321777,-0.8728740215301514,-0.49657676643908993,1.0276049473478384,-0.8315660929424086,0.7526669502258301,0.47641855478286743,-0.45444226264953613, 247, 180, 29, 219
1733261843626,6i,20.73119080677209,1.9s : 0.3s,-11.397580293218383,4.25939728098311,29.572518128699084,19.896003968053833,-21.571029663085938,-0.7903314828872681,16.39006805419922,13.747200965881348,14.382709503173828,0.05573910474777222,-0.45515565561624227,1.171327189573032,-0.5332291840025595,0.8274757266044617,0.4396021366119385,-0.3493334650993347, 247, 180, 29, 219
1733261843636,6i,20.73119080677209,1.9s : 0.3s,-11.397580293218383,4.585735221086558,29.958370980915912,20.070243791534573,-18.34254264831543,-3.771512508392334,15.13344669342041,9.83791446685791,17.468957901000977,0.9303948879241943,-0.37987978995360444,1.2586337468854991,-0.27344884446823203,0.8838261961936951,0.37080883979797363,-0.28522276878356934, 247, 180, 29, 219
1733261843646,6i,20.73119080677209,1.9s : 0.3s,-11.397580293218383,4.8841337672072,29.811275529150116,19.76521240009562,-16.79593849182129,-5.3553900718688965,14.45639419555664,5.246129035949707,18.9901123046875,1.5866272449493408,-0.2908091864716075,1.2848347329977585,-0.0538929137443868,0.9191080927848816,0.28672751784324646,-0.27023619413375854, 247, 180, 29, 219
1733261843656,6i,20.73119080677209,1.9s : 0.3s,-11.397580293218383,5.1442250406223025,30.615118679271617,15.594116268530886,-19.789871215820312,-5.830435752868652,13.676599502563477,1.8497633934020996,15.151229858398438,3.192972183227539,-0.2065744214240458,1.2827985090005307,0.16670943759167056,0.9384294152259827,0.20510835945606232,-0.2779943346977234, 247, 180, 29, 219
1733261843666,6i,20.73119080677209,1.9s : 0.3s,-11.397580293218383,5.361595375542719,32.80277024919525,11.029543556775225,-25.851028442382812,-6.346937656402588,11.618315696716309,0.06282544136047363,9.6124906539917,5.408041000366211,-0.14921621770951704,1.2694655243995046,0.4237166391678399,0.9443309307098389,0.14866310358047485,-0.2934933304786682, 247, 180, 29, 219
1733261843676,6i,20.73119080677209,1.9s : 0.3s,-11.397580293218383,5.532382914477369,23.86858480329307,4.861126262868772,8.299808502197266,-1.9221601486206055,12.414961814880371,-0.04934251308441162,4.042783260345459,2.6988918781280518,-0.07035784955406962,1.233938463592789,0.5909025853264097,0.9414628148078918,0.07029981911182404,-0.32970544695854187, 247, 180, 29, 219
1733261843686,6i,20.73119080677209,1.9s : 0.3s,-11.397580293218383,5.672486323372183,28.608321725470333,8.295472835667903,-33.43629455566406,-3.9329142570495605,5.026119232177734,4.858397960662842,-1.5227848291397095,-6.549195766448975,-0.013584186898031321,1.2358825593222307,0.6937171192870791,0.9443514943122864,0.013583769090473652,-0.3286573886871338, 247, 180, 29, 219
1733261843696,6i,20.73119080677209,1.9s : 0.3s,-11.397580293218383,5.821573345213318,32.03918303629777,13.48734944681473,-30.798959732055664,-13.773223876953125,-1.8646372556686401,8.298015594482422,-4.8491315841674805,9.462423324584961,-0.11040314061575823,1.1563031915912065,0.9860911062094516,0.909747838973999,0.11017899960279465,-0.4002741277217865, 247, 180, 29, 219
1733261843706,6i,20.73119080677209,1.9s : 0.3s,-11.397580293218383,5.991511577242006,30.812325632084068,11.873923226416302,-18.226194381713867,-14.575043678283691,-2.9996259212493896,9.198980331420898,-0.19120094180107117,7.505481719970703,-0.24044717429520485,1.039380214649577,1.2052204473797519,0.8372892737388611,0.23813696205615997,-0.4921761155128479, 247, 180, 29, 219
1733261843716,6i,20.73119080677209,1.9s : 0.3s,-11.397580293218383,6.162154627626759,27.83328360709691,11.527251579223968,-12.536107063293457,-11.296266555786133,-4.045472145080566,3.292698621749878,8.045083999633789,7.570487976074219,-0.3451833764944724,0.9443678024420333,1.3245809013393532,0.7623398303985596,0.3383692502975464,-0.551673948764801, 247, 180, 29, 219
1733261843726,6i,20.73119080677209,1.9s : 0.3s,-11.397580293218383,6.336048993240847,24.34905617831838,12.714850117231128,-8.49988079071045,-9.717012405395508,-4.845346450805664,2.686091184616089,10.928853988647461,5.9171342849731445,-0.43623010426448805,0.8618994346044252,1.379639155297118,0.6879932880401611,0.4225256145000458,-0.5900315642356873, 247, 180, 29, 219
1733261843736,6i,20.73119080677209,1.9s : 0.3s,-11.397580293218383,6.486924287214885,21.526068648148314,5.749068073258771,-5.302274227142334,-11.219547271728516,-4.574275493621826,1.8645408153533936,4.101683616638184,3.5709190368652344,-0.5183747517809882,0.7669724007553689,1.400872947845314,0.602790117263794,0.4954690635204315,-0.6254234313964844, 247, 180, 29, 219
1733261843746,6i,20.73119080677209,1.9s : 0.3s,-11.397580293218383,6.59924588668524,20.93776634770228,4.670797910388695,-7.815522193908691,-12.041243553161621,-5.908938407897949,0.41138380765914917,-1.53934907913208,4.390617370605469,-0.6012090429526111,0.6504092696678795,1.4041370737292675,0.49933698773384094,0.5656399130821228,-0.6562880277633667, 247, 180, 29, 219
1733261843756,6i,20.73119080677209,1.9s : 0.3s,-11.397580293218383,6.696118486703271,19.414107960850558,3.5520571428690118,-4.018745422363281,-11.085746765136719,-5.3914794921875,1.3654162883758545,1.622079849243164,2.8498430252075195,-0.6842026117183311,0.5268621290133749,1.3895522712988149,0.3896495997905731,0.6320552825927734,-0.6698352098464966, 247, 180, 29, 219
1733261843766,6i,20.73119080677209,1.9s : 0.3s,-11.397580293218383,6.7796270018140765,17.88816651178233,3.4718443205174943,-1.6914361715316772,-10.461947441101074,-5.525485992431641,0.7032246589660645,2.3792269229888916,2.4286739826202393,-0.7312499737155731,0.386887187220759,1.3388551943303464,0.28084513545036316,0.6678005456924438,-0.6893244981765747, 247, 180, 29, 219
1733261843776,6i,20.73119080677209,1.9s : 0.3s,-11.397580293218383,6.8453313913550575,17.417904354422454,1.6587176389637501,-2.550292730331421,-10.691094398498535,-6.479364395141602,0.4752040505409241,0.41394639015197754,1.5343316793441772,-0.7712907209918392,0.23247813631599978,1.266959600578527,0.16519206762313843,0.69706130027771,-0.6977227926254272, 247, 180, 29, 219
1733261843786,6i,20.73119080677209,1.9s : 0.3s,-11.397580293218383,6.901609293171805,17.438436883649832,2.8430092625213548,-2.419473648071289,-11.120454788208008,-7.092148780822754,1.1556077003479004,-0.5618800520896912,2.536052703857422,-0.8059472918238763,0.059094634731580865,1.1761400624282268,0.040894970297813416,0.7214869260787964,-0.6912193894386292, 247, 180, 29, 219
1733261843796,6i,20.73119080677209,1.9s : 0.3s,-11.397580293218383,6.9564620237811,17.575836412736937,3.0293698155241975,-1.945180892944336,-11.16283130645752,-7.549251079559326,1.5840935707092285,0.373538076877594,2.5550339221954346,-0.824224159902419,-0.13493005255269144,1.0591234111614412,-0.0913567915558815,0.7340211272239685,-0.6729538440704346, 247, 180, 29, 219
1733261843806,6i,20.73119080677209,1.9s : 0.3s,-11.397580293218383,7.010982286234981,17.706640807591857,2.742326000631562,-1.1099350452423096,-10.634292602539062,-8.671049118041992,1.5100380182266235,1.1637338399887085,1.9712586402893066,-0.8187965445789724,-0.33667077900371634,0.9275780665732393,-0.22565993666648865,0.7303242683410645,-0.6447510123252869, 247, 180, 29, 219
1733261843816,6i,20.73119080677209,1.9s : 0.3s,-11.397580293218383,7.063741296835996,17.598093303993448,2.234837913972983,0.10489174723625183,-9.90054702758789,-8.676106452941895,1.6755002737045288,0.8186766505241394,1.2316524982452393,-0.7859216409943258,-0.5241533300917622,0.8086486453320643,-0.35370761156082153,0.7074768543243408,-0.611855685710907, 247, 180, 29, 219
1733261843826,6i,20.73119080677209,1.9s : 0.3s,-11.397580293218383,7.116266439570838,17.15229526837418,2.3249293344665536,0.7509884834289551,-9.121170997619629,-8.309043884277344,2.1131839752197266,0.7871952056884766,0.5657504796981812,-0.7346251848073516,-0.6831898509217869,0.7160915245062551,-0.4684542119503021,0.6703090667724609,-0.5755313634872437, 247, 180, 29, 219
1733261843836,6i,20.73119080677209,1.9s : 0.3s,-11.397580293218383,7.168889594645134,16.524928817809432,2.440863675385329,1.669150710105896,-8.239090919494629,-7.954406261444092,2.315875768661499,0.42982035875320435,0.6401479244232178,-0.6700847292259307,-0.8137674281233702,0.649031032130793,-0.5697057843208313,0.6210523843765259,-0.5382649898529053, 247, 180, 29, 219
1733261843846,6i,20.73119080677209,1.9s : 0.3s,-11.397580293218383,7.223710946635091,15.800063088534886,2.7833949859938887,2.640573740005493,-7.312201023101807,-7.650749683380127,2.676604986190796,0.5245916247367859,0.5548666715621948,-0.5970809471998232,-0.9168626171069997,0.6065119202840358,-0.6563718318939209,0.5622308850288391,-0.5030631422996521, 247, 180, 29, 219
1733261843856,6i,20.73119080677209,1.9s : 0.3s,-11.397580293218383,7.282453951686166,15.151211875607821,3.1045524093063683,3.498095750808716,-6.600714206695557,-7.485930919647217,2.9359116554260254,0.825437068939209,0.5807943344116211,-0.5177792928648373,-0.9979511223573501,0.5845858950030942,-0.7302079200744629,0.4949517548084259,-0.4709768295288086, 247, 180, 29, 219
1733261843866,6i,20.73119080677209,1.9s : 0.3s,-11.397580293218383,7.343609812621697,14.637462700691591,3.1170746486861804,4.336026191711426,-6.110647201538086,-7.243428707122803,2.9964001178741455,0.4833773672580719,0.7099908590316772,-0.43425686793157364,-1.0635830162524649,0.5798341616441589,-0.7929699420928955,0.4207363724708557,-0.44065800309181213, 247, 180, 29, 219
1733261843876,6i,20.73119080677209,1.9s : 0.3s,-11.397580293218383,7.407580347910358,14.271328806750972,3.3515266743927117,5.54305362701416,-5.707709789276123,-6.818220138549805,3.248229742050171,0.3233422338962555,0.7597265243530273,-0.3489815668741365,-1.118020431417935,0.5920386401409655,-0.8450315594673157,0.3419409394264221,-0.41109374165534973, 247, 180, 29, 219
1733261843886,6i,20.73119080677209,1.9s : 0.3s,-11.397580293218383,7.474897353749986,13.940192172775546,3.527535077669221,5.521525859832764,-5.391732692718506,-6.4965410232543945,3.3959712982177734,0.43759945034980774,0.8481682538986206,-0.26509476174330204,-1.1658448610346945,0.6167018305335332,-0.8870144486427307,0.26200070977211,-0.3802117109298706, 247, 180, 29, 219
1733261843896,6i,20.73119080677209,1.9s : 0.3s,-11.397580293218383,7.543517793838029,13.582097419772328,3.441154424049086,5.470362663269043,-5.192403793334961,-6.035829067230225,3.2380332946777344,0.1453840434551239,1.1556589603424072,-0.1866456294871068,-1.2124784872301184,0.6445326576750369,-0.9202234148979187,0.1855638325214386,-0.3446085751056671, 247, 180, 29, 219
1733261843906,6i,20.73119080677209,1.9s : 0.3s,-11.397580293218383,7.612208952842912,13.318980766542472,3.3378382124937773,6.322172164916992,-4.936923980712891,-5.455932140350342,3.12650203704834,0.050512149930000305,1.167731761932373,-0.11331969424969945,-1.2578701173547089,0.6811556141218412,-0.9453344345092773,0.1130773201584816,-0.30586957931518555, 247, 180, 29, 219
1733261843916,6i,20.73119080677209,1.9s : 0.3s,-11.397580293218383,7.680448888603519,13.142593834280667,3.1768882961117657,7.0155558586120605,-4.549034118652344,-5.018287181854248,3.0419628620147705,0.25750672817230225,0.879074215888977,-0.044036420835769724,-1.3016924968425503,0.7305327446264868,-0.9630750417709351,0.04402219131588936,-0.26560989022254944, 247, 180, 29, 219
1733261843926,6i,20.73119080677209,1.9s : 0.3s,-11.397580293218383,7.7463909499693955,12.750263813180974,2.8748618959849654,6.5850677490234375,-4.081841945648193,-4.521501064300537,2.616908311843872,0.19815418124198914,1.173608422279358,0.019154507399845606,-1.3442493829831446,0.7854004487987845,-0.974268913269043,-0.019153336063027382,-0.2245728075504303, 247, 180, 29, 219
1733261843936,6i,20.73119080677209,1.9s : 0.3s,-11.397580293218383,7.811962214193773,12.236293278563293,3.0961078256601358,6.41420841217041,-3.6774964332580566,-3.8901114463806152,2.4614458084106445,0.11658520251512527,1.8744535446166992,0.07357600506153146,-1.3855366261082367,0.8402590115749914,-0.9802291393280029,-0.07350964099168777,-0.18370342254638672, 247, 180, 29, 219
1733261843946,6i,20.73119080677209,1.9s : 0.3s,-11.397580293218383,7.874580456203285,11.783669313198818,2.7779924122494966,6.499051570892334,-3.3394832611083984,-3.5313832759857178,2.212576150894165,0.12232066690921783,1.6753466129302979,0.12062938061102524,-1.4261555173955578,0.897939068343936,-0.9823668003082275,-0.12033703923225403,-0.14308957755565643, 247, 180, 29, 219
1733261843956,6i,20.73119080677209,1.9s : 0.3s,-11.397580293218383,7.93219461267645,11.391501870401642,2.2175437221078598,6.616935729980469,-3.0043344497680664,-3.168806552886963,1.7540658712387085,0.29271596670150757,1.3247907161712646,0.16198421595334409,-1.4666240177383736,0.9594590118293003,-0.9815590977668762,-0.16127675771713257,-0.10262276232242584, 247, 180, 29, 219
1733261843966,6i,20.73119080677209,1.9s : 0.3s,-11.397580293218383,7.98643795945606,11.060822022298785,2.2081179742766177,6.699056148529053,-2.585052490234375,-2.990290641784668,1.6161413192749023,0.598357081413269,1.3805220127105713,0.19761750098766176,-1.506437275432121,1.0245215148738165,-0.9785070419311523,-0.19633376598358154,-0.063062883913517, 247, 180, 29, 219
1733261843976,6i,20.73119080677209,1.9s : 0.3s,-11.397580293218383,8.037704296123612,10.708042069102477,2.170902171408554,6.54150390625,-2.267685651779175,-2.7541065216064453,1.4222123622894287,0.7158863544464111,1.475681185722351,0.22949216296580968,-1.5447310343689276,1.090718974199075,-0.9734511971473694,-0.22748303413391113,-0.025379037484526634, 247, 180, 29, 219
1733261843986,6i,20.73119080677209,1.9s : 0.3s,-11.397580293218383,8.085440520569017,10.389715313446729,1.9987078934604392,6.5201215744018555,-1.93221914768219,-2.5625078678131104,1.2118122577667236,0.6444519758224487,1.4529370069503784,0.25660321748899384,-1.5818442326833504,1.1576943700674343,-0.9671984314918518,-0.25379645824432373,0.010685952380299568, 247, 180, 29, 219
1733261843996,6i,20.73119080677209,1.9s : 0.3s,-11.397580293218383,8.12977305486602,10.065948282101628,1.8675861106456815,6.426950931549072,-1.5271490812301636,-2.366302490234375,1.0886445045471191,0.6063696146011353,1.3910596370697021,0.27931410264413115,-1.617173118024882,1.2256379217363993,-0.9602111577987671,-0.27569639682769775,0.04456346482038498, 247, 180, 29, 219
1733261844006,6i,20.73119080677209,1.9s : 0.3s,-11.397580293218383,8.170384468041082,9.669076571570193,1.7541666182746751,6.131298542022705,-1.2060586214065552,-2.0763814449310303,0.8925142884254456,0.4915442168712616,1.4279016256332397,0.2975672142558103,-1.6497222103143219,1.292586448992294,-0.9530763626098633,-0.2931952178478241,0.07537897676229477, 247, 180, 29, 219
1733261844016,6i,20.73119080677209,1.9s : 0.3s,-11.397580293218383,8.206551142752227,9.259314343636,1.5986372047932313,5.92756986618042,-0.9453291296958923,-1.759042739868164,0.6817429661750793,0.24726659059524536,1.424684762954712,0.3111464360894925,-1.67982689766944,1.3573010426048302,-0.946330189704895,-0.3061502277851105,0.103589728474617, 247, 180, 29, 219
1733261844026,6i,20.73119080677209,1.9s : 0.3s,-11.397580293218383,8.238247325500952,8.872791850769385,1.4037018230433043,5.825845718383789,-0.6096079349517822,-1.4078227281570435,0.5457218289375305,0.13423100113868713,1.286292552947998,0.31952626101503206,-1.707377520140282,1.4209784621234152,-0.9405428767204285,-0.31411683559417725,0.12926526367664337, 247, 180, 29, 219
1733261844036,6i,20.73119080677209,1.9s : 0.3s,-11.397580293218383,8.26531575464492,8.349594113605031,1.2372479322577141,5.244848251342773,-0.3952375650405884,-1.1202616691589355,0.3661434054374695,0.03894448280334473,1.1811878681182861,0.32388985520255154,-1.7311301996205821,1.4805620709708878,-0.9358453154563904,-0.31825655698776245,0.151346817612648, 247, 180, 29, 219
1733261844046,6i,20.73119080677209,1.9s : 0.3s,-11.397580293218383,8.288775319887181,7.798039005408108,1.3996569297058232,4.845105171203613,-0.21246911585330963,-0.8066819906234741,0.25077521800994873,-0.023610949516296387,1.3768056631088257,0.32481342503264066,-1.751324765267712,1.534543379878893,-0.9323089718818665,-0.3191319704055786,0.17016085982322693, 247, 180, 29, 219
1733261844056,6i,20.73119080677209,1.9s : 0.3s,-11.397580293218383,8.309421295846413,7.29491152444091,1.3120119217679052,4.595437049865723,0.027570107951760292,-0.5802655816078186,0.21183979511260986,0.012720674276351929,1.2947344779968262,0.3226571768940793,-1.7681895951590378,1.584712519157834,-0.9299793839454651,-0.31708773970603943,0.18599365651607513, 247, 180, 29, 219
1733261844066,6i,20.73119080677209,1.9s : 0.3s,-11.397580293218383,8.32682702891657,6.826368339030513,1.157386834881851,4.321769714355469,0.2397129088640213,-0.38183948397636414,0.023224830627441406,0.05506435036659241,1.155842900276184,0.31830081761940526,-1.781606136771775,1.6316065196199907,-0.928742527961731,-0.3129531741142273,0.1987408548593521, 247, 180, 29, 219
1733261844076,6i,20.73119080677209,1.9s : 0.3s,-11.397580293218383,8.34174943155687,6.39169230165276,1.1953315723811344,4.051768779754639,0.44613105058670044,-0.2162795513868332,-0.05721050500869751,0.11523979902267456,1.1883872747421265,0.312068149439003,-1.7917283374071198,1.6752748364954242,-0.9285683631896973,-0.30702754855155945,0.20855481922626495, 247, 180, 29, 219
1733261844086,6i,20.73119080677209,1.9s : 0.3s,-11.397580293218383,8.354896682141126,6.009528746552246,1.1831474618233064,3.826096296310425,0.6622706055641174,-0.14779463410377502,-0.06991374492645264,0.13292720913887024,1.1735758781433105,0.30502407204357884,-1.7984386793712122,1.715969802599212,-0.9292318224906921,-0.30031612515449524,0.21526382863521576, 247, 180, 29, 219
1733261844096,6i,20.73119080677209,1.9s : 0.3s,-11.397580293218383,8.365960264528516,5.643653250292466,1.112260250804589,3.5354549884796143,0.826377272605896,-0.13259251415729523,-0.17596018314361572,0.10772553086280823,1.0929574966430664,0.2976958424325892,-1.8022779670799103,1.7538830631163096,-0.9305156469345093,-0.2933181822299957,0.219328835606575, 247, 180, 29, 219
1733261844106,6i,20.73119080677209,1.9s : 0.3s,-11.397580293218383,8.375168676744595,5.2532970823617005,1.0546473261596192,3.163329839706421,0.9203274250030518,-0.051231276243925095,-0.2145627737045288,0.09062227606773376,1.0286065340042114,0.29079397116146505,-1.8034925794749677,1.7881150208495955,-0.9321961402893066,-0.2867129445075989,0.22092045843601227, 247, 180, 29, 219
1733261844116,6i,20.73119080677209,1.9s : 0.3s,-11.397580293218383,8.383123242092422,4.878995135199803,1.0031940029962603,2.8613831996917725,1.030371069908142,-0.040760260075330734,-0.18497079610824585,0.0770815908908844,0.9829763174057007,0.28432718646057287,-1.802360559428856,1.8187064535325415,-0.9342308044433594,-0.2805117070674896,0.22028596699237823, 247, 180, 29, 219
1733261844126,6i,20.73119080677209,1.9s : 0.3s,-11.397580293218383,8.38940362852982,4.565841497859685,0.9038924988553257,2.6885223388671875,1.1075910329818726,0.005027500446885824,-0.25912386178970337,0.03555423021316528,0.8652238845825195,0.27818789341513317,-1.7994658873535383,1.8468163940803417,-0.9365242123603821,-0.2746136486530304,0.21796703338623047, 247, 180, 29, 219
1733261844136,6i,20.73119080677209,1.9s : 0.3s,-11.397580293218383,8.39401076488443,4.2641993245405345,0.7578964729241207,2.4350361824035645,1.1659371852874756,0.028159717097878456,-0.2656515836715698,-0.004462540149688721,0.7098002433776855,0.27220184958705557,-1.7951361240862016,1.8727397208117615,-0.9390450119972229,-0.2688528597354889,0.2142719328403473, 247, 180, 29, 219
1733261844146,6i,20.73119080677209,1.9s : 0.3s,-11.397580293218383,8.397117214336971,3.9794960976143234,0.7286397228127739,2.186025619506836,1.2572952508926392,0.023202544078230858,-0.2894676923751831,-0.042552173137664795,0.6673182249069214,0.26678415222015,-1.7891543112380646,1.8961005285153076,-0.9417182803153992,-0.2636307179927826,0.20896345376968384, 247, 180, 29, 219
1733261844156,6i,20.73119080677209,1.9s : 0.3s,-11.397580293218383,8.398958738304586,3.729089617834434,0.7567552320464365,2.004793882369995,1.299464464187622,0.023624388501048088,-0.3292362093925476,-0.051900237798690796,0.6794029474258423,0.26212644537535057,-1.7818251056243692,1.9172095256146333,-0.9444150328636169,-0.2591349482536316,0.20231087505817413, 247, 180, 29, 219
1733261844166,6i,20.73119080677209,1.9s : 0.3s,-11.397580293218383,8.40000349842528,3.5059964610864984,0.7131185097138292,1.8346772193908691,1.3282197713851929,0.008955197408795357,-0.31899064779281616,-0.0036914944648742676,0.6377847194671631,0.25801169005987495,-1.773633038954914,1.9366292449657394,-0.9470767378807068,-0.25515857338905334,0.19478055834770203, 247, 180, 29, 219
1733261844176,6i,20.73119080677209,1.9s : 0.3s,-11.397580293218383,8.400290535054166,3.2945685108529372,0.6079744250537917,1.656254529953003,1.327013611793518,-0.012699764221906662,-0.31528449058532715,0.020657211542129517,0.519424557685852,0.25453696755831384,-1.764807345853062,1.9543096135749956,-0.9496232271194458,-0.25179731845855713,0.18658429384231567, 247, 180, 29, 219
1733261844186,6i,20.73119080677209,1.9s : 0.3s,-11.397580293218383,8.39990140379124,3.0751505983500107,0.5747057899368664,1.4301832914352417,1.3207443952560425,-0.05207972601056099,-0.3161168098449707,0.0019513070583343506,0.4799511432647705,0.25195351475377425,-1.7555304772260414,1.970055202443698,-0.9519495368003845,-0.24929627776145935,0.1778857707977295, 247, 180, 29, 219
1733261844196,6i,20.73119080677209,1.9s : 0.3s,-11.397580293218383,8.399270961880076,2.8489976863148394,0.6020378950421658,1.1920647621154785,1.312215805053711,-0.059750959277153015,-0.3027687668800354,0.02266019582748413,0.5198723077774048,0.2501605209228653,-1.7456598864430322,1.983445219822514,-0.9540976285934448,-0.24755948781967163,0.16855843365192413, 247, 180, 29, 219
1733261844206,6i,20.73119080677209,1.9s : 0.3s,-11.397580293218383,8.398583642755517,2.640773986487099,0.5679395955416422,1.0641480684280396,1.2417707443237305,-0.04609926417469978,-0.28190308809280396,0.046217650175094604,0.4908665418624878,0.24883564940384675,-1.7356634200289138,1.9948948487622566,-0.9560576677322388,-0.2462756335735321,0.15906627476215363, 247, 180, 29, 219
1733261844216,6i,20.73119080677209,1.9s : 0.3s,-11.397580293218383,8.397638488715316,2.4518650088181637,0.42242093356853766,0.977126955986023,1.1584244966506958,-0.033901989459991455,-0.2468319535255432,0.02701336145401001,0.3417363166809082,0.24753590347052454,-1.7262089327158527,2.0054235181008573,-0.9578342437744141,-0.2450157105922699,0.1500696837902069, 247, 180, 29, 219
1733261844226,6i,20.73119080677209,1.9s : 0.3s,-11.397580293218383,8.396234158315309,2.2477642806945846,0.3391708550060677,0.8055474162101746,1.0671879053115845,-0.03296049311757088,-0.23367971181869507,-0.016877993941307068,0.24524639546871185,0.2465214189974069,-1.7173287973085662,2.0145915329973074,-0.9593744277954102,-0.24403202533721924,0.14159438014030457, 247, 180, 29, 219
1733261844236,6i,20.73119080677209,1.9s : 0.3s,-11.397580293218383,8.394672269029769,2.033894635430501,0.3604790341560669,0.6403430104255676,0.9700343608856201,-0.01228024996817112,-0.2151350975036621,-0.034987688064575195,0.28711998462677,0.24573733827283548,-1.7089051150542418,2.0219258439658234,-0.9607223868370056,-0.2432715743780136,0.1335342973470688, 247, 180, 29, 219
1733261844246,6i,20.73119080677209,1.9s : 0.3s,-11.397580293218383,8.393447867304168,1.8277293497004723,0.337154004560062,0.4891687035560608,0.9032169580459595,-0.011345546692609787,-0.15917617082595825,0.0056854188442230225,0.29715895652770996,0.24508539139397534,-1.70090042872511,2.027653688745564,-0.9619176387786865,-0.24263916909694672,0.12586037814617157, 247, 180, 29, 219
1733261844256,6i,20.73119080677209,1.9s : 0.3s,-11.397580293218383,8.39272774461733,1.651781722162152,0.29959386182906206,0.398927241563797,0.85939621925354,-0.03092457726597786,-0.12231343984603882,0.057760581374168396,0.26731932163238525,0.24478337385129262,-1.6932738939547758,2.0322947025004616,-0.9629221558570862,-0.2423461675643921,0.11852963268756866, 247, 180, 29, 219
1733261844266,6i,20.73119080677209,1.9s : 0.3s,-11.397580293218383,8.392484782189996,1.481214848245435,0.2767648830736732,0.22907161712646484,0.8169387578964233,0.0030441777780652046,-0.10124468803405762,0.08230987191200256,0.24407662451267242,0.24449814601305542,-1.6856666629803176,2.0355086736080743,-0.9638646245002747,-0.24206942319869995,0.11120902746915817, 247, 180, 29, 219
1733261844276,6i,20.73119080677209,1.9s : 0.3s,-11.397580293218383,8.392764958404985,1.3318887821573346,0.26855503962855504,0.12529754638671875,0.7669923305511475,-0.0003460261505097151,-0.06392019987106323,0.0649411678314209,0.2526235580444336,0.24430509744880452,-1.678142904429076,2.03728444491827,-0.964720606803894,-0.2418821156024933,0.10395907610654831, 247, 180, 29, 219
1733261844286,6i,20.73119080677209,1.9s : 0.3s,-11.397580293218383,8.393282802105896,1.2116736243731758,0.17629193132351137,0.13342271745204926,0.7014881372451782,0.021356839686632156,-0.03969466686248779,0.0480891615152359,0.16489575803279877,0.24404693126543203,-1.6710741073636324,2.0385232591428144,-0.9654931426048279,-0.2416316121816635,0.09714334458112717, 247, 180, 29, 219
1733261844296,6i,20.73119080677209,1.9s : 0.3s,-11.397580293218383,8.393895784656776,1.107980685129589,0.09720946708571916,0.09055488556623459,0.6557601094245911,0.028870414942502975,-0.016426920890808105,0.05484195053577423,0.07856333255767822,0.24367823995304982,-1.664570209835725,2.0396839241121394,-0.9661933183670044,-0.24127382040023804,0.0908702090382576, 247, 180, 29, 219
1733261844306,6i,20.73119080677209,1.9s : 0.3s,-11.397580293218383,8.394587868926001,1.0079013442266525,0.09105428440505008,-0.030400296673178673,0.6096130609512329,0.042437221854925156,-0.009504914283752441,0.044423967599868774,0.0789116621017456,0.24324190940181672,-1.6583586668604327,2.039943479281413,-0.9668439030647278,-0.24085035920143127,0.084876149892807, 247, 180, 29, 219
1733261844316,6i,20.73119080677209,1.9s : 0.3s,-11.397580293218383,8.395591766547986,0.9081711462808676,0.12721006058126447,-0.24542179703712463,0.546770453453064,0.04163001850247383,0.01737922430038452,0.047745972871780396,0.1166219711303711,0.24293865585322028,-1.6523823681720833,2.038938796865789,-0.967406690120697,-0.2405560165643692,0.07910247147083282, 247, 180, 29, 219
1733261844326,6i,20.73119080677209,1.9s : 0.3s,-11.397580293218383,8.39696404802049,0.8518170453460429,0.11895984836177476,-0.09242918342351913,0.5412583947181702,0.009696554392576218,0.04921644926071167,0.06991776823997498,0.08270847797393799,0.24287658845036553,-1.6464765849237,2.0376762515349,-0.9678717851638794,-0.24049578607082367,0.0733889564871788, 247, 180, 29, 219
