timestamp,club,max_speed,tempo,w.rotation,l.speed,t.spped,acc,rotation.x,rotation.y,rotation.z,userAcceleration.x,userAcceleration.y,userAcceleration.z,pitch,roll,yaw,gravity.x,gravity.y,gravity.z,impactIndex,minDownIndex,StartIndex,endIndex
1733261646386,6i,20.47199567748509,-4.0s : 0.3s,67.15912168902656,0.00047196332738746235,0.2841004262466533,0.03840381483638597,0.6343317627906799,-0.02698780782520771,-0.042655330151319504,-0.010456979274749756,-0.019832342863082886,0.031179845333099365,-0.22038834309331823,1.3822338447297022,0.18254159448585452,0.9585161209106445,0.21860858798027039,-0.18291321396827698, 237, 172, 611, 207
1733261646396,6i,20.47199567748509,-4.0s : 0.3s,67.15912168902656,0.001376606246558655,0.4582988995327858,0.03830933167680689,0.6480973362922668,-0.025275928899645805,-0.037803586572408676,-0.007424831390380859,-0.013577938079833984,0.03504449129104614,-0.21956141493171055,1.3805455394805894,0.17631348124071974,0.9583831429481506,0.21780158579349518,-0.18456533551216125, 237, 172, 611, 207
1733261646406,6i,20.47199567748509,-4.0s : 0.3s,67.15912168902656,0.0022308060081154824,0.5873593420539237,0.02668198639347894,0.6607613563537598,-0.01967223919928074,-0.04824547469615936,-0.005912959575653076,-0.008286252617835999,0.024663805961608887,-0.21875170727045073,1.3788657295179185,0.16997454364094006,0.9582445621490479,0.2170112431049347,-0.1862085610628128, 237, 172, 611, 207
1733261646416,6i,20.47199567748509,-4.0s : 0.3s,67.15912168902656,0.0029989399908069616,0.6947812547924564,0.02390209449479062,0.703186571598053,-0.02173086255788803,-0.04347042739391327,-0.015010476112365723,0.01403588056564331,0.01220613718032837,-0.21789355221551965,1.377173850763476,0.1633601551443434,0.958110511302948,0.2161734700202942,-0.18786528706550598, 237, 172, 611, 207
1733261646426,6i,20.47199567748509,-4.0s : 0.3s,67.15912168902656,0.003677393112535738,0.8002385789510744,0.03555918635173733,0.7780309915542603,-0.018283221870660782,-0.047847796231508255,-0.01473987102508545,0.03151698410511017,0.007339730858802795,-0.2168990510646952,1.3753524770059666,0.15599673777501058,0.9579771757125854,0.21520237624645233,-0.1896517127752304, 237, 172, 611, 207
1733261646436,6i,20.47199567748509,-4.0s : 0.3s,67.15912168902656,0.00426493886077422,0.8913706955546608,0.04114074689445993,0.8211894035339355,-0.008384518325328827,-0.048455532640218735,-0.0040850043296813965,0.04054199159145355,-0.005676329135894775,-0.2157982232937054,1.3734735379041776,0.14802452935455382,0.9578509330749512,0.21412721276283264,-0.19149769842624664, 237, 172, 611, 207
1733261646446,6i,20.47199567748509,-4.0s : 0.3s,67.15912168902656,0.004778638830715155,0.9544688587232724,0.0472247985859551,0.8193002343177795,-0.007606565020978451,-0.05015639215707779,0.00038570165634155273,0.04678866267204285,-0.006391704082489014,-0.21466768207798723,1.3716095879952457,0.13981842372446088,0.9577289819717407,0.21302275359630585,-0.1933305263519287, 237, 172, 611, 207
1733261646456,6i,20.47199567748509,-4.0s : 0.3s,67.15912168902656,0.005265504427987355,0.9858106142570604,0.02884564458277601,0.7876453995704651,-0.006117058917880058,-0.04596723988652229,0.0028342008590698242,0.0276506245136261,0.007712423801422119,-0.21354695744353813,1.369821430221364,0.13182070273978794,0.9576150178909302,0.2119276225566864,-0.19509030878543854, 237, 172, 611, 207
1733261646466,6i,20.47199567748509,-4.0s : 0.3s,67.15912168902656,0.0057357805493824365,0.9872771857269791,0.011004174974967309,0.744162917137146,-0.022111738100647926,-0.03996880352497101,0.004671752452850342,0.002291351556777954,0.009696200489997864,-0.21242208461292603,1.3680544919691284,0.12423094682983482,0.9575017094612122,0.21082815527915955,-0.1968299150466919, 237, 172, 611, 207
1733261646476,6i,20.47199567748509,-4.0s : 0.3s,67.15912168902656,0.006191435865377893,0.9863699249799646,0.0203231648737144,0.726966917514801,-0.030099622905254364,-0.046570248901844025,0.009745895862579346,-0.015216678380966187,0.009300604462623596,-0.21136709064772674,1.36621958310197,0.11689909874710057,0.9573561549186707,0.2097967565059662,-0.19863158464431763, 237, 172, 611, 207
1733261646486,6i,20.47199567748509,-4.0s : 0.3s,67.15912168902656,0.006648770400680242,0.9792565144548571,0.029017459544122933,0.7050192356109619,-0.03273606300354004,-0.031726185232400894,0.008624434471130371,-0.01942002773284912,0.019760936498641968,-0.2102821106461722,1.3643786570315681,0.10972308430050973,0.9572110772132874,0.20873580873012543,-0.2004401981830597, 237, 172, 611, 207
1733261646496,6i,20.47199567748509,-4.0s : 0.3s,67.15912168902656,0.007078454345877069,0.9417547633958068,0.018398161550563504,0.6353158354759216,-0.03763095289468765,-0.024528194218873978,0.0038941502571105957,-0.016094669699668884,0.008018076419830322,-0.20915996561813377,1.3626367091277738,0.10311041642215563,0.9570891857147217,0.20763824880123138,-0.20215561985969543, 237, 172, 611, 207
1733261646506,6i,20.47199567748509,-4.0s : 0.3s,67.15912168902656,0.007478546994331029,0.9001958591165651,0.0207991257198647,0.596679151058197,-0.04589909315109253,-0.02429470233619213,0.002093493938446045,-0.019473552703857422,0.0070001184940338135,-0.2081218527191987,1.360924903093136,0.09704276374189016,0.9569520354270935,0.2066226452589035,-0.20383846759796143, 237, 172, 611, 207
1733261646516,6i,20.47199567748509,-4.0s : 0.3s,67.15912168902656,0.007852463565547271,0.8631603352398418,0.02046489278313688,0.576725959777832,-0.04624610394239426,-0.02278255857527256,0.0016727447509765625,-0.019083291292190552,0.007200121879577637,-0.20713042867959347,1.3592456669529709,0.09128570976294666,0.9568081498146057,0.20565252006053925,-0.20548802614212036, 237, 172, 611, 207
1733261646526,6i,20.47199567748509,-4.0s : 0.3s,67.15912168902656,0.008202439417313868,0.8233376384688771,0.009666917083201798,0.5425774455070496,-0.04139910265803337,-0.015654174610972404,0.0011466741561889648,-0.007217854261398315,0.00632748007774353,-0.20613870054305233,1.3576508130898433,0.08580972727606744,0.9566782116889954,0.2046818882226944,-0.20705680549144745, 237, 172, 611, 207
1733261646536,6i,20.47199567748509,-4.0s : 0.3s,67.15912168902656,0.008512371939805512,0.8067982446567322,0.007906123323071583,0.5099494457244873,-0.22310179471969604,0.4682296812534332,-0.007328808307647705,-0.00268438458442688,0.0012607276439666748,-0.2045939902528335,1.355983018287158,0.07998238085939215,0.956639289855957,0.20316962897777557,-0.20871920883655548, 237, 172, 611, 207
1733261646546,6i,20.47199567748509,-4.0s : 0.3s,67.15912168902656,0.008794538696554853,0.9328340922614561,0.01115407627998278,0.5531611442565918,-0.3260471820831299,0.9097129106521606,-0.0033221840858459473,-0.010085374116897583,0.003414928913116455,-0.20417371688137612,1.354595440582797,0.0761326137113527,0.9564319849014282,0.20275810360908508,-0.21006469428539276, 237, 172, 611, 207
1733261646556,6i,20.47199567748509,-4.0s : 0.3s,67.15912168902656,0.008868364988962697,0.9072640970925138,0.05020873475740316,0.5103862285614014,-0.1972692310810089,0.31825488805770874,-0.049721717834472656,-0.006852686405181885,0.0013071000576019287,-0.20356829921587763,1.3535084031455167,0.07321157635613997,0.9563228487968445,0.20216523110866547,-0.21113069355487823, 237, 172, 611, 207
1733261646566,6i,20.47199567748509,-4.0s : 0.3s,67.15912168902656,0.009012779743405615,0.8075929402951073,0.041634331870754,0.5194492340087891,-0.022908778861165047,-0.06237940490245819,0.032630205154418945,0.02523396909236908,0.005651026964187622,-0.202355802045466,1.3518773266831445,0.06924447074084102,0.9562157988548279,0.200977623462677,-0.21274332702159882, 237, 172, 611, 207
1733261646576,6i,20.47199567748509,-4.0s : 0.3s,67.15912168902656,0.009170084911785517,0.7480001848713244,0.025386301828197625,0.47800490260124207,-0.03975620120763779,0.01251401286572218,0.006285667419433594,0.022779837250709534,0.009275436401367188,-0.20129408075057087,1.350369434223516,0.06420544610588638,0.9561014771461487,0.19993744790554047,-0.2142314612865448, 237, 172, 611, 207
1733261646586,6i,20.47199567748509,-4.0s : 0.3s,67.15912168902656,0.009304724183844138,0.7008394895032091,0.010657516180759021,0.4580245316028595,-0.061738818883895874,-0.03395455330610275,-0.010400235652923584,0.002282172441482544,0.0004576444625854492,-0.20052070157436028,1.348854768387662,0.059707231853867095,0.9559263586997986,0.19917961955070496,-0.21571335196495056, 237, 172, 611, 207
1733261646596,6i,20.47199567748509,-4.0s : 0.3s,67.15912168902656,0.009474152311271194,0.6973004849213162,0.028792902082705688,0.505937933921814,-0.06436523050069809,-0.02743406966328621,0.0028564929962158203,-0.018496140837669373,0.021880686283111572,-0.19969127638026124,1.3472808701555663,0.055085795757277164,0.9557464718818665,0.19836674630641937,-0.2172541618347168, 237, 172, 611, 207
1733261646606,6i,20.47199567748509,-4.0s : 0.3s,67.15912168902656,0.009630792614751355,0.7086284434428708,0.017426515078207243,0.5556159019470215,-0.05791518837213516,-0.04170585051178932,-0.015185058116912842,0.0038383901119232178,0.007639646530151367,-0.19888624156730672,1.3456142948182053,0.049900406530711074,0.9555384516716003,0.19757765531539917,-0.21888227760791779, 237, 172, 611, 207
1733261646616,6i,20.47199567748509,-4.0s : 0.3s,67.15912168902656,0.009707071814281775,0.7462548448491242,0.042769640116113,0.623491644859314,-0.05730372667312622,-0.04164885729551315,-0.013145267963409424,0.04024897515773773,-0.006038546562194824,-0.1979647544865664,1.3438588814065964,0.04409118825814797,0.9553297758102417,0.19667424261569977,-0.2206001877784729, 237, 172, 611, 207
1733261646626,6i,20.47199567748509,-4.0s : 0.3s,67.15912168902656,0.009770756407013352,0.789629198680482,0.04946615954160586,0.6644946932792664,-0.041278865188360214,-0.04219813644886017,-0.012936949729919434,0.04772913455963135,0.0012107789516448975,-0.196918768214742,1.342084872996903,0.037701956351316096,0.955136775970459,0.19564858078956604,-0.2223411202430725, 237, 172, 611, 207
1733261646636,6i,20.47199567748509,-4.0s : 0.3s,67.15912168902656,0.009865202812719688,0.7966489827005462,0.03849040374312845,0.6159322261810303,-0.02824934758245945,-0.03259264677762985,-0.00796276330947876,0.03731025755405426,0.005103945732116699,-0.19582678139065365,1.3404717796531285,0.031242311602615692,0.9549843072891235,0.19457757472991943,-0.22393019497394562, 237, 172, 611, 207
1733261646646,6i,20.47199567748509,-4.0s : 0.3s,67.15912168902656,0.010023816255501644,0.7533462074948797,0.025989501161460114,0.4840715527534485,-0.04183106869459152,-0.016905061900615692,-0.003505527973175049,0.01132194697856903,0.02312961220741272,-0.19480283450863112,1.339060047084948,0.02580699323905264,0.9548606872558594,0.19357310235500336,-0.22532381117343903, 237, 172, 611, 207
1733261646656,6i,20.47199567748509,-4.0s : 0.3s,67.15912168902656,0.01042713538568509,0.6663276787238167,0.06704308763556636,0.340907484292984,-0.058753594756126404,-0.007846586406230927,0.017626821994781494,-0.04313300549983978,0.048203885555267334,-0.19397482906646346,1.3377678889849598,0.021790559806828723,0.9547243118286133,0.19276069104671478,-0.22659437358379364, 237, 172, 611, 207
1733261646666,6i,20.47199567748509,-4.0s : 0.3s,67.15912168902656,0.011116858254933252,0.5663082503377707,0.10126209876403762,0.2426963448524475,-0.05966559424996376,0.004367036744952202,0.028723835945129395,-0.07019253075122833,0.06709666550159454,-0.19332754502982522,1.3366128206118648,0.01892198955951284,0.9545830488204956,0.19212549924850464,-0.22772587835788727, 237, 172, 611, 207
1733261646676,6i,20.47199567748509,-4.0s : 0.3s,67.15912168902656,0.011936845376179025,0.4745872462990058,0.07635918835988571,0.18830473721027374,-0.05436989665031433,0.010088838636875153,0.011165380477905273,-0.053129807114601135,0.05369621515274048,-0.19274882287929473,1.3356521138251198,0.01690531376138923,0.9544718265533447,0.19155752658843994,-0.22866873443126678, 237, 172, 611, 207
1733261646686,6i,20.47199567748509,-4.0s : 0.3s,67.15912168902656,0.01278899020521343,0.5121713776429251,0.05107859046324021,0.21941499412059784,-0.2967867851257324,0.6053640842437744,-0.005622267723083496,-0.03271317481994629,0.038823455572128296,-0.19150489344003627,1.3344584861332618,0.01097382405413375,0.9544292092323303,0.19033649563789368,-0.2298634797334671, 237, 172, 611, 207
1733261646696,6i,20.47199567748509,-4.0s : 0.3s,67.15912168902656,0.013616948392308757,0.9290594314315178,0.024686981024496703,0.3387030363082886,-0.6467650532722473,1.3931198120117188,-0.0037108659744262695,-0.005774945020675659,0.023713424801826477,-0.1913583773068761,1.3334620453617354,0.007317629043191981,0.9542266130447388,0.19019265472888947,-0.2308209091424942, 237, 172, 611, 207
1733261646706,6i,20.47199567748509,-4.0s : 0.3s,67.15912168902656,0.014334451378111015,0.9569157823729737,0.06765250664005294,0.347555011510849,-0.39947620034217834,0.553210437297821,-0.06459474563598633,0.017779693007469177,0.009394839406013489,-0.19077282100368012,1.3329998778568766,0.0033533456342318005,0.9542279243469238,0.18961775302886963,-0.2312880903482437, 237, 172, 611, 207
1733261646716,6i,20.47199567748509,-4.0s : 0.3s,67.15912168902656,0.015022120625548224,0.7396086244484835,0.03966601367418163,0.32207387685775757,-0.0462169423699379,-0.023752449080348015,-0.0082969069480896,0.03442162275314331,0.01788032054901123,-0.18975276054467755,1.331958540723181,8.100832461529842e-05,0.9541740417480469,0.1886160969734192,-0.23232729732990265, 237, 172, 611, 207
1733261646726,6i,20.47199567748509,-4.0s : 0.3s,67.15912168902656,0.01570276420417682,0.5898117966563607,0.03413019492131625,0.24750268459320068,-0.03459659218788147,0.00875296350568533,-0.014437198638916016,0.009989038109779358,0.029268696904182434,-0.1888549643796906,1.3310833710035264,-0.002561590349357478,0.954134464263916,0.18773433566093445,-0.23320238292217255, 237, 172, 611, 207
1733261646736,6i,20.47199567748509,-4.0s : 0.3s,67.15912168902656,0.016385397060798494,0.47415163535410493,0.03075067404963023,0.1856561005115509,-0.044508080929517746,0.00027479021809995174,-0.0030665993690490723,-0.009426414966583252,0.029109150171279907,-0.1884264221061864,1.3302150860282551,-0.004595422949062236,0.9540097713470459,0.18731340765953064,-0.23404991626739502, 237, 172, 611, 207
1733261646746,6i,20.47199567748509,-4.0s : 0.3s,67.15912168902656,0.017106649143406136,0.38519865224734473,0.04695992973397732,0.15584999322891235,-0.027237124741077423,-0.0012672464363276958,0.006177067756652832,-0.016562923789024353,0.043505728244781494,-0.18794017899506327,1.3295261463811592,-0.006489145017358474,0.9539365172386169,0.18683573603630066,-0.2347288280725479, 237, 172, 611, 207
1733261646756,6i,20.47199567748509,-4.0s : 0.3s,67.15912168902656,0.017816960957675237,0.3197420599588628,0.032972937031615156,0.1392981857061386,-0.013501605950295925,0.00648574810475111,-0.015725433826446533,-0.005445361137390137,0.028465300798416138,-0.18749598804452713,1.3289501288061223,-0.008217911325038131,0.9538817405700684,0.18639935553073883,-0.23529815673828125, 237, 172, 611, 207
1733261646766,6i,20.47199567748509,-4.0s : 0.3s,67.15912168902656,0.01852253722108325,0.26825834588057884,0.032351506150563335,0.1243462786078453,8.997053373605013e-05,0.0004498597700148821,-0.011288940906524658,-0.005984485149383545,0.029721468687057495,-0.18701970725819925,1.3284713203949075,-0.010171601685503545,0.953855037689209,0.18593139946460724,-0.2357761263847351, 237, 172, 611, 207
1733261646776,6i,20.47199567748509,-4.0s : 0.3s,67.15912168902656,0.019226934012593865,0.23813228249008025,0.03134156315214181,0.13710147142410278,0.008146831765770912,-0.001504900399595499,-0.005968272686004639,-0.005534827709197998,0.030266135931015015,-0.18660867466401995,1.3280475169847297,-0.012374933929382716,0.9538291692733765,0.1855275183916092,-0.23619870841503143, 237, 172, 611, 207
1733261646786,6i,20.47199567748509,-4.0s : 0.3s,67.15912168902656,0.01992357331730569,0.23568004755403657,0.029365678060252903,0.1681177318096161,0.013116111978888512,0.00640155840665102,-0.008246302604675293,-0.006143465638160706,0.027506351470947266,-0.1861876673373555,1.3276170519992612,-0.015115315681527356,0.9538030028343201,0.1851138025522232,-0.23662804067134857, 237, 172, 611, 207
1733261646796,6i,20.47199567748509,-4.0s : 0.3s,67.15912168902656,0.020611305960071817,0.23536650079787075,0.02753226254381029,0.1791786253452301,0.024578623473644257,0.021742431446909904,-0.005673766136169434,-0.0052947998046875,0.026415884494781494,-0.18572781219350765,1.3272300884404065,-0.018343940144460953,0.9537939429283142,0.1846618801355362,-0.23701761662960052, 237, 172, 611, 207
1733261646806,6i,20.47199567748509,-4.0s : 0.3s,67.15912168902656,0.02129928874462063,0.23267755324535427,0.03199624922908288,0.15432068705558777,0.02435305342078209,0.041636642068624496,-0.007893860340118408,-0.005701377987861633,0.03047853708267212,-0.18530311334682723,1.3269418961676998,-0.02182701521145201,0.9538015127182007,0.18424446880817413,-0.23731139302253723, 237, 172, 611, 207
1733261646816,6i,20.47199567748509,-4.0s : 0.3s,67.15912168902656,0.021987147272533952,0.22787351779992376,0.03303026991827066,0.13061508536338806,0.017902877181768417,0.07521937042474747,-0.010459423065185547,-0.008408531546592712,0.030181050300598145,-0.184921481025428,1.3267276823441871,-0.02297890825957811,0.9538188576698303,0.1838693469762802,-0.23753267526626587, 237, 172, 611, 207
1733261646826,6i,20.47199567748509,-4.0s : 0.3s,67.15912168902656,0.02267468327586656,0.22287545165897996,0.03196272697220739,0.10660003125667572,0.011669128201901913,0.11234217137098312,-0.005726039409637451,-0.013033434748649597,0.028617441654205322,-0.18456596286209698,1.3265758224166053,-0.02619240064766793,0.9538461565971375,0.1835198849439621,-0.23769332468509674, 237, 172, 611, 207
1733261646836,6i,20.47199567748509,-4.0s : 0.3s,67.15912168902656,0.023372485377092533,0.21780238269375485,0.03863946569146291,0.07953565567731857,0.007439495995640755,0.1585509479045868,-0.0024489164352416992,-0.0223894864320755,0.03139621019363403,-0.18424245786428123,1.3265411088076113,-0.029310013206983412,0.9538955092430115,0.183201864361763,-0.23774079978466034, 237, 172, 611, 207
1733261646846,6i,20.47199567748509,-4.0s : 0.3s,67.15912168902656,0.024072834366544137,0.2206858219652501,0.0363914505896909,0.06600812822580338,-0.012903504073619843,0.2120569795370102,-0.006313025951385498,-0.02135966718196869,0.028779298067092896,-0.18390892550683918,1.3266285680954497,-0.03232514905230214,0.9539755582809448,0.18287396430969238,-0.2376721203327179, 237, 172, 611, 207
1733261646856,6i,20.47199567748509,-4.0s : 0.3s,67.15912168902656,0.024756321782902407,0.24611598047875188,0.02684088957194425,0.0757952481508255,-0.026386821642518044,0.2374454289674759,-0.008687734603881836,-0.013465583324432373,0.021532177925109863,-0.18359314205709398,1.3267543373593456,-0.03513735625787005,0.9540613293647766,0.18256349861621857,-0.2375660538673401, 237, 172, 611, 207
1733261646866,6i,20.47199567748509,-4.0s : 0.3s,67.15912168902656,0.02540752004393667,0.28235112239714677,0.015261001489297158,0.0850481316447258,-0.04213009774684906,0.2668813467025757,0.0004718899726867676,-0.0027472078800201416,0.015004277229309082,-0.18324488763742613,1.327183222721705,-0.03778090888643735,0.9542248249053955,0.18222108483314514,-0.2371721863746643, 237, 172, 611, 207
1733261646876,6i,20.47199567748509,-4.0s : 0.3s,67.15912168902656,0.026028305189273244,0.31992395814655483,0.018074326870665708,0.09601396322250366,-0.062011126428842545,0.28569895029067993,0.008045613765716553,0.004700660705566406,0.015487194061279297,-0.18287084771159343,1.3275898035447053,-0.04000668883805718,0.9543873071670532,0.1818532943725586,-0.23680061101913452, 237, 172, 611, 207
1733261646886,6i,20.47199567748509,-4.0s : 0.3s,67.15912168902656,0.026629381366901916,0.35813468155937017,0.019744751361113262,0.10155786573886871,-0.0784376785159111,0.3101186454296112,0.007749199867248535,-0.0017065703868865967,0.018080174922943115,-0.18246593647009737,1.3280250057947636,-0.041928786953103696,0.9545616507530212,0.1814551204442978,-0.23640291392803192, 237, 172, 611, 207
1733261646896,6i,20.47199567748509,-4.0s : 0.3s,67.15912168902656,0.027216727138378735,0.39422916968274974,0.02056993345588672,0.10730070620775223,-0.09382675588130951,0.328332781791687,0.0014331936836242676,-0.005945265293121338,0.01963980495929718,-0.18201266114028358,1.3284578736407828,-0.04333122819626085,0.9547435641288757,0.18100935220718384,-0.2360093742609024, 237, 172, 611, 207
1733261646906,6i,20.47199567748509,-4.0s : 0.3s,67.15912168902656,0.027767395044305674,0.42332879938694207,0.010508551469055277,0.0934341624379158,-0.10017848759889603,0.3411013185977936,-0.002578914165496826,0.0005949288606643677,0.010169804096221924,-0.18149109802554458,1.3289070219889902,-0.044318136141398984,0.9549410343170166,0.18049637973308563,-0.23560312390327454, 237, 172, 611, 207
1733261646916,6i,20.47199567748509,-4.0s : 0.3s,67.15912168902656,0.0282707826200735,0.44705302963243027,0.006421944214864712,0.058065250515937805,-0.11283942312002182,0.3563561737537384,-0.005221009254455566,0.00013872981071472168,0.003736734390258789,-0.1808845163947947,1.3295031305586784,-0.04460484528532498,0.9551874399185181,0.17989972233772278,-0.2350599616765976, 237, 172, 611, 207
1733261646926,6i,20.47199567748509,-4.0s : 0.3s,67.15912168902656,0.028760926019628878,0.4699389410777772,0.019885279077964176,0.01414546649903059,-0.13471968472003937,0.3738496005535126,-0.003125488758087158,-0.013653114438056946,0.014115527272224426,-0.18033947672042633,1.3300517373049419,-0.044178056610998016,0.9554112553596497,0.17936354875564575,-0.23455922305583954, 237, 172, 611, 207
1733261646936,6i,20.47199567748509,-4.0s : 0.3s,67.15912168902656,0.02925424402146141,0.4925108233570441,0.03557983929282056,0.0095081040635705,-0.15199801325798035,0.38158315420150757,0.0005090236663818359,-0.03126050531864166,0.016983717679977417,-0.1799349596166819,1.3303897221201633,-0.043172030613011274,0.9555608630180359,0.17896558344364166,-0.23425355553627014, 237, 172, 611, 207
1733261646946,6i,20.47199567748509,-4.0s : 0.3s,67.15912168902656,0.02973175511641883,0.5125921991171752,0.02848414312242945,0.03645609691739082,-0.15873971581459045,0.3846967816352844,0.0014876723289489746,-0.02695372700691223,0.00909009575843811,-0.17963644051612968,1.3306156386949206,-0.043044206586422835,0.9556655883789062,0.17867188155651093,-0.23405034840106964, 237, 172, 611, 207
1733261646956,6i,20.47199567748509,-4.0s : 0.3s,67.15912168902656,0.030142565918383518,0.5276150506027408,0.011072012740222492,0.054213523864746094,-0.16133709251880646,0.3849615156650543,-0.004929780960083008,-0.0027976036071777344,-0.009511053562164307,-0.1793558011639521,1.330836384623863,-0.0431649526532261,0.9557660222053528,0.17839574813842773,-0.2338513284921646, 237, 172, 611, 207
1733261646966,6i,20.47199567748509,-4.0s : 0.3s,67.15912168902656,0.03045992825654702,0.5373423030441102,0.026910524575917808,0.06711520999670029,-0.1611412614583969,0.3882041871547699,-0.01361614465713501,0.004342600703239441,-0.022801727056503296,-0.1789380319507189,1.3308711206911288,-0.04347953999319656,0.9558463096618652,0.17798465490341187,-0.23383578658103943, 237, 172, 611, 207
1733261646976,6i,20.47199567748509,-4.0s : 0.3s,67.15912168902656,0.030701918454971746,0.545158850493154,0.02903862676880635,0.07656676322221756,-0.16908228397369385,0.3881828784942627,-0.015316665172576904,-0.01058720052242279,-0.022283464670181274,-0.17846419704037086,1.3308766625619495,-0.04388150397426056,0.9559295773506165,0.17751836776733398,-0.23385055363178253, 237, 172, 611, 207
1733261646986,6i,20.47199567748509,-4.0s : 0.3s,67.15912168902656,0.03089498224990474,0.5495167093556692,0.03034864329697587,0.0882527157664299,-0.1674841195344925,0.38635069131851196,-0.012898921966552734,-0.021820977330207825,-0.016688406467437744,-0.17792487902164517,1.3308417028975232,-0.044394227456346205,0.9560142159461975,0.17698758840560913,-0.23390667140483856, 237, 172, 611, 207
1733261646996,6i,20.47199567748509,-4.0s : 0.3s,67.15912168902656,0.031042411575455797,0.5518749562839527,0.027233398560378506,0.09352178126573563,-0.16809292137622833,0.3824680745601654,-0.008365213871002197,-0.019217833876609802,-0.017388388514518738,-0.1773264719780745,1.3307862077450467,-0.044999251340482285,0.9561038613319397,0.1763986051082611,-0.2339848428964615, 237, 172, 611, 207
1733261647006,6i,20.47199567748509,-4.0s : 0.3s,67.15912168902656,0.031126776445431978,0.5530106141663081,0.03283676381277274,0.08948429673910141,-0.1736311912536621,0.37261712551116943,-0.005963802337646484,-0.01700855791568756,-0.02744804322719574,-0.17669424797526048,1.3306905416409287,-0.045610992155792514,0.9561896324157715,0.17577625811100006,-0.2341027855873108, 237, 172, 611, 207
1733261647016,6i,20.47199567748509,-4.0s : 0.3s,67.15912168902656,0.031114587612876752,0.5520161626175433,0.04109564716545146,0.09914544969797134,-0.17519845068454742,0.35340723395347595,-0.0066190361976623535,-0.02808573842048645,-0.02926144003868103,-0.1760890848563194,1.3305069870866166,-0.04626477319634335,0.9562499523162842,0.17518047988414764,-0.23430360853672028, 237, 172, 611, 207
1733261647026,6i,20.47199567748509,-4.0s : 0.3s,67.15912168902656,0.0310451305722261,0.5498400361779752,0.039615082415914195,0.11235618591308594,-0.17245331406593323,0.34096357226371765,-0.00466388463973999,-0.025944307446479797,-0.02957187592983246,-0.17547935563862332,1.3302517942603436,-0.04705232828767949,0.956293523311615,0.1745801568031311,-0.23457297682762146, 237, 172, 611, 207
1733261647036,6i,20.47199567748509,-4.0s : 0.3s,67.15912168902656,0.030937231585955294,0.5446271977614506,0.03037162895851863,0.11402838677167892,-0.17585869133472443,0.32371509075164795,0.00023859739303588867,-0.013170912861824036,-0.027366146445274353,-0.174842206217195,1.3299036680373242,-0.04793185596362167,0.9563196301460266,0.17395275831222534,-0.23493237793445587, 237, 172, 611, 207
1733261647046,6i,20.47199567748509,-4.0s : 0.3s,67.15912168902656,0.030795140632316156,0.5385630067666534,0.029940994957583008,0.13816635310649872,-0.17151573300361633,0.31098854541778564,0.0033518075942993164,-0.012071594595909119,-0.027193844318389893,-0.17414430278895526,1.329466518112713,-0.048923784537240195,0.9563345313072205,0.17326544225215912,-0.23537936806678772, 237, 172, 611, 207
1733261647056,6i,20.47199567748509,-4.0s : 0.3s,67.15912168902656,0.030626606512185597,0.5309944803233364,0.028686988054601518,0.16405947506427765,-0.16833272576332092,0.2926827669143677,0.003902912139892578,-0.012430056929588318,-0.025557860732078552,-0.17334632330383692,1.3289550995573478,-0.05016109897742344,0.9563479423522949,0.17247948050498962,-0.23590146005153656, 237, 172, 611, 207
1733261647066,6i,20.47199567748509,-4.0s : 0.3s,67.15912168902656,0.030418178477479536,0.518216412984237,0.03232434363058529,0.18667341768741608,-0.16055293381214142,0.26819518208503723,0.002471029758453369,-0.0067663490772247314,-0.03151148557662964,-0.17249167061803786,1.3283406574019965,-0.051674532173239404,0.9563455581665039,0.17163757979869843,-0.2365243285894394, 237, 172, 611, 207
1733261647076,6i,20.47199567748509,-4.0s : 0.3s,67.15912168902656,0.030154831250327797,0.505744776233519,0.03990650323015892,0.2142360806465149,-0.14402295649051666,0.2452845424413681,-0.004713177680969238,-0.0033608078956604004,-0.039484426379203796,-0.1715750342290738,1.3276862601788753,-0.05343472041386612,0.9563428163528442,0.1707344651222229,-0.23718787729740143, 237, 172, 611, 207
1733261647086,6i,20.47199567748509,-4.0s : 0.3s,67.15912168902656,0.029845824189864433,0.4924273404655876,0.04053418288720801,0.23281708359718323,-0.13498973846435547,0.21842427551746368,-0.009072065353393555,-0.006226450204849243,-0.03901216387748718,-0.17061190468881582,1.3269944699991223,-0.05544540736789142,0.9563376307487488,0.16978539526462555,-0.23788899183273315, 237, 172, 611, 207
1733261647096,6i,20.47199567748509,-4.0s : 0.3s,67.15912168902656,0.02950144075523007,0.47999777018363704,0.0427791817519556,0.24690014123916626,-0.121587373316288,0.19614346325397491,-0.014374017715454102,-0.011245831847190857,-0.03869079053401947,-0.16958930014306522,1.326255439724546,-0.05764846279669186,0.9563295841217041,0.16877755522727966,-0.23863762617111206, 237, 172, 611, 207
1733261647106,6i,20.47199567748509,-4.0s : 0.3s,67.15912168902656,0.029141793200005883,0.45976511244392027,0.042192849622463856,0.24493220448493958,-0.11173389852046967,0.17245866358280182,-0.012355148792266846,-0.019982367753982544,-0.03504699468612671,-0.1684989135034292,1.325491348822983,-0.0598774482184412,0.9563249349594116,0.16770270466804504,-0.2394128292798996, 237, 172, 611, 207
1733261647116,6i,20.47199567748509,-4.0s : 0.3s,67.15912168902656,0.028783917494198074,0.43586806007446166,0.03907192783751302,0.23501938581466675,-0.10050201416015625,0.14669418334960938,-0.004742801189422607,-0.024148479104042053,-0.03034752607345581,-0.16740052936117825,1.3246926627682405,-0.06207725173288424,0.9563114643096924,0.16661977767944336,-0.2402212768793106, 237, 172, 611, 207
1733261647126,6i,20.47199567748509,-4.0s : 0.3s,67.15912168902656,0.028437287634426114,0.40737653145233077,0.039266201085489325,0.2111557424068451,-0.09410443902015686,0.12116722017526627,-0.00421518087387085,-0.027019545435905457,-0.028178200125694275,-0.16630434187956872,1.3238588712252999,-0.0640702404252239,0.9562873244285583,0.16553881764411926,-0.24106305837631226, 237, 172, 611, 207
1733261647136,6i,20.47199567748509,-4.0s : 0.3s,67.15912168902656,0.02811736395571555,0.376509454349628,0.03660082073325349,0.19536425173282623,-0.08433835953474045,0.0948013961315155,-0.0035810470581054688,-0.02883400022983551,-0.022257506847381592,-0.16522004008270189,1.322978903734957,-0.06590128665528873,0.9562483429908752,0.164469376206398,-0.24194836616516113, 237, 172, 611, 207
1733261647146,6i,20.47199567748509,-4.0s : 0.3s,67.15912168902656,0.02782603509339913,0.34106153739737655,0.034318297440783824,0.17233136296272278,-0.0701969712972641,0.06782783567905426,0.0009061694145202637,-0.027430832386016846,-0.020602762699127197,-0.16413794977183943,1.3220758525819407,-0.06753851934290787,0.956201434135437,0.16340193152427673,-0.2428554743528366, 237, 172, 611, 207
1733261647156,6i,20.47199567748509,-4.0s : 0.3s,67.15912168902656,0.02757531161288834,0.32224776044969183,0.033571630210629755,0.18682588636875153,-0.07193361967802048,0.06854742020368576,0.0016688108444213867,-0.029704034328460693,-0.015554413199424744,-0.16302403426657067,1.321103757255664,-0.0690987594416312,0.9561406373977661,0.1623028814792633,-0.24382969737052917, 237, 172, 611, 207
1733261647166,6i,20.47199567748509,-4.0s : 0.3s,67.15912168902656,0.02736174285364586,0.32239942053331305,0.027846932186991802,0.22572734951972961,-0.07027123123407364,0.07182101160287857,-0.002588212490081787,-0.02417662739753723,-0.013573631644248962,-0.1618296890359347,1.320087529680375,-0.07095000381510871,0.9560794234275818,0.16112425923347473,-0.24484914541244507, 237, 172, 611, 207
1733261647176,6i,20.47199567748509,-4.0s : 0.3s,67.15912168902656,0.027146862671300374,0.330349221543195,0.02230631586008673,0.25195497274398804,-0.07365185022354126,0.07308441400527954,0.00035887956619262695,-0.005780220031738281,-0.021541401743888855,-0.16053688142202505,1.3190110977200515,-0.07313506976453438,0.9560162425041199,0.15984821319580078,-0.24592983722686768, 237, 172, 611, 207
1733261647186,6i,20.47199567748509,-4.0s : 0.3s,67.15912168902656,0.026924575132552347,0.3443668906661055,0.023027477378497075,0.26471710205078125,-0.07162109762430191,0.07845760881900787,0.003466188907623291,-0.0024876445531845093,-0.0226287841796875,-0.1591337799515851,1.317908420714786,-0.0754715290483677,0.955960750579834,0.1584629863500595,-0.24703975021839142, 237, 172, 611, 207
1733261647196,6i,20.47199567748509,-4.0s : 0.3s,67.15912168902656,0.02672329550987019,0.36204931153591313,0.021766265798785656,0.28266119956970215,-0.07300621271133423,0.07923552393913269,-0.001962900161743164,-0.01471737027168274,-0.015915915369987488,-0.15768879130464195,1.31681996090177,-0.07793204452946771,0.9559118747711182,0.15703609585762024,-0.24813739955425262, 237, 172, 611, 207
1733261647206,6i,20.47199567748509,-4.0s : 0.3s,67.15912168902656,0.026541088882917174,0.3833608346551848,0.01973194165008436,0.3056524097919464,-0.07773718237876892,0.07534673810005188,-0.008760511875152588,-0.01084744930267334,-0.013961941003799438,-0.15619616594883745,1.3156354147759917,-0.0806365934210019,0.9558429718017578,0.15556181967258453,-0.24932841956615448, 237, 172, 611, 207
1733261647216,6i,20.47199567748509,-4.0s : 0.3s,67.15912168902656,0.02636170677983927,0.40669426322357694,0.018094509763609986,0.3269885778427124,-0.07359436899423599,0.08018756657838821,-0.008266091346740723,-0.0022409558296203613,-0.015939295291900635,-0.15463566426329473,1.3144315932054127,-0.08354626513050582,0.9557758569717407,0.15402011573314667,-0.250540167093277, 237, 172, 611, 207
1733261647226,6i,20.47199567748509,-4.0s : 0.3s,67.15912168902656,0.02619016184290568,0.42743179644344265,0.010743254666926336,0.33829718828201294,-0.06904835253953934,0.0834398865699768,-0.004732310771942139,0.002159297466278076,-0.009400010108947754,-0.1529931477029527,1.3132443397992735,-0.0865988055959746,0.9557211399078369,0.15239699184894562,-0.25173884630203247, 237, 172, 611, 207
1733261647236,6i,20.47199567748509,-4.0s : 0.3s,67.15912168902656,0.02603047082506174,0.43408248840717234,0.011055959485821177,0.3257688879966736,-0.07350727915763855,0.09164668619632721,-0.0015286803245544434,-0.0036585479974746704,-0.010320484638214111,-0.15128390947611056,1.3120733189886702,-0.08963201832001787,0.9556760787963867,0.15070749819278717,-0.2529241144657135, 237, 172, 611, 207
1733261647246,6i,20.47199567748509,-4.0s : 0.3s,67.15912168902656,0.025902318279891298,0.436435916008044,0.0164141182105879,0.3222821056842804,-0.07332419604063034,0.08406129479408264,-0.001561284065246582,-0.014778360724449158,-0.006970345973968506,-0.14961324153191244,1.310886234026081,-0.09256043426529109,0.9556171298027039,0.14905570447444916,-0.2541227340698242, 237, 172, 611, 207
1733261647256,6i,20.47199567748509,-4.0s : 0.3s,67.15912168902656,0.025811209370738275,0.43988398748108204,0.017673951709226227,0.3310313820838928,-0.06223851814866066,0.08390949666500092,-0.005387485027313232,-0.016400203108787537,-0.0037916898727416992,-0.1479667794492889,1.3097653519033121,-0.0955126024655148,0.9555675387382507,0.14742743968963623,-0.2552567422389984, 237, 172, 611, 207
1733261647266,6i,20.47199567748509,-4.0s : 0.3s,67.15912168902656,0.025746114171547874,0.44227731664758585,0.010261164087572126,0.3288829028606415,-0.06655111163854599,0.08347617089748383,-0.007288575172424316,-0.007192373275756836,-0.0006617605686187744,-0.1462939873644954,1.308695938786711,-0.09852950283498003,0.9555309414863586,0.14577271044254303,-0.2563420236110687, 237, 172, 611, 207
1733261647276,6i,20.47199567748509,-4.0s : 0.3s,67.15912168902656,0.025705383294753633,0.44390808951270855,0.008905909287737266,0.32300078868865967,-0.07335256040096283,0.08396352827548981,0.0010202527046203613,-0.008832424879074097,-0.0005124211311340332,-0.14463585748179422,1.3075829612312828,-0.10146070620693148,0.9554769992828369,0.1441320925951004,-0.2574678659439087, 237, 172, 611, 207
1733261647286,6i,20.47199567748509,-4.0s : 0.3s,67.15912168902656,0.025697893473474627,0.44586240034812913,0.018158651547390266,0.3256286680698395,-0.07821020483970642,0.08429006487131119,0.006877124309539795,-0.016805976629257202,-3.0606985092163086e-05,-0.14297928487697406,1.3064088043740723,-0.10440869236382354,0.9554031491279602,0.1424926221370697,-0.25865158438682556, 237, 172, 611, 207
1733261647296,6i,20.47199567748509,-4.0s : 0.3s,67.15912168902656,0.02573050651095733,0.44794940472978906,0.0213895721032781,0.32832270860671997,-0.07515715807676315,0.086536705493927,0.0021051764488220215,-0.021220922470092773,0.0016596615314483643,-0.14130435548535145,1.3052157139003728,-0.10738678397847023,0.9553229808807373,0.14083458483219147,-0.2598536014556885, 237, 172, 611, 207
1733261647306,6i,20.47199567748509,-4.0s : 0.3s,67.15912168902656,0.02580651862898592,0.4497341273528561,0.022897012754552182,0.32449162006378174,-0.08225789666175842,0.09183762967586517,-0.001965761184692383,-0.022355034947395325,0.004545480012893677,-0.1395833944312462,1.3040182011313048,-0.11033376309886148,0.9552435278892517,0.1391305774450302,-0.2610609531402588, 237, 172, 611, 207
1733261647316,6i,20.47199567748509,-4.0s : 0.3s,67.15912168902656,0.025934711217900995,0.4503304670410734,0.0254146859686955,0.3132126033306122,-0.08672108501195908,0.09985428303480148,-0.0026103854179382324,-0.021287649869918823,0.0136355459690094,-0.13781235168036104,1.3027803554392463,-0.11319073534902942,0.9551557302474976,0.13737653195858002,-0.2623080313205719, 237, 172, 611, 207
1733261647326,6i,20.47199567748509,-4.0s : 0.3s,67.15912168902656,0.026115349326907816,0.4487509297729559,0.029600007045084645,0.2940048277378082,-0.09193316102027893,0.10344981402158737,-0.0007912516593933105,-0.027193531394004822,0.011663883924484253,-0.1360263309119034,1.3015255724856545,-0.11585714385140977,0.9550606608390808,0.13560722768306732,-0.2635711431503296, 237, 172, 611, 207
1733261647336,6i,20.47199567748509,-4.0s : 0.3s,67.15912168902656,0.02634599648765613,0.4635795648013901,0.029754055446679813,0.3429478704929352,-0.0894942358136177,0.11655815690755844,-0.004587650299072266,-0.025250524282455444,0.01505550742149353,-0.13412705789239165,1.3002345273524878,-0.11860876589675576,0.9549660682678223,0.13372525572776794,-0.26487231254577637, 237, 172, 611, 207
1733261647346,6i,20.47199567748509,-4.0s : 0.3s,67.15912168902656,0.026594861908496255,0.49094389452281967,0.018533372184118276,0.38961362838745117,-0.0834638699889183,0.11064007878303528,-0.005427360534667969,-0.007989659905433655,0.0158175528049469,-0.1320301311079736,1.2989393190841212,-0.12189499660203883,0.954890251159668,0.13164687156677246,-0.26618367433547974, 237, 172, 611, 207
1733261647356,6i,20.47199567748509,-4.0s : 0.3s,67.15912168902656,0.02680262002434683,0.5162080904666608,0.00864287871598071,0.4054858088493347,-0.07866805046796799,0.11505772918462753,-0.0017664432525634766,0.006712675094604492,-0.005149662494659424,-0.1298826729631332,1.297645769910322,-0.12544118772899548,0.9548152089118958,0.1295178085565567,-0.2674943208694458, 237, 172, 611, 207
1733261647366,6i,20.47199567748509,-4.0s : 0.3s,67.15912168902656,0.027011371069559316,0.5438664864958694,0.012304287566656002,0.4320414960384369,-0.07036315649747849,0.11963537335395813,-0.005166172981262207,-0.01115262508392334,0.0005701780319213867,-0.12761815305787708,1.2964199425476042,-0.12919526445275897,0.9547664523124695,0.12727202475070953,-0.2687433362007141, 237, 172, 611, 207
1733261647376,6i,20.47199567748509,-4.0s : 0.3s,67.15912168902656,0.027258804343220817,0.5658616581908071,0.0279892882186039,0.4380389451980591,-0.06608185917139053,0.12467566877603531,-0.0021573305130004883,-0.02625102549791336,0.00946730375289917,-0.12525689349352956,1.2952886571195399,-0.13308488648996344,0.9547483325004578,0.12492962181568146,-0.2699042856693268, 237, 172, 611, 207
1733261647386,6i,20.47199567748509,-4.0s : 0.3s,67.15912168902656,0.027544352215888187,0.5925366790337582,0.028973543628250175,0.46607109904289246,-0.07410001754760742,0.12421754002571106,-0.001477658748626709,-0.026687726378440857,0.01118248701095581,-0.12282149647294659,1.2940736168188358,-0.13710306203320197,0.954709529876709,0.12251293659210205,-0.2711464464664459, 237, 172, 611, 207
1733261647396,6i,20.47199567748509,-4.0s : 0.3s,67.15912168902656,0.027861944899620992,0.6260636339233422,0.028641887386749835,0.5039128065109253,-0.08003273606300354,0.12349289655685425,-7.510185241699219e-05,-0.02708905190229416,0.00930243730545044,-0.12030507253030205,1.29277396236666,-0.14147951288000812,0.9546497464179993,0.12001507729291916,-0.27247077226638794, 237, 172, 611, 207
1733261647406,6i,20.47199567748509,-4.0s : 0.3s,67.15912168902656,0.028177292015036076,0.6639048669787972,0.016495656898008,0.5386748909950256,-0.08483242243528366,0.1299130767583847,0.007446169853210449,-0.014261066913604736,0.003644615411758423,-0.11765120341061736,1.2913909059735917,-0.1461886391077935,0.9545748233795166,0.11737997084856033,-0.27387773990631104, 237, 172, 611, 207
1733261647416,6i,20.47199567748509,-4.0s : 0.3s,67.15912168902656,0.028469956467186423,0.6988199127034802,0.01064172321088056,0.5610683560371399,-0.08480019867420197,0.12740251421928406,0.006691575050354004,-0.007706731557846069,-0.003012537956237793,-0.11490829928362434,1.289968946017281,-0.15113712756457584,0.9544901251792908,0.11465559154748917,-0.2753230035305023, 237, 172, 611, 207
1733261647426,6i,20.47199567748509,-4.0s : 0.3s,67.15912168902656,0.028757894610072814,0.7404534253082533,0.014718343873567566,0.6061450242996216,-0.07765964418649673,0.1286265105009079,-0.00318300724029541,-0.01432006061077118,-0.0011974871158599854,-0.11205807511964702,1.2885769011997352,-0.15641763099425024,0.9544159173965454,0.11182370036840439,-0.27674129605293274, 237, 172, 611, 207
1733261647436,6i,20.47199567748509,-4.0s : 0.3s,67.15912168902656,0.02902328325471019,0.8016982899741609,0.009368612662270542,0.6908143758773804,-0.06246311217546463,0.12652207911014557,-0.009210348129272461,-0.0016857683658599854,0.0003139674663543701,-0.10903365655870137,1.2872027178384775,-0.16230461144314687,0.9543551206588745,0.10881774872541428,-0.278145968914032, 237, 172, 611, 207
1733261647446,6i,20.47199567748509,-4.0s : 0.3s,67.15912168902656,0.029221444851077753,0.8685745391463519,0.024173557504070464,0.7493875026702881,-0.05967757850885391,0.13735118508338928,-0.01039201021194458,0.02126898616552353,-0.004898697137832642,-0.10575910618471501,1.285908719910935,-0.16891226645875132,0.9543311595916748,0.10556206107139587,-0.2794792950153351, 237, 172, 611, 207
1733261647456,6i,20.47199567748509,-4.0s : 0.3s,67.15912168902656,0.02928944022821688,0.9273719281790426,0.03503327635106604,0.7801041603088379,-0.052406881004571915,0.13736556470394135,-0.0025188326835632324,0.03240106999874115,-0.013082683086395264,-0.10226806312447816,1.2846141579053088,-0.17592516551184034,0.9543163776397705,0.10208988934755325,-0.28081682324409485, 237, 172, 611, 207
1733261647466,6i,20.47199567748509,-4.0s : 0.3s,67.15912168902656,0.029318511238837774,0.9692883863031851,0.020371397424041586,0.7799895405769348,-0.05384973809123039,0.14541034400463104,0.012358307838439941,0.016118541359901428,-0.0015680193901062012,-0.0987114754935691,1.2833988516578758,-0.18301891811254148,0.9543165564537048,0.09855124354362488,-0.2820775508880615, 237, 172, 611, 207
1733261647476,6i,20.47199567748509,-4.0s : 0.3s,67.15912168902656,0.02936176483087726,1.0149926713904538,0.02286583557574891,0.8215026259422302,-0.047007545828819275,0.1475299596786499,0.014454901218414307,0.0028036385774612427,0.01749405264854431,-0.0950414083756421,1.2821733303056317,-0.19030377135530113,0.9543103575706482,0.09489838778972626,-0.28334787487983704, 237, 172, 611, 207
1733261647486,6i,20.47199567748509,-4.0s : 0.3s,67.15912168902656,0.029407161875171218,1.0510660662007056,0.005127495897086032,0.8330351710319519,-0.025135181844234467,0.1480223834514618,0.003709852695465088,-0.0015409290790557861,0.0031864941120147705,-0.09126717553800741,1.2811056107802636,-0.19785012677562908,0.9543436765670776,0.09114052355289459,-0.284466952085495, 237, 172, 611, 207
1733261647496,6i,20.47199567748509,-4.0s : 0.3s,67.15912168902656,0.029432596939415797,1.096859577357902,0.00837019003682041,0.8839744925498962,-0.027760526165366173,0.15075132250785828,0.0018619298934936523,0.008127786219120026,-0.0007296502590179443,-0.08739663982861201,1.280164311883577,-0.20563453609246576,0.9544063806533813,0.08728542178869247,-0.2854641079902649, 237, 172, 611, 207
1733261647506,6i,20.47199567748509,-4.0s : 0.3s,67.15912168902656,0.02943175622884847,1.1668432402939983,0.030346154559427154,0.9801753163337708,-0.018098311498761177,0.14917045831680298,0.009919464588165283,0.02125328779220581,0.01925593614578247,-0.08328938750474253,1.2792019982221412,-0.2141410705784951,0.9544665813446045,0.08319312334060669,-0.2864830791950226, 237, 172, 611, 207
1733261647516,6i,20.47199567748509,-4.0s : 0.3s,67.15912168902656,0.02922058624738764,1.233780962971824,0.05204451938427728,1.0239462852478027,-0.00649944506585598,0.15801028907299042,0.026279807090759277,0.044332973659038544,0.0072519779205322266,-0.0789178545728471,1.278328753252512,-0.223374244760313,0.9545552134513855,0.07883596420288086,-0.28741854429244995, 237, 172, 611, 207
1733261647526,6i,20.47199567748509,-4.0s : 0.3s,67.15912168902656,0.02871996828699559,1.2672375813241732,0.07138489744735446,0.9887677431106567,-0.002664936473593116,0.16575270891189575,0.03328126668930054,0.06297549605369568,-0.004716753959655762,-0.07445289783704134,1.27762313318283,-0.23262641894862046,0.9546796083450317,0.07438413053750992,-0.28819090127944946, 237, 172, 611, 207
1733261647536,6i,20.47199567748509,-4.0s : 0.3s,67.15912168902656,0.028175570354927196,1.2887364050823022,0.06748213738206804,0.9821218252182007,-0.019178932532668114,0.17405830323696136,0.03603941202163696,0.0549035519361496,0.015511274337768555,-0.06998573716174177,1.2768311293509287,-0.24152822639580598,0.9547595977783203,0.0699286162853241,-0.28904029726982117, 237, 172, 611, 207
1733261647546,6i,20.47199567748509,-4.0s : 0.3s,67.15912168902656,0.02755648234318974,1.3296750256273082,0.0893580867225041,1.0509040355682373,-0.02596169337630272,0.15153758227825165,0.0461689829826355,0.07252681255340576,0.024354755878448486,-0.06547467187469076,1.2759879201678717,-0.25077873152190533,0.9548076391220093,0.06542789936065674,-0.289933979511261, 237, 172, 611, 207
1733261647556,6i,20.47199567748509,-4.0s : 0.3s,67.15912168902656,0.02642572172901854,1.4017081059994105,0.156795696447444,1.165644645690918,-0.031714119017124176,0.11024472862482071,0.0584602952003479,0.14518940448760986,-0.00934457778930664,-0.060994634193189574,1.275027776393717,-0.26128251138595143,0.9547996520996094,0.06095682084560394,-0.29093310236930847, 237, 172, 611, 207
1733261647566,6i,20.47199567748509,-4.0s : 0.3s,67.15912168902656,0.024582656556243844,1.511408987100694,0.22930406333587897,1.3195898532867432,-0.037882622331380844,0.050194114446640015,0.054925501346588135,0.2202489823102951,-0.03246426582336426,-0.056606205200262306,1.2740066597628847,-0.2733215887207354,0.9547486305236816,0.05657598003745079,-0.29198333621025085, 237, 172, 611, 207
1733261647576,6i,20.47199567748509,-4.0s : 0.3s,67.15912168902656,0.022092352164305953,1.6373502408161191,0.29623901128933267,1.4422807693481445,-0.037823233753442764,0.014924805611371994,0.04442751407623291,0.28888311982154846,-0.04827308654785156,-0.05222034282644114,1.2729138346707882,-0.2869495518200436,0.9546570181846619,0.05219661071896553,-0.29309654235839844, 237, 172, 611, 207
1733261647586,6i,20.47199567748509,-4.0s : 0.3s,67.15912168902656,0.019470583245582977,1.7320132821013174,0.3249533255167959,1.4575074911117554,-0.06881847977638245,-0.03593834117054939,0.043884992599487305,0.3166869878768921,-0.05812162160873413,-0.04804708174656648,1.27169049298291,-0.30128159027863877,0.9544976353645325,0.04802859574556351,-0.2943258285522461, 237, 172, 611, 207
1733261647596,6i,20.47199567748509,-4.0s : 0.3s,67.15912168902656,0.017648935143927624,1.7887914071161577,0.296652362080338,1.4306156635284424,-0.10213009268045425,-0.08495409041643143,0.04656553268432617,0.2876511514186859,-0.05559757351875305,-0.04433360528268982,1.2701700053986156,-0.3157443474594102,0.9542128443717957,0.04431908577680588,-0.29582756757736206, 237, 172, 611, 207
1733261647606,6i,20.47199567748509,-4.0s : 0.3s,67.15912168902656,0.017396396601191473,1.7609880700669738,0.22110581495043907,1.257725715637207,-0.1193014532327652,-0.13502484560012817,0.024199187755584717,0.21723675727844238,-0.03332224488258362,-0.04139626813590191,1.2684684804423676,-0.32944204257276877,0.9538281559944153,0.04138444736599922,-0.2974882125854492, 237, 172, 611, 207
1733261647616,6i,20.47199567748509,-4.0s : 0.3s,67.15912168902656,0.018675966920284063,1.7025189720896914,0.17890400767385192,1.1541647911071777,-0.11979014426469803,-0.185174822807312,-0.026183009147644043,0.17689645290374756,0.0053608715534210205,-0.039345992208431234,1.266764051387408,-0.34190065701569927,0.9533987641334534,0.039335839450359344,-0.29913830757141113, 237, 172, 611, 207
1733261647626,6i,20.47199567748509,-4.0s : 0.3s,67.15912168902656,0.021072631922773182,1.6370180306413347,0.20956704995272313,1.085060477256775,-0.11491229385137558,-0.22671182453632355,-0.0630308985710144,0.19560180604457855,0.04105347394943237,-0.03795833644144945,1.2651616827089145,-0.3537325580543968,0.9529693126678467,0.037949223071336746,-0.3006817400455475, 237, 172, 611, 207
1733261647636,6i,20.47199567748509,-4.0s : 0.3s,67.15912168902656,0.02463887907501747,1.6148926285860916,0.28356222619268917,1.1342262029647827,-0.08257725834846497,-0.29167136549949646,-0.08511894941329956,0.26245591044425964,0.06541556119918823,-0.03709787165026241,1.2637210522945923,-0.3656228468216046,0.9525659084320068,0.03708936274051666,-0.30206406116485596, 237, 172, 611, 207
1733261647646,6i,20.47199567748509,-4.0s : 0.3s,67.15912168902656,0.029489779861873823,1.6190180625989905,0.39491493363098906,1.1763445138931274,-0.040289901196956635,-0.3646507263183594,-0.12462490797042847,0.37239742279052734,0.04179230332374573,-0.036714214690731814,1.2626708910206632,-0.3783025221799903,0.9522615671157837,0.03670596703886986,-0.30306851863861084, 237, 172, 611, 207
1733261647656,6i,20.47199567748509,-4.0s : 0.3s,67.15912168902656,0.035763391432820237,1.6475455264997536,0.46971995585187454,1.2170991897583008,-0.02082778513431549,-0.42652687430381775,-0.15421676635742188,0.4426557123661041,0.03016531467437744,-0.036860062147563905,1.2618997437286732,-0.3914981621025721,0.9520226120948792,0.03685171529650688,-0.30380114912986755, 237, 172, 611, 207
1733261647666,6i,20.47199567748509,-4.0s : 0.3s,67.15912168902656,0.04340256091304696,1.6808119444789908,0.49671603988437407,1.2315677404403687,-0.0010338835418224335,-0.47655484080314636,-0.16337335109710693,0.464852511882782,0.06283402442932129,-0.037414513071073616,1.2613165009414786,-0.4052105400854111,0.9518255591392517,0.03740578517317772,-0.3043500781059265, 237, 172, 611, 207
1733261647676,6i,20.47199567748509,-4.0s : 0.3s,67.15912168902656,0.05200858991801294,1.715613199422253,0.5003468500008952,1.2305879592895508,0.030315784737467766,-0.5573197603225708,-0.1815289855003357,0.4633924663066864,0.05159088969230652,-0.038585475491790894,1.2609468055145476,-0.4191727137514726,0.9516705274581909,0.038575902581214905,-0.30468836426734924, 237, 172, 611, 207
1733261647686,6i,20.47199567748509,-4.0s : 0.3s,67.15912168902656,0.061465792288374205,1.7823193863682605,0.5350837563597038,1.3037409782409668,0.0601031519472599,-0.6430333256721497,-0.21388715505599976,0.4895569086074829,0.0300157368183136,-0.04045289110311681,1.2608582301872713,-0.43378931878514604,0.951573371887207,0.040441859513521194,-0.3047501742839813, 237, 172, 611, 207
1733261647696,6i,20.47199567748509,-4.0s : 0.3s,67.15912168902656,0.0717490283390328,1.845823208882549,0.5676656330938256,1.2955036163330078,0.08261910825967789,-0.7517526149749756,-0.23636162281036377,0.5154070258140564,0.02707493305206299,-0.04309322523121921,1.2609467694230752,-0.44907244390646106,0.9514952898025513,0.04307989031076431,-0.304632306098938, 237, 172, 611, 207
1733261647706,6i,20.47199567748509,-4.0s : 0.3s,67.15912168902656,0.08276739945926125,1.9213090503477905,0.5849816575263306,1.3056074380874634,0.09034746885299683,-0.8858371376991272,-0.24722713232040405,0.5290367603302002,0.03467550873756409,-0.04696929004501414,1.2611457709493,-0.4645580688780433,0.951389729976654,0.0469520203769207,-0.3043897747993469, 237, 172, 611, 207
1733261647716,6i,20.47199567748509,-4.0s : 0.3s,67.15912168902656,0.0945094419215751,2.024760984128072,0.6127828784367702,1.3664809465408325,0.11658386886119843,-1.0107609033584595,-0.27453023195266724,0.5432026982307434,0.07118171453475952,-0.05192865634797845,1.2614286176337535,-0.48098798389484787,0.9512423276901245,0.051905322819948196,-0.30404603481292725, 237, 172, 611, 207
1733261647726,6i,20.47199567748509,-4.0s : 0.3s,67.15912168902656,0.10716132610370492,2.122621702015011,0.6697509937369471,1.3515815734863281,0.13684888184070587,-1.1324477195739746,-0.279544472694397,0.6061092615127563,0.0552525520324707,-0.05800099826084011,1.261802090630069,-0.4980584477983813,0.9510380625724792,0.05796848237514496,-0.3035893142223358, 237, 172, 611, 207
1733261647736,6i,20.47199567748509,-4.0s : 0.3s,67.15912168902656,0.12090758436604514,2.2272308497642967,0.7314196406023917,1.3419549465179443,0.14503464102745056,-1.280656099319458,-0.27414923906326294,0.6746712923049927,0.06808474659919739,-0.06541135648464466,1.262202135230679,-0.5154761355202638,0.9507239460945129,0.06536471843719482,-0.3030700087547302, 237, 172, 611, 207
1733261647746,6i,20.47199567748509,-4.0s : 0.3s,67.15912168902656,0.13559360870150947,2.3236884491833596,0.7547959243828757,1.2864469289779663,0.14310269057750702,-1.4209822416305542,-0.27924835681915283,0.6938049793243408,0.1018424928188324,-0.07428390573319814,1.2624964025382537,-0.5330351012197555,0.9502230286598206,0.0742156058549881,-0.3026023209095001, 237, 172, 611, 207
1733261647756,6i,20.47199567748509,-4.0s : 0.3s,67.15912168902656,0.15108446477351775,2.4269396477378318,0.7774311843290181,1.2393635511398315,0.12895305454730988,-1.582328200340271,-0.2937379479408264,0.7074471712112427,0.13279971480369568,-0.0847532429757224,1.2625229297337328,-0.550537756378227,0.9494388103485107,0.08465181291103363,-0.3023248612880707, 237, 172, 611, 207
1733261647766,6i,20.47199567748509,-4.0s : 0.3s,67.15912168902656,0.16728778219623347,2.5584923253859064,0.8007049500323293,1.2579712867736816,0.14614199101924896,-1.7448636293411255,-0.30802202224731445,0.7285088896751404,0.12460196018218994,-0.09685301378349924,1.2623528858800153,-0.5683564112023753,0.9483419060707092,0.09670166671276093,-0.30215319991111755, 237, 172, 611, 207
1733261647776,6i,20.47199567748509,-4.0s : 0.3s,67.15912168902656,0.18418866746489262,2.7294930228985,0.8312301219626609,1.3465075492858887,0.17877423763275146,-1.908847451210022,-0.32212013006210327,0.7593882083892822,0.10252651572227478,-0.11028101523275796,1.2620808874982625,-0.587347594459476,0.9469372034072876,0.11005761474370956,-0.3019893765449524, 237, 172, 611, 207
1733261647786,6i,20.47199567748509,-4.0s : 0.3s,67.15912168902656,0.20190055077414848,2.9169041884626283,0.8799765339644261,1.3652162551879883,0.21493911743164062,-2.0961592197418213,-0.3236274719238281,0.8148610591888428,0.0750027596950531,-0.12523960064725626,1.26180327634696,-0.6074405847741216,0.9451789855957031,0.12491246312856674,-0.30171775817871094, 237, 172, 611, 207
1733261647796,6i,20.47199567748509,-4.0s : 0.3s,67.15912168902656,0.22043162537059166,3.107244764814715,0.916783545082192,1.3528045415878296,0.23793311417102814,-2.275989294052124,-0.31408435106277466,0.8588670492172241,0.06473392248153687,-0.14194486088373331,1.2614737224083694,-0.6282132013692286,0.9429601430892944,0.14146868884563446,-0.3013519048690796, 237, 172, 611, 207
1733261647806,6i,20.47199567748509,-4.0s : 0.3s,67.15912168902656,0.2394328422387995,3.286848658366759,0.8981842674229461,1.3141220808029175,0.2240355908870697,-2.4327034950256348,-0.2915509343147278,0.8417386412620544,0.11493080854415894,-0.16032051942080675,1.2607613228617907,-0.6493207636837108,0.9401105642318726,0.15963461995124817,-0.30117955803871155, 237, 172, 611, 207
1733261647816,6i,20.47199567748509,-4.0s : 0.3s,67.15912168902656,0.258481665880192,3.4769608053887984,0.8686284212364717,1.316021203994751,0.20376227796077728,-2.612416982650757,-0.23905903100967407,0.8247348666191101,0.13106682896614075,-0.18033024080551105,1.2594205265203273,-0.6708138894811543,0.9364772439002991,0.1793544739484787,-0.30140063166618347, 237, 172, 611, 207
1733261647826,6i,20.47199567748509,-4.0s : 0.3s,67.15912168902656,0.27764697348164286,3.6801968433659416,0.8830965803429249,1.3445671796798706,0.20480018854141235,-2.789487838745117,-0.17890679836273193,0.856764018535614,0.11750465631484985,-0.20194840707340556,1.257396744561108,-0.6933129469176437,0.9319586157798767,0.20057852566242218,-0.30202916264533997, 237, 172, 611, 207
1733261647836,6i,20.47199567748509,-4.0s : 0.3s,67.15912168902656,0.2968807207175634,3.875815121842656,0.8852414689612902,1.3021539449691772,0.2091435343027115,-2.9562246799468994,-0.14504015445709229,0.8674966096878052,0.10032668709754944,-0.22519170835943894,1.2547996122303062,-0.716247924909086,0.9264886379241943,0.2232932299375534,-0.30291762948036194, 237, 172, 611, 207
1733261647846,6i,20.47199567748509,-4.0s : 0.3s,67.15912168902656,0.3161037818745229,4.068227336333731,0.8660992593480298,1.283971905708313,0.21115262806415558,-3.112760543823242,-0.13279777765274048,0.8491043448448181,0.10730558633804321,-0.25000365047137035,1.2516449320610934,-0.739735715578019,0.9199835062026978,0.24740749597549438,-0.30400657653808594, 237, 172, 611, 207
1733261647856,6i,20.47199567748509,-4.0s : 0.3s,67.15912168902656,0.3352596550238641,4.270589575785995,0.8446328419628569,1.331189751625061,0.18729043006896973,-3.2731034755706787,-0.10150372982025146,0.8310331106185913,0.11173897981643677,-0.2761942608196245,1.2476233394098426,-0.7639958621937111,0.9122948050498962,0.2726961374282837,-0.3055408298969269, 237, 172, 611, 207
1733261647866,6i,20.47199567748509,-4.0s : 0.3s,67.15912168902656,0.35430931258175175,4.490210262408847,0.8385936995272865,1.4561563730239868,0.16110113263130188,-3.4287354946136475,-0.03760695457458496,0.8315976858139038,0.10134297609329224,-0.30350308766670403,1.2422033731722206,-0.7900041682030333,0.9032381176948547,0.29886502027511597,-0.30796220898628235, 237, 172, 611, 207
1733261647876,6i,20.47199567748509,-4.0s : 0.3s,67.15912168902656,0.37327073249026765,4.709431024389823,0.8600177645245437,1.5345728397369385,0.15616843104362488,-3.571657180786133,0.02637636661529541,0.857100248336792,0.0656810998916626,-0.33170365262475815,1.235373124532204,-0.8181424109115093,0.8927978873252869,0.3256542980670929,-0.3112254738807678, 237, 172, 611, 207
1733261647886,6i,20.47199567748509,-4.0s : 0.3s,67.15912168902656,0.3920702376825564,4.924813009339165,0.8801080945828728,1.5429989099502563,0.1380460262298584,-3.7364132404327393,0.08302593231201172,0.875727117061615,0.028266042470932007,-0.3610551192444807,1.2272445815825757,-0.8476790976512512,0.8808565139770508,0.3532615303993225,-0.31511592864990234, 237, 172, 611, 207
1733261647896,6i,20.47199567748509,-4.0s : 0.3s,67.15912168902656,0.4107104568880151,5.128331702982068,0.8543727891523667,1.5610370635986328,0.08345947414636612,-3.872851610183716,0.13667291402816772,0.8432762622833252,0.012590587139129639,-0.391535063830356,1.2174452088717806,-0.8785129679798811,0.8672181367874146,0.3816077709197998,-0.31985676288604736, 237, 172, 611, 207
1733261647906,6i,20.47199567748509,-4.0s : 0.3s,67.15912168902656,0.4289294918295023,5.311774390001888,0.8226868751610884,1.5266531705856323,0.003651592880487442,-3.9986133575439453,0.22028863430023193,0.7926115989685059,-0.007311999797821045,-0.4229500381767142,1.205650994498278,-0.9106490499817134,0.8517634272575378,0.41045233607292175,-0.3256194591522217, 237, 172, 611, 207
1733261647916,6i,20.47199567748509,-4.0s : 0.3s,67.15912168902656,0.44675869130130264,5.487896185899497,0.8194801726545595,1.4680100679397583,-0.1139000728726387,-4.148812294006348,0.3264331817626953,0.7513632774353027,-0.021032273769378662,-0.4554596947041165,1.1915823652506163,-0.9424128243088977,0.834257185459137,0.43987518548965454,-0.33245280385017395, 237, 172, 611, 207
1733261647926,6i,20.47199567748509,-4.0s : 0.3s,67.15912168902656,0.46416929450768496,5.686653683363391,0.8385778143421754,1.534675121307373,-0.2301107496023178,-4.319021224975586,0.407132089138031,0.732440710067749,-0.03141367435455322,-0.4890288455005159,1.174571522588386,-0.9770724336632514,0.8143950700759888,0.46976879239082336,-0.3407023847103119, 237, 172, 611, 207
1733261647936,6i,20.47199567748509,-4.0s : 0.3s,67.15912168902656,0.48060147299845485,5.8992198231540875,0.9109230702747513,1.636350393295288,-0.29041826725006104,-4.470242023468018,0.4689643979072571,0.7793214321136475,-0.0501132607460022,-0.5231828262014767,1.1542386179561133,-1.0147939395244483,0.7921593189239502,0.49963971972465515,-0.3504909574985504, 237, 172, 611, 207
1733261647946,6i,20.47199567748509,-4.0s : 0.3s,67.15912168902656,0.49692882818946343,6.1042688353866525,1.0197265238820745,1.7307873964309692,-0.35994863510131836,-4.578749656677246,0.5170236229896545,0.8694857954978943,-0.12854263186454773,-0.5574367484541836,1.1304921237706897,-1.055651602484889,0.7676748633384705,0.5290127396583557,-0.3616917133331299, 237, 172, 611, 207
1733261647956,6i,20.47199567748509,-4.0s : 0.3s,67.15912168902656,0.5135526578698258,6.289866996431491,1.1037827449095923,1.7947349548339844,-0.4454808235168457,-4.6593708992004395,0.5856046080589294,0.9202646613121033,-0.16886842250823975,-0.5914304806702553,1.1029379048708408,-1.1000463484806988,0.7409335374832153,0.5575491189956665,-0.3743749260902405, 237, 172, 611, 207
1733261647966,6i,20.47199567748509,-4.0s : 0.3s,67.15912168902656,0.5304047353291206,6.442112995926571,1.1504033743694095,1.6933528184890747,-0.5422942638397217,-4.74744176864624,0.6838591694831848,0.9107290506362915,-0.16228726506233215,-0.625009896829491,1.071967575172466,-1.1468240966419219,0.7121369242668152,0.585105299949646,-0.3879598379135132, 237, 172, 611, 207
1733261647976,6i,20.47199567748509,-4.0s : 0.3s,67.15912168902656,0.5472551795027326,6.572868755495537,1.1664588234420743,1.6253410577774048,-0.6406576037406921,-4.82443904876709,0.7744160890579224,0.8633665442466736,-0.12451553344726562,-0.6585557537394817,1.0376293839633584,-1.1955693467358457,0.6811045408248901,0.6119752526283264,-0.4019736647605896, 237, 172, 611, 207
1733261647986,6i,20.47199567748509,-4.0s : 0.3s,67.15912168902656,0.5641316341286774,6.701125964649844,1.1950298235869408,1.6415870189666748,-0.7218665480613708,-4.903436183929443,0.8491767644882202,0.8372546434402466,-0.07745814323425293,-0.6913971852334606,0.9992236122272894,-1.2473295436607503,0.6479088068008423,0.6376141309738159,-0.4167282283306122, 237, 172, 611, 207
1733261647996,6i,20.47199567748509,-4.0s : 0.3s,67.15912168902656,0.5812909163645195,6.831745091570555,1.2488800257295436,1.660273551940918,-0.7793077230453491,-4.994933128356934,0.9166587591171265,0.8458394408226013,-0.06319555640220642,-0.7232445384779791,0.9563565848441354,-1.3030090458341725,0.6125465631484985,0.6618204712867737,-0.4321810007095337, 237, 172, 611, 207
1733261648006,6i,20.47199567748509,-4.0s : 0.3s,67.15912168902656,0.5990476271212055,6.964957654480745,1.2948871491150205,1.7059588432312012,-0.8327649235725403,-5.080437660217285,0.9571601152420044,0.8701299428939819,-0.058746278285980225,-0.7537036437111434,0.9086095013850563,-1.3632010687159493,0.5750512480735779,0.6843439936637878,-0.4483185112476349, 237, 172, 611, 207
1733261648016,6i,20.47199567748509,-4.0s : 0.3s,67.15912168902656,0.6174008957858942,7.06583988813993,1.337235215945186,1.6377564668655396,-0.9025493264198303,-5.111968040466309,1.0184836387634277,0.8629412651062012,-0.0788763165473938,-0.7824103294839877,0.8560760345984717,-1.42757170350357,0.535654604434967,0.7049909234046936,-0.4648248553276062, 237, 172, 611, 207
1733261648026,6i,20.47199567748509,-4.0s : 0.3s,67.15912168902656,0.6360304278752507,7.140694756602224,1.3591701227930644,1.466118574142456,-1.0197460651397705,-5.158285140991211,1.0978896617889404,0.8001866340637207,-0.04102516174316406,-0.8097585217177753,0.7992805208500707,-1.4935698355857012,0.49439558386802673,0.7241206765174866,-0.48085594177246094, 237, 172, 611, 207
1733261648036,6i,20.47199567748509,-4.0s : 0.3s,67.15912168902656,0.6547225684059255,7.20099458487301,1.3744511184863897,1.3817254304885864,-1.11233389377594,-5.183982849121094,1.160832166671753,0.7358453869819641,-0.010776102542877197,-0.8355010132953133,0.73789765137884,-1.5627276628761677,0.45127415657043457,0.7416326999664307,-0.4963192343711853, 237, 172, 611, 207
1733261648046,6i,20.47199567748509,-4.0s : 0.3s,67.15912168902656,0.6735829608940386,7.25893333218444,1.4029210659148157,1.276218295097351,-1.2106491327285767,-5.231877326965332,1.2094957828521729,0.7101279497146606,-0.03202754259109497,-0.8592773348577385,0.6716107530975806,-1.6355721828437526,0.4063185155391693,0.7573708891868591,-0.5111700892448425, 237, 172, 611, 207
1733261648056,6i,20.47199567748509,-4.0s : 0.3s,67.15912168902656,0.6929556408564834,7.304543841099103,1.4577343016671058,1.304240107536316,-1.28355872631073,-5.2164740562438965,1.2666302919387817,0.7209392189979553,-0.029726088047027588,-0.8799373579026357,0.6002009663672739,-1.7126208298330141,0.3598955571651459,0.7706989645957947,-0.5258311033248901, 237, 172, 611, 207
1733261648066,6i,20.47199567748509,-4.0s : 0.3s,67.15912168902656,0.7131694969528097,7.344394607539568,1.5141925980348303,1.371123194694519,-1.303114652633667,-5.211441516876221,1.31785249710083,0.7443220615386963,-0.04504096508026123,-0.8965219937344411,0.5241958449049822,-1.7938044237312298,0.3124881386756897,0.7811602354049683,-0.5404998064041138, 237, 172, 611, 207
1733261648076,6i,20.47199567748509,-4.0s : 0.3s,67.15912168902656,0.7340649862099232,7.381562337591292,1.5179450458783408,1.5070325136184692,-1.361897587776184,-5.183614730834961,1.3335970640182495,0.7166184782981873,-0.11015439033508301,-0.9078345024880228,0.44409713046509103,-1.8789618621920905,0.2644253969192505,0.7881728410720825,-0.5557543635368347, 237, 172, 611, 207
1733261648086,6i,20.47199567748509,-4.0s : 0.3s,67.15912168902656,0.7555293375738722,7.437514197679682,1.4567169909207047,1.9807873964309692,-1.2079013586044312,-5.158487796783447,1.3072465658187866,0.6293837428092957,-0.1304105520248413,-0.9118617868330158,0.36108973924546117,-1.9678265035581455,0.21631298959255219,0.7906450629234314,-0.5727907419204712, 237, 172, 611, 207
1733261648096,6i,20.47199567748509,-4.0s : 0.3s,67.15912168902656,0.7774373354575009,7.519663158715689,1.5047408829463376,2.1507363319396973,-1.3226927518844604,-5.179732322692871,1.3438353538513184,0.6637503504753113,-0.13336843252182007,-0.9088706846249929,0.2768904312772195,-2.0578455639353663,0.16802078485488892,0.788810133934021,-0.5912256240844727, 237, 172, 611, 207
1733261648106,6i,20.47199567748509,-4.0s : 0.3s,67.15912168902656,0.8011494588763082,7.624681065477152,1.685301487428459,2.200199604034424,-1.3804550170898438,-5.2668046951293945,1.3836135864257812,0.8612911105155945,-0.4289897084236145,-0.8994678641507187,0.19191484667404837,-2.1487653658875994,0.11864470690488815,0.7829959988594055,-0.6106067895889282, 237, 172, 611, 207
1733261648116,6i,20.47199567748509,-4.0s : 0.3s,67.15912168902656,0.8233762530581985,7.598958995118786,1.2709706275537862,1.4665778875350952,-1.608856439590454,-5.19706916809082,1.1732200384140015,0.45334190130233765,-0.18276268243789673,-0.8889729825918182,0.10941183249244099,-2.2357235016005315,0.06881491094827652,0.7764249444007874,-0.6264413595199585, 237, 172, 611, 207
1733261648126,6i,20.47199567748509,-4.0s : 0.3s,67.15912168902656,0.843447854201352,7.558384989769997,1.2323593084622892,1.1627298593521118,-1.8759740591049194,-5.14516544342041,1.2077380418777466,0.23625177145004272,0.06529462337493896,-0.8799248394556546,0.02767779860060045,-2.318624109062635,0.01763429492712021,0.7706909775733948,-0.6369650959968567, 237, 172, 611, 207
1733261648136,6i,20.47199567748509,-4.0s : 0.3s,67.15912168902656,0.8638532013597011,7.510004740036613,1.3861919025885594,1.385144591331482,-1.8232005834579468,-5.0227203369140625,1.3198530673980713,0.4131368398666382,-0.09398841857910156,-0.8666371589650821,-0.05147253178888642,-2.3975478524383522,-0.033308256417512894,0.7621561884880066,-0.6465358138084412, 237, 172, 611, 207
1733261648146,6i,20.47199567748509,-4.0s : 0.3s,67.15912168902656,0.885593367459036,7.467234928448199,1.4902463504897938,1.4991071224212646,-1.793152093887329,-4.970084190368652,1.3209311962127686,0.6198245286941528,-0.30297279357910156,-0.8477895400706638,-0.1253133091061854,-2.4715300060102816,-0.08269575238227844,0.7498196959495544,-0.6564540266990662, 237, 172, 611, 207
1733261648156,6i,20.47199567748509,-4.0s : 0.3s,67.15912168902656,0.9080033966941453,7.444856029709803,1.3342502846472608,1.414107322692871,-1.8956997394561768,-4.97927713394165,1.1711055040359497,0.6135780811309814,-0.179604172706604,-0.8254549901202877,-0.1955971068117717,-2.541424134357331,-0.1318141371011734,0.7348564267158508,-0.6652902364730835, 237, 172, 611, 207
1733261648166,6i,20.47199567748509,-4.0s : 0.3s,67.15912168902656,0.9305876429539455,7.418055650644433,1.2813160679311832,1.4090982675552368,-1.980179786682129,-4.91756534576416,1.1296734809875488,0.5714349150657654,-0.19766342639923096,-0.8005213235050086,-0.26264130265749663,-2.6069142803353476,-0.18079036474227905,0.7177191972732544,-0.672453761100769, 237, 172, 611, 207
1733261648176,6i,20.47199567748509,-4.0s : 0.3s,67.15912168902656,0.9543740417036756,7.4013816766876666,1.4328701183878063,1.5449386835098267,-2.027669668197632,-4.860426902770996,1.2355539798736572,0.6872426867485046,-0.2328532338142395,-0.7722542473359184,-0.32531431319084436,-2.6670908966418727,-0.22894687950611115,0.6977518200874329,-0.6787678003311157, 237, 172, 611, 207
1733261648186,6i,20.47199567748509,-4.0s : 0.3s,67.15912168902656,0.9794636860360052,7.400934192713834,1.4748889728950982,1.5192867517471313,-2.092508554458618,-4.872279644012451,1.2606091499328613,0.7364146113395691,-0.2094172239303589,-0.7408723633220263,-0.3839091944899331,-2.7224193916930144,-0.27637147903442383,0.6749318838119507,-0.6841679811477661, 237, 172, 611, 207
1733261648196,6i,20.47199567748509,-4.0s : 0.3s,67.15912168902656,1.00499924369734,7.426429836740612,1.4219470350283465,1.5029983520507812,-2.1830554008483887,-4.913322448730469,1.2110915184020996,0.700931966304779,-0.25275498628616333,-0.7075306887778321,-0.43962359929052275,-2.774266513220247,-0.3234420120716095,0.649959146976471,-0.6877050995826721, 237, 172, 611, 207
1733261648206,6i,20.47199567748509,-4.0s : 0.3s,67.15912168902656,1.0309274238159987,7.446728183809231,1.4111873104008965,1.5278607606887817,-2.2300732135772705,-4.890131950378418,1.1999419927597046,0.7009589076042175,-0.2454494833946228,-0.6719291194119573,-0.4922559903437933,-2.8222275770169456,-0.36987918615341187,0.6224969029426575,-0.6897006630897522, 237, 172, 611, 207
1733261648216,6i,20.47199567748509,-4.0s : 0.3s,67.15912168902656,1.0577694934723503,7.476968027000555,1.4693554711557695,1.5752259492874146,-2.2845044136047363,-4.894828796386719,1.2494639158248901,0.746848464012146,-0.20015692710876465,-0.6342431948411952,-0.5414876363103595,-2.8661084948000215,-0.4151743948459625,0.592568039894104,-0.6902849674224854, 237, 172, 611, 207
1733261648226,6i,20.47199567748509,-4.0s : 0.3s,67.15912168902656,1.085476543168833,7.49577190523345,1.4970780905365495,1.6202658414840698,-2.3527920246124268,-4.841609954833984,1.2748565673828125,0.7608247995376587,-0.19268929958343506,-0.5946699803085048,-0.5876866926695663,-2.9060155539407564,-0.4592590034008026,0.5602354407310486,-0.6893602609634399, 237, 172, 611, 207
1733261648236,6i,20.47199567748509,-4.0s : 0.3s,67.15912168902656,1.11355832860969,7.492650839045278,1.4782494842746854,1.6193369626998901,-2.3810110092163086,-4.763473987579346,1.2745275497436523,0.7173731923103333,-0.214887797832489,-0.5538599554126006,-0.6308539529859689,-2.9418587160376584,-0.5016546845436096,0.5259740352630615,-0.6867998242378235, 237, 172, 611, 207
1733261648246,6i,20.47199567748509,-4.0s : 0.3s,67.15912168902656,1.1418465260173358,7.458074967016335,1.4633485043005106,1.5384994745254517,-2.413247585296631,-4.697847843170166,1.2869305610656738,0.6722049117088318,-0.1825900673866272,-0.5126453961527248,-0.6713618162314118,-2.9744354100646277,-0.542087972164154,0.4904842972755432,-0.6823238730430603, 237, 172, 611, 207
1733261648256,6i,20.47199567748509,-4.0s : 0.3s,67.15912168902656,1.1699088157581192,7.400221799757467,1.4037122623560339,1.5367814302444458,-2.4671573638916016,-4.572787761688232,1.241653323173523,0.6360855102539062,-0.155242919921875,-0.4712522455721963,-0.7096775394647338,-3.003958907075649,-0.5805662870407104,0.45400238037109375,-0.6758880615234375, 237, 172, 611, 207
1733261648266,6i,20.47199567748509,-4.0s : 0.3s,67.15912168902656,1.1973234115926246,7.318189815234494,1.3516652739092783,1.47898530960083,-2.498868227005005,-4.451980113983154,1.2165433168411255,0.5539593696594238,-0.20037561655044556,-0.4300113352346109,-0.7459098944968481,-3.0301447917353546,-0.616857647895813,0.41688111424446106,-0.6676052212715149, 237, 172, 611, 207
1733261648276,6i,20.47199567748509,-4.0s : 0.3s,67.15912168902656,1.2239904344575097,7.225628081303914,1.3529501175320997,1.4218218326568604,-2.560859203338623,-4.331951141357422,1.261953353881836,0.4605618119239807,-0.1607189178466797,-0.3892015593739668,-0.780701360500453,-3.0539854386865843,-0.6511439681053162,0.3794498145580292,-0.657289445400238, 237, 172, 611, 207
1733261648286,6i,20.47199567748509,-4.0s : 0.3s,67.15912168902656,1.249982213458569,7.127806689395908,1.3353480767513528,1.4498018026351929,-2.5823428630828857,-4.209298133850098,1.2594037055969238,0.4222765266895294,-0.1368916630744934,-0.3486283441690534,-0.8139144845704108,-3.074892156072481,-0.6832470893859863,0.34160900115966797,-0.6453500986099243, 237, 172, 611, 207
1733261648296,6i,20.47199567748509,-4.0s : 0.3s,67.15912168902656,1.2760082314799446,7.024659612504497,1.3795633576505384,1.38345205783844,-2.618089199066162,-4.1038007736206055,1.3148962259292603,0.39990705251693726,-0.11965501308441162,-0.3084040886037807,-0.8459357223191147,-3.0935111729680167,-0.7132726907730103,0.30353841185569763,-0.6317487359046936, 237, 172, 611, 207
1733261648306,6i,20.47199567748509,-4.0s : 0.3s,67.15912168902656,1.3020378765550618,6.931082536500352,1.3895265309156528,1.3891664743423462,-2.679751396179199,-3.9967212677001953,1.3389266729354858,0.3544439375400543,-0.11148470640182495,-0.2686648276151162,-0.8772173321157302,-3.1101139286660393,-0.7413772940635681,0.26544439792633057,-0.616359531879425, 237, 172, 611, 207
1733261648316,6i,20.47199567748509,-4.0s : 0.3s,67.15912168902656,1.3277868598317615,6.8189183156477915,1.4045302634061294,1.4399518966674805,-2.684872627258301,-3.8291594982147217,1.3660407066345215,0.3087475299835205,-0.10636264085769653,-0.22932912310023285,-0.9075161075615619,-3.1241179927498317,-0.767346978187561,0.22732426226139069,-0.599585235118866, 237, 172, 611, 207
1733261648326,6i,20.47199567748509,-4.0s : 0.3s,67.15912168902656,1.3531261375062322,6.694598149496951,1.4252380250957988,1.5138202905654907,-2.6634738445281982,-3.6696298122406006,1.3969669342041016,0.264184832572937,-0.09996592998504639,-0.1906111193184175,-0.9365832717661277,-3.1352701939929806,-0.7909488081932068,0.18945898115634918,-0.5818119645118713, 237, 172, 611, 207
1733261648336,6i,20.47199567748509,-4.0s : 0.3s,67.15912168902656,1.378376335597932,6.554480539945866,1.396056054321161,1.452965259552002,-2.679533004760742,-3.509117603302002,1.385084867477417,0.17404796183109283,-0.014823079109191895,-0.1526859670239687,-0.9648612010852046,3.138989521975543,-0.8124071955680847,0.15209339559078217,-0.5629051327705383, 237, 172, 611, 207
1733261648346,6i,20.47199567748509,-4.0s : 0.3s,67.15912168902656,1.4033587643596128,6.369779849233792,1.3970949601870573,1.3813296556472778,-2.648638963699341,-3.276609182357788,1.3928771018981934,0.04978072643280029,0.0963824987411499,-0.11660577386394337,-0.9924646883886998,3.1317594275728307,-0.8316894173622131,0.11634171009063721,-0.5429156422615051, 237, 172, 611, 207
1733261648356,6i,20.47199567748509,-4.0s : 0.3s,67.15912168902656,1.4268277658422805,6.143415014176231,1.4509873035414202,1.2718521356582642,-2.598078966140747,-3.036099433898926,1.4306526184082031,-0.05728328227996826,0.23519325256347656,-0.08281430390805501,-1.01926567895162,3.1261084928089446,-0.8488045334815979,0.08271967619657516,-0.5221957564353943, 237, 172, 611, 207
1733261648366,6i,20.47199567748509,-4.0s : 0.3s,67.15912168902656,1.4485779743726896,5.888212133983751,1.4879491644642777,1.2233312129974365,-2.5246598720550537,-2.786292791366577,1.4233635663986206,-0.20238040387630463,0.3834984302520752,-0.05141733254691672,-1.0451453123793093,3.121882017003009,-0.8638542890548706,0.05139467865228653,-0.5011131167411804, 237, 172, 611, 207
1733261648376,6i,20.47199567748509,-4.0s : 0.3s,67.15912168902656,1.4685312000340982,5.585457957499482,1.4872736160151687,1.1208895444869995,-2.3971471786499023,-2.5074305534362793,1.3752496242523193,-0.3080596327781677,0.4751531779766083,-0.022661197216680452,-1.0698382939817201,3.1190054328558157,-0.8768976330757141,0.02265925705432892,-0.480142742395401, 237, 172, 611, 207
1733261648386,6i,20.47199567748509,-4.0s : 0.3s,67.15912168902656,1.4866697541598468,5.245021609328211,1.5251614683253412,1.0492222309112549,-2.226529359817505,-2.2353527545928955,1.3487703800201416,-0.4315674901008606,0.5662909746170044,0.003414825535022259,-1.0930235068896081,3.117455497371004,-0.8880159854888916,-0.003414818784222007,-0.4597998261451721, 237, 172, 611, 207
1733261648396,6i,20.47199567748509,-4.0s : 0.3s,67.15912168902656,1.5029120110586767,4.868261174299496,1.5725237753291055,0.9997048377990723,-2.0020132064819336,-1.9665334224700928,1.3115109205245972,-0.5652318000793457,0.6582424640655518,0.026736130839438443,-1.1141938132642213,3.117180717194898,-0.8972349762916565,-0.026732945814728737,-0.44074368476867676, 237, 172, 611, 207
1733261648406,6i,20.47199567748509,-4.0s : 0.3s,67.15912168902656,1.5173962207211553,4.437423610841875,1.6372286995730345,0.9805220365524292,-1.754394292831421,-1.6014903783798218,1.26471745967865,-0.6551241874694824,0.8073536157608032,0.0471637768053337,-1.1330846712117073,3.1184014132225917,-0.9047169089317322,-0.04714629426598549,-0.42339667677879333, 237, 172, 611, 207
1733261648416,6i,20.47199567748509,-4.0s : 0.3s,67.15912168902656,1.5303916328569926,3.972602480271426,1.689527293030979,0.9553405046463013,-1.4345110654830933,-1.3141733407974243,1.2193965911865234,-0.7180496454238892,0.9230271577835083,0.06446566535099915,-1.1492045171918919,3.121114655177003,-0.9105435013771057,-0.06442102044820786,-0.4083634316921234, 237, 172, 611, 207
1733261648426,6i,20.47199567748509,-4.0s : 0.3s,67.15912168902656,1.5421379922534493,3.460733999805411,1.7493176860829935,0.925348162651062,-1.0634288787841797,-0.9835142493247986,1.177417278289795,-0.779691219329834,1.0324158668518066,0.0787733759291982,-1.1619950961057555,3.125068190354841,-0.9147526025772095,-0.07869192957878113,-0.39627698063850403, 237, 172, 611, 207
1733261648436,6i,20.47199567748509,-4.0s : 0.3s,67.15912168902656,1.5525690610969867,2.90423863687482,1.8331073371958293,0.9051068425178528,-0.659279465675354,-0.6087403893470764,1.1184320449829102,-0.8825231790542603,1.1534925699234009,0.08959674075759876,-1.171033689207367,3.130321289248787,-0.9174585938453674,-0.08947691321372986,-0.3876385986804962, 237, 172, 611, 207
1733261648446,6i,20.47199567748509,-4.0s : 0.3s,67.15912168902656,1.5620183839072972,2.3209376707098492,1.9066412168855458,0.9300677180290222,-0.19402602314949036,-0.20333673059940338,1.0953068733215332,-0.9499651789665222,1.2382042407989502,0.09687821433417541,-1.1759223330034403,3.137183976195879,-0.9187169671058655,-0.09672674536705017,-0.3828880786895752, 237, 172, 611, 207
1733261648456,6i,20.47199567748509,-4.0s : 0.3s,67.15912168902656,1.5709017409781676,1.7654395771337126,2.0223265303229483,0.9498603343963623,0.2787569761276245,0.22162948548793793,1.1009361743927002,-1.0217761993408203,1.354148268699646,0.10043231532134204,-1.1763653526033069,-3.13720166528429,-0.918563187122345,-0.1002635657787323,-0.3823464810848236, 237, 172, 611, 207
1733261648466,6i,20.47199567748509,-4.0s : 0.3s,67.15912168902656,1.5795317374561764,1.3491053244341693,2.1492954564303854,0.928216278553009,0.7771425843238831,0.663452684879303,1.1223530769348145,-1.1221461296081543,1.449338674545288,0.09997474265278405,-1.172188302690415,-3.1267670110235932,-0.917000412940979,-0.09980828315019608,-0.3861978352069855, 237, 172, 611, 207
1733261648476,6i,20.47199567748509,-4.0s : 0.3s,67.15912168902656,1.5886888222151483,1.3259706517189294,2.3098079170797887,0.9206579327583313,1.2947803735733032,1.148817777633667,1.21333646774292,-1.1973177194595337,1.5586717128753662,0.09529165847062651,-1.1630120664834165,-3.1146768558454325,-0.9138370156288147,-0.095147505402565,-0.3947770893573761, 237, 172, 611, 207
1733261648486,6i,20.47199567748509,-4.0s : 0.3s,67.15912168902656,1.599241740298751,1.7828874196893907,2.4544829005468816,0.9239327907562256,1.8245681524276733,1.63569974899292,1.329737663269043,-1.2450505495071411,1.6450328826904297,0.08624837215585814,-1.1486951068887652,-3.1005960898133034,-0.9088392853736877,-0.08614148199558258,-0.40815532207489014, 237, 172, 611, 207
1733261648496,6i,20.47199567748509,-4.0s : 0.3s,67.15912168902656,1.6120037966927716,2.515802978075406,2.571943487646714,0.9452410340309143,2.3799922466278076,2.1540684700012207,1.4785419702529907,-1.2909789085388184,1.6619808673858643,0.07297740887587005,-1.128994481272911,-3.084142772565774,-0.9015766978263855,-0.07291264832019806,-0.42643100023269653, 237, 172, 611, 207
1733261648506,6i,20.47199567748509,-4.0s : 0.3s,67.15912168902656,1.6276905629012381,3.390025841435005,2.7111437783119654,1.00212562084198,2.948197364807129,2.711496114730835,1.642578125,-1.336374044418335,1.6930274963378906,0.0553931360428877,-1.103598276575654,-3.064719319673378,-0.8914642930030823,-0.05536481365561485,-0.44969555735588074, 237, 172, 611, 207
1733261648516,6i,20.47199567748509,-4.0s : 0.3s,67.15912168902656,1.6469287956656742,4.347966750641897,2.8891603103503956,1.0462344884872437,3.5460846424102783,3.2864742279052734,1.8384003639221191,-1.4119772911071777,1.7244858741760254,0.033600921150059096,-1.0721873959533736,-3.0416556563184947,-0.8777529001235962,-0.03359459713101387,-0.4779343605041504, 237, 172, 611, 207
1733261648526,6i,20.47199567748509,-4.0s : 0.3s,67.15912168902656,1.670527845519328,5.387798400617756,3.1117976429719496,1.093219518661499,4.186806678771973,3.9312586784362793,2.1000006198883057,-1.5032681226730347,1.7359340190887451,0.0075351388375940334,-1.0341428426246981,-3.014563360700932,-0.8594000935554504,-0.0075350673869252205,-0.5112482905387878, 237, 172, 611, 207
1733261648536,6i,20.47199567748509,-4.0s : 0.3s,67.15912168902656,1.6995611789410054,6.5182232586858175,3.4008559319171585,1.1456574201583862,4.91527795791626,4.612274169921875,2.41904616355896,-1.583188533782959,1.7909636497497559,-0.022658817483036033,-0.9884129907866835,-2.9824110101554004,-0.8349398374557495,0.02265687845647335,-0.5498747825622559, 237, 172, 611, 207
1733261648546,6i,20.47199567748509,-4.0s : 0.3s,67.15912168902656,1.7349564977175185,7.7513554249172545,3.7664986053617118,1.1287016868591309,5.733120441436768,5.365131378173828,2.7737934589385986,-1.7225648164749146,1.8775920867919922,-0.05700735707490532,-0.9337342709194111,-2.9444439492242016,-0.8025410771369934,0.05697648599743843,-0.5938701033592224, 237, 172, 611, 207
1733261648556,6i,20.47199567748509,-4.0s : 0.3s,67.15912168902656,1.777829363959518,9.104795844297286,4.19202432263128,1.012955665588379,6.677672386169434,6.176962375640869,3.1794815063476562,-1.8733041286468506,1.9886419773101807,-0.09547981455700026,-0.8683992532456982,-2.900098800771631,-0.7598191499710083,0.09533480554819107,-0.6431066393852234, 237, 172, 611, 207
1733261648566,6i,20.47199567748509,-4.0s : 0.3s,67.15912168902656,1.8300236636601688,10.597201226802714,4.744106596857707,0.6995047330856323,7.762472629547119,7.059997081756592,3.688023090362549,-1.9895811080932617,2.224095344543457,-0.13839899184730936,-0.7902999215199041,-2.8486982372523313,-0.7037700414657593,0.1379575878381729,-0.6969042420387268, 237, 172, 611, 207
1733261648576,6i,20.47199567748509,-4.0s : 0.3s,67.15912168902656,1.8940416068574586,12.247191572631632,5.433746436401457,0.3123032748699188,8.899675369262695,8.082653045654297,4.358139991760254,-2.0947489738464355,2.4787583351135254,-0.18592134479698116,-0.6973680877960752,-2.788925885693935,-0.6311349868774414,0.18485207855701447,-0.7533248662948608, 237, 172, 611, 207
1733261648586,6i,20.47199567748509,-4.0s : 0.3s,67.15912168902656,1.9735098073882333,14.100556091735225,6.328323218644023,0.07578645646572113,10.14095401763916,9.290024757385254,5.318594932556152,-2.1590282917022705,2.664361000061035,-0.23645120326001176,-0.5870237715002922,-2.7166277807699197,-0.5384738445281982,0.23425406217575073,-0.8094263076782227, 237, 172, 611, 207
1733261648596,6i,20.47199567748509,-4.0s : 0.3s,67.15912168902656,2.0724345826327104,16.023787091073554,7.401867159542381,-0.05400056391954422,11.35133171081543,10.25455379486084,6.5628790855407715,-2.1842098236083984,2.6354284286499023,-0.2852296046062005,-0.4566448994567241,-2.6288088985151945,-0.4231240451335907,0.28137779235839844,-0.8612738251686096, 237, 172, 611, 207
1733261648606,6i,20.47199567748509,-4.0s : 0.3s,67.15912168902656,2.19380091587648,17.84733601466485,8.502679949289952,-0.20058120787143707,11.97538948059082,11.318561553955078,7.852252006530762,-2.103443145751953,2.492635488510132,-0.32625679842781363,-0.30769189582094647,-2.5246890870874235,-0.28688350319862366,0.3204995393753052,-0.9027612805366516, 237, 172, 611, 207
1733261648616,6i,20.47199567748509,-4.0s : 0.3s,67.15912168902656,2.341706195121323,19.484015934690255,9.844575165828429,-0.7846718430519104,12.830375671386719,11.701334953308105,9.40707015991211,-1.67673921585083,2.368804931640625,-0.35706923329001083,-0.14318233806458086,-2.4050060539438065,-0.13369324803352356,0.34952983260154724,-0.9273375868797302, 237, 172, 611, 207
1733261648626,6i,20.47199567748509,-4.0s : 0.3s,67.15912168902656,2.520358907990645,20.813107103004967,11.419412333084498,-2.835667371749878,12.896562576293945,12.165160179138184,11.182928085327148,-0.8391803503036499,2.154268741607666,-0.3811485194782522,0.03133110386730873,-2.278366156447728,0.029077963903546333,0.3719868063926697,-0.9277824759483337, 237, 172, 611, 207
1733261648636,6i,20.47199567748509,-4.0s : 0.3s,67.15912168902656,2.730042494319541,21.95748401303205,12.769033142503769,-5.611080646514893,12.644339561462402,12.623270034790039,12.631821632385254,-0.030933380126953125,1.8666367530822754,-0.4074058046140942,0.21286400877170278,-2.1398468308041343,0.19396887719631195,0.3962287902832031,-0.8974289894104004, 237, 172, 611, 207
1733261648646,6i,20.47199567748509,-4.0s : 0.3s,67.15912168902656,2.9709135284907213,23.051536491174893,14.207093224098442,-8.867352485656738,11.575713157653809,13.403051376342773,14.093608856201172,1.0840574502944946,1.4270622730255127,-0.43671123853890315,0.39993619610988423,-1.9797772668474851,0.35281723737716675,0.42296165227890015,-0.8346397280693054, 237, 172, 611, 207
1733261648656,6i,20.47199567748509,-4.0s : 0.3s,67.15912168902656,3.241777175472943,24.12558955314513,15.695087613933694,-12.62635326385498,9.580881118774414,13.863410949707031,15.395590782165527,3.0123963356018066,0.4868552088737488,-0.46614013724627046,0.589938770522023,-1.7896617472557892,0.49695727229118347,0.4494415819644928,-0.7423178553581238, 237, 172, 611, 207
1733261648666,6i,20.47199567748509,-4.0s : 0.3s,67.15912168902656,3.539114183174281,25.553846014448325,17.071817359714522,-16.720836639404297,6.188414096832275,15.06567096710205,16.100309371948242,5.662729263305664,-0.4006037712097168,-0.4884344792486239,0.7764190203015536,-1.559652356344256,0.6187918782234192,0.46924400329589844,-0.6300053000450134, 237, 172, 611, 207
1733261648676,6i,20.47199567748509,-4.0s : 0.3s,67.15912168902656,3.8583054064931908,27.744967358671524,18.378704269171607,-22.063453674316406,1.5371813774108887,15.646045684814453,16.140905380249023,8.747831344604492,-0.8505238890647888,-0.5053892167751618,0.9463170992521461,-1.2843720409275545,0.7098479866981506,0.4841480255126953,-0.5115823745727539, 237, 172, 611, 207
1733261648686,6i,20.47199567748509,-4.0s : 0.3s,67.15912168902656,4.190505104916079,30.021530719770972,19.095275593476114,-22.970703125,-0.07653037458658218,15.660404205322266,14.79271125793457,12.072214126586914,-0.2586304545402527,-0.49579241215781655,1.1034643372936317,-0.9727245131835741,0.7852764129638672,0.4757288098335266,-0.3962614834308624, 237, 172, 611, 207
1733261648696,6i,20.47199567748509,-4.0s : 0.3s,67.15912168902656,4.521045580824741,30.429107018846167,19.5437264771878,-19.822416305541992,-3.0734915733337402,14.068852424621582,11.60615348815918,15.681705474853516,1.15696120262146,-0.44309448750856845,1.2169529345526053,-0.6880482947369772,0.8474599719047546,0.42873716354370117,-0.31304335594177246, 237, 172, 611, 207
1733261648706,6i,20.47199567748509,-4.0s : 0.3s,67.15912168902656,4.830593701848007,30.189393689297276,20.119640537701788,-17.781354904174805,-5.212038040161133,13.664390563964844,6.86242151260376,18.848234176635742,1.5656228065490723,-0.3715101506257818,1.2697219014350278,-0.4468296727967174,0.8898673057556152,0.36302298307418823,-0.2763161361217499, 237, 172, 611, 207
1733261648716,6i,20.47199567748509,-4.0s : 0.3s,67.15912168902656,5.106179061016702,29.565037238308868,17.448196283601277,-15.988425254821777,-4.565365314483643,13.364450454711914,2.8310558795928955,16.896503448486328,3.306485652923584,-0.2892923355148796,1.2881251887965663,-0.23825384619323825,0.9204090237617493,0.28527402877807617,-0.26733148097991943, 237, 172, 611, 207
1733261648726,6i,20.47199567748509,-4.0s : 0.3s,67.15912168902656,5.341514821085743,29.90892903879717,13.436347751074644,-18.444202423095703,-3.5543200969696045,13.259246826171875,0.3627622723579407,12.316072463989258,5.358936786651611,-0.20831871126610635,1.2968990494423642,-0.030405093115307175,0.9419100284576416,0.20681525766849518,-0.26463761925697327, 237, 172, 611, 207
1733261648736,6i,20.47199567748509,-4.0s : 0.3s,67.15912168902656,5.53508122192194,26.09657694639522,9.698508985557373,-4.253897190093994,-4.20117712020874,13.83988094329834,-0.6545242667198181,8.093743324279785,5.303205966949463,-0.12828747461992882,1.3055818396899648,0.18549126260260468,0.9571060538291931,0.12793587148189545,-0.2599623203277588, 237, 172, 611, 207
1733261648746,6i,20.47199567748509,-4.0s : 0.3s,67.15912168902656,5.670845902549849,31.2278511381986,1.660973194715819,-36.70322036743164,2.0985982418060303,4.628134727478027,-0.22650200128555298,-0.343671977519989,-1.6091669797897339,-0.06389976568255068,1.3214140496729032,0.2966868597578131,0.9670873284339905,0.06385628879070282,-0.24630169570446014, 237, 172, 611, 207
1733261648756,6i,20.47199567748509,-4.0s : 0.3s,67.15912168902656,5.763758018860624,30.511961960564363,9.269107878274577,-20.455053329467773,-9.8446683883667,4.838022708892822,3.4179515838623047,-8.507450103759766,-1.3628134727478027,-0.08734923144268764,1.2679527050181127,0.590081555031727,0.950853168964386,0.08723820000886917,-0.2970985770225525, 237, 172, 611, 207
1733261648766,6i,20.47199567748509,-4.0s : 0.3s,67.15912168902656,5.928308716978282,32.59164776725304,18.67535415034604,-28.962493896484375,-9.772828102111816,-3.4059698581695557,12.927875518798828,0.9401309490203857,13.444517135620117,-0.16206371291280175,1.1979160894495886,0.8461071103628305,0.9190787672996521,0.16135521233081818,-0.3595256209373474, 237, 172, 611, 207
1733261648776,6i,20.47199567748509,-4.0s : 0.3s,67.15912168902656,6.098802238529625,33.17614673243597,8.797280683047044,-22.036046981811523,-18.377660751342773,-4.296572685241699,8.554034233093262,1.8679883480072021,-0.8551405072212219,-0.30115508070857255,1.1262628183856551,1.0882284945020009,0.8621799945831299,0.29662349820137024,-0.4106827974319458, 237, 172, 611, 207
1733261648786,6i,20.47199567748509,-4.0s : 0.3s,67.15912168902656,6.260129830969975,31.107711982356825,14.756683945773416,-15.789708137512207,-13.151578903198242,-4.599602699279785,1.6807990074157715,3.568288564682007,14.219773292541504,-0.4279965708813727,1.0254902898720832,1.2305205748520867,0.7778496742248535,0.4150489270687103,-0.47189438343048096, 237, 172, 611, 207
1733261648796,6i,20.47199567748509,-4.0s : 0.3s,67.15912168902656,6.445291697324663,27.796645337713198,14.320152540484651,-10.583246231079102,-11.113014221191406,-7.190913677215576,5.1130828857421875,12.6466703414917,4.35716438293457,-0.5522567998468655,0.9511910830211006,1.3221680626191394,0.6930847764015198,0.5246098637580872,-0.49438655376434326, 237, 172, 611, 207
1733261648806,6i,20.47199567748509,-4.0s : 0.3s,67.15912168902656,6.601720275911094,25.17025439821519,7.901842831113146,-8.402983665466309,-11.138189315795898,-7.792094707489014,0.23401778936386108,7.649397850036621,1.9675030708312988,-0.6659598383838411,0.8553684267991211,1.3527242199134033,0.5935273766517639,0.6178141832351685,-0.515781819820404, 237, 172, 611, 207
1733261648816,6i,20.47199567748509,-4.0s : 0.3s,67.15912168902656,6.7215487083584256,23.894172631187846,1.4313344342601637,-8.100028991699219,-12.123407363891602,-8.542055130004883,1.1391215324401855,0.8627106547355652,0.08276909589767456,-0.7868546033203988,0.7430750174321081,1.3568766672224517,0.47769972681999207,0.7081359028816223,-0.5199486017227173, 237, 172, 611, 207
1733261648826,6i,20.47199567748509,-4.0s : 0.3s,67.15912168902656,6.833103122727285,22.966628992000697,4.918826100846309,-6.9425764083862305,-11.693791389465332,-9.428462028503418,4.841137886047363,0.22313225269317627,-0.8416924476623535,-0.8977618331016471,0.595707334488562,1.3222426580389213,0.34976473450660706,0.7819336652755737,-0.5159887671470642, 237, 172, 611, 207
1733261648836,6i,20.47199567748509,-4.0s : 0.3s,67.15912168902656,6.946204462851538,22.314098504733042,6.203692529637417,-6.703537464141846,-10.369006156921387,-10.570302963256836,5.548689842224121,-0.7679535746574402,2.666100025177002,-1.0071842985374078,0.4072571929978128,1.225331981993049,0.2116096168756485,0.8453309535980225,-0.4905477464199066, 237, 172, 611, 207
1733261648846,6i,20.47199567748509,-4.0s : 0.3s,67.15912168902656,7.051458668988443,21.487022758393415,4.984661983307864,-4.625054836273193,-8.919046401977539,-11.957158088684082,3.713440179824829,-0.5704112648963928,3.2759499549865723,-1.0949891933303935,0.14138008764167523,1.0313582548357334,0.06454449146986008,0.8889232873916626,-0.4534858465194702, 237, 172, 611, 207
1733261648856,6i,20.47199567748509,-4.0s : 0.3s,67.15912168902656,7.154237158144559,20.725454037480016,5.540179204451591,-2.685668706893921,-7.976330757141113,-12.705480575561523,3.5725042819976807,0.08321022987365723,4.233659744262695,-1.1270472613928493,-0.20151555124148413,0.7451373599256256,-0.08593200892210007,0.9031484127044678,-0.420640766620636, 237, 172, 611, 207
1733261648866,6i,20.47199567748509,-4.0s : 0.3s,67.15912168902656,7.254166130404451,19.99861584116793,4.770590600280614,0.300489604473114,-7.208022117614746,-13.265151023864746,3.460202693939209,0.5239500403404236,3.2420685291290283,-1.0916006647769092,-0.5322044708053241,0.46206834368905575,-0.2339605689048767,0.8873660564422607,-0.39729610085487366, 237, 172, 611, 207
1733261648876,6i,20.47199567748509,-4.0s : 0.3s,67.15912168902656,7.3513311454894925,19.328059005255305,4.362157944980488,2.0841479301452637,-7.022439479827881,-12.401654243469238,3.334813356399536,0.8802101016044617,2.670706272125244,-1.00313998888299,-0.7670537470546882,0.2732101214662163,-0.3731434643268585,0.8431633710861206,-0.38709110021591187, 237, 172, 611, 207
1733261648886,6i,20.47199567748509,-4.0s : 0.3s,67.15912168902656,7.446912268069979,18.74714253097706,4.285382521237565,3.0395596027374268,-7.161354064941406,-11.341331481933594,3.8884217739105225,0.5281357765197754,1.7221359014511108,-0.8969126072143737,-0.921437695930125,0.171084967056778,-0.4970186650753021,0.7814040184020996,-0.37733301520347595, 237, 172, 611, 207
1733261648896,6i,20.47199567748509,-4.0s : 0.3s,67.15912168902656,7.5394784441026585,18.206086846469354,4.467063286974318,2.9147350788116455,-6.967706680297852,-10.594059944152832,4.002050399780273,-0.559099555015564,1.9041152000427246,-0.7895542499715815,-1.033452894396809,0.11607578951218978,-0.6049253940582275,0.7100394368171692,-0.36042922735214233, 237, 172, 611, 207
1733261648906,6i,20.47199567748509,-4.0s : 0.3s,67.15912168902656,7.626581092665686,17.544522826237916,4.13202042426086,3.4015488624572754,-6.684961795806885,-9.6510009765625,3.5174522399902344,-0.8617046475410461,1.9896199703216553,-0.6855285861367988,-1.1206923669817483,0.0882753516480196,-0.6969872713088989,0.6330822706222534,-0.3367725908756256, 237, 172, 611, 207
1733261648916,6i,20.47199567748509,-4.0s : 0.3s,67.15912168902656,7.708390784678329,16.64559389311899,3.7553225450445678,4.081976890563965,-6.028478622436523,-8.461878776550293,3.3490192890167236,-0.7335403561592102,1.5324606895446777,-0.5875344335999103,-1.1863305541477394,0.08525407833435307,-0.7715504169464111,0.5543106198310852,-0.31216946244239807, 237, 172, 611, 207
1733261648926,6i,20.47199567748509,-4.0s : 0.3s,67.15912168902656,7.786573642946166,15.638271719795425,3.692074608212042,4.509164810180664,-5.180784225463867,-7.561564922332764,3.4371368885040283,-0.6497235894203186,1.1812553405761719,-0.4979260732562024,-1.2353039175133353,0.09934247496069247,-0.8295930027961731,0.477604478597641,-0.2892569303512573, 237, 172, 611, 207
1733261648936,6i,20.47199567748509,-4.0s : 0.3s,67.15912168902656,7.86206791471819,14.713823736865658,3.5526441550948453,5.261494159698486,-4.5876617431640625,-6.791653156280518,3.2183165550231934,-0.4472498893737793,1.436553716659546,-0.4147917713202908,-1.272486961777266,0.12592536388009748,-0.8747801780700684,0.4029993712902069,-0.26898160576820374, 237, 172, 611, 207
1733261648946,6i,20.47199567748509,-4.0s : 0.3s,67.15912168902656,7.93371336211053,13.999933612483446,3.1509356228519994,5.8727126121521,-4.243425369262695,-6.254371166229248,2.8412604331970215,-0.2879756689071655,1.3314294815063477,-0.3366897949452722,-1.3026491613997089,0.16438570898321808,-0.9101232886314392,0.33036455512046814,-0.2500694990158081, 237, 172, 611, 207
1733261648956,6i,20.47199567748509,-4.0s : 0.3s,67.15912168902656,8.000259239346084,13.498611365174066,2.718486712597122,6.224122047424316,-3.9296393394470215,-5.984806060791016,2.5530779361724854,-0.22568780183792114,0.9061059951782227,-0.26234772556606273,-1.3302675923463292,0.20952504288429116,-0.9379808902740479,0.25934866070747375,-0.23006530106067657, 237, 172, 611, 207
1733261648966,6i,20.47199567748509,-4.0s : 0.3s,67.15912168902656,8.062561961446155,13.150950152752186,2.5290318232615663,6.355639457702637,-3.735463857650757,-5.81749963760376,2.3133039474487305,-0.03581130504608154,1.0214422941207886,-0.19075946535649416,-1.3574038185059034,0.2590303082410418,-0.9595900774002075,0.18960464000701904,-0.2079351544380188, 237, 172, 611, 207
1733261648976,6i,20.47199567748509,-4.0s : 0.3s,67.15912168902656,8.12326403628881,12.900703646219428,2.6255728183622637,6.636207580566406,-3.513688802719116,-5.551254749298096,2.3808436393737793,0.32868584990501404,1.0569682121276855,-0.12219479470605663,-1.3855111996425293,0.3119976513562412,-0.9755550026893616,0.12189092487096786,-0.18285313248634338, 237, 172, 611, 207
1733261648986,6i,20.47199567748509,-4.0s : 0.3s,67.15912168902656,8.184568125312838,12.686369417419604,2.8518057097841023,6.742949962615967,-3.3168349266052246,-5.302066326141357,2.554110527038574,0.5336250066757202,1.150895118713379,-0.05748636880508742,-1.4146929483924497,0.3691127748082031,-0.9862089157104492,0.05745471268892288,-0.1552133560180664, 237, 172, 611, 207
1733261648996,6i,20.47199567748509,-4.0s : 0.3s,67.15912168902656,8.246167572140516,12.436893940646172,2.9140865967741387,6.631909370422363,-3.0657358169555664,-5.094184398651123,2.5558621883392334,0.5600866675376892,1.2828764915466309,0.0034613354161881645,-1.4450281020825455,0.42826877083720893,-0.9920956492424011,-0.0034613285679370165,-0.12543617188930511, 237, 172, 611, 207
1733261649006,6i,20.47199567748509,-4.0s : 0.3s,67.15912168902656,8.307701975179322,12.079343047928282,2.828293704552056,6.275103569030762,-2.8087687492370605,-4.856013298034668,2.3454344272613525,0.5995997190475464,1.4624167680740356,0.060054537186924016,-1.4762018547682936,0.486641198754643,-0.99373459815979,-0.060018446296453476,-0.09428318589925766, 237, 172, 611, 207
1733261649016,6i,20.47199567748509,-4.0s : 0.3s,67.15912168902656,8.367631401049106,11.780949375176787,2.604250023034925,6.464845657348633,-2.5916974544525146,-4.532256126403809,2.1123690605163574,0.5618881583213806,1.4157319068908691,0.11169607810016831,-1.5084874204724816,0.5465425708164722,-0.9918400645256042,-0.11146397143602371,-0.06188056990504265, 237, 172, 611, 207
1733261649026,6i,20.47199567748509,-4.0s : 0.3s,67.15912168902656,8.424240138059456,11.612880453262441,2.2652541595314966,6.900598526000977,-2.3120625019073486,-4.270239353179932,1.8349008560180664,0.4868764281272888,1.2359071969985962,0.15865326608603939,-1.541981853264118,0.6120661124818515,-0.9870312213897705,-0.1579885333776474,-0.02844865992665291, 237, 172, 611, 207
1733261649036,6i,20.47199567748509,-4.0s : 0.3s,67.15912168902656,8.477716283464051,11.467296609853364,2.111222548270147,6.988320827484131,-2.089095115661621,-4.078341007232666,1.6714223623275757,0.6706695556640625,1.1017305850982666,0.20132369388386748,-1.576418165907148,0.682031665073861,-0.9797874093055725,-0.1999664604663849,0.005508264992386103, 237, 172, 611, 207
1733261649046,6i,20.47199567748509,-4.0s : 0.3s,67.15912168902656,8.528387193444257,11.306205209500646,2.033442311367917,7.018211841583252,-1.9320493936538696,-3.7788913249969482,1.5248873233795166,0.7791549563407898,1.0965964794158936,0.23887886013861467,-1.6123702387995198,0.7548674224499083,-0.9707645177841187,-0.236613467335701,0.04038174822926521, 237, 172, 611, 207
1733261649056,6i,20.47199567748509,-4.0s : 0.3s,67.15912168902656,8.576213543006762,11.100659464695132,1.9044694079916578,6.930113315582275,-1.7303786277770996,-3.516270875930786,1.4297915697097778,0.6778042316436768,1.0598496198654175,0.2711728509132478,-1.6494744222060216,0.8291302788344891,-0.9604770541191101,-0.26786160469055176,0.07572482526302338, 237, 172, 611, 207
1733261649066,6i,20.47199567748509,-4.0s : 0.3s,67.15912168902656,8.620847725980006,10.89125870194993,1.738817441363729,6.881627082824707,-1.547658920288086,-3.3092663288116455,1.287064790725708,0.5547628402709961,1.0291688442230225,0.2982869877840728,-1.686928241498952,0.9041146578423689,-0.9494030475616455,-0.2938832640647888,0.1107543408870697, 237, 172, 611, 207
1733261649076,6i,20.47199567748509,-4.0s : 0.3s,67.15912168902656,8.662158461421756,10.752534861643344,1.6083812233349324,7.035589218139648,-1.4087586402893066,-3.0914082527160645,1.0932140350341797,0.563083827495575,1.03668212890625,0.3208010503166968,-1.725075569796587,0.9809929584500656,-0.9377116560935974,-0.31532683968544006,0.14582829177379608, 237, 172, 611, 207
1733261649086,6i,20.47199567748509,-4.0s : 0.3s,67.15912168902656,8.700613102106889,10.61296884714471,1.5127299456169043,7.097431182861328,-1.2350516319274902,-2.7589762210845947,1.0141769647598267,0.6420725584030151,0.9206192493438721,0.3372895411382753,-1.7639691275828961,1.0600147004637233,-0.9261032938957214,-0.33093056082725525,0.1811569333076477, 237, 172, 611, 207
1733261649096,6i,20.47199567748509,-4.0s : 0.3s,67.15912168902656,8.736034874660058,10.276088073586344,1.3489812439406372,6.568500995635986,-1.0820221900939941,-2.4714765548706055,0.9197438359260559,0.5107445120811462,0.8443706035614014,0.3484086627992693,-1.8014345656777921,1.1371073538481258,-0.9150290489196777,-0.34140250086784363,0.2148640900850296, 237, 172, 611, 207
1733261649106,6i,20.47199567748509,-4.0s : 0.3s,67.15912168902656,8.76811549632671,9.870407797377673,1.2746427833836407,6.223921298980713,-1.0321108102798462,-2.171967029571533,0.7688135504722595,0.23368945717811584,0.9894590377807617,0.3556085712060289,-1.8366773509909793,1.2089778624379155,-0.9044948816299438,-0.34816092252731323,0.24631990492343903, 237, 172, 611, 207
1733261649116,6i,20.47199567748509,-4.0s : 0.3s,67.15912168902656,8.797303476470379,9.487446819192034,1.2376743995616197,6.115878105163574,-0.8898356556892395,-1.804039716720581,0.709475040435791,0.12827298045158386,1.005996584892273,0.35703202429001013,-1.870440520825096,1.2779018012794223,-0.8951898813247681,-0.34949496388435364,0.2765657305717468, 237, 172, 611, 207
1733261649126,6i,20.47199567748509,-4.0s : 0.3s,67.15912168902656,8.824465030358889,9.175709860598237,1.109581190424723,6.06992244720459,-0.6546631455421448,-1.6677510738372803,0.7432439923286438,0.24998626112937927,0.7850258946418762,0.35471400497740324,-1.9016413472218239,1.345382977031531,-0.8868905305862427,-0.3473221957683563,0.3046196699142456, 237, 172, 611, 207
1733261649136,6i,20.47199567748509,-4.0s : 0.3s,67.15912168902656,8.849432659148759,8.91068767524406,1.016453226985435,5.99601411819458,-0.4880928099155426,-1.5367863178253174,0.5731503963470459,0.3710845410823822,0.7529754638671875,0.3492244303695296,-1.9301354747369261,1.4118459066977052,-0.8796232342720032,-0.3421691656112671,0.33042919635772705, 237, 172, 611, 207
1733261649146,6i,20.47199567748509,-4.0s : 0.3s,67.15912168902656,8.8723271131079,8.60083208040219,1.0027164163606992,5.707915306091309,-0.3487880825996399,-1.4194947481155396,0.4335364103317261,0.46702390909194946,0.7741931676864624,0.34170761064715544,-1.9558285560525432,1.4755681881895168,-0.8732033371925354,-0.33509644865989685,0.35387396812438965, 237, 172, 611, 207
1733261649156,6i,20.47199567748509,-4.0s : 0.3s,67.15912168902656,8.893876327204335,8.322407706425905,1.0512959745697603,5.574978828430176,-0.13831712305545807,-1.3579493761062622,0.4231383204460144,0.4702954590320587,0.8396424055099487,0.33265927922051636,-1.9784227197887017,1.536363787405891,-0.8677337169647217,-0.3265576660633087,0.3746979236602783, 237, 172, 611, 207
1733261649166,6i,20.47199567748509,-4.0s : 0.3s,67.15912168902656,8.914082691856565,8.024176674232189,1.0312497747685216,5.309095859527588,0.012703588232398033,-1.3505078554153442,0.351559579372406,0.4631063938140869,0.8517126441001892,0.32308328408320747,-1.997623264263277,1.5945393561543109,-0.8631869554519653,-0.3174918293952942,0.39256545901298523, 237, 172, 611, 207
1733261649176,6i,20.47199567748509,-4.0s : 0.3s,67.15912168902656,8.932207643528956,7.7569030505380745,0.9496523882133554,5.184831619262695,0.09054432809352875,-1.2320717573165894,0.18122762441635132,0.4129272401332855,0.8357555270195007,0.3126814037604856,-2.0145407203186605,1.650338951799889,-0.8593589067459106,-0.3076111376285553,0.4085073471069336, 237, 172, 611, 207
1733261649186,6i,20.47199567748509,-4.0s : 0.3s,67.15912168902656,8.948654790718713,7.498630396664539,0.9032357543757583,5.015985488891602,0.2443913221359253,-1.1620795726776123,0.1667458415031433,0.3876802623271942,0.798582911491394,0.30124291625017663,-2.0289366854737017,1.703956998959023,-0.8564889430999756,-0.2967073917388916,0.4223644733428955, 237, 172, 611, 207
1733261649196,6i,20.47199567748509,-4.0s : 0.3s,67.15912168902656,8.963282551629316,7.217254528709369,0.7989553792961741,4.765415191650391,0.2991328537464142,-1.100600004196167,0.10588997602462769,0.34665119647979736,0.7120041847229004,0.2893466865766799,-2.0409130586924844,1.754920899109029,-0.8544557094573975,-0.28532612323760986,0.4341598451137543, 237, 172, 611, 207
1733261649206,6i,20.47199567748509,-4.0s : 0.3s,67.15912168902656,8.975969764833396,6.971274930251076,0.773970250193623,4.6500563621521,0.33225885033607483,-1.0327962636947632,0.02994614839553833,0.2218414843082428,0.7408910393714905,0.27746633483513333,-2.0512846156631466,1.8035690108162903,-0.8528528213500977,-0.2739197611808777,0.4445338547229767, 237, 172, 611, 207
1733261649216,6i,20.47199567748509,-4.0s : 0.3s,67.15912168902656,8.987205197491555,6.738852125049237,0.7125955326302695,4.500247001647949,0.40915414690971375,-0.9851362705230713,0.04420781135559082,0.2029203176498413,0.6816607713699341,0.26492256379956663,-2.0600575946579096,1.8504280423560158,-0.8518860340118408,-0.2618345320224762,0.4535778760910034, 237, 172, 611, 207
1733261649226,6i,20.47199567748509,-4.0s : 0.3s,67.15912168902656,8.997261232200495,6.45597309811961,0.6561273589750901,4.206797122955322,0.47914227843284607,-0.8919655680656433,0.027364611625671387,0.24540096521377563,0.6078919768333435,0.25254788970318504,-2.066854159448913,1.894783347409064,-0.8515682816505432,-0.24987183511257172,0.46086427569389343, 237, 172, 611, 207
1733261649236,6i,20.47199567748509,-4.0s : 0.3s,67.15912168902656,9.005992049058312,6.1579248047901975,0.7026950608262065,3.9794702529907227,0.4374009370803833,-0.7618741393089294,-0.04621386528015137,0.13490964472293854,0.688072681427002,0.24031979817578095,-2.072207099181677,1.9358291116908681,-0.8517047166824341,-0.23801325261592865,0.46684977412223816, 237, 172, 611, 207
1733261649246,6i,20.47199567748509,-4.0s : 0.3s,67.15912168902656,9.014365189196859,5.873318359635989,0.7354180065516872,3.807462453842163,0.4588339030742645,-0.6380559802055359,-0.07775229215621948,0.0906926691532135,0.7256507873535156,0.22757005165868166,-2.076645397609568,1.9743050836998912,-0.8522098660469055,-0.2256108969449997,0.4720574915409088, 237, 172, 611, 207
1733261649256,6i,20.47199567748509,-4.0s : 0.3s,67.15912168902656,9.02165751389326,5.55868668959272,0.6908868494649634,3.517613649368286,0.4842497706413269,-0.5912399888038635,-0.09064030647277832,0.14593492448329926,0.6691875457763672,0.2150945116330632,-2.0798156654096793,2.010304396296601,-0.8531004190444946,-0.21343976259231567,0.4760913848876953, 237, 172, 611, 207
1733261649266,6i,20.47199567748509,-4.0s : 0.3s,67.15912168902656,9.02839591940976,5.253640315968906,0.697605777083503,3.306427240371704,0.5069470405578613,-0.5414927005767822,-0.1626594066619873,0.1397107094526291,0.663834810256958,0.20345893325634765,-2.081736327437287,2.0434678278626954,-0.854293167591095,-0.2020581215620041,0.4789111912250519, 237, 172, 611, 207
1733261649276,6i,20.47199567748509,-4.0s : 0.3s,67.15912168902656,9.03421230294177,4.987866263860974,0.7557165824678491,3.1687116622924805,0.559043288230896,-0.5195037722587585,-0.17054182291030884,0.14086218178272247,0.7226208448410034,0.19223002311471607,-2.0825861809150763,2.0748485098120173,-0.8558101058006287,-0.19104830920696259,0.48071789741516113, 237, 172, 611, 207
1733261649286,6i,20.47199567748509,-4.0s : 0.3s,67.15912168902656,9.039330133515127,4.738999350465465,0.6845803042941376,3.0023579597473145,0.6114489436149597,-0.4979991614818573,-0.16117167472839355,0.16062472760677338,0.645657479763031,0.1815638525570451,-2.0823061016892908,2.104774170718735,-0.8576728701591492,-0.1805679351091385,0.4814482629299164, 237, 172, 611, 207
1733261649296,6i,20.47199567748509,-4.0s : 0.3s,67.15912168902656,9.043631787153531,4.489291821640534,0.6360344192862609,2.8059680461883545,0.6601911783218384,-0.454466849565506,-0.18142014741897583,0.12911340594291687,0.5957820415496826,0.17153355352653188,-2.0808703982728645,2.1328897658906016,-0.859900712966919,-0.17069359123706818,0.48107659816741943, 237, 172, 611, 207
1733261649306,6i,20.47199567748509,-4.0s : 0.3s,67.15912168902656,9.047061272779562,4.248150986971811,0.6095326826778571,2.633370876312256,0.7122176289558411,-0.3885079324245453,-0.19178980588912964,0.04589433968067169,0.5767499208450317,0.16200428610012368,-2.0783330085269553,2.159039662805786,-0.8625010251998901,-0.16129657626152039,0.4796619415283203, 237, 172, 611, 207
1733261649316,6i,20.47199567748509,-4.0s : 0.3s,67.15912168902656,9.04965243914058,4.009875633121403,0.573781410623441,2.4429447650909424,0.7663516998291016,-0.3569723963737488,-0.1887439489364624,-0.022130444645881653,0.5413973331451416,0.15294946353878033,-2.0746909794029365,2.183337629556588,-0.8654857873916626,-0.15235382318496704,0.4772031605243683, 237, 172, 611, 207
1733261649326,6i,20.47199567748509,-4.0s : 0.3s,67.15912168902656,9.051561354100226,3.786322125127255,0.5597049122757471,2.2835609912872314,0.8222146034240723,-0.3080427646636963,-0.17895424365997314,-0.07112671434879303,0.5255339741706848,0.14440147913228044,-2.0700757668130976,2.205925859639131,-0.8687906861305237,-0.14390017092227936,0.47380998730659485, 237, 172, 611, 207
1733261649336,6i,20.47199567748509,-4.0s : 0.3s,67.15912168902656,9.053026607857117,3.5476160456349795,0.5567841993623847,2.0488781929016113,0.8632006645202637,-0.3130103647708893,-0.17390960454940796,-0.06967738270759583,0.5243178009986877,0.13683445187333454,-2.064495021331614,2.2266359069232817,-0.8723551630973816,-0.13640783727169037,0.46945667266845703, 237, 172, 611, 207
1733261649346,6i,20.47199567748509,-4.0s : 0.3s,67.15912168902656,9.054259792310093,3.3310406470606044,0.5443446753666471,1.899223804473877,0.8978838324546814,-0.3045892119407654,-0.1742728352546692,-0.02866828441619873,0.5148963332176208,0.13025377820490985,-2.0582357206323763,2.2456617606566365,-0.876050591468811,-0.12988577783107758,0.46439751982688904, 237, 172, 611, 207
1733261649356,6i,20.47199567748509,-4.0s : 0.3s,67.15912168902656,9.055591730077996,3.133446996829966,0.5225707534129542,1.760585069656372,0.9245742559432983,-0.281120628118515,-0.15696018934249878,0.056524790823459625,0.49522584676742554,0.12428836288590939,-2.051336736105684,2.263395994641903,-0.8799049854278564,-0.12396861612796783,0.45869264006614685, 237, 172, 611, 207
1733261649366,6i,20.47199567748509,-4.0s : 0.3s,67.15912168902656,9.05698087227056,2.95055487857722,0.49598788820823303,1.6328421831130981,0.9315459132194519,-0.24569420516490936,-0.1535540223121643,0.07169384509325027,0.4661385416984558,0.11884841815597677,-2.044042203346198,2.2797894550359774,-0.8838146924972534,-0.11856883019208908,0.45256268978118896, 237, 172, 611, 207
1733261649376,6i,20.47199567748509,-4.0s : 0.3s,67.15912168902656,9.058077600857201,2.767004653974048,0.47334961853786967,1.4678298234939575,0.9385539889335632,-0.24316872656345367,-0.17143350839614868,0.0008064061403274536,0.4412139654159546,0.11406014626381224,-2.0364102399655057,2.29482824216392,-0.8877401351928711,-0.11381299048662186,0.4460541605949402, 237, 172, 611, 207
1733261649386,6i,20.47199567748509,-4.0s : 0.3s,67.15912168902656,9.058951931170393,2.5996824483241805,0.44613935760819023,1.3573309183120728,0.9320834279060364,-0.21301469206809998,-0.1615869402885437,-0.0050420984625816345,0.4158179461956024,0.10983311717141651,-2.0285650020921646,2.3085367223882014,-0.8916357159614563,-0.10961242765188217,0.43928465247154236, 237, 172, 611, 207
1733261649396,6i,20.47199567748509,-4.0s : 0.3s,67.15912168902656,9.060035196087801,2.4549789999968077,0.42426526596495107,1.2667884826660156,0.9500770568847656,-0.16639871895313263,-0.11695080995559692,0.050191231071949005,0.4047275185585022,0.10583915271898434,-2.0205133006090454,2.32123870774145,-0.8955308198928833,-0.10564166307449341,0.4322781562805176, 237, 172, 611, 207
1733261649406,6i,20.47199567748509,-4.0s : 0.3s,67.15912168902656,9.061407487859555,2.2829994713519124,0.40846203031243833,1.0659481287002563,0.92307448387146,-0.16758981347084045,-0.09771114587783813,0.0794750303030014,0.38855820894241333,0.10242011397991566,-2.012295027051003,2.3325056296124367,-0.8993746042251587,-0.1022411435842514,0.4250558316707611, 237, 172, 611, 207
1733261649416,6i,20.47199567748509,-4.0s : 0.3s,67.15912168902656,9.062966037884916,2.082985739760992,0.391859760955596,0.8621134757995605,0.8599956631660461,-0.1300051510334015,-0.08964526653289795,0.06610070914030075,0.3756973445415497,0.0997284631520021,-2.0042408049956646,2.3419390357104635,-0.9030152559280396,-0.09956323355436325,0.41791239380836487, 237, 172, 611, 207
1733261649426,6i,20.47199567748509,-4.0s : 0.3s,67.15912168902656,9.064883823732195,1.9230325334120286,0.3819237467635481,0.773070752620697,0.8860142230987549,-0.08507103472948074,-0.05244147777557373,0.0774322971701622,0.37029701471328735,0.09749944106859838,-1.9964308698496966,2.3494122165955633,-0.9064514636993408,-0.09734503924846649,0.4109378755092621, 237, 172, 611, 207
1733261649436,6i,20.47199567748509,-4.0s : 0.3s,67.15912168902656,9.067266381030683,1.7500232315473365,0.35888294513311153,0.6155200004577637,0.8194535374641418,-0.07106680423021317,-0.007056057453155518,0.07852041721343994,0.3501167297363281,0.09558789947650814,-1.9886276035972408,2.3560173888770057,-0.909798800945282,-0.09544239938259125,0.40392687916755676, 237, 172, 611, 207
1733261649446,6i,20.47199567748509,-4.0s : 0.3s,67.15912168902656,9.069651942823333,1.5989354393811523,0.3061846158515203,0.5613722801208496,0.7613801956176758,-0.004756819922477007,-0.021366000175476074,0.026584751904010773,0.304279088973999,0.09363128319298822,-1.9811962783331238,2.361551884856014,-0.9129449725151062,-0.09349453449249268,0.39722856879234314, 237, 172, 611, 207
1733261649456,6i,20.47199567748509,-4.0s : 0.3s,67.15912168902656,9.072258694008251,1.442766165191821,0.2845863705346481,0.46624794602394104,0.6734790802001953,0.06655464321374893,0.01694422960281372,0.05253693461418152,0.27918124198913574,0.09128365230619657,-1.9744742751416071,2.3661999880672444,-0.915793776512146,-0.09115692973136902,0.39116793870925903, 237, 172, 611, 207
1733261649466,6i,20.47199567748509,-4.0s : 0.3s,67.15912168902656,9.07483794678953,1.2692658113508213,0.23316971439184128,0.2783950865268707,0.6127676963806152,0.12603232264518738,0.016440272331237793,0.02902858704328537,0.23077082633972168,0.08892968468579662,-1.9683382407671597,2.3692756341346763,-0.9183720946311951,-0.08881251513957977,0.3856232762336731, 237, 172, 611, 207
1733261649476,6i,20.47199567748509,-4.0s : 0.3s,67.15912168902656,9.077443896923604,1.0953519120850532,0.2817915859454691,0.09381965547800064,0.5584030151367188,0.16473577916622162,0.01653456687927246,0.001342281699180603,0.28130286931991577,0.08693148526271165,-1.9625788000074693,2.370381492045549,-0.920740008354187,-0.0868220329284668,0.3803946375846863, 237, 172, 611, 207
1733261649486,6i,20.47199567748509,-4.0s : 0.3s,67.15912168902656,9.080442932343034,0.9540182401878459,0.3691838445754638,-0.04818914830684662,0.5315998196601868,0.22638621926307678,0.028364837169647217,0.03068108856678009,0.36681169271469116,0.08504381958848307,-1.957067961319836,2.3698449575301117,-0.9229723215103149,-0.08494134247303009,0.3753758370876312, 237, 172, 611, 207
1733261649496,6i,20.47199567748509,-4.0s : 0.3s,67.15912168902656,9.083983004389545,0.857177255146653,0.3890901119071052,-0.14602409303188324,0.5028717517852783,0.2763066589832306,0.048178255558013916,0.08216174691915512,0.377252459526062,0.08308127309433468,-1.9517294815328061,2.367953368615653,-0.925116240978241,-0.08298572897911072,0.37050455808639526, 237, 172, 611, 207
1733261649506,6i,20.47199567748509,-4.0s : 0.3s,67.15912168902656,9.087622053926113,0.8364000400502237,0.3560595488802956,-0.26328667998313904,0.4890388250350952,0.3199751079082489,0.04592949151992798,0.084734246134758,0.342766672372818,0.08106936952001051,-1.9465244186149127,2.3649536619548623,-0.9271857142448425,-0.08098059892654419,0.36574482917785645, 237, 172, 611, 207
