timestamp,club,max_speed,tempo,w.rotation,l.speed,t.spped,acc,rotation.x,rotation.y,rotation.z,userAcceleration.x,userAcceleration.y,userAcceleration.z,pitch,roll,yaw,gravity.x,gravity.y,gravity.z,impactIndex,minDownIndex,StartIndex,endIndex
1733261256457,6i,19.662007342978637,1.4s : 0.3s,-4.537082156966747,0.0002519231474495113,0.36877185491198256,0.07507969143845647,-0.8998241424560547,-0.16392813622951508,0.04744163528084755,-0.02036672830581665,-0.061489254236221313,0.03796350955963135,-0.1521791031612882,1.5193063353825322,0.1445657025245683,0.9871331453323364,0.1515924036502838,-0.05087244138121605, 264, 210, 95, 234
1733261256467,6i,19.662007342978637,1.4s : 0.3s,-4.537082156966747,0.000983189707914688,0.6562756911584449,0.06033976098493198,-0.9764173030853271,-0.15210703015327454,0.038639988750219345,-0.008938014507293701,-0.04216696321964264,0.0422249436378479,-0.1522361310067701,1.519177965436147,0.1540954106999832,0.9871179461479187,0.15164877474308014,-0.050998713821172714, 264, 210, 95, 234
1733261256477,6i,19.662007342978637,1.4s : 0.3s,-4.537082156966747,0.001698754574879655,0.8773823673106379,0.039886582172132985,-1.028134822845459,-0.14082027971744537,0.03561277315020561,-0.013130366802215576,0.0010342001914978027,0.03764921426773071,-0.15238693482728546,1.519252047077209,0.16424988563148188,0.9870989322662354,0.1517978310585022,-0.05092440918087959, 264, 210, 95, 234
1733261256487,6i,19.662007342978637,1.4s : 0.3s,-4.537082156966747,0.002371882855467897,1.0468160167217249,0.0321024977611812,-1.0677533149719238,-0.11986954510211945,0.03427939489483833,-0.009452760219573975,0.011563330888748169,0.02841663360595703,-0.1525870452316954,1.5195452170305601,0.17485926352025186,0.987083375453949,0.15199562907218933,-0.05063345655798912, 264, 210, 95, 234
1733261256497,6i,19.662007342978637,1.4s : 0.3s,-4.537082156966747,0.002981373473947877,1.1929180841566007,0.019587113694757026,-1.1370391845703125,-0.11482365429401398,0.030850842595100403,-0.00024253129959106445,0.013427883386611938,0.014257915318012238,-0.15283105090740792,1.5200984002627143,0.1859785805074019,0.9870741367340088,0.15223678946495056,-0.05008552968502045, 264, 210, 95, 234
1733261256507,6i,19.662007342978637,1.4s : 0.3s,-4.537082156966747,0.003526843568275361,1.2983772839106857,0.012467910371593014,-1.1421353816986084,-0.13554123044013977,0.03623505309224129,-0.009838759899139404,-0.0005655735731124878,-0.007637258619070053,-0.15301746579009426,1.5206368041504652,0.1975511290046179,0.9870725870132446,0.1524210274219513,-0.04955265298485756, 264, 210, 95, 234
1733261256517,6i,19.662007342978637,1.4s : 0.3s,-4.537082156966747,0.0040176928929522866,1.361957454191666,0.02713644132569566,-1.12050461769104,-0.10540249943733215,0.019862473011016846,-0.01813262701034546,-0.01040107011795044,-0.017303526401519775,-0.15331976584434384,1.5211212155912994,0.20897562959652277,0.9870505332946777,0.15271979570388794,-0.04907221347093582, 264, 210, 95, 234
1733261256527,6i,19.662007342978637,1.4s : 0.3s,-4.537082156966747,0.004342915915972681,1.4122376758909116,0.04605394089242493,-1.1353422403335571,-0.10191309452056885,0.009525779634714127,-0.019294381141662598,0.015162035822868347,-0.03897184878587723,-0.15373199069060162,1.521830050130169,0.22039587350032774,0.9870221614837646,0.15312716364860535,-0.04836946353316307, 264, 210, 95, 234
1733261256537,6i,19.662007342978637,1.4s : 0.3s,-4.537082156966747,0.004454834772727662,1.4524132915499521,0.05133830914724308,-1.1468889713287354,-0.11024772375822067,0.0011773020960390568,-0.0345112681388855,0.022041499614715576,-0.0309639573097229,-0.154228373412112,1.5225405024187177,0.23192382943264023,0.9869801998138428,0.15361768007278442,-0.047664545476436615, 264, 210, 95, 234
1733261256547,6i,19.662007342978637,1.4s : 0.3s,-4.537082156966747,0.004504713955994215,1.4726476715745214,0.04128297836262871,-1.1269023418426514,-0.11319859325885773,-0.010397727601230145,-0.019452571868896484,0.010584533214569092,-0.03484034165740013,-0.15481278944281632,1.5231860981823937,0.24343437071605467,0.9869208335876465,0.1541951298713684,-0.04702306166291237, 264, 210, 95, 234
1733261256557,6i,19.662007342978637,1.4s : 0.3s,-4.537082156966747,0.004509921250455755,1.4561748761310984,0.0394175236803231,-1.0510348081588745,-0.10567063838243484,-0.03665756434202194,-0.009915769100189209,0.024851158261299133,-0.028945442289114,-0.15558535637576734,1.523778330414726,0.2544840559374492,0.9868292212486267,0.15495841205120087,-0.04643295332789421, 264, 210, 95, 234
1733261256567,6i,19.662007342978637,1.4s : 0.3s,-4.537082156966747,0.004259251308634391,1.3902115868732503,0.0632801235920084,-0.9170473217964172,-0.0800076574087143,-0.05640114098787308,-0.011461257934570312,0.05465823411941528,-0.029757201671600342,-0.15642817701487807,1.5243937223577817,0.2644363711998774,0.9867267608642578,0.1557909995317459,-0.04581958428025246, 264, 210, 95, 234
1733261256577,6i,19.662007342978637,1.4s : 0.3s,-4.537082156966747,0.0038348954743815983,1.3257345199798098,0.08867773490509373,-0.858402669429779,-0.08916573971509933,-0.24563364684581757,-0.012107014656066895,0.08217301964759827,-0.031060516834259033,-0.1570274253673723,1.524875151454613,0.27323130612013763,0.9866553544998169,0.15638290345668793,-0.045340247452259064, 264, 210, 95, 234
1733261256587,6i,19.662007342978637,1.4s : 0.3s,-4.537082156966747,0.003311175391655576,1.2458634580230925,0.0851582164036374,-0.7764578461647034,-0.17938941717147827,0.004634751006960869,0.028402984142303467,0.07338227331638336,-0.03256123885512352,-0.15814153859717067,1.525754097287739,0.2807033301466559,0.9865201115608215,0.15748320519924164,-0.044465139508247375, 264, 210, 95, 234
1733261256597,6i,19.662007342978637,1.4s : 0.3s,-4.537082156966747,0.0036082441224372917,1.1362905437110375,0.09399807078474028,-0.642142653465271,-0.1730593591928482,0.12762326002120972,-0.06307965517044067,0.06626063585281372,-0.021589871495962143,-0.15912623342367746,1.526303579695066,0.28703731477362987,0.9863889813423157,0.15845553576946259,-0.043916136026382446, 264, 210, 95, 234
1733261256607,6i,19.662007342978637,1.4s : 0.3s,-4.537082156966747,0.004357249027612456,1.005456625017261,0.07689264913555847,-0.5184256434440613,-0.0610782653093338,-0.014765013009309769,-0.014136075973510742,0.07514157891273499,-0.008148249238729477,-0.15986775585060878,1.5267019203700343,0.29254590613269926,0.9862887859344482,0.15918764472007751,-0.04351802542805672, 264, 210, 95, 234
1733261256617,6i,19.662007342978637,1.4s : 0.3s,-4.537082156966747,0.005325571354271244,0.8978439404696721,0.04566494818139564,-0.4774811267852783,-0.05806862935423851,-0.0547260120511055,0.0005539655685424805,0.04564851522445679,0.0010925531387329102,-0.160313816362175,1.527029848749436,2.3875048817670077,0.9862319231033325,0.1596280038356781,-0.04319148138165474, 264, 210, 95, 234
1733261256627,6i,19.662007342978637,1.4s : 0.3s,-4.537082156966747,0.006342896242133239,0.7970905591660239,0.035125118919026574,-0.4157632887363434,-0.03870758041739464,-0.04817346855998039,-0.0012156367301940918,0.03496892750263214,-0.003077387809753418,-0.16103876848474746,1.527230215517566,2.439158062080571,0.9861246943473816,0.16034361720085144,-0.042988818138837814, 264, 210, 95, 234
1733261256637,6i,19.662007342978637,1.4s : 0.3s,-4.537082156966747,0.007401417704511239,0.6917325601164707,0.043292486463716216,-0.32830509543418884,-0.025769677013158798,-0.06276333332061768,-0.004071354866027832,0.042631447315216064,-0.006342172622680664,-0.16176270857726774,1.527503021384102,2.445981260577052,0.9860202670097351,0.16105815768241882,-0.042714767158031464, 264, 210, 95, 234
1733261256647,6i,19.662007342978637,1.4s : 0.3s,-4.537082156966747,0.008543463593177742,0.5995017376215628,0.07048202847821945,-0.28403374552726746,-0.005272038280963898,-0.05266988277435303,-0.023716449737548828,0.0644664317369461,-0.015790045261383057,-0.16247427381778135,1.5278566485167426,2.4508004539481227,0.9859204888343811,0.1617603898048401,-0.042361147701740265, 264, 210, 95, 234
1733261256657,6i,19.662007342978637,1.4s : 0.3s,-4.537082156966747,0.009756252960050435,0.539461831509543,0.07591830165287192,-0.2909976541996002,-0.029460996389389038,-0.06213715672492981,-0.019237875938415527,0.07090571522712708,-0.01912778615951538,-0.16317007923483237,1.5281728189257426,2.4538206209006606,0.9858211874961853,0.162446990609169,-0.04204462096095085, 264, 210, 95, 234
1733261256667,6i,19.662007342978637,1.4s : 0.3s,-4.537082156966747,0.010949772529061036,0.47886886155428376,0.040030999078879435,-0.24286554753780365,-0.040813345462083817,-0.058056727051734924,-0.008351325988769531,0.03710496425628662,-0.012488309293985367,-0.16388402951215625,1.5282277639238437,2.4543294949283045,0.9857074022293091,0.16315141320228577,-0.041985511779785156, 264, 210, 95, 234
1733261256677,6i,19.662007342978637,1.4s : 0.3s,-4.537082156966747,0.012125941592459907,0.42020312896773454,0.05458623255714823,-0.2021077424287796,-0.02337336540222168,-0.06375163048505783,0.010913670063018799,0.05016620457172394,-0.018544554710388184,-0.16459578019200846,1.5282521508008289,2.456308667205264,0.9855921268463135,0.16385358572006226,-0.041956521570682526, 264, 210, 95, 234
1733261256687,6i,19.662007342978637,1.4s : 0.3s,-4.537082156966747,0.013365568221475232,0.39664543553234005,0.07970585802912021,-0.24527984857559204,-0.0021100223530083895,-0.07717326283454895,-0.0022977590560913086,0.07236544787883759,-0.033331457525491714,-0.1653406402331446,1.5285576983190083,2.4574730985846402,0.9854826927185059,0.1645883321762085,-0.041650209575891495, 264, 210, 95, 234
1733261256697,6i,19.662007342978637,1.4s : 0.3s,-4.537082156966747,0.014619049262555498,0.35787416412805656,0.058463440768940625,-0.18717660009860992,-0.00751970149576664,-0.07447201758623123,-0.02068549394607544,0.04736946523189545,-0.027316991239786148,-0.16624007039397984,1.5288430561141428,2.4605640091141407,0.985346257686615,0.16547542810440063,-0.04136276617646217, 264, 210, 95, 234
1733261256707,6i,19.662007342978637,1.4s : 0.3s,-4.537082156966747,0.0157176521425298,0.30207734387347124,0.026197928002096187,-0.10344228148460388,-0.028459427878260612,-0.0930890440940857,-0.014822065830230713,0.016256123781204224,-0.014225900173187256,-0.16710721715862287,1.528899818347854,2.4618985518293517,0.9852047562599182,0.16633056104183197,-0.041300807148218155, 264, 210, 95, 234
1733261256717,6i,19.662007342978637,1.4s : 0.3s,-4.537082156966747,0.016787681394213185,0.21687389022337994,0.04383891243493019,0.05139949172735214,-0.010200528427958488,-0.12911629676818848,-0.007619142532348633,0.026474669575691223,-0.03410118445754051,-0.16816446621875045,1.5287149067402444,2.46219368190282,0.9850208163261414,0.16737298667430878,-0.041475560516119, 264, 210, 95, 234
1733261256727,6i,19.662007342978637,1.4s : 0.3s,-4.537082156966747,0.017983983789234194,0.3120331770956423,0.07944188537976538,0.11322930455207825,0.04907069727778435,-0.5386540293693542,-0.026045620441436768,0.06124742329120636,-0.04337501525878906,-0.16911074196487727,1.5283482058451663,2.4124998001271027,0.9848468899726868,0.16830584406852722,-0.04183002933859825, 264, 210, 95, 234
1733261256737,6i,19.662007342978637,1.4s : 0.3s,-4.537082156966747,0.01926053845006895,0.4960933704567687,0.09617324278618658,0.12671661376953125,0.19419167935848236,-0.6912680864334106,0.03421443700790405,0.07438471913337708,-0.05045372620224953,-0.16999368717667138,1.5281854376055912,2.412495658600852,0.9846913814544678,0.1691761314868927,-0.041983988136053085, 264, 210, 95, 234
1733261256747,6i,19.662007342978637,1.4s : 0.3s,-4.537082156966747,0.0205313191965257,0.45059664678976713,0.061320933059015585,0.20782159268856049,-0.012118803337216377,-0.24246688187122345,-0.03560924530029297,0.022899523377418518,-0.044360458850860596,-0.17114150588023266,1.5270094539543475,2.4133724510405608,0.9844465255737305,0.17030729353427887,-0.04313340783119202, 264, 210, 95, 234
1733261256757,6i,19.662007342978637,1.4s : 0.3s,-4.537082156966747,0.021669578816281527,0.40431130984688596,0.03526936773340053,0.38739266991615295,-0.13863466680049896,-0.0871899425983429,-0.02193319797515869,0.0024228543043136597,-0.027513504028320312,-0.17262762149013514,1.5253999531122941,2.4123734962658547,0.9841219186782837,0.17177151143550873,-0.044706281274557114, 264, 210, 95, 234
1733261256767,6i,19.662007342978637,1.4s : 0.3s,-4.537082156966747,0.022801917520552266,0.4768108018276158,0.06071021437822392,0.5400651693344116,-0.1667461395263672,-0.13405588269233704,-0.012583255767822266,0.02561551332473755,-0.05358392745256424,-0.17351129075246371,1.5231372620284838,2.4100785138868024,0.9838663339614868,0.17264197766780853,-0.046925682574510574, 264, 210, 95, 234
1733261256777,6i,19.662007342978637,1.4s : 0.3s,-4.537082156966747,0.024107218756649382,0.5903945355718915,0.09384223080215269,0.6605862975120544,-0.14433510601520538,-0.10924001783132553,0.017226457595825195,0.06983420252799988,-0.0602726936340332,-0.17442665829593348,1.5205290188847587,2.4061284024270493,0.9835822582244873,0.1735435277223587,-0.04948372021317482, 264, 210, 95, 234
1733261256787,6i,19.662007342978637,1.4s : 0.3s,-4.537082156966747,0.025465175901079714,0.7208141243784978,0.08189331131225347,0.776657223701477,-0.14134570956230164,-0.06533141434192657,-0.0015995502471923828,0.06375434994697571,-0.05137449502944946,-0.17506890644307058,1.5178521621445316,2.39806510145577,0.9833348393440247,0.17417599260807037,-0.052110541611909866, 264, 210, 95, 234
1733261256797,6i,19.662007342978637,1.4s : 0.3s,-4.537082156966747,0.026867676014876232,0.8692509316428918,0.07698582188093912,0.9161682724952698,-0.16018837690353394,0.01791074126958847,-0.013383805751800537,0.06149408221244812,-0.044341497123241425,-0.17564425864746103,1.5152406587689373,2.3867715295908094,0.9830950498580933,0.17474251985549927,-0.054672762751579285, 264, 210, 95, 234
1733261256807,6i,19.662007342978637,1.4s : 0.3s,-4.537082156966747,0.028516603707948042,1.0610001752641354,0.10513059283975532,1.1217681169509888,-0.19205687940120697,0.08958449959754944,-0.006613314151763916,0.08995527029037476,-0.05400699004530907,-0.17605907198722404,1.5125267828408222,2.372154986629623,0.9828705787658691,0.17515093088150024,-0.05733632668852806, 264, 210, 95, 234
1733261256817,6i,19.662007342978637,1.4s : 0.3s,-4.537082156966747,0.030430713682508118,1.293835446582884,0.11799392726755326,1.3586994409561157,-0.1872253715991974,0.16621136665344238,0.0017119646072387695,0.09958560764789581,-0.06326407194137573,-0.1762895027043056,1.5096779350123577,2.352121023910462,0.982663094997406,0.17537780106067657,-0.0601336807012558, 264, 210, 95, 234
1733261256827,6i,19.662007342978637,1.4s : 0.3s,-4.537082156966747,0.03246258280414299,1.548380084413726,0.11701749925379508,1.5736088752746582,-0.20280522108078003,0.23822709918022156,-0.0026384592056274414,0.10341975092887878,-0.05468536168336868,-0.17623878331641596,1.5068332983504693,2.327520236090706,0.982496976852417,0.175327867269516,-0.06292932480573654, 264, 210, 95, 234
1733261256837,6i,19.662007342978637,1.4s : 0.3s,-4.537082156966747,0.03462195808473659,1.768415390536812,0.12233747443819384,1.6599982976913452,-0.2363722324371338,0.31979626417160034,-0.009766221046447754,0.10928016901016235,-0.0541195273399353,-0.17592773803289083,1.5038845718930365,2.2987551324999127,0.9823614358901978,0.17502163350582123,-0.065829798579216, 264, 210, 95, 234
1733261256847,6i,19.662007342978637,1.4s : 0.3s,-4.537082156966747,0.03677454912215017,1.9100047819568426,0.09364711144634562,1.6082276105880737,-0.27428629994392395,0.38638928532600403,-0.0009934306144714355,0.07762780785560608,-0.05237096548080444,-0.17540652871400006,1.5009613725581643,2.267389020358064,0.9822556376457214,0.17450843751430511,-0.06870751082897186, 264, 210, 95, 234
1733261256857,6i,19.662007342978637,1.4s : 0.3s,-4.537082156966747,0.03856258083488332,1.9641989262622928,0.04722088493725502,1.4685395956039429,-0.32055845856666565,0.4492073953151703,0.008543610572814941,0.032944440841674805,-0.032733507454395294,-0.17482344502998198,1.4982041197442642,2.2373710446502657,0.9821639060974121,0.17393428087234497,-0.07142294943332672, 264, 210, 95, 234
1733261256867,6i,19.662007342978637,1.4s : 0.3s,-4.537082156966747,0.0399724401158963,1.9629766741049381,0.03698416800559782,1.3341859579086304,-0.3929148018360138,0.4908539354801178,-0.00032830238342285156,0.007666736841201782,-0.036179304122924805,-0.17427491365228664,1.495520680353145,2.2074979283146017,0.9820635914802551,0.1733940839767456,-0.07406541705131531, 264, 210, 95, 234
1733261256877,6i,19.662007342978637,1.4s : 0.3s,-4.537082156966747,0.0412672701290266,1.9467585894214121,0.05757455666793462,1.263860821723938,-0.41461181640625,0.5272484421730042,-0.010797977447509766,-0.019753068685531616,-0.05299103260040283,-0.17387186338422597,1.4928033879251101,2.1781012044127945,0.9819283485412598,0.1729971170425415,-0.07673913985490799, 264, 210, 95, 234
1733261256887,6i,19.662007342978637,1.4s : 0.3s,-4.537082156966747,0.04246654039391739,1.9248367634062964,0.05705608139661537,1.2412464618682861,-0.4074898958206177,0.5311609506607056,-0.020699799060821533,-0.01729750633239746,-0.05027634650468826,-0.17348570460344218,1.4903702957035507,2.150539683988282,0.9818052649497986,0.17261676490306854,-0.07913339883089066, 264, 210, 95, 234
1733261256897,6i,19.662007342978637,1.4s : 0.3s,-4.537082156966747,0.043644919967641665,1.8828826866878625,0.07134226960170396,1.1810057163238525,-0.38940781354904175,0.48778894543647766,-0.030672729015350342,0.0057681649923324585,-0.06415318697690964,-0.17298020995535934,1.4880683998023732,2.1258894804700215,0.9817071557044983,0.17211884260177612,-0.08140038698911667, 264, 210, 95, 234
1733261256907,6i,19.662007342978637,1.4s : 0.3s,-4.537082156966747,0.044840990111715294,1.8472271053766247,0.08173394208046338,1.1821541786193848,-0.37744003534317017,0.43651601672172546,-0.028605341911315918,0.01664002239704132,-0.07473473995923996,-0.17250778690311958,1.4857044677219968,2.104471630915151,0.9815928936004639,0.17165344953536987,-0.08372774720191956, 264, 210, 95, 234
1733261256917,6i,19.662007342978637,1.4s : 0.3s,-4.537082156966747,0.04603072128748957,1.811524667155411,0.06772116355235866,1.1798487901687622,-0.33422785997390747,0.39294058084487915,-0.014535188674926758,0.013863995671272278,-0.06467359513044357,-0.1720575243213099,1.4833425623789378,2.084709736315266,0.9814693331718445,0.17120985686779022,-0.08605268597602844, 264, 210, 95, 234
1733261256927,6i,19.662007342978637,1.4s : 0.3s,-4.537082156966747,0.047194759537946086,1.7293890821915836,0.05456240735415914,1.0432276725769043,-0.31702709197998047,0.3523882329463959,-0.00867319107055664,0.01084829866886139,-0.05276501178741455,-0.17160284165894973,1.481197118977111,2.0681153540726966,0.9813599586486816,0.1707618683576584,-0.08816513419151306, 264, 210, 95, 234
1733261256937,6i,19.662007342978637,1.4s : 0.3s,-4.537082156966747,0.04831283695144979,1.6228216389140078,0.03775375967258674,0.9208710789680481,-0.33058393001556396,0.30653420090675354,-0.01196962594985962,0.015512213110923767,-0.03227143734693527,-0.1712829779570424,1.4790552650183881,2.0555510079321286,0.9812231659889221,0.17044669389724731,-0.09027185291051865, 264, 210, 95, 234
1733261256947,6i,19.662007342978637,1.4s : 0.3s,-4.537082156966747,0.049203218594306986,1.51689498799367,0.019433854762008096,0.8442544937133789,-0.32806655764579773,0.27929431200027466,0.001712024211883545,0.0029166489839553833,-0.019137315452098846,-0.17099593171469804,1.4767463810914372,2.0457052993976266,0.9810606837272644,0.1701638400554657,-0.09254172444343567, 264, 210, 95, 234
1733261256957,6i,19.662007342978637,1.4s : 0.3s,-4.537082156966747,0.05004892822292326,1.4333398936562765,0.02664472508808381,0.8381308317184448,-0.30076462030410767,0.24489159882068634,0.01426023244857788,0.01241426169872284,-0.01877427101135254,-0.17061759167224527,1.474376006394721,2.0378350139994716,0.9809027314186096,0.16979101300239563,-0.09487314522266388, 264, 210, 95, 234
1733261256967,6i,19.662007342978637,1.4s : 0.3s,-4.537082156966747,0.050911493896185794,1.358895761746315,0.045323410070715935,0.8167012929916382,-0.2666717767715454,0.20924654603004456,-0.002231299877166748,0.02986590564250946,-0.03401853144168854,-0.1702350022909155,1.4720807589299854,2.031386283420282,0.9807470440864563,0.1694139540195465,-0.09713071584701538, 264, 210, 95, 234
1733261256977,6i,19.662007342978637,1.4s : 0.3s,-4.537082156966747,0.05181916917265776,1.2943482037949101,0.06192444589655175,0.7971971035003662,-0.22673341631889343,0.20301422476768494,-0.024227261543273926,0.032592326402664185,-0.04674844443798065,-0.16971354645846662,1.4700244556188358,2.026386822650486,0.9806327819824219,0.1689000129699707,-0.09915607422590256, 264, 210, 95, 234
1733261256987,6i,19.662007342978637,1.4s : 0.3s,-4.537082156966747,0.05269526528179015,1.2538268985979117,0.034520662853955206,0.8249049186706543,-0.20540203154087067,0.16927869617938995,-0.024285316467285156,0.009344995021820068,-0.02268414944410324,-0.168994296693381,1.468028481708903,2.022428069594452,0.9805535674095154,0.168191060423851,-0.10112563520669937, 264, 210, 95, 234
1733261256997,6i,19.662007342978637,1.4s : 0.3s,-4.537082156966747,0.05344791452480534,1.2036899487078658,0.04816405513240159,0.7809856534004211,-0.19333764910697937,0.12006667256355286,-0.019654512405395508,-0.03993390500545502,-0.018405422568321228,-0.16835255230397625,1.4660104065670254,2.0188574279576335,0.9804546236991882,0.16755841672420502,-0.1031155213713646, 264, 210, 95, 234
1733261257007,6i,19.662007342978637,1.4s : 0.3s,-4.537082156966747,0.054092123364829096,1.138171994328405,0.04213660545005019,0.7144926190376282,-0.16068080067634583,0.08940742164850235,-0.010601520538330078,-0.036641672253608704,-0.017902210354804993,-0.16789199540641828,1.4640579740561361,2.0162571471804958,0.9803282022476196,0.16710436344146729,-0.10503782331943512, 264, 210, 95, 234
1733261257017,6i,19.662007342978637,1.4s : 0.3s,-4.537082156966747,0.0546815781725207,1.0565461231513646,0.0242128100076906,0.629627525806427,-0.13445372879505157,0.07134826481342316,0.0012338757514953613,-0.0122079998254776,-0.02087348699569702,-0.167423297339999,1.4623656135417995,2.0142855598757508,0.9802266955375671,0.1666422337293625,-0.1067051962018013, 264, 210, 95, 234
1733261257027,6i,19.662007342978637,1.4s : 0.3s,-4.537082156966747,0.055170443318382376,0.9699272624643609,0.03136422586789554,0.5625053644180298,-0.1130991205573082,0.03960341960191727,-0.003581106662750244,-0.030783697962760925,-0.004822269082069397,-0.16704231643645343,1.4608636491251863,2.0129396550432808,0.9801284670829773,0.1662665605545044,-0.10818430781364441, 264, 210, 95, 234
1733261257037,6i,19.662007342978637,1.4s : 0.3s,-4.537082156966747,0.055302003148523626,0.8718279662095194,0.06547159324446203,0.4691205620765686,-0.10009410977363586,0.029855186119675636,-0.015057027339935303,-0.06362788379192352,-0.003362715244293213,-0.1666937785266389,1.4595055191663588,2.0126205577478853,0.9800381064414978,0.1659228652715683,-0.1095217689871788, 264, 210, 95, 234
1733261257047,6i,19.662007342978637,1.4s : 0.3s,-4.537082156966747,0.05533112290685645,0.7700715785886766,0.05089516006443085,0.3852337896823883,-0.10020299255847931,0.01467440277338028,-0.008816123008728027,-0.04985365271568298,-0.005215995013713837,-0.16637331526507498,1.4581951799442632,2.0127523524145805,0.979946494102478,0.16560684144496918,-0.11081182211637497, 264, 210, 95, 234
1733261257057,6i,19.662007342978637,1.4s : 0.3s,-4.537082156966747,0.055305036366526325,0.6831387980718598,0.03547532320246143,0.3478566110134125,-0.09342177957296371,-0.00561489025130868,0.001090705394744873,-0.03544333577156067,-0.0010386854410171509,-0.16607328406696292,1.4568965900458655,2.0089311712396745,0.979851245880127,0.16531094908714294,-0.11208993941545486, 264, 210, 95, 234
1733261257067,6i,19.662007342978637,1.4s : 0.3s,-4.537082156966747,0.05523195160778002,0.6260987263490678,0.036312661944282516,0.3625088930130005,-0.07410724461078644,-0.0260460302233696,-0.004674136638641357,-0.03598232567310333,-0.0014262199401855469,-0.1658616857202257,1.4556142654102255,2.0094166680016667,0.9797412753105164,0.1651022583246231,-0.11335033178329468, 264, 210, 95, 234
1733261257077,6i,19.662007342978637,1.4s : 0.3s,-4.537082156966747,0.05518243150521341,0.5890337136783237,0.01665080271338888,0.37261107563972473,-0.05362887308001518,-0.020866714417934418,-0.009619593620300293,-0.006837204098701477,-0.011745862662792206,-0.16555140126878248,1.454379046340778,2.0092802378699237,0.9796512722969055,0.16479621827602386,-0.1145663782954216, 264, 210, 95, 234
1733261257087,6i,19.662007342978637,1.4s : 0.3s,-4.537082156966747,0.05519872433181471,0.5578482847203081,0.024754817367571912,0.3599470853805542,-0.04397504776716232,-0.03368707001209259,-0.007283389568328857,0.017817422747612,-0.015565752983093262,-0.16512188892171595,1.4532245614825143,2.0084051430371,0.9795886874198914,0.16437256336212158,-0.11570560187101364, 264, 210, 95, 234
1733261257097,6i,19.662007342978637,1.4s : 0.3s,-4.537082156966747,0.0552546931963739,0.5375952235276777,0.019682158877791612,0.3632137179374695,-0.038143523037433624,-0.04437140375375748,-0.00750124454498291,0.004495143890380859,-0.017632707953453064,-0.16475198380286726,1.4520863383596705,2.0069899176713095,0.9795165061950684,0.16400767862796783,-0.11682769656181335, 264, 210, 95, 234
1733261257107,6i,19.662007342978637,1.4s : 0.3s,-4.537082156966747,0.055354479531119674,0.5365165043089805,0.03445835789598879,0.3914030194282532,-0.026935787871479988,-0.04920617863535881,-0.014627695083618164,-0.004578053951263428,-0.03086179494857788,-0.1643903675809683,1.4509404335764648,2.0048283716043915,0.9794409275054932,0.16365094482898712,-0.11795714497566223, 264, 210, 95, 234
1733261257117,6i,19.662007342978637,1.4s : 0.3s,-4.537082156966747,0.05554289256654652,0.5421564666040115,0.04500447091839055,0.4245034456253052,-0.015129195526242256,-0.043818868696689606,-0.01604008674621582,0.011395514011383057,-0.040475428104400635,-0.16391334386083456,1.4498444934830788,2.001682913270716,0.9793884754180908,0.16318033635616302,-0.11903989315032959, 264, 210, 95, 234
1733261257127,6i,19.662007342978637,1.4s : 0.3s,-4.537082156966747,0.055901253534380024,0.5544121106382442,0.052977168036756145,0.43835586309432983,-0.008374709635972977,-0.04308982938528061,-0.015300333499908447,0.021927788853645325,-0.04573458433151245,-0.16336829762084884,1.4487907838101746,1.9981653631493301,0.9793506264686584,0.16264256834983826,-0.12008262425661087, 264, 210, 95, 234
1733261257137,6i,19.662007342978637,1.4s : 0.3s,-4.537082156966747,0.05639129604991354,0.5722625607069582,0.05443440809522488,0.4559740126132965,-0.010418685153126717,-0.04708324000239372,-0.014361739158630371,0.020159348845481873,-0.048481397330760956,-0.16280998713182052,1.4477272523770235,1.9938487988034226,0.9793122410774231,0.1620916724205017,-0.12113524228334427, 264, 210, 95, 234
1733261257147,6i,19.662007342978637,1.4s : 0.3s,-4.537082156966747,0.05695250220319672,0.578739606287857,0.052811354125280256,0.45188087224960327,-0.015437278896570206,-0.04139535874128342,-0.011245548725128174,0.017499014735221863,-0.048542365431785583,-0.16227413443929903,1.4466162245999037,1.9891771175542958,0.9792630672454834,0.16156287491321564,-0.12223394215106964, 264, 210, 95, 234
1733261257157,6i,19.662007342978637,1.4s : 0.3s,-4.537082156966747,0.05755547023234791,0.5792876197960858,0.04755621263417297,0.43359479308128357,-0.016039686277508736,-0.037056270986795425,-0.007351696491241455,0.013979077339172363,-0.04485678672790527,-0.16174357749219376,1.445527920113224,1.984302375255304,0.9792144894599915,0.16103927791118622,-0.12331032007932663, 264, 210, 95, 234
1733261257167,6i,19.662007342978637,1.4s : 0.3s,-4.537082156966747,0.05817672141143775,0.5773451004415318,0.039348075086499505,0.41553086042404175,-0.019361181184649467,-0.03191211074590683,-0.006231129169464111,0.00863635540008545,-0.03787951171398163,-0.16126648752226047,1.4444896436380896,1.9795877268503328,0.9791619777679443,0.16056838631629944,-0.1243366003036499, 264, 210, 95, 234
1733261257177,6i,19.662007342978637,1.4s : 0.3s,-4.537082156966747,0.0587956595984617,0.5733447035697898,0.0338806208459383,0.4053599536418915,-0.027403393760323524,-0.027305638417601585,-0.008867859840393066,0.0005274862051010132,-0.03269524872303009,-0.16087108911550108,1.4434730415200177,1.9750533263175871,0.9790980815887451,0.16017811000347137,-0.12534001469612122, 264, 210, 95, 234
1733261257187,6i,19.662007342978637,1.4s : 0.3s,-4.537082156966747,0.059413725752544964,0.5686732705991041,0.03274697148958716,0.40136709809303284,-0.031624507158994675,-0.01703888550400734,-0.013004839420318604,0.002518773078918457,-0.029948189854621887,-0.16055421065511505,1.4424817323953014,1.9701367174212925,0.9790236353874207,0.15986531972885132,-0.12631703913211823, 264, 210, 95, 234
1733261257197,6i,19.662007342978637,1.4s : 0.3s,-4.537082156966747,0.060055904315405674,0.5678286321080406,0.03975571090816672,0.41502219438552856,-0.029338182881474495,-0.03364582732319832,-0.017731070518493652,0.01491372287273407,-0.03230644762516022,-0.16028654783997806,1.441513947626431,1.965180424917249,0.9789433479309082,0.159601092338562,-0.12726998329162598, 264, 210, 95, 234
1733261257207,6i,19.662007342978637,1.4s : 0.3s,-4.537082156966747,0.06072857410312227,0.5758596386198735,0.04247743657943192,0.4516245424747467,-0.022255992516875267,-0.028481191024184227,-0.018718838691711426,0.021373987197875977,-0.0315767377614975,-0.16003337153147607,1.4405712374323965,1.9599052775708843,0.9788628816604614,0.1593511551618576,-0.12819801270961761, 264, 210, 95, 234
1733261257217,6i,19.662007342978637,1.4s : 0.3s,-4.537082156966747,0.06144726784358448,0.5975900036819637,0.05017870688260538,0.4821169376373291,-0.01746256835758686,-0.026907796040177345,-0.019533753395080566,0.030790403485298157,-0.034471526741981506,-0.15969158247719645,1.4396074684304478,1.95416193245383,0.9787929058074951,0.15901371836662292,-0.1291484832763672, 264, 210, 95, 234
1733261257227,6i,19.662007342978637,1.4s : 0.3s,-4.537082156966747,0.062238934369564874,0.601616378205945,0.05836444944502129,0.4672732651233673,-0.02210072986781597,-0.02185184881091118,-0.014982521533966064,0.036884695291519165,-0.04267847537994385,-0.15931451074071445,1.4386466313223258,1.9485974163767776,0.9787276387214661,0.15864144265651703,-0.13009676337242126, 264, 210, 95, 234
1733261257237,6i,19.662007342978637,1.4s : 0.3s,-4.537082156966747,0.06306176152182223,0.5998101743973301,0.04903647043838506,0.43311741948127747,-0.02992243319749832,-0.02462739869952202,-0.009372115135192871,0.027860507369041443,-0.03924959897994995,-0.1589499630836838,1.4376610470017004,1.9431435731207192,0.9786561727523804,0.15828149020671844,-0.13106898963451385, 264, 210, 95, 234
1733261257247,6i,19.662007342978637,1.4s : 0.3s,-4.537082156966747,0.06387678213641745,0.593114167161425,0.034195286085364256,0.4172079861164093,-0.03473050519824028,-0.01909254863858223,0.0012974739074707031,0.021848082542419434,-0.026273474097251892,-0.15861042701771907,1.436648603000186,1.9379347443678336,0.9785761833190918,0.15794622898101807,-0.13206692039966583, 264, 210, 95, 234
1733261257257,6i,19.662007342978637,1.4s : 0.3s,-4.537082156966747,0.06468150696843636,0.5794854895528999,0.03422636843324698,0.40318563580513,-0.03257733955979347,-0.013605372048914433,0.004876375198364258,0.025339797139167786,-0.022484660148620605,-0.1582112729728155,1.4356545314931226,1.932843926176237,0.978506863117218,0.1575520783662796,-0.1330481320619583, 264, 210, 95, 234
1733261257267,6i,19.662007342978637,1.4s : 0.3s,-4.537082156966747,0.06548136281370384,0.5594021806506976,0.034998896499001626,0.3798432946205139,-0.03340709209442139,-0.02213454432785511,0.001516580581665039,0.022526264190673828,-0.02674303948879242,-0.15786189494623182,1.4346964270292815,1.9279487716024606,0.9784333109855652,0.15720704197883606,-0.1339930295944214, 264, 210, 95, 234
1733261257277,6i,19.662007342978637,1.4s : 0.3s,-4.537082156966747,0.06626449956168608,0.532283279166313,0.03049178293248781,0.34782835841178894,-0.02951008826494217,-0.016564810648560524,-0.0028654932975769043,0.0100879967212677,-0.028631627559661865,-0.15755530269009912,1.4337949934998808,1.9232765058422872,0.9783598780632019,0.15690426528453827,-0.13488154113292694, 264, 210, 95, 234
1733261257287,6i,19.662007342978637,1.4s : 0.3s,-4.537082156966747,0.06702334290643841,0.5066188630040938,0.029321968106188638,0.33104658126831055,-0.029605120420455933,-0.018337177112698555,-0.002337515354156494,0.0032273977994918823,-0.029049918055534363,-0.15727125187042912,1.4329498564577465,1.9190926514786661,0.9782896041870117,0.1566237211227417,-0.13571445643901825, 264, 210, 95, 234
1733261257297,6i,19.662007342978637,1.4s : 0.3s,-4.537082156966747,0.06774856251556384,0.48357313854764516,0.030131816864168423,0.3191606402397156,-0.021897131577134132,-0.014681989327073097,-0.006062805652618408,-0.00641418993473053,-0.02881018817424774,-0.15697570505521646,1.4321810223495923,1.915083959127979,0.9782307744026184,0.15633182227611542,-0.13647295534610748, 264, 210, 95, 234
1733261257307,6i,19.662007342978637,1.4s : 0.3s,-4.537082156966747,0.06845454417538661,0.457235752965891,0.03210940211651312,0.29381757974624634,-0.021306399255990982,-0.01329890824854374,-0.01205211877822876,-0.002167418599128723,-0.029682695865631104,-0.15669277649437643,1.4314725482056534,1.9113569999615498,0.9781776666641235,0.156052365899086,-0.13717210292816162, 264, 210, 95, 234
1733261257317,6i,19.662007342978637,1.4s : 0.3s,-4.537082156966747,0.06915541186182565,0.427978267262766,0.033901689528209246,0.2669593393802643,-0.019498644396662712,-0.013456568121910095,-0.013438165187835693,0.004378169775009155,-0.03081512451171875,-0.15643057929711976,1.4308265285177706,1.9077045895915006,0.9781293869018555,0.15579336881637573,-0.13780970871448517, 264, 210, 95, 234
1733261257327,6i,19.662007342978637,1.4s : 0.3s,-4.537082156966747,0.06985629454149314,0.3953673633502741,0.033294212412199535,0.23692888021469116,-0.017055949196219444,-0.01272742822766304,-0.011822938919067383,0.009708821773529053,-0.0295712947845459,-0.1561934695746594,1.4302465204629404,1.9043468138472899,0.9780857563018799,0.15555915236473083,-0.1383821815252304, 264, 210, 95, 234
1733261257337,6i,19.662007342978637,1.4s : 0.3s,-4.537082156966747,0.07055792746545812,0.36472150931222713,0.032744523316588524,0.21752296388149261,-0.012219381518661976,-0.017390357330441475,-0.010694265365600586,0.011791437864303589,-0.028614655137062073,-0.15603148722527205,1.4297400989929716,1.901341992129434,0.9780405759811401,0.1553991436958313,-0.13888102769851685, 264, 210, 95, 234
1733261257347,6i,19.662007342978637,1.4s : 0.3s,-4.537082156966747,0.07126022459179181,0.3359454672795444,0.032988964326613954,0.1993054747581482,-0.011475960724055767,-0.016746170818805695,-0.01165926456451416,0.01122845709323883,-0.0287446528673172,-0.15590635292679672,1.4292985499762119,1.898493366851904,0.9779984951019287,0.15527552366256714,-0.1393156349658966, 264, 210, 95, 234
1733261257357,6i,19.662007342978637,1.4s : 0.3s,-4.537082156966747,0.07197088552776715,0.31025145377333135,0.035422058027511784,0.1854514479637146,-0.010441589169204235,-0.017391188070178032,-0.013569831848144531,0.01720249652862549,-0.027832642197608948,-0.1558056884143675,1.4288831500207198,1.8959441592287853,0.9779559373855591,0.1551760733127594,-0.13972407579421997, 264, 210, 95, 234
1733261257367,6i,19.662007342978637,1.4s : 0.3s,-4.537082156966747,0.07270246612625784,0.2934093177321038,0.0417636476883175,0.1884765326976776,-0.008723406121134758,-0.016119398176670074,-0.018594563007354736,0.022485464811325073,-0.029880568385124207,-0.1557095126709546,1.428482929404592,1.8933163199496315,0.977914571762085,0.15508106350898743,-0.1401175707578659, 264, 210, 95, 234
1733261257377,6i,19.662007342978637,1.4s : 0.3s,-4.537082156966747,0.07344935421301002,0.28654445873857565,0.04069482972778829,0.19027362763881683,-0.004368605092167854,-0.00856667198240757,-0.01850491762161255,0.01812601089477539,-0.03138606250286102,-0.15556591248685137,1.4281220194466169,1.8907703241823715,0.977885901927948,0.154939204454422,-0.1404736489057541, 264, 210, 95, 234
1733261257387,6i,19.662007342978637,1.4s : 0.3s,-4.537082156966747,0.07420347546677607,0.26665007220331366,0.03693908385822321,0.16438063979148865,0.0002106559695675969,-0.003495114389806986,-0.013425767421722412,0.017872199416160583,-0.029407978057861328,-0.15537494339926125,1.4278199678996735,1.8881619930773166,0.9778728485107422,0.1547505408525467,-0.1407732516527176, 264, 210, 95, 234
1733261257397,6i,19.662007342978637,1.4s : 0.3s,-4.537082156966747,0.07495041887183274,0.23179509812196092,0.032283878302500395,0.11230386048555374,0.0005699164466932416,-0.0009563229978084564,-0.012873709201812744,0.009848624467849731,-0.02791990339756012,-0.15520248658055702,1.4276128530378072,1.8860704352589932,0.9778701663017273,0.15458016097545624,-0.14097960293293, 264, 210, 95, 234
1733261257407,6i,19.662007342978637,1.4s : 0.3s,-4.537082156966747,0.07565261945413061,0.19426037915245484,0.029328385270328102,0.07960423082113266,0.0028920152690261602,-0.0013218419626355171,-0.015131890773773193,-0.012125372886657715,-0.022003531455993652,-0.1550802912477079,1.4274792758295893,1.8847110550221278,0.9778699278831482,0.15445943176746368,-0.14111290872097015, 264, 210, 95, 234
1733261257417,6i,19.662007342978637,1.4s : 0.3s,-4.537082156966747,0.07617509567001139,0.1741487339358266,0.05143809437403123,0.09503219276666641,0.0029308972880244255,0.004351490177214146,0.00019854307174682617,-0.03755573928356171,0.03514832258224487,-0.1736660994143899,1.3720080657535751,1.8725424448304189,0.965560793876648,0.17279446125030518,-0.1945110708475113, 264, 210, 95, 234
1733261257427,6i,19.662007342978637,1.4s : 0.3s,-4.537082156966747,0.07659998980464414,0.17257756550852987,0.023330980188184677,0.11824284493923187,0.007173446007072926,0.006666077300906181,-0.002835988998413086,-0.019248753786087036,0.012875452637672424,-0.16958130104436828,1.3861489726891296,1.8721816766734993,0.9689003825187683,0.16876967251300812,-0.18096624314785004, 264, 210, 95, 234
1733261257437,6i,19.662007342978637,1.4s : 0.3s,-4.537082156966747,0.07697890186499577,0.17075805246716022,0.012452910064201123,0.1150936558842659,0.01210029423236847,0.0071326629258692265,-0.006532490253448486,-0.01009078323841095,-0.0032523274421691895,-0.17005846038330857,1.390021713709794,1.8700465788834897,0.9695146679878235,0.16923996806144714,-0.17719809710979462, 264, 210, 95, 234
1733261257447,6i,19.662007342978637,1.4s : 0.3s,-4.537082156966747,0.07731586814865106,0.1678227890897622,0.01859894125697039,0.10542531311511993,0.017062028869986534,0.008169630542397499,-0.008526086807250977,-0.015305891633033752,-0.0062414854764938354,-0.17172734334260878,1.391053646203361,1.867506620713754,0.9694176912307739,0.17088453471660614,-0.17614677548408508, 264, 210, 95, 234
1733261257457,6i,19.662007342978637,1.4s : 0.3s,-4.537082156966747,0.0775958599270311,0.15995811266282356,0.02494384794930652,0.09258434921503067,0.021235736086964607,0.016828367486596107,-0.007147789001464844,-0.023820683360099792,-0.0019182562828063965,-0.17205295771872037,1.3915104515885814,1.8652226961398222,0.9694433212280273,0.17120535671710968,-0.17569401860237122, 264, 210, 95, 234
1733261257467,6i,19.662007342978637,1.4s : 0.3s,-4.537082156966747,0.07780524398232629,0.15343071806344633,0.029900171003084633,0.08745723217725754,0.019001256674528122,0.02470819279551506,-0.0013308525085449219,-0.02971094846725464,0.0030836015939712524,-0.17199138510023534,1.3923024291395987,1.8630564208556413,0.9695925116539001,0.17114469408988953,-0.17492805421352386, 264, 210, 95, 234
1733261257477,6i,19.662007342978637,1.4s : 0.3s,-4.537082156966747,0.07794871384956155,0.1449148499752571,0.030421082176299623,0.07844536006450653,0.018961306661367416,0.026492511853575706,0.005925953388214111,-0.029763489961624146,0.002111867070198059,-0.17083681008253088,1.3931516381225677,1.8609856238379499,0.9699345827102661,0.17000703513622284,-0.17413941025733948, 264, 210, 95, 234
1733261257487,6i,19.662007342978637,1.4s : 0.3s,-4.537082156966747,0.07805858589024413,0.12679174078472613,0.026675146548144436,0.057653795927762985,0.017063094303011894,0.03110770508646965,0.006918489933013916,-0.0242098867893219,-0.008807912468910217,-0.16749382551491607,1.3946160909616525,1.8593168053531766,0.9707427620887756,0.16671177744865417,-0.17281745374202728, 264, 210, 95, 234
1733261257497,6i,19.662007342978637,1.4s : 0.3s,-4.537082156966747,0.0781539214707945,0.10777716152167144,0.02667379897504667,0.038706470280885696,0.01249124575406313,0.03569287061691284,0.0041806697845458984,-0.02172604203224182,-0.014899417757987976,-0.16403170230648412,1.3962618566878933,1.858031242291324,0.9715883731842041,0.16329710185527802,-0.17131878435611725, 264, 210, 95, 234
1733261257507,6i,19.662007342978637,1.4s : 0.3s,-4.537082156966747,0.07822194680285673,0.10259688817211905,0.033291030624783904,0.045104049146175385,0.006392207928001881,0.03269943967461586,0.003161013126373291,-0.030623912811279297,-0.012667939066886902,-0.162471825487071,1.396570228662738,1.8567366972616055,0.9718908667564392,0.16175797581672668,-0.1710631251335144, 264, 210, 95, 234
1733261257517,6i,19.662007342978637,1.4s : 0.3s,-4.537082156966747,0.07828031133875252,0.1008349659399462,0.033946601143111335,0.05365439131855965,0.004394038114696741,0.0386396199464798,0.005892574787139893,-0.02726447582244873,-0.019346773624420166,-0.1619590486280036,1.3955598689636755,1.8549190683457217,0.9717991352081299,0.16125193238258362,-0.17205944657325745, 264, 210, 95, 234
1733261257527,6i,19.662007342978637,1.4s : 0.3s,-4.537082156966747,0.07835633126124285,0.09993867649817378,0.030475484556284068,0.056445252150297165,0.003879115916788578,0.04454954341053963,0.00706249475479126,-0.014998987317085266,-0.02557159960269928,-0.1611732290445763,1.3945141031519517,1.8529831223168436,0.9717431664466858,0.16047634184360504,-0.17309780418872833, 264, 210, 95, 234
1733261257537,6i,19.662007342978637,1.4s : 0.3s,-4.537082156966747,0.07845612920324042,0.10039075233091664,0.02870283866552831,0.06491570174694061,0.0022703001741319895,0.047660648822784424,0.004264950752258301,-0.011164650321006775,-0.026096239686012268,-0.15980855189217377,1.3940099810670947,1.8511335434355491,0.971870481967926,0.15912920236587524,-0.17362600564956665, 264, 210, 95, 234
1733261257547,6i,19.662007342978637,1.4s : 0.3s,-4.537082156966747,0.0785858532580182,0.1037552463525188,0.03205372885524254,0.08075285702943802,-0.0038208370096981525,0.05418336018919945,0.0013941526412963867,-0.011432722210884094,-0.029913052916526794,-0.15805558011529022,1.3940309045020494,1.8492269911829997,0.9721470475196838,0.15739832818508148,-0.1736544370651245, 264, 210, 95, 234
1733261257557,6i,19.662007342978637,1.4s : 0.3s,-4.537082156966747,0.07876497759626938,0.11833315901616794,0.037755661886328826,0.09929058700799942,-0.008617190644145012,0.05991501733660698,0.0006141066551208496,-0.004790574312210083,-0.037445470690727234,-0.1562588239010546,1.3940291241859675,1.8473861873163278,0.9724236130714417,0.15562370419502258,-0.17370562255382538, 264, 210, 95, 234
1733261257567,6i,19.662007342978637,1.4s : 0.3s,-4.537082156966747,0.07899491748268583,0.1343115967146004,0.03965340362841579,0.11075922846794128,-0.012580595910549164,0.06418353319168091,-0.0015718340873718262,-0.003913283348083496,-0.03942851722240448,-0.15467583220105588,1.3933668543854518,1.84527942447171,0.972549557685852,0.15405981242656708,-0.17439283430576324, 264, 210, 95, 234
1733261257577,6i,19.662007342978637,1.4s : 0.3s,-4.537082156966747,0.07927320722251642,0.152770158703095,0.03700272309209284,0.12581565976142883,-0.019930386915802956,0.07253867387771606,-0.006069958209991455,-3.7103891372680664e-06,-0.03650146722793579,-0.15308202880563226,1.3924098983599462,1.8429506965843647,0.9726226925849915,0.15248483419418335,-0.17536680400371552, 264, 210, 95, 234
1733261257587,6i,19.662007342978637,1.4s : 0.3s,-4.537082156966747,0.0795933313860735,0.16184788272820452,0.034739033444679865,0.12269844114780426,-0.02400129660964012,0.07456879317760468,-0.006220459938049316,0.0018922239542007446,-0.03412514925003052,-0.15102502451623015,1.3916082634572435,1.8407307920137472,0.9727884531021118,0.15045157074928284,-0.1762019842863083, 264, 210, 95, 234
1733261257597,6i,19.662007342978637,1.4s : 0.3s,-4.537082156966747,0.07994116792265696,0.16497029136619504,0.03504113057391522,0.11753004789352417,-0.02717898041009903,0.07476107776165009,-0.0048313140869140625,-0.005986988544464111,-0.03418618440628052,-0.1492405764989213,1.3904652375008626,1.8395780249760179,0.9728488922119141,0.1486871987581253,-0.1773616373538971, 264, 210, 95, 234
1733261257607,6i,19.662007342978637,1.4s : 0.3s,-4.537082156966747,0.08029241610055324,0.16854080949130223,0.03263334210818564,0.11879730969667435,-0.028114859014749527,0.07869400084018707,-0.005477607250213623,-0.015616223216056824,-0.028125867247581482,-0.14808434430221995,1.3890355559010004,1.837264317799297,0.9727627038955688,0.14754371345043182,-0.17878326773643494, 264, 210, 95, 234
1733261257617,6i,19.662007342978637,1.4s : 0.3s,-4.537082156966747,0.08063442701591465,0.17055086993722454,0.027082884955378722,0.11361266672611237,-0.03149254620075226,0.07843620330095291,-0.0030664801597595215,-0.015662282705307007,-0.0218808650970459,-0.1470819573993272,1.3876312808189752,1.8350995009636166,0.972655713558197,0.1465522199869156,-0.1801759898662567, 264, 210, 95, 234
1733261257627,6i,19.662007342978637,1.4s : 0.3s,-4.537082156966747,0.08096050567408217,0.17056450080797653,0.028603322224899988,0.09611555933952332,-0.034064579755067825,0.0799923911690712,-0.002464771270751953,-0.019922450184822083,-0.020375743508338928,-0.14608235480178566,1.3861268971740945,1.8329868457562306,0.9725272059440613,0.14556333422660828,-0.18166585266590118, 264, 210, 95, 234
1733261257637,6i,19.662007342978637,1.4s : 0.3s,-4.537082156966747,0.08125857249225478,0.16945457509170841,0.03156528118467845,0.08401842415332794,-0.036297641694545746,0.08162543922662735,-0.0060707926750183105,-0.02670350670814514,-0.015698254108428955,-0.14533291107670188,1.3843972358266832,1.8310062404322338,0.9723183512687683,0.14482183754444122,-0.18336787819862366, 264, 210, 95, 234
1733261257647,6i,19.662007342978637,1.4s : 0.3s,-4.537082156966747,0.08153006888530492,0.1689418420685549,0.022898753565088605,0.08943741768598557,-0.03667057678103447,0.07876094430685043,-0.007289588451385498,-0.01939105987548828,-0.009757131338119507,-0.14458915924598273,1.3826543587133466,1.8291141905564101,0.972102701663971,0.14408588409423828,-0.18508228659629822, 264, 210, 95, 234
1733261257657,6i,19.662007342978637,1.4s : 0.3s,-4.537082156966747,0.08180050585958225,0.17157338805034694,0.016960552174786585,0.1213197186589241,-0.033569589257240295,0.07362770289182663,-0.011960446834564209,-0.0041250139474868774,-0.011295676231384277,-0.14398049284011738,1.3810516552859016,1.826877405512202,0.9718908667564392,0.14348354935646057,-0.18665657937526703, 264, 210, 95, 234
1733261257667,6i,19.662007342978637,1.4s : 0.3s,-4.537082156966747,0.08209325462977221,0.18580297277399274,0.02373175996899136,0.14844681322574615,-0.037100452929735184,0.06555116176605225,-0.014071106910705566,0.014925748109817505,-0.011934086680412292,-0.1433867741416127,1.3795740635440916,1.8243389599336168,0.9716974496841431,0.14289595186710358,-0.18810857832431793, 264, 210, 95, 234
1733261257677,6i,19.662007342978637,1.4s : 0.3s,-4.537082156966747,0.0823945316619425,0.2045315476489121,0.02643367311773044,0.16821278631687164,-0.04044218733906746,0.06853629648685455,-0.008554160594940186,0.024938136339187622,-0.001911744475364685,-0.14241289272063706,1.3780807110777373,1.8214864706010978,0.9715515375137329,0.14193199574947357,-0.18958601355552673, 264, 210, 95, 234
1733261257687,6i,19.662007342978637,1.4s : 0.3s,-4.537082156966747,0.08267618947029035,0.22053341156373388,0.023057184165853808,0.17752772569656372,-0.03763175383210182,0.06574903428554535,-0.0011085271835327148,0.021609634160995483,0.007964208722114563,-0.141104883249395,1.3768100131189236,1.8184805730454006,0.9714912176132202,0.1406370997428894,-0.19085603952407837, 264, 210, 95, 234
1733261257697,6i,19.662007342978637,1.4s : 0.3s,-4.537082156966747,0.08290932323638331,0.22079475878410587,0.02037760509590644,0.14631149172782898,-0.0313245914876461,0.07263517379760742,-0.003218352794647217,0.009394988417625427,0.017793908715248108,-0.1397872624800829,1.3758854658347353,1.815710561961758,0.9714953303337097,0.13933245837688446,-0.1917898803949356, 264, 210, 95, 234
1733261257707,6i,19.662007342978637,1.4s : 0.3s,-4.537082156966747,0.0830418375705853,0.20741847783979578,0.03416640834004366,0.0983816459774971,-0.036605414003133774,0.0742383599281311,-0.003446221351623535,-0.012317344546318054,0.03168201446533203,-0.13839964023545376,1.3750573687559045,1.8134223665687745,0.9715248346328735,0.13795822858810425,-0.19263170659542084, 264, 210, 95, 234
1733261257717,6i,19.662007342978637,1.4s : 0.3s,-4.537082156966747,0.08280589814458349,0.20195955771718185,0.050978346561646765,0.09851666539907455,-0.040581248700618744,0.07354088127613068,0.0008429288864135742,-0.030407220125198364,0.040908217430114746,-0.13689828908065788,1.3743189668936882,1.811394275719941,0.9715844392776489,0.13647107779979706,-0.19338926672935486, 264, 210, 95, 234
1733261257727,6i,19.662007342978637,1.4s : 0.3s,-4.537082156966747,0.08241228123280739,0.20438791695055136,0.04533206888644193,0.14878129959106445,-0.02748209238052368,0.07531704008579254,-1.0251998901367188e-05,-0.02742527425289154,0.0360950231552124,-0.13559805063853417,1.3737331758707476,1.8092276608699314,0.9716441631317139,0.13518290221691132,-0.1939929574728012, 264, 210, 95, 234
1733261257737,6i,19.662007342978637,1.4s : 0.3s,-4.537082156966747,0.08200375355157005,0.22960638318713641,0.029823617070488192,0.2080044150352478,-0.009982991963624954,0.06851719319820404,-0.009426653385162354,-0.011276930570602417,0.02595028281211853,-0.1347156962146778,1.3731422875498256,1.8064311668103497,0.9716460108757019,0.1343085914850235,-0.19459041953086853, 264, 210, 95, 234
1733261257747,6i,19.662007342978637,1.4s : 0.3s,-4.537082156966747,0.08161414763873305,0.263374905032234,0.0204799436030275,0.24511557817459106,-0.007445799186825752,0.07801388949155807,-0.01368248462677002,-0.0026855766773223877,0.015000179409980774,-0.13426848844149106,1.3725203559850252,1.80317586541825,0.9715834259986877,0.13386541604995728,-0.1952064484357834, 264, 210, 95, 234
1733261257757,6i,19.662007342978637,1.4s : 0.3s,-4.537082156966747,0.08122634549133462,0.29472801862469156,0.021631601733324884,0.25740712881088257,-0.018457971513271332,0.09305436164140701,-0.007323801517486572,-0.014315247535705566,0.014469340443611145,-0.13391687215153955,1.3721496921666942,1.7997767626888668,0.9715571403503418,0.13351695239543915,-0.19557586312294006, 264, 210, 95, 234
1733261257767,6i,19.662007342978637,1.4s : 0.3s,-4.537082156966747,0.08074135612595529,0.3337788302987913,0.04754964020982654,0.3009053170681,-0.02336200326681137,0.09670574963092804,0.006987035274505615,-0.03859613835811615,0.02687913179397583,-0.1331974277481841,1.3719133474690957,1.7962116982766045,0.9716048836708069,0.13280391693115234,-0.19582441449165344, 264, 210, 95, 234
1733261257777,6i,19.662007342978637,1.4s : 0.3s,-4.537082156966747,0.08016463767448637,0.3905515069856259,0.053076863957598204,0.37818121910095215,-0.013630546629428864,0.09822455048561096,0.013264894485473633,-0.046537384390830994,0.021805226802825928,-0.1319418541048796,1.3717511425106783,1.7921637817859952,0.9717357158660889,0.1315593719482422,-0.19601482152938843, 264, 210, 95, 234
1733261257787,6i,19.662007342978637,1.4s : 0.3s,-4.537082156966747,0.07960590091727532,0.47580046288137584,0.02442416013573102,0.4950079619884491,-0.011689368635416031,0.09828201681375504,-0.003045201301574707,-0.021817997097969055,0.010547101497650146,-0.13000253209223522,1.3717997500492556,1.787103856455938,0.9719935655593872,0.12963666021823883,-0.19601766765117645, 264, 210, 95, 234
1733261257797,6i,19.662007342978637,1.4s : 0.3s,-4.537082156966747,0.07912037194632696,0.5734982687507767,0.00812268317718493,0.5924543738365173,-0.003129702527076006,0.09135299921035767,-0.004493236541748047,0.006461679935455322,-0.0020088553428649902,-0.12756628892727195,1.371939729470597,1.780854058898104,0.972327709197998,0.12722058594226837,-0.19594340026378632, 264, 210, 95, 234
1733261257807,6i,19.662007342978637,1.4s : 0.3s,-4.537082156966747,0.07869285665957637,0.6744148475455813,0.013661321211545835,0.6729496121406555,0.001987872179597616,0.09313235431909561,0.008836865425109863,0.010225705802440643,-0.001994103193283081,-0.12504871903142709,1.3719419256304088,1.7737872885836017,0.9726390838623047,0.12472306936979294,-0.19600392878055573, 264, 210, 95, 234
1733261257817,6i,19.662007342978637,1.4s : 0.3s,-4.537082156966747,0.07829448380834592,0.7718943732212263,0.016707002772637616,0.7397518157958984,-0.00015357555821537971,0.0920758843421936,0.01618170738220215,0.0024817809462547302,0.003334224224090576,-0.1227499909476112,1.3711181709022031,1.7658379047039603,0.9727557301521301,0.12244196236133575,-0.19686143100261688, 264, 210, 95, 234
1733261257827,6i,19.662007342978637,1.4s : 0.3s,-4.537082156966747,0.07793465372341413,0.8452974833594459,0.020677060364912837,0.7535871863365173,-0.001137791434302926,0.0823729857802391,0.012931883335113525,-0.012381598353385925,-0.010344237089157104,-0.1203993363299616,1.3702421128349573,1.7575404572636968,0.9728621244430542,0.12010866403579712,-0.19777031242847443, 264, 210, 95, 234
1733261257837,6i,19.662007342978637,1.4s : 0.3s,-4.537082156966747,0.07762361914214327,0.9034615069898535,0.02973716760426831,0.7725903987884521,-0.008061211556196213,0.06292419135570526,0.012259900569915771,-0.017759151756763458,-0.020459875464439392,-0.11817751206750964,1.3693229827991613,1.7490537233696046,0.9729390144348145,0.11790262907743454,-0.19871732592582703, 264, 210, 95, 234
1733261257847,6i,19.662007342978637,1.4s : 0.3s,-4.537082156966747,0.07737607633316537,0.969002417895999,0.0290432405342334,0.8370699286460876,-0.005126540549099445,0.03293430060148239,0.01332402229309082,-0.006533145904541016,-0.024965941905975342,-0.11609249732129791,1.368374364149923,1.7401961996973152,0.9729888439178467,0.1158319041132927,-0.19968919456005096, 264, 210, 95, 234
1733261257857,6i,19.662007342978637,1.4s : 0.3s,-4.537082156966747,0.07754771336988302,1.0487205044524737,0.05785870205591433,0.9226535558700562,0.009034551680088043,-0.0017019747756421566,0.007977306842803955,0.03730697184801102,-0.04349921643733978,-0.11418614912669764,1.3674097357597423,1.7304630148602036,0.973010241985321,0.11393817514181137,-0.20067189633846283, 264, 210, 95, 234
1733261257867,6i,19.662007342978637,1.4s : 0.3s,-4.537082156966747,0.07837482480876931,1.1507185434249099,0.12563997908610608,1.037055253982544,0.012851838022470474,-0.040164344012737274,-0.010516166687011719,0.1083245724439621,-0.06277421116828918,-0.11241684663914915,1.3664352437536862,1.7197415523523631,0.9730101823806763,0.11218021810054779,-0.201660618185997, 264, 210, 95, 234
1733261257877,6i,19.662007342978637,1.4s : 0.3s,-4.537082156966747,0.079918637379222,1.2655972648253524,0.19084682078888215,1.143166184425354,0.0023533909115940332,-0.06685987114906311,-0.017094016075134277,0.17809969186782837,-0.06641387939453125,-0.11073125081153429,1.365306626095745,1.7079041630967373,0.972965657711029,0.1105051040649414,-0.20279692113399506, 264, 210, 95, 234
1733261257887,6i,19.662007342978637,1.4s : 0.3s,-4.537082156966747,0.08212427754712999,1.4018023588038164,0.23763674430346143,1.279683232307434,0.003042750060558319,-0.09124686568975449,-0.009414315223693848,0.22886139154434204,-0.06328551471233368,-0.10903157119762744,1.364012405464037,1.6947201197051887,0.9728847146034241,0.10881567746400833,-0.20409423112869263, 264, 210, 95, 234
1733261257897,6i,19.662007342978637,1.4s : 0.3s,-4.537082156966747,0.08492587241729792,1.5368040347923047,0.27023651948915045,1.3748019933700562,0.007205803878605366,-0.14060856401920319,-0.02174687385559082,0.2643020749092102,-0.05195443332195282,-0.1074407836359397,1.3626121621681364,1.68023139516094,0.972766101360321,0.10723419487476349,-0.2054918259382248, 264, 210, 95, 234
1733261257907,6i,19.662007342978637,1.4s : 0.3s,-4.537082156966747,0.08828304515209968,1.6462178930136073,0.2893667699013472,1.4070535898208618,0.007515395991504192,-0.18685638904571533,-0.05098825693130493,0.2815016508102417,-0.04347580671310425,-0.10617950713022678,1.3611873349181203,1.665072503055779,0.9726039171218872,0.10598010569810867,-0.20690563321113586, 264, 210, 95, 234
1733261257917,6i,19.662007342978637,1.4s : 0.3s,-4.537082156966747,0.09197723322814813,1.7186518773244972,0.29532530648509514,1.3899006843566895,0.003772589610889554,-0.2369677573442459,-0.07201701402664185,0.2862728238105774,-0.008857578039169312,-0.10534034696024572,1.359751194619341,1.649717049299196,0.9723922610282898,0.10514563322067261,-0.208320751786232, 264, 210, 95, 234
1733261257927,6i,19.662007342978637,1.4s : 0.3s,-4.537082156966747,0.09590269343860176,1.76944133103204,0.30496383857424175,1.3798933029174805,0.006604062393307686,-0.29720520973205566,-0.08181720972061157,0.2932785749435425,0.01722104847431183,-0.10507754125943987,1.358327600248754,1.6345764537643899,0.9721217155456543,0.10488428175449371,-0.20971065759658813, 264, 210, 95, 234
1733261257937,6i,19.662007342978637,1.4s : 0.3s,-4.537082156966747,0.10013052196376977,1.8308600190704267,0.32091303180802777,1.4302294254302979,0.018287882208824158,-0.36719146370887756,-0.09511977434158325,0.3056989908218384,0.02203473448753357,-0.10536933817210932,1.35693208108489,1.6192327590890956,0.9717981219291687,0.1051744669675827,-0.2110605537891388, 264, 210, 95, 234
1733261257947,6i,19.662007342978637,1.4s : 0.3s,-4.537082156966747,0.1048504065686956,1.9050728062790878,0.3562867181578968,1.486510992050171,0.02558041550219059,-0.459725946187973,-0.12097126245498657,0.3346276581287384,0.01817992329597473,-0.10632267826249805,1.3555378854242148,1.6031889175088618,0.9714045524597168,0.1061224713921547,-0.21239371597766876, 264, 210, 95, 234
1733261257957,6i,19.662007342978637,1.4s : 0.3s,-4.537082156966747,0.1102693379475523,1.9833023639044174,0.39937728604530986,1.5260424613952637,0.03314858675003052,-0.5505716800689697,-0.15360039472579956,0.3685821294784546,0.007506608963012695,-0.10805320636931885,1.3541219799024704,1.5864958286769366,0.9709222316741943,0.1078430637717247,-0.2137291580438614, 264, 210, 95, 234
1733261257967,6i,19.662007342978637,1.4s : 0.3s,-4.537082156966747,0.11651263241917868,2.0539650706219734,0.44777841197264223,1.5416111946105957,0.03620633855462074,-0.6185139417648315,-0.16612887382507324,0.4157220721244812,0.009047776460647583,-0.1104730378287351,1.3526956601999423,1.5693816618458503,0.9703587889671326,0.11024846881628036,-0.21505668759346008, 264, 210, 95, 234
1733261257977,6i,19.662007342978637,1.4s : 0.3s,-4.537082156966747,0.12352135580398242,2.1225822899342237,0.48002803051313464,1.5547953844070435,0.04014861583709717,-0.7118976712226868,-0.16970646381378174,0.44813352823257446,0.028336673974990845,-0.11360363524620753,1.3511997414313492,1.5518871616676597,0.9696943759918213,0.11335943639278412,-0.21643178164958954, 264, 210, 95, 234
1733261257987,6i,19.662007342978637,1.4s : 0.3s,-4.537082156966747,0.13116969669585613,2.1998605731540812,0.49435379022508863,1.5929356813430786,0.05065270513296127,-0.7983410358428955,-0.18909531831741333,0.4544380009174347,0.04598623514175415,-0.11757960643748759,1.3496530634008042,1.5340397968698032,0.9689109921455383,0.11730886995792389,-0.21783073246479034, 264, 210, 95, 234
1733261257997,6i,19.662007342978637,1.4s : 0.3s,-4.537082156966747,0.13946146223515607,2.2662003287056978,0.524010624750536,1.5820335149765015,0.0668303370475769,-0.885192334651947,-0.21117889881134033,0.47554585337638855,0.06202216446399689,-0.12229298704775458,1.3481395087701702,1.5156616155674592,0.9680300951004028,0.12198838591575623,-0.2191724181175232, 264, 210, 95, 234
1733261258007,6i,19.662007342978637,1.4s : 0.3s,-4.537082156966747,0.14841731400677188,2.330634658325053,0.5538332211053426,1.5793489217758179,0.08776149898767471,-0.9778791069984436,-0.21949386596679688,0.5027439594268799,0.0761721134185791,-0.12791468668621236,1.3466646883175901,1.4973442721464736,0.9670219421386719,0.1275661438703537,-0.2204439640045166, 264, 210, 95, 234
1733261258017,6i,19.662007342978637,1.4s : 0.3s,-4.537082156966747,0.15786040341994037,2.376376798313989,0.5655761736035222,1.5293840169906616,0.09895849227905273,-1.059070110321045,-0.22051650285720825,0.5087770819664001,0.1113317608833313,-0.13437290891382847,1.3452822697836315,1.4789629242812834,0.9658930897712708,0.13396890461444855,-0.2215917408466339, 264, 210, 95, 234
1733261258027,6i,19.662007342978637,1.4s : 0.3s,-4.537082156966747,0.16775699939376587,2.429831740181243,0.5691619579535904,1.524330973625183,0.10976622253656387,-1.1559786796569824,-0.21709519624710083,0.5141226053237915,0.11177189648151398,-0.14179335408362256,1.3439091749949847,1.460734272380644,0.964592695236206,0.1413186937570572,-0.22268803417682648, 264, 210, 95, 234
1733261258037,6i,19.662007342978637,1.4s : 0.3s,-4.537082156966747,0.17812430041374497,2.503407971007097,0.57405280139841,1.5517473220825195,0.1441793143749237,-1.261275291442871,-0.22087973356246948,0.5208051204681396,0.0975232720375061,-0.15009164164554958,1.3425470224456568,1.4421319465114673,0.9631130695343018,0.14952874183654785,-0.2237287014722824, 264, 210, 95, 234
1733261258047,6i,19.662007342978637,1.4s : 0.3s,-4.537082156966747,0.18902798506920135,2.581132055828557,0.5890134208655639,1.5299876928329468,0.16861115396022797,-1.3882981538772583,-0.22834545373916626,0.5372596383094788,0.07840436697006226,-0.159506603421013,1.3413164156342954,1.423207318803766,0.9614234566688538,0.15883108973503113,-0.22458355128765106, 264, 210, 95, 234
1733261258057,6i,19.662007342978637,1.4s : 0.3s,-4.537082156966747,0.20051894862897815,2.692692928069762,0.6250166486291161,1.5907269716262817,0.18627750873565674,-1.5254467725753784,-0.24485290050506592,0.5668251514434814,0.0969645082950592,-0.1701860046780358,1.3400048060748453,1.4036951581303168,0.9594219326972961,0.16936567425727844,-0.22544345259666443, 264, 210, 95, 234
1733261258067,6i,19.662007342978637,1.4s : 0.3s,-4.537082156966747,0.2126608090703895,2.8138349354382637,0.653858275228751,1.6252257823944092,0.20148850977420807,-1.6380420923233032,-0.24076515436172485,0.600639283657074,0.09378291666507721,-0.18190216974565254,1.338518363127902,1.3834126739827488,0.9570889472961426,0.1809006929397583,-0.22639699280261993, 264, 210, 95, 234
1733261258077,6i,19.662007342978637,1.4s : 0.3s,-4.537082156966747,0.22532950597870582,2.949064087609833,0.6593518852507452,1.661117434501648,0.20623107254505157,-1.7763988971710205,-0.21484196186065674,0.616563618183136,0.09185393154621124,-0.1947231910863951,1.336779316954876,1.362459320210062,0.9543591141700745,0.19349496066570282,-0.22750452160835266, 264, 210, 95, 234
1733261258087,6i,19.662007342978637,1.4s : 0.3s,-4.537082156966747,0.2384459062082926,3.089014288675421,0.6636119331601841,1.6799834966659546,0.21717607975006104,-1.9101256132125854,-0.20644736289978027,0.625525712966919,0.08048519492149353,-0.20878199971222886,1.3346661868083638,1.3408201081015225,0.9511371850967407,0.20726850628852844,-0.22886162996292114, 264, 210, 95, 234
1733261258097,6i,19.662007342978637,1.4s : 0.3s,-4.537082156966747,0.2519569522631435,3.2176024209838645,0.67271297801057,1.663058876991272,0.22643961012363434,-2.024223804473877,-0.202315092086792,0.6367708444595337,0.0783214271068573,-0.22399969631506594,1.3322946831188853,1.3188954119455034,0.947417140007019,0.2221311628818512,-0.2303447723388672, 264, 210, 95, 234
1733261258107,6i,19.662007342978637,1.4s : 0.3s,-4.537082156966747,0.26569558881801214,3.341516680988915,0.6791536665363621,1.663970947265625,0.22738699615001678,-2.1302409172058105,-0.18153148889541626,0.6446807384490967,0.11261779069900513,-0.24025337142812764,1.329585114562421,1.2966772546828118,0.9431586861610413,0.2379487305879593,-0.23201783001422882, 264, 210, 95, 234
1733261258117,6i,19.662007342978637,1.4s : 0.3s,-4.537082156966747,0.27950738314951873,3.4578863380975497,0.6621133363492271,1.64447021484375,0.2155604213476181,-2.239121913909912,-0.14097505807876587,0.6362556219100952,0.11704224348068237,-0.25747964800185674,1.3263764656601738,1.2740902478825564,0.9382925629615784,0.25464409589767456,-0.23401612043380737, 264, 210, 95, 234
1733261258127,6i,19.662007342978637,1.4s : 0.3s,-4.537082156966747,0.2932225484778731,3.5855871973426914,0.6248907555296423,1.6765022277832031,0.23108142614364624,-2.3539350032806396,-0.10093289613723755,0.6072530746459961,0.10744631290435791,-0.2757605087984498,1.3226728023718648,1.2511197810403114,0.9327505230903625,0.2722787857055664,-0.2363068014383316, 264, 210, 95, 234
1733261258137,6i,19.662007342978637,1.4s : 0.3s,-4.537082156966747,0.3066210436506763,3.7248547827857084,0.6050053357150106,1.7313369512557983,0.22934743762016296,-2.464766263961792,-0.08807432651519775,0.5884791612625122,0.10939216613769531,-0.2948964505163681,1.3183897137273561,1.2272097798448518,0.926514208316803,0.29064077138900757,-0.23895452916622162, 264, 210, 95, 234
1733261258147,6i,19.662007342978637,1.4s : 0.3s,-4.537082156966747,0.31996545403834364,3.8765043443106286,0.6079861037749282,1.7844593524932861,0.20589807629585266,-2.5932228565216064,-0.07650929689407349,0.5954233407974243,0.09625214338302612,-0.3149711408350618,1.3132070899408022,1.2027022282987054,0.9194353222846985,0.3097890317440033,-0.24221771955490112, 264, 210, 95, 234
1733261258157,6i,19.662007342978637,1.4s : 0.3s,-4.537082156966747,0.33328285006408,4.0139996461161624,0.607906364832988,1.7748695611953735,0.17344851791858673,-2.697050094604492,-0.03885537385940552,0.6012229323387146,0.0810641348361969,-0.335970262793627,1.3069887697484732,1.1769409966605513,0.9114293456077576,0.3296853303909302,-0.2461795210838318, 264, 210, 95, 234
1733261258167,6i,19.662007342978637,1.4s : 0.3s,-4.537082156966747,0.34618135015870577,4.130459771072146,0.5803449286168831,1.7094290256500244,0.14816807210445404,-2.8024742603302,0.008667409420013428,0.5757521390914917,0.07235044240951538,-0.3579117558734197,1.2998702561052955,1.1509308303212815,0.9024654626846313,0.3503190875053406,-0.2506646513938904, 264, 210, 95, 234
1733261258177,6i,19.662007342978637,1.4s : 0.3s,-4.537082156966747,0.3584648498168009,4.2280836873723855,0.5371827908424793,1.6044533252716064,0.1280508190393448,-2.9153711795806885,0.036348044872283936,0.5311504006385803,0.07157808542251587,-0.38098418682479174,1.29205680541846,1.1251745706774776,0.8924697041511536,0.37183427810668945,-0.25541600584983826, 264, 210, 95, 234
1733261258187,6i,19.662007342978637,1.4s : 0.3s,-4.537082156966747,0.37020107255412504,4.324480169773839,0.5250004437926462,1.5387358665466309,0.10096998512744904,-3.031418800354004,0.055123329162597656,0.5163185000419617,0.07747316360473633,-0.4052181356251814,1.2835197210553215,1.099678314575202,0.8813543319702148,0.3942192494869232,-0.26039549708366394, 264, 210, 95, 234
1733261258197,6i,19.662007342978637,1.4s : 0.3s,-4.537082156966747,0.3819015622244439,4.443806180900509,0.565818828145122,1.5946085453033447,0.06187397614121437,-3.1426379680633545,0.0963294506072998,0.5517994165420532,0.07993113994598389,-0.4303731943653873,1.2737256738939247,1.0735833200132983,0.8690025806427002,0.4172099828720093,-0.2660273015499115, 264, 210, 95, 234
1733261258207,6i,19.662007342978637,1.4s : 0.3s,-4.537082156966747,0.39354887844858827,4.57106905604848,0.6160008142664946,1.64591383934021,0.024943921715021133,-3.235882043838501,0.1577131748199463,0.5912346839904785,0.0708879828453064,-0.4561085963672884,1.2622569528057237,1.0458759189665068,0.8553788661956787,0.44045785069465637,-0.2726244330406189, 264, 210, 95, 234
1733261258217,6i,19.662007342978637,1.4s : 0.3s,-4.537082156966747,0.4052516991799675,4.690992260456037,0.6509410865945087,1.638677716255188,-0.025057993829250336,-3.3254446983337402,0.21308040618896484,0.6133390665054321,0.0462193489074707,-0.48258306274925555,1.2490374647092604,1.0168383929759282,0.8403406143188477,0.46406880021095276,-0.2801212966442108, 264, 210, 95, 234
1733261258227,6i,19.662007342978637,1.4s : 0.3s,-4.537082156966747,0.41673837376649786,4.770930262013449,0.6272502838917654,1.4914298057556152,-0.08285058289766312,-3.387470245361328,0.26131290197372437,0.5680485963821411,0.049792349338531494,-0.5095662302478996,1.234513650296987,0.9875614507212339,0.8240600228309631,0.48779863119125366,-0.288058340549469, 264, 210, 95, 234
1733261258237,6i,19.662007342978637,1.4s : 0.3s,-4.537082156966747,0.4280533849534234,4.842412446780033,0.5891233942493368,1.395285725593567,-0.14499253034591675,-3.4704854488372803,0.31028807163238525,0.4951624274253845,0.07484555244445801,-0.5371137786063102,1.2188814930127518,0.9586300927084044,0.8065332174301147,0.5116583108901978,-0.2961589992046356, 264, 210, 95, 234
1733261258247,6i,19.662007342978637,1.4s : 0.3s,-4.537082156966747,0.4392001601227747,4.911005706962591,0.6053381284237034,1.3123807907104492,-0.172560453414917,-3.5506999492645264,0.34583377838134766,0.49013590812683105,0.08124062418937683,-0.5652247788216634,1.2018760458790791,0.9290716900653178,0.7876500487327576,0.5356056690216064,-0.30452248454093933, 264, 210, 95, 234
1733261258257,6i,19.662007342978637,1.4s : 0.3s,-4.537082156966747,0.44989819975122725,4.99390352468204,0.6451552544712693,1.2851332426071167,-0.22868524491786957,-3.6476187705993652,0.377710223197937,0.5214924216270447,0.04007422924041748,-0.5940048797164829,1.1832985358260735,0.8988540569235012,0.7672634720802307,0.5596843957901001,-0.3131454885005951, 264, 210, 95, 234
1733261258267,6i,19.662007342978637,1.4s : 0.3s,-4.537082156966747,0.4602198013501923,5.0785431246818,0.6425800442621354,1.3234237432479858,-0.26328524947166443,-3.6968705654144287,0.4000207781791687,0.5027996301651001,0.009220749139785767,-0.6228489588630294,1.1625069420304754,0.8668170104607937,0.7454564571380615,0.5833514928817749,-0.32248368859291077, 264, 210, 95, 234
1733261258277,6i,19.662007342978637,1.4s : 0.3s,-4.537082156966747,0.47027886603323404,5.171048536896969,0.6749350466090951,1.3602830171585083,-0.3128349483013153,-3.7660470008850098,0.4536181688308716,0.49946022033691406,-0.017531752586364746,-0.6514744594190837,1.139288622405559,0.8326393741598124,0.7223004102706909,0.6063595414161682,-0.33258113265037537, 264, 210, 95, 234
1733261258287,6i,19.662007342978637,1.4s : 0.3s,-4.537082156966747,0.4804999873971971,5.259351621826856,0.7421952437325324,1.3357889652252197,-0.3909042477607727,-3.830869197845459,0.5028702020645142,0.5455834865570068,-0.017720013856887817,-0.680001143885131,1.1133664799141874,0.7963595373635957,0.6976302266120911,0.6287938952445984,-0.3434097468852997, 264, 210, 95, 234
1733261258297,6i,19.662007342978637,1.4s : 0.3s,-4.537082156966747,0.4908329981962477,5.330814523930687,0.7658860668344899,1.2838122844696045,-0.46664294600486755,-3.8668019771575928,0.5473381876945496,0.5357192158699036,-0.002701371908187866,-0.7083818815986608,1.0848147156033014,0.7584384701638915,0.6714880466461182,0.6506057977676392,-0.35470518469810486, 264, 210, 95, 234
1733261258307,6i,19.662007342978637,1.4s : 0.3s,-4.537082156966747,0.50111469560814,5.404682139926268,0.788771556484301,1.2475192546844482,-0.5343730449676514,-3.932964563369751,0.6055451035499573,0.5054200887680054,0.005121499300003052,-0.7365270512641517,1.053490878726481,0.7186778973644488,0.643875002861023,0.6717191934585571,-0.36635807156562805, 264, 210, 95, 234
1733261258317,6i,19.662007342978637,1.4s : 0.3s,-4.537082156966747,0.5114653390955074,5.468709028132106,0.8038662713898395,1.232967495918274,-0.5679898858070374,-3.9635872840881348,0.6273660063743591,0.5021647810935974,-0.02105727791786194,-0.7642181803609258,1.0191934682984365,0.6764681292530905,0.6148518919944763,0.6919727921485901,-0.3783262372016907, 264, 210, 95, 234
1733261258327,6i,19.662007342978637,1.4s : 0.3s,-4.537082156966747,0.521949261525802,5.54320904138543,0.8093205484753848,1.3292618989944458,-0.6122910380363464,-4.0022664070129395,0.6390504240989685,0.4955865740776062,-0.03175300359725952,-0.7909006720953381,0.9815797558915287,0.6312632160633402,0.5846281051635742,0.7109869122505188,-0.3907780647277832, 264, 210, 95, 234
1733261258337,6i,19.662007342978637,1.4s : 0.3s,-4.537082156966747,0.5327992012217934,5.623920177188331,0.8460296551576829,1.4436020851135254,-0.6583863496780396,-4.031805992126465,0.6656963229179382,0.5168362855911255,-0.07412716746330261,-0.8158544415134044,0.9395416507485795,0.5816863998986869,0.5531908869743347,0.7283113598823547,-0.4044036567211151, 264, 210, 95, 234
1733261258347,6i,19.662007342978637,1.4s : 0.3s,-4.537082156966747,0.544046617375863,5.685830419757917,0.8741885508745904,1.3640389442443848,-0.7268826365470886,-4.062065124511719,0.6933072209358215,0.5170274972915649,-0.12733140587806702,-0.8393407814792172,0.8935316892431807,0.5286158155795381,0.5205293893814087,0.7442029714584351,-0.4185822606086731, 264, 210, 95, 234
1733261258357,6i,19.662007342978637,1.4s : 0.3s,-4.537082156966747,0.5552722841135548,5.721480415504415,0.8661565951710771,1.2146869897842407,-0.8138161897659302,-4.076070308685303,0.7316726446151733,0.45285558700561523,-0.09901618957519531,-0.8621469830815288,0.8447554587456574,0.4739322262533993,0.4866805970668793,0.7592415809631348,-0.4320812225341797, 264, 210, 95, 234
1733261258367,6i,19.662007342978637,1.4s : 0.3s,-4.537082156966747,0.5664306681074897,5.757227233071429,0.8572688596733298,1.1768101453781128,-0.8901370763778687,-4.099923610687256,0.7551864385604858,0.40351611375808716,-0.04216736555099487,-0.8838894291522952,0.7925030366849477,0.41692817726650616,0.4515853524208069,0.7732111811637878,-0.4452136158943176, 264, 210, 95, 234
1733261258377,6i,19.662007342978637,1.4s : 0.3s,-4.537082156966747,0.5777293037379635,5.795560714024104,0.8904329982301621,1.202130913734436,-0.9406724572181702,-4.1143879890441895,0.7760826349258423,0.4320458769798279,-0.062474220991134644,-0.9037727366361021,0.7362126778319926,0.35649525078872074,0.41541510820388794,0.7856665253639221,-0.45843029022216797, 264, 210, 95, 234
1733261258387,6i,19.662007342978637,1.4s : 0.3s,-4.537082156966747,0.5895025792996674,5.836086660908602,0.9247072447502367,1.2637676000595093,-0.9946223497390747,-4.118579387664795,0.7953678369522095,0.4649922251701355,-0.07909312844276428,-0.9211271771145649,0.675684949421001,0.29220357178814665,0.37833812832832336,0.7962839603424072,-0.4720085561275482, 264, 210, 95, 234
1733261258397,6i,19.662007342978637,1.4s : 0.3s,-4.537082156966747,0.6017044277685302,5.877326837356508,0.9375708858760877,1.2754384279251099,-1.0638517141342163,-4.132336139678955,0.8128504753112793,0.4557153582572937,-0.10313478112220764,-0.9356949043142853,0.6110685579989426,0.22438109801146575,0.3403782546520233,0.805011510848999,-0.48590022325515747, 264, 210, 95, 234
1733261258407,6i,19.662007342978637,1.4s : 0.3s,-4.537082156966747,0.6143641465831138,5.92098350597043,0.9484992173690715,1.2900513410568237,-1.1060365438461304,-4.155669212341309,0.8187742233276367,0.4562751054763794,-0.14516392350196838,-0.9475529424265682,0.5428470421065996,0.15345004052543726,0.3015107810497284,0.8119896650314331,-0.49976402521133423, 264, 210, 95, 234
1733261258417,6i,19.662007342978637,1.4s : 0.3s,-4.537082156966747,0.6274639966065857,5.953284513569989,0.934502738221051,1.308555006980896,-1.1479309797286987,-4.142971515655518,0.7977330684661865,0.4629063606262207,-0.15044939517974854,-0.9563758986627519,0.47173694987128423,0.07998132113442115,0.261974573135376,0.8171076774597168,-0.5135216116905212, 264, 210, 95, 234
1733261258427,6i,19.662007342978637,1.4s : 0.3s,-4.537082156966747,0.6409342564496066,5.980484638422929,0.9249852458875157,1.2692852020263672,-1.2278708219528198,-4.145524978637695,0.793607234954834,0.4495408535003662,-0.15394246578216553,-0.9621143687607681,0.39851225175867044,0.005066385279470969,0.22188042104244232,0.8204023838043213,-0.526980996131897, 264, 210, 95, 234
1733261258437,6i,19.662007342978637,1.4s : 0.3s,-4.537082156966747,0.6547041615872877,6.01595005605836,0.9294222438910079,1.2719842195510864,-1.3036795854568481,-4.166342735290527,0.8124741911888123,0.42110180854797363,-0.16243356466293335,-0.9650502161291186,0.32343972109673025,-0.07089188387601593,0.18096452951431274,0.8220775127410889,-0.5398522019386292, 264, 210, 95, 234
1733261258447,6i,19.662007342978637,1.4s : 0.3s,-4.537082156966747,0.6687844963781016,6.051978885061231,0.9382412453794213,1.2581223249435425,-1.3482015132904053,-4.186119079589844,0.814662516117096,0.4337266683578491,-0.16882771253585815,-0.9645844544668154,0.24718965447104557,-0.14750809002665316,0.13940848410129547,0.8218122124671936,-0.5524399280548096, 264, 210, 95, 234
1733261258457,6i,19.662007342978637,1.4s : 0.3s,-4.537082156966747,0.683465598106615,6.109259625106427,0.9715484823477665,1.2618608474731445,-1.4152666330337524,-4.249912261962891,0.8223186731338501,0.4808260202407837,-0.19106227159500122,-0.9609862612657303,0.1702583954480287,-0.22434113340368872,0.09703855961561203,0.819756805896759,-0.5644308924674988, 264, 210, 95, 234
1733261258467,6i,19.662007342978637,1.4s : 0.3s,-4.537082156966747,0.6992009713711259,6.174127305245775,1.015003901465019,1.3165796995162964,-1.4869599342346191,-4.276566505432129,0.8233709335327148,0.5660659670829773,-0.17850083112716675,-0.9537953709977499,0.09327057586998345,-0.30073676431474705,0.053887367248535156,0.8156173229217529,-0.5760768055915833, 264, 210, 95, 234
1733261258477,6i,19.662007342978637,1.4s : 0.3s,-4.537082156966747,0.7161799945317746,6.241042280559478,1.0706352223200697,1.3377225399017334,-1.5816184282302856,-4.2961273193359375,0.8519481420516968,0.6252250671386719,-0.1718655228614807,-0.942906523182259,0.017267141231568917,-0.375366228053375,0.010142876766622066,0.8092688918113708,-0.5873507857322693, 264, 210, 95, 234
1733261258487,6i,19.662007342978637,1.4s : 0.3s,-4.537082156966747,0.7341536604415422,6.307377437534722,1.0978094585026774,1.3779115676879883,-1.6466729640960693,-4.312784194946289,0.8870905637741089,0.6211444735527039,-0.1800985336303711,-0.9284373638885514,-0.05694039237937431,-0.44751140365739955,-0.03409375622868538,0.8006847500801086,-0.5981149673461914, 264, 210, 95, 234
1733261258497,6i,19.662007342978637,1.4s : 0.3s,-4.537082156966747,0.7528447422252731,6.3832096973294785,1.0988955887607577,1.3841809034347534,-1.7278605699539185,-4.3607611656188965,0.8924195766448975,0.6087011098861694,-0.20159804821014404,-0.9106528080049239,-0.12874015164705335,-0.5165471231594913,-0.07872945070266724,0.7899042367935181,-0.608155369758606, 264, 210, 95, 234
1733261258507,6i,19.662007342978637,1.4s : 0.3s,-4.537082156966747,0.7723371899096352,6.470674002618933,1.1251177472461797,1.4325603246688843,-1.791408896446228,-4.415153980255127,0.8961055278778076,0.6410778164863586,-0.2278246283531189,-0.8896400810105215,-0.19811122534550954,-0.5826093558270771,-0.1239345595240593,0.7768451571464539,-0.6173749566078186, 264, 210, 95, 234
1733261258517,6i,19.662007342978637,1.4s : 0.3s,-4.537082156966747,0.7927503409389943,6.5754977727148285,1.1587222770254506,1.511690616607666,-1.8707019090652466,-4.478940010070801,0.9065426588058472,0.6844029426574707,-0.22893303632736206,-0.86506654175273,-0.26432907513465725,-0.6449705311790983,-0.16945159435272217,0.7611384391784668,-0.6260626912117004, 264, 210, 95, 234
1733261258527,6i,19.662007342978637,1.4s : 0.3s,-4.537082156966747,0.8142233498912745,6.681153920805549,1.2067868958538428,1.8185067176818848,-1.7760004997253418,-4.5015788078308105,0.9320255517959595,0.7318620681762695,-0.228124737739563,-0.8365035066214818,-0.3266911510964056,-0.7031122881734628,-0.21503037214279175,0.742304801940918,-0.6346223950386047, 264, 210, 95, 234
1733261258537,6i,19.662007342978637,1.4s : 0.3s,-4.537082156966747,0.8371115630145968,6.859945584846576,1.2824944818279256,1.9709115028381348,-2.012065887451172,-4.642904758453369,0.952652633190155,0.8221171498298645,-0.24772655963897705,-0.8029629486153932,-0.384517451739835,-0.7561237175038268,-0.2605445384979248,0.7194172739982605,-0.6438598036766052, 264, 210, 95, 234
1733261258547,6i,19.662007342978637,1.4s : 0.3s,-4.537082156966747,0.8622326683274851,7.0130973543417925,1.4517941734229005,1.9077279567718506,-2.158621311187744,-4.680877685546875,0.979135274887085,0.9891666173934937,-0.41297680139541626,-0.7660977567910999,-0.44016176120109557,-0.8055601607473347,-0.30704671144485474,0.6933284997940063,-0.6519340872764587, 264, 210, 95, 234
1733261258557,6i,19.662007342978637,1.4s : 0.3s,-4.537082156966747,0.8877070070978487,7.116317483205056,1.3000385689591734,1.6304086446762085,-2.301851749420166,-4.709354400634766,0.9926310777664185,0.790977418422699,-0.28131574392318726,-0.7292740211283854,-0.4940579240264077,-0.8518000955998363,-0.35359302163124084,0.666328489780426,-0.6564894318580627, 264, 210, 95, 234
1733261258567,6i,19.662007342978637,1.4s : 0.3s,-4.537082156966747,0.9129603087731917,7.182129549581132,1.2449414246166979,1.5503519773483276,-2.430776834487915,-4.655470848083496,1.094016671180725,0.588042140007019,-0.08493006229400635,-0.6922569098913613,-0.5460024258659536,-0.895155392849051,-0.3997417986392975,0.638276219367981,-0.6578829884529114, 264, 210, 95, 234
1733261258577,6i,19.662007342978637,1.4s : 0.3s,-4.537082156966747,0.9382003526820462,7.215333475965952,1.259509400490443,1.501077651977539,-2.466095209121704,-4.612132549285889,1.0814824104309082,0.6303711533546448,-0.13925492763519287,-0.6543870768220713,-0.5951368471711658,-0.9345027251051503,-0.4448094367980957,0.6086730360984802,-0.6570097208023071, 264, 210, 95, 234
1733261258587,6i,19.662007342978637,1.4s : 0.3s,-4.537082156966747,0.9636783239384349,7.22498556760103,1.3586017787718687,1.5707980394363403,-2.4599034786224365,-4.554777145385742,1.1496095657348633,0.673243522644043,-0.2663452625274658,-0.6152944193883396,-0.6407165094750508,-0.9698664231373276,-0.48814111948013306,0.5771989822387695,-0.6546446681022644, 264, 210, 95, 234
1733261258597,6i,19.662007342978637,1.4s : 0.3s,-4.537082156966747,0.9892294097685761,7.222823176631593,1.294301815884501,1.5166146755218506,-2.5026915073394775,-4.5048065185546875,1.106072187423706,0.6371384859085083,-0.21418696641921997,-0.5752861705335351,-0.6833029381251564,-1.0015366491351902,-0.5297324061393738,0.5440748929977417,-0.6506659388542175, 264, 210, 95, 234
1733261258607,6i,19.662007342978637,1.4s : 0.3s,-4.537082156966747,1.014037447499148,7.200218891316197,1.2466741389017726,1.4842740297317505,-2.522404193878174,-4.454422473907471,1.1085091829299927,0.5263462662696838,-0.21991682052612305,-0.534830264937287,-0.7235288935537161,-1.0302690410906963,-0.5695840716362,0.5096949934959412,-0.6448140144348145, 264, 210, 95, 234
1733261258617,6i,19.662007342978637,1.4s : 0.3s,-4.537082156966747,1.038733449828071,7.1677475959123536,1.2542598349053926,1.4431030750274658,-2.5409843921661377,-4.406700611114502,1.1542956829071045,0.4622311294078827,-0.16465598344802856,-0.4940733153878183,-0.7617044676634722,-1.0563620175293127,-0.6076191663742065,0.4742159843444824,-0.6371170878410339, 264, 210, 95, 234
1733261258627,6i,19.662007342978637,1.4s : 0.3s,-4.537082156966747,1.063377722670413,7.112559706411372,1.268237104223887,1.4478477239608765,-2.5735409259796143,-4.288907527923584,1.1696114540100098,0.47416698932647705,-0.124900221824646,-0.4532237096733064,-0.7979413117875652,-1.0796722884430205,-0.6436411142349243,0.43786606192588806,-0.6276937127113342, 264, 210, 95, 234
1733261258637,6i,19.662007342978637,1.4s : 0.3s,-4.537082156966747,1.0875377754516975,7.048713441636707,1.3096537177656757,1.4078880548477173,-2.59332013130188,-4.2136759757995605,1.2330379486083984,0.4359460473060608,-0.06900233030319214,-0.4124899723724155,-0.8324605820269726,-1.1003363745363262,-0.6775569915771484,0.4008916914463043,-0.6166055202484131, 264, 210, 95, 234
1733261258647,6i,19.662007342978637,1.4s : 0.3s,-4.537082156966747,1.1110537087408459,6.958074032092106,1.310660056094032,1.3625959157943726,-2.6009886264801025,-4.084451198577881,1.264965295791626,0.34263622760772705,-0.017117202281951904,-0.3721802924484067,-0.8654679008037724,-1.1187703588857851,-0.7092707753181458,0.36364731192588806,-0.6039002537727356, 264, 210, 95, 234
1733261258657,6i,19.662007342978637,1.4s : 0.3s,-4.537082156966747,1.1344451752555382,6.839080335433804,1.2818415787094515,1.3006752729415894,-2.604233741760254,-3.933020830154419,1.2509129047393799,0.27929654717445374,0.018115639686584473,-0.33280033334012254,-0.8971602017753334,-1.1350318007621998,-0.7386753559112549,0.32669100165367126,-0.589603066444397, 264, 210, 95, 234
1733261258667,6i,19.662007342978637,1.4s : 0.3s,-4.537082156966747,1.1569670703089707,6.677024691346334,1.3116967927002319,1.2024755477905273,-2.5725576877593994,-3.7428202629089355,1.2926279306411743,0.21515384316444397,0.058054566383361816,-0.294708952967541,-0.9274877129417882,-1.1492924722512792,-0.7656199336051941,0.29046136140823364,-0.573984682559967, 264, 210, 95, 234
1733261258677,6i,19.662007342978637,1.4s : 0.3s,-4.537082156966747,1.1785298628591068,6.4954516739909876,1.339375857406971,1.2182248830795288,-2.507103443145752,-3.567636013031006,1.3249354362487793,0.1326514184474945,0.1444900631904602,-0.25798773898420135,-0.9560260776575422,-1.1614409517807647,-0.7898707389831543,0.2551354169845581,-0.5576828122138977, 264, 210, 95, 234
1733261258687,6i,19.662007342978637,1.4s : 0.3s,-4.537082156966747,1.19902485115826,6.278078539767612,1.3338099999305413,1.2144927978515625,-2.4356486797332764,-3.334277868270874,1.3080030679702759,0.06118670105934143,0.25383710861206055,-0.22272408424294524,-0.9831025445888778,-1.1712380259235295,-0.8116651773452759,0.22088724374771118,-0.540748119354248, 264, 210, 95, 234
1733261258697,6i,19.662007342978637,1.4s : 0.3s,-4.537082156966747,1.2185196443398625,6.012603056779802,1.3331444500823155,1.2537773847579956,-2.290693521499634,-3.0616252422332764,1.2985799312591553,-0.00011646747589111328,0.301602840423584,-0.18923203539729838,-1.0082923372581893,-1.1784944076555066,-0.8308218717575073,0.18810468912124634,-0.5237860679626465, 264, 210, 95, 234
1733261258707,6i,19.662007342978637,1.4s : 0.3s,-4.537082156966747,1.2366149062509175,5.704466611945563,1.3890620773006406,1.1307728290557861,-2.198622941970825,-2.7798025608062744,1.3073694705963135,-0.14938989281654358,0.44492828845977783,-0.15801167704385216,-1.0317658899603788,-1.1837559535614641,-0.847515344619751,0.15735496580600739,-0.5069094896316528, 264, 210, 95, 234
1733261258717,6i,19.662007342978637,1.4s : 0.3s,-4.537082156966747,1.2526254567266528,5.349029448192664,1.4396630565643938,0.9678432941436768,-2.0628373622894287,-2.4871795177459717,1.2683104276657104,-0.34951820969581604,0.5846840143203735,-0.1299895378682408,-1.0536658671873553,-1.188020749922353,-0.8619078397750854,0.12962377071380615,-0.49021685123443604, 264, 210, 95, 234
1733261258727,6i,19.662007342978637,1.4s : 0.3s,-4.537082156966747,1.2661783264797069,4.953742520303685,1.5158619156146544,0.8238250017166138,-1.8979036808013916,-2.1859188079833984,1.223665714263916,-0.5371520519256592,0.7155048847198486,-0.10518643024837905,-1.0739347051285013,-1.191496878290121,-0.8742241859436035,0.1049925684928894,-0.47403445839881897, 264, 210, 95, 234
1733261258737,6i,19.662007342978637,1.4s : 0.3s,-4.537082156966747,1.2771746211929005,4.514480143229215,1.620641577257684,0.7764004468917847,-1.6428288221359253,-1.865007758140564,1.196727991104126,-0.7235804200172424,0.8189948797225952,-0.0836020821407802,-1.0919149496425762,-1.1940442830559408,-0.8844112157821655,0.08350472897291183,-0.45917731523513794, 264, 210, 95, 234
1733261258747,6i,19.662007342978637,1.4s : 0.3s,-4.537082156966747,1.2858867198725794,4.038483016608648,1.7130626643683449,0.7914425730705261,-1.3789896965026855,-1.506166934967041,1.1604118347167969,-0.8459210395812988,0.9340479969978333,-0.06502201151442072,-1.1070954704242615,-1.1947434345198495,-0.8925133347511292,0.06497620046138763,-0.44631609320640564, 264, 210, 95, 234
1733261258757,6i,19.662007342978637,1.4s : 0.3s,-4.537082156966747,1.2925517439153063,3.532047135227467,1.7704603407740387,0.8635713458061218,-1.0600860118865967,-1.1410377025604248,1.1077990531921387,-0.9591765403747559,0.9936254024505615,-0.04951351060559374,-1.1192303340691734,-1.1932210847542082,-0.8986622095108032,0.04949328303337097,-0.43584033846855164, 264, 210, 95, 234
1733261258767,6i,19.662007342978637,1.4s : 0.3s,-4.537082156966747,1.2976750836260083,3.005792266548898,1.8296986837843887,0.8870612382888794,-0.7274813055992126,-0.7875617742538452,1.0928068161010742,-1.0473449230194092,1.0279295444488525,-0.03700784981361461,-1.1280076030088169,-1.1894456212985294,-0.9029417037963867,0.036999404430389404,-0.42816755175590515, 264, 210, 95, 234
1733261258777,6i,19.662007342978637,1.4s : 0.3s,-4.537082156966747,1.301594312673446,2.458986023076864,1.9255760826399786,0.8568644523620605,-0.37168988585472107,-0.4182705581188202,1.0671937465667725,-1.1334550380706787,1.1332345008850098,-0.027852557011796363,-1.1333405305831443,-1.184116688512932,-0.9054811000823975,0.027848955243825912,-0.4234718978404999, 264, 210, 95, 234
1733261258787,6i,19.662007342978637,1.4s : 0.3s,-4.537082156966747,1.3046906781134369,1.8994281272640623,2.024160177064244,0.804642915725708,0.009397762827575207,-0.00971219688653946,1.0463111400604248,-1.2067759037017822,1.2434425354003906,-0.02243625686911157,-1.1349774471691465,-1.1775095169326544,-0.9062966108322144,0.022434374317526817,-0.4220466613769531, 264, 210, 95, 234
1733261258797,6i,19.662007342978637,1.4s : 0.3s,-4.537082156966747,1.3076812222166663,1.3800391436852668,2.076874631896567,0.7550894618034363,0.4309481978416443,0.41374266147613525,1.054070234298706,-1.224883794784546,1.304608702659607,-0.021180463341223518,-1.1325209008328874,-1.1695910648442827,-0.9052817821502686,0.021178878843784332,-0.42428335547447205, 264, 210, 95, 234
1733261258807,6i,19.662007342978637,1.4s : 0.3s,-4.537082156966747,1.3109670354380099,1.064338091089085,2.159788797399583,0.6984657645225525,0.8767076134681702,0.8698043823242188,1.0598665475845337,-1.2736185789108276,1.3853758573532104,-0.02388021992962767,-1.1257533131365831,-1.1602882786185766,-0.9023348093032837,0.023877950385212898,-0.4303739666938782, 264, 210, 95, 234
1733261258817,6i,19.662007342978637,1.4s : 0.3s,-4.537082156966747,1.3147420016386242,1.243096026863234,2.2740770689196563,0.686926007270813,1.3241524696350098,1.3493086099624634,1.060429334640503,-1.3532617092132568,1.488488793373108,-0.03087891562866194,-1.1144409106564286,-1.1492344326753523,-0.8972365856170654,0.030874008312821388,-0.44046932458877563, 264, 210, 95, 234
1733261258827,6i,19.662007342978637,1.4s : 0.3s,-4.537082156966747,1.3196629545565588,1.817943400293608,2.340602135339211,0.6860307455062866,1.7766304016113281,1.8308193683624268,1.1292294263839722,-1.4036287069320679,1.4943512678146362,-0.042007700871875366,-1.0984716701172856,-1.1359363122787636,-0.8897274732589722,0.041995346546173096,-0.45455628633499146, 264, 210, 95, 234
1733261258837,6i,19.662007342978637,1.4s : 0.3s,-4.537082156966747,1.326639764842559,2.5437617832221098,2.4205275498660317,0.6684512495994568,2.2190167903900146,2.3023788928985596,1.2622880935668945,-1.4365342855453491,1.4838974475860596,-0.05715558554909918,-1.077725573848868,-1.120308185731515,-0.8794451355934143,0.05712447315454483,-0.47256016731262207, 264, 210, 95, 234
1733261258847,6i,19.662007342978637,1.4s : 0.3s,-4.537082156966747,1.3363767175630485,3.3374533419420116,2.5373598814343894,0.682371199131012,2.6394591331481934,2.8081066608428955,1.4047911167144775,-1.4834675788879395,1.5046863555908203,-0.07623849924507163,-1.0522209938199116,-1.1020350110675219,-0.8660033345222473,0.07616467028856277,-0.4942035675048828, 264, 210, 95, 234
1733261258857,6i,19.662007342978637,1.4s : 0.3s,-4.537082156966747,1.3497154558727855,4.178558714320152,2.673450043614222,0.6957644820213318,3.0819389820098877,3.3431713581085205,1.5972018241882324,-1.5241459608078003,1.5077335834503174,-0.09916798524428531,-1.021726085706062,-1.0803426955023314,-0.8488191366195679,0.09900552034378052,-0.5193302035331726, 264, 210, 95, 234
1733261258867,6i,19.662007342978637,1.4s : 0.3s,-4.537082156966747,1.3676039676411211,5.086474785509543,2.8643380083079966,0.7300428748130798,3.580418109893799,3.9511325359344482,1.853254795074463,-1.581965446472168,1.5057437419891357,-0.12609199263564835,-0.9855605097658753,-1.054596639750964,-0.8269639611244202,0.1257581263780594,-0.5480104684829712, 264, 210, 95, 234
1733261258877,6i,19.662007342978637,1.4s : 0.3s,-4.537082156966747,1.3907842195028521,6.068053251425517,3.1153648725472247,0.795116662979126,4.112035274505615,4.619027614593506,2.115726947784424,-1.673099398612976,1.5588252544403076,-0.15683474649117557,-0.9427477048965018,-1.0235875281756572,-0.7992443442344666,0.1561925858259201,-0.5803554654121399, 264, 210, 95, 234
1733261258887,6i,19.662007342978637,1.4s : 0.3s,-4.537082156966747,1.4200753644336068,7.137597361563638,3.3955937141274912,0.7587446570396423,4.71268892288208,5.370578289031982,2.4134860038757324,-1.767874002456665,1.6061642169952393,-0.19174576000407956,-0.8922102262014933,-0.986454495024819,-0.7641941905021667,0.19057294726371765,-0.6161893010139465, 264, 210, 95, 234
1733261258897,6i,19.662007342978637,1.4s : 0.3s,-4.537082156966747,1.4563435247817873,8.28602175482918,3.758994596878453,0.5757660865783691,5.3366875648498535,6.176592826843262,2.7660343647003174,-1.9242233037948608,1.6662709712982178,-0.23114667827502897,-0.8328138315045778,-0.9428447044674184,-0.7201513051986694,0.22909384965896606,-0.6549032330513, 264, 210, 95, 234
1733261258907,6i,19.662007342978637,1.4s : 0.3s,-4.537082156966747,1.5008970264255315,9.528282137207293,4.217793577507538,0.2794862985610962,6.0107221603393555,7.063477039337158,3.1923279762268066,-2.0878970623016357,1.7998640537261963,-0.27549649214503313,-0.7633923161769423,-0.8919522924430385,-0.6653047800064087,0.2720247507095337,-0.6952497363090515, 264, 210, 95, 234
1733261258917,6i,19.662007342978637,1.4s : 0.3s,-4.537082156966747,1.5558019610301874,10.919056456953383,4.760431314923457,-0.1357170045375824,6.801445484161377,8.105977058410645,3.7559287548065186,-2.1884777545928955,1.9404305219650269,-0.324997694743599,-0.6816198918954126,-0.8319346296198807,-0.597069501876831,0.3193066120147705,-0.7359017133712769, 264, 210, 95, 234
1733261258927,6i,19.662007342978637,1.4s : 0.3s,-4.537082156966747,1.6237505336402767,12.507063794507737,5.4626789491054835,-0.49080532789230347,7.729551792144775,9.305082321166992,4.491549015045166,-2.276313304901123,2.117840051651001,-0.3790279052085181,-0.5839116797095745,-0.7592904863355197,-0.5121636390686035,0.37001755833625793,-0.7750970125198364, 264, 210, 95, 234
1733261258937,6i,19.662007342978637,1.4s : 0.3s,-4.537082156966747,1.7075862633433811,14.271519082413302,6.289676226944471,-0.44155627489089966,8.636670112609863,10.63904857635498,5.394193172454834,-2.355724573135376,2.2165894508361816,-0.4332711780179448,-0.46583782886948694,-0.6680703027709073,-0.4076668322086334,0.4198419451713562,-0.8108887076377869, 264, 210, 95, 234
1733261258947,6i,19.662007342978637,1.4s : 0.3s,-4.537082156966747,1.8098156250657604,16.08286664586364,7.22562733881192,-0.3040167987346649,9.360432624816895,11.89125919342041,6.452895164489746,-2.47139573097229,2.112353563308716,-0.48017612314866703,-0.3252031360494502,-0.5537071875510553,-0.2833700180053711,0.4619354009628296,-0.8404267430305481, 264, 210, 95, 234
1733261258957,6i,19.662007342978637,1.4s : 0.3s,-4.537082156966747,1.9334127754941348,17.764348812491665,8.318342912273843,-0.47664621472358704,9.981480598449707,12.702824592590332,7.7075324058532715,-2.4440417289733887,1.9533133506774902,-0.5139300582395181,-0.16366722559312374,-0.41730563384637737,-0.14188911020755768,0.49160340428352356,-0.8591819405555725, 264, 210, 95, 234
1733261258967,6i,19.662007342978637,1.4s : 0.3s,-4.537082156966747,2.0824271904557836,19.155793423943695,9.641939582651052,-1.5819942951202393,10.10901165008545,13.232192039489746,9.169217109680176,-2.1291909217834473,2.087822437286377,-0.5333639424773791,0.011326555548070485,-0.26932082084930553,0.009753107093274593,0.508432924747467,-0.8610463738441467, 264, 210, 95, 234
1733261258977,6i,19.662007342978637,1.4s : 0.3s,-4.537082156966747,2.2594881853325672,20.268710173242347,10.988236006808954,-3.353782892227173,10.024455070495605,13.532942771911621,10.663561820983887,-1.5952552556991577,2.117767810821533,-0.5437799608865491,0.19316056219081326,-0.11155345695490866,0.16427291929721832,0.5173743963241577,-0.8398441076278687, 264, 210, 95, 234
1733261258987,6i,19.662007342978637,1.4s : 0.3s,-4.537082156966747,2.474936661256362,21.21611190780103,13.827376365840871,-5.444407939910889,9.47797966003418,13.984990119934082,13.754351615905762,0.9396300911903381,1.0635995864868164,-0.5472739946770677,0.37854848330932644,0.057302042606038675,0.3155946731567383,0.5203613042831421,-0.7934885621070862, 264, 210, 95, 234
1733261258997,6i,19.662007342978637,1.4s : 0.3s,-4.537082156966747,2.7160408217693797,21.715381740949674,13.683465080432834,-8.831414222717285,8.150352478027344,13.153921127319336,13.614953994750977,0.9401705265045166,0.993138313293457,-0.5466412654491863,0.5616768167460371,0.23768313186829224,0.45499226450920105,0.5198208689689636,-0.7230271697044373, 264, 210, 95, 234
1733261259007,6i,19.662007342978637,1.4s : 0.3s,-4.537082156966747,2.9801337121379046,22.686430818504892,14.73936833414082,-13.79781723022461,6.204692363739014,13.36663818359375,14.479890823364258,2.738346576690674,0.2884417772293091,-0.5575865877921301,0.7409753827117953,0.44154094830064133,0.5727675557136536,0.5291398763656616,-0.6260577440261841, 264, 210, 95, 234
1733261259017,6i,19.662007342978637,1.4s : 0.3s,-4.537082156966747,3.2651842566419376,24.351460942899667,15.92923268636139,-17.033788681030273,3.6060080528259277,14.488283157348633,15.035676956176758,5.255599021911621,0.21806275844573975,-0.5587265320469591,0.9209602354771341,0.6881197633151572,0.6751081943511963,0.5301068425178528,-0.513045608997345, 264, 210, 95, 234
1733261259027,6i,19.662007342978637,1.4s : 0.3s,-4.537082156966747,3.5676926598351852,26.104374510245094,17.47599143795904,-18.283119201660156,1.819419264793396,14.811603546142578,14.972779273986816,9.001056671142578,0.45512235164642334,-0.5300730587881561,1.0880478305569241,0.9575343048171912,0.7641748785972595,0.505596399307251,-0.4005111753940582, 264, 210, 95, 234
1733261259037,6i,19.662007342978637,1.4s : 0.3s,-4.537082156966747,3.873457809550162,26.845943716178905,18.147067989744855,-16.887868881225586,-0.7741323709487915,14.269535064697266,12.666975021362305,12.942899703979492,1.159813642501831,-0.46591036144052,1.2154159561361597,1.2079675718614586,0.837587296962738,0.44923630356788635,-0.3108603358268738, 264, 210, 95, 234
1733261259047,6i,19.662007342978637,1.4s : 0.3s,-4.537082156966747,4.165333212178276,27.09111818549814,18.071011754099313,-16.02010154724121,-3.4779558181762695,13.880573272705078,8.942427635192871,15.590713500976562,1.8772603273391724,-0.3838039986636837,1.284411560071693,1.4283810659847886,0.8894814848899841,0.3744504153728485,-0.261934369802475, 264, 210, 95, 234
1733261259057,6i,19.662007342978637,1.4s : 0.3s,-4.537082156966747,4.435522345728931,27.17904217172481,16.401139912518854,-15.384535789489746,-3.367488145828247,13.58653450012207,5.862490177154541,14.827577590942383,3.843376398086548,-0.2924007875220078,1.3144616591166984,1.6269597445524737,0.9262673258781433,0.28825193643569946,-0.24277524650096893, 264, 210, 95, 234
1733261259067,6i,19.662007342978637,1.4s : 0.3s,-4.537082156966747,4.679059553670314,28.577330447966002,14.596361718084175,-20.06251335144043,-3.214407205581665,12.978998184204102,3.2528955936431885,12.992116928100586,5.803218364715576,-0.2069275011112063,1.3329473570367014,1.8342871180261378,0.9511143565177917,0.20545391738414764,-0.23058632016181946, 264, 210, 95, 234
1733261259077,6i,19.662007342978637,1.4s : 0.3s,-4.537082156966747,4.889942694158961,29.334879876955526,12.232243824033565,-17.74595069885254,-1.6350544691085815,14.819860458374023,1.0168390274047852,10.473488807678223,6.236975193023682,-0.11628135965413024,1.3476452142255573,2.0604337211111643,0.9686194062232971,0.11601948738098145,-0.21980923414230347, 264, 210, 95, 234
1733261259087,6i,19.662007342978637,1.4s : 0.3s,-4.537082156966747,5.065438208133048,20.667439752489372,6.138422379510113,25.649568557739258,-2.7197067737579346,16.670272827148438,1.126854658126831,4.808971881866455,3.644752025604248,0.06678821149916439,1.3503502748072065,2.051280175249373,0.9736244678497314,-0.0667385682463646,-0.21817739307880402, 264, 210, 95, 234
1733261259097,6i,19.662007342978637,1.4s : 0.3s,-4.537082156966747,5.229841192053313,23.749186558551827,7.988753520300905,-38.33076477050781,-2.2839670181274414,-0.4323215186595917,7.348227024078369,-1.1155043840408325,-2.9290599822998047,0.14789729383952266,1.3482922537570337,2.058428943468668,0.9647002220153809,-0.1473587155342102,-0.21826361119747162, 264, 210, 95, 234
1733261259107,6i,19.662007342978637,1.4s : 0.3s,-4.537082156966747,5.35373606504311,33.81537114635652,16.94268521116879,-47.32893371582031,-9.175803184509277,-5.223917484283447,7.535842418670654,-14.741165161132812,-3.600515365600586,-0.019486395947567715,1.2593361443554802,2.5449118086795717,0.9517064094543457,0.01948516257107258,-0.3063907325267792, 264, 210, 95, 234
1733261259117,6i,19.662007342978637,1.4s : 0.3s,-4.537082156966747,5.510213900089306,30.506595634491482,25.535156842923673,-13.931358337402344,-11.955405235290527,4.754356384277344,6.838681221008301,-5.056114196777344,24.07721710205078,-0.15489274619461033,1.0843483804762548,2.7954149787600717,0.8734158277511597,0.1542741358280182,-0.46189212799072266, 264, 210, 95, 234
1733261259127,6i,19.662007342978637,1.4s : 0.3s,-4.537082156966747,5.751705103708061,27.109700983299003,28.194027415893004,-11.547329902648926,-11.050286293029785,-0.21332266926765442,9.516691207885742,23.110836029052734,13.04703140258789,-0.16646713522282713,0.9859157961883545,2.8905133693953053,0.8222522139549255,0.16569936275482178,-0.5444677472114563, 264, 210, 95, 234
1733261259137,6i,19.662007342978637,1.4s : 0.3s,-4.537082156966747,6.011177701357635,23.131339352917365,21.66762637252956,-7.554994583129883,-9.400572776794434,-4.036763668060303,6.529120445251465,20.62443733215332,1.2203292846679688,-0.2589714436009048,0.8953745754934557,2.9670195454038746,0.7544186115264893,0.25608643889427185,-0.6043776869773865, 264, 210, 95, 234
1733261259147,6i,19.662007342978637,1.4s : 0.3s,-4.537082156966747,6.196595799931612,22.550403773695688,11.866173494614117,-12.135007858276367,-10.679459571838379,-1.4596282243728638,-3.417569875717163,-0.7968040704727173,11.335404396057129,-0.33548694438389615,0.8136690394378246,3.02225639609836,0.6862924098968506,0.3292289972305298,-0.6485453248023987, 264, 210, 95, 234
1733261259157,6i,19.662007342978637,1.4s : 0.3s,-4.537082156966747,6.340154154052691,20.877174261484235,3.746446827854943,-7.873692989349365,-10.57114028930664,-4.948851585388184,0.5248249769210815,-0.06336313486099243,3.70896315574646,-0.43088184690956965,0.725922457534558,3.0750663696472182,0.603150486946106,0.41767221689224243,-0.6795288324356079, 264, 210, 95, 234
1733261259167,6i,19.662007342978637,1.4s : 0.3s,-4.537082156966747,6.4694009142683155,19.322191384226013,6.063104373148004,-6.350505352020264,-9.85016918182373,-4.821521282196045,1.4630892276763916,2.705963373184204,5.224783897399902,-0.5140923274663669,0.6292102206061064,3.0908752833082818,0.512435793876648,0.4917446970939636,-0.703986406326294, 264, 210, 95, 234
1733261259177,6i,19.662007342978637,1.4s : 0.3s,-4.537082156966747,6.588741376245122,17.72826104374264,5.587080245335764,-4.734288692474365,-8.82822322845459,-5.272298812866211,1.5486314296722412,3.973245143890381,3.6097824573516846,-0.5839292339330324,0.5253833464711257,3.076395116576108,0.41844019293785095,0.5513063669204712,-0.7217819690704346, 264, 210, 95, 234
1733261259187,6i,19.662007342978637,1.4s : 0.3s,-4.537082156966747,6.685704429540357,16.44469260538571,4.79947897426526,-4.433535099029541,-7.977869033813477,-5.257987976074219,-0.44236665964126587,1.4947762489318848,4.5392680168151855,-0.6503804286755972,0.42549469703437776,3.047700609274942,0.32850560545921326,0.605489194393158,-0.7248910069465637, 264, 210, 95, 234
1733261259197,6i,19.662007342978637,1.4s : 0.3s,-4.537082156966747,6.75497146925231,15.210865976896512,5.040182213316332,-2.471224546432495,-7.746279716491699,-5.738635540008545,-2.0652785301208496,0.21759861707687378,4.592462539672852,-0.7026164840939254,0.31522946702234445,2.997056643996202,0.23660415410995483,0.6462166905403137,-0.7255497574806213, 264, 210, 95, 234
1733261259207,6i,19.662007342978637,1.4s : 0.3s,-4.537082156966747,6.802580632533694,14.60392328380602,3.9364847536200496,-1.986259937286377,-8.325535774230957,-5.868283748626709,-1.9917323589324951,0.1971501111984253,3.3896970748901367,-0.7375322526391771,0.19120804796681445,2.9299645507282777,0.14065811038017273,0.6724635362625122,-0.7266416549682617, 264, 210, 95, 234
1733261259217,6i,19.662007342978637,1.4s : 0.3s,-4.537082156966747,6.8318028447922865,14.574582947193845,2.7364388041687646,-2.089339256286621,-9.204264640808105,-5.8150553703308105,-1.7051491737365723,-0.4095799922943115,2.100668430328369,-0.7651931217860274,0.05053505391746797,2.8526603283410648,0.03643282502889633,0.692676305770874,-0.7203278541564941, 264, 210, 95, 234
1733261259227,6i,19.662007342978637,1.4s : 0.3s,-4.537082156966747,6.84676783618721,14.640822025974488,1.7080980879254584,-1.8327161073684692,-9.476591110229492,-5.670200347900391,-1.213701605796814,-0.7495452761650085,0.9395261406898499,-0.7838942011979284,-0.09977307650720398,2.7717542327838114,-0.07053907960653305,0.7060425281524658,-0.7046476006507874, 264, 210, 95, 234
1733261259237,6i,19.662007342978637,1.4s : 0.3s,-4.537082156966747,6.853290012475628,14.51288299694406,1.14402667606885,-0.8246350884437561,-9.320391654968262,-5.38864803314209,-0.8423328995704651,-0.5086550116539001,0.5835601091384888,-0.7875857414882257,-0.2518986117388669,2.689621411487944,-0.17585551738739014,0.7086519598960876,-0.6832914352416992, 264, 210, 95, 234
1733261259247,6i,19.662007342978637,1.4s : 0.3s,-4.537082156966747,6.858502859661878,14.063924610290229,0.6080395310219935,0.172051340341568,-8.9550199508667,-4.348821640014648,-0.2968534529209137,0.287910521030426,0.44575512409210205,-0.7730348763743277,-0.3951139599612433,2.6141405760180203,-0.2755189538002014,0.6983107924461365,-0.6606446504592896, 264, 210, 95, 234
1733261259257,6i,19.662007342978637,1.4s : 0.3s,-4.537082156966747,6.866468111505903,13.769795482836708,0.7954125077604476,0.7694098353385925,-8.664912223815918,-4.852170944213867,0.433079332113266,0.6671146154403687,0.009024381637573242,-0.7450293987532207,-0.5248835045837823,2.550866468657469,-0.3683515191078186,0.6779934167861938,-0.6361148357391357, 264, 210, 95, 234
1733261259267,6i,19.662007342978637,1.4s : 0.3s,-4.537082156966747,6.877536422934013,13.481437682131087,1.1728318018171855,1.5171042680740356,-8.156091690063477,-5.17168664932251,1.0460093021392822,0.3353193402290344,-0.4110473394393921,-0.7060416507825165,-0.6401974636503738,2.5013221039464244,-0.45454809069633484,0.6488268375396729,-0.6102538704872131, 264, 210, 95, 234
1733261259277,6i,19.662007342978637,1.4s : 0.3s,-4.537082156966747,6.891970087304697,13.20195811828591,1.5655045949809,2.074479103088379,-7.817824840545654,-5.095394611358643,1.3959474563598633,0.32309603691101074,-0.6306697130203247,-0.6597170902383254,-0.7426780940260705,2.4651292656703974,-0.5343599319458008,0.6128933429718018,-0.582083523273468, 264, 210, 95, 234
1733261259287,6i,19.662007342978637,1.4s : 0.3s,-4.537082156966747,6.9109260231916005,12.913030056870946,1.9297304865759062,2.7222158908843994,-7.425076007843018,-4.9562506675720215,1.6991255283355713,0.5903436541557312,-0.6988036632537842,-0.6070764913487757,-0.8327571371115331,2.4421914966976597,-0.6076033115386963,0.5704687833786011,-0.5526154041290283, 264, 210, 95, 234
1733261259297,6i,19.662007342978637,1.4s : 0.3s,-4.537082156966747,6.935897103156734,12.635562315613303,2.246483460070342,2.9778120517730713,-6.993377685546875,-4.995341777801514,2.045466423034668,0.7614069581031799,-0.5319910645484924,-0.5506731764878305,-0.911270000254224,2.430410171900725,-0.6734570264816284,0.5232610106468201,-0.5221623778343201, 264, 210, 95, 234
1733261259307,6i,19.662007342978637,1.4s : 0.3s,-4.537082156966747,6.966758121888627,12.341605768731812,2.387021607294684,3.348116874694824,-6.349623680114746,-5.187938213348389,2.2945103645324707,0.5967009663581848,-0.2775649428367615,-0.4912571431813851,-0.9809053471905963,2.4257364502569643,-0.7327275276184082,0.4717347323894501,-0.49048617482185364, 264, 210, 95, 234
1733261259317,6i,19.662007342978637,1.4s : 0.3s,-4.537082156966747,7.000155836632441,12.086720983550311,2.093104330742429,3.3299636840820312,-6.356522083282471,-4.816448211669922,2.067728281021118,0.29802149534225464,-0.12949395179748535,-0.43154186909622644,-1.04374928531628,2.428318991256408,-0.7850590348243713,0.4182718098163605,-0.4568707346916199, 264, 210, 95, 234
1733261259327,6i,19.662007342978637,1.4s : 0.3s,-4.537082156966747,7.033443798826066,12.011529347894909,1.7563366449956652,3.264915704727173,-6.144943714141846,-5.520949363708496,1.7480621337890625,0.10988724231719971,-0.13008451461791992,-0.37330165345305727,-1.1044403001920673,2.4348243043071354,-0.8316956758499146,0.36469167470932007,-0.41866740584373474, 264, 210, 95, 234
1733261259337,6i,19.662007342978637,1.4s : 0.3s,-4.537082156966747,7.066847601462682,11.84340213957558,1.7403348694942475,3.529435634613037,-5.9130120277404785,-5.119101047515869,1.721334457397461,0.25629472732543945,0.009282052516937256,-0.31879525412403725,-1.1626299431081824,2.447532293862666,-0.8716031908988953,0.3134227395057678,-0.37692737579345703, 264, 210, 95, 234
1733261259347,6i,19.662007342978637,1.4s : 0.3s,-4.537082156966747,7.1029164036879395,11.612923512157321,2.053422102607599,4.015651702880859,-5.676851272583008,-4.579851150512695,1.9116170406341553,0.748462438583374,0.045459866523742676,-0.26355011342531937,-1.2171590677936486,2.4658857384739896,-0.905727207660675,0.260509729385376,-0.33435454964637756, 264, 210, 95, 234
1733261259357,6i,19.662007342978637,1.4s : 0.3s,-4.537082156966747,7.141456442753991,11.309690662480708,2.060820947640805,4.300835132598877,-5.199611663818359,-4.279621124267578,1.837181568145752,0.8932456374168396,0.27177029848098755,-0.20802881534431225,-1.2661064944743035,2.4915375461304503,-0.9333730340003967,0.2065316140651703,-0.29352936148643494, 264, 210, 95, 234
1733261259367,6i,19.662007342978637,1.4s : 0.3s,-4.537082156966747,7.182766913515263,10.985879639640904,2.152937690876605,4.674757480621338,-4.6267409324646,-4.0914764404296875,1.8758001327514648,0.874417245388031,0.5932192206382751,-0.15547474097029074,-1.3094791181876342,2.5235937435111953,-0.9543982148170471,0.1548491269350052,-0.25523704290390015, 264, 210, 95, 234
1733261259377,6i,19.662007342978637,1.4s : 0.3s,-4.537082156966747,7.227671451290243,10.666045231032063,2.385013691403765,4.912559986114502,-4.18192720413208,-3.8612875938415527,2.0320839881896973,0.80446857213974,0.9548587799072266,-0.1051796691732145,-1.3485353722755624,2.5609452202604515,-0.970011293888092,0.10498584806919098,-0.21921736001968384, 264, 210, 95, 234
1733261259387,6i,19.662007342978637,1.4s : 0.3s,-4.537082156966747,7.273222906354105,10.372218049869105,2.1209150541016406,5.063387393951416,-3.9271810054779053,-3.554131507873535,1.8495965003967285,0.5803723931312561,0.860489010810852,-0.058760546815860376,-1.3855989276561806,2.6024492205251466,-0.9812034964561462,0.05872673913836479,-0.18382275104522705, 264, 210, 95, 234
1733261259397,6i,19.662007342978637,1.4s : 0.3s,-4.537082156966747,7.317554878293954,10.105076730696425,1.9125368919964247,5.091669082641602,-3.7509007453918457,-3.3236889839172363,1.7797601222991943,0.3656167984008789,0.5971395373344421,-0.016479315768700032,-1.4223412869786451,2.646766087131499,-0.9888664484024048,0.01647857017815113,-0.14789025485515594, 264, 210, 95, 234
1733261259407,6i,19.662007342978637,1.4s : 0.3s,-4.537082156966747,7.360856242501216,9.905793694854703,1.891269296345595,5.387757778167725,-3.4553046226501465,-3.1333167552948,1.7836308479309082,0.43262556195259094,0.4565037488937378,0.022211739698705938,-1.458619080623658,2.694382933040407,-0.9934696555137634,-0.022209912538528442,-0.11191452294588089, 264, 210, 95, 234
1733261259417,6i,19.662007342978637,1.4s : 0.3s,-4.537082156966747,7.404289726888478,9.684560167620957,1.99948671878859,5.373018264770508,-3.073024034500122,-3.0640976428985596,1.7865269184112549,0.6793334484100342,0.5871752500534058,0.05818096411154731,-1.493315572308418,2.745318245156507,-0.9953129291534424,-0.05814814567565918,-0.07727228850126266, 264, 210, 95, 234
1733261259427,6i,19.662007342978637,1.4s : 0.3s,-4.537082156966747,7.447733940463609,9.469219756290085,1.9428236422223242,5.4297776222229,-2.7056589126586914,-2.969943046569824,1.6135990619659424,0.7297465801239014,0.7989566326141357,0.09166071320613803,-1.5261387893737315,2.7971276373511826,-0.9948093295097351,-0.09153241664171219,-0.04445528984069824, 264, 210, 95, 234
1733261259437,6i,19.662007342978637,1.4s : 0.3s,-4.537082156966747,7.490189389632942,9.26228232582536,1.8192112162312006,5.480280876159668,-2.436966896057129,-2.7761306762695312,1.4005610942840576,0.60642409324646,0.9900544881820679,0.12187756869718284,-1.557572085966087,2.8511017804183507,-0.9924952983856201,-0.12157606333494186,-0.013125762343406677, 264, 210, 95, 234
1733261259447,6i,19.662007342978637,1.4s : 0.3s,-4.537082156966747,7.530140657971131,9.04923701023194,1.5428878780933448,5.480913162231445,-2.1377527713775635,-2.6087427139282227,1.2490015029907227,0.44356203079223633,0.7897790670394897,0.14877639514083152,-1.5878933360081282,2.906418512079893,-0.9888086915016174,-0.14822815358638763,0.01690731942653656, 264, 210, 95, 234
1733261259457,6i,19.662007342978637,1.4s : 0.3s,-4.537082156966747,7.5674419023696275,8.81605136966088,1.412260550489823,5.483130931854248,-1.8059581518173218,-2.3498482704162598,1.1174001693725586,0.4112078845500946,0.7594766616821289,0.17175567135533717,-1.6166208855234832,2.9630749306943307,-0.9842519164085388,-0.17091244459152222,0.04513450711965561, 264, 210, 95, 234
1733261259467,6i,19.662007342978637,1.4s : 0.3s,-4.537082156966747,7.602844613457484,8.530682408325719,1.4324022339553795,5.254080772399902,-1.6064833402633667,-2.1699790954589844,1.0437220335006714,0.4190313220024109,0.8870362043380737,0.19122114282978547,-1.6437407862168054,3.0189560866649745,-0.9791620373725891,-0.1900579184293747,0.07155139744281769, 264, 210, 95, 234
1733261259477,6i,19.662007342978637,1.4s : 0.3s,-4.537082156966747,7.635692183422638,8.220216324179512,1.3144279368503968,5.091898441314697,-1.4192423820495605,-1.9250025749206543,0.8429657816886902,0.29666057229042053,0.9639097452163696,0.20705718094330017,-1.669719498684117,3.0731245761085026,-0.9738556146621704,-0.20558083057403564,0.09665236622095108, 264, 210, 95, 234
1733261259487,6i,19.662007342978637,1.4s : 0.3s,-4.537082156966747,7.666409277158875,7.900072067379086,1.2689169597359584,4.96557092666626,-1.2551443576812744,-1.6196701526641846,0.7897895574569702,0.29177969694137573,0.9493404626846313,0.21918979225723903,-1.6943127955215813,3.1264186119351045,-0.9686378240585327,-0.21743887662887573,0.12025489658117294, 264, 210, 95, 234
1733261259497,6i,19.662007342978637,1.4s : 0.3s,-4.537082156966747,7.695258666422666,7.551019764684704,1.1987166879020485,4.717656135559082,-1.1765073537826538,-1.3701177835464478,0.7478337287902832,0.2997002899646759,0.8876069784164429,0.22757826282133248,-1.7177514108835457,-3.1053803487030356,-0.9637152552604675,-0.2256188988685608,0.14265123009681702, 264, 210, 95, 234
1733261259507,6i,19.662007342978637,1.4s : 0.3s,-4.537082156966747,7.721613738395426,7.184651399202319,1.0729422482950841,4.473780632019043,-1.088337779045105,-1.1418672800064087,0.5859643220901489,0.19655773043632507,0.8770495653152466,0.23267867471310238,-1.7400473749813266,-3.057147945082808,-0.9591485857963562,-0.23058484494686127,0.16390496492385864, 264, 210, 95, 234
1733261259517,6i,19.662007342978637,1.4s : 0.3s,-4.537082156966747,7.745677247263458,6.774306461409141,1.0213071433660026,4.122896671295166,-0.9324997067451477,-1.0331099033355713,0.49406009912490845,0.1832042634487152,0.8748766183853149,0.2354217013521897,-1.760771370298709,-3.011461790315042,-0.9549212455749512,-0.23325307667255402,0.18362559378147125, 264, 210, 95, 234
1733261259527,6i,19.662007342978637,1.4s : 0.3s,-4.537082156966747,7.767423684403354,6.40508872173611,0.929559811191324,3.9682395458221436,-0.7498857378959656,-0.9477266669273376,0.3681172728538513,0.2299693375825882,0.8220007419586182,0.2371449380925443,-1.779241012189398,-2.9682178335178935,-0.9509724974632263,-0.2349284291267395,0.20114685595035553, 264, 210, 95, 234
1733261259537,6i,19.662007342978637,1.4s : 0.3s,-4.537082156966747,7.787009068642109,6.0575446407876345,0.9227417362118152,3.781475067138672,-0.5281592011451721,-0.9246565103530884,0.23149335384368896,0.28445613384246826,0.846727728843689,0.23789611635700134,-1.7952834071277481,-2.9272752906285917,-0.9474509954452515,-0.23565852642059326,0.21633683145046234, 264, 210, 95, 234
1733261259547,6i,19.662007342978637,1.4s : 0.3s,-4.537082156966747,7.8047612813981795,5.7753518062822815,0.9001756414084013,3.7067530155181885,-0.3560671806335449,-0.9130088090896606,0.15958911180496216,0.341697096824646,0.8173680901527405,0.23830973992873614,-1.8090531117730326,-2.887765256462554,-0.9442874789237976,-0.2360604703426361,0.22933897376060486, 264, 210, 95, 234
1733261259557,6i,19.662007342978637,1.4s : 0.3s,-4.537082156966747,7.820240142706015,5.5210951692591825,0.8040015466291206,3.5749123096466064,-0.2177465707063675,-0.8965600728988647,0.03165501356124878,0.311260461807251,0.7406303882598877,0.23825178289464913,-1.8210748481899381,-2.8490241756203165,-0.9414757490158081,-0.23600415885448456,0.24067756533622742, 264, 210, 95, 234
1733261259567,6i,19.662007342978637,1.4s : 0.3s,-4.537082156966747,7.833035000416869,5.304871382793141,0.6517736079129282,3.4809179306030273,-0.06190842390060425,-0.911835253238678,-0.06357437372207642,0.23630425333976746,0.6040922403335571,0.2381366950425288,-1.831310528078218,-2.811576402634661,-0.9389892816543579,-0.23589231073856354,0.25030845403671265, 264, 210, 95, 234
1733261259577,6i,19.662007342978637,1.4s : 0.3s,-4.537082156966747,7.843693696569947,5.100952967758311,0.6541284256014541,3.354628086090088,0.15067946910858154,-0.9000792503356934,-0.11265003681182861,0.24978385865688324,0.5939713716506958,0.2379859140407663,-1.839504166993309,-2.7751219486902565,-0.9369410276412964,-0.23574578762054443,0.2580031156539917, 264, 210, 95, 234
