timestamp,club,max_speed,tempo,w.rotation,l.speed,t.spped,acc,rotation.x,rotation.y,rotation.z,userAcceleration.x,userAcceleration.y,userAcceleration.z,pitch,roll,yaw,gravity.x,gravity.y,gravity.z,impactIndex,minDownIndex,StartIndex,endIndex
1733261424177,6i,18.98033868243014,2.0s : 0.3s,-8.776853568475957,0.00019002115267254688,0.16297570811179654,0.026946012338349916,0.2906108796596527,-0.08971147239208221,0.007906444370746613,0.0016358494758605957,0.025761678814888,0.007729649543762207,-0.13791360542512515,1.4452456314648086,0.1216439268757816,0.9827086329460144,0.1374768316745758,-0.12403213977813721, 225, 171, 0, 196
1733261424187,6i,18.98033868243014,2.0s : 0.3s,-8.776853568475957,0.0005150807645840275,0.2090767160131985,0.013789259298123425,0.2323227971792221,-0.09570188820362091,0.003984007518738508,0.0002983212471008301,0.013529211282730103,0.0026486068964004517,-0.1372768914019037,1.444262940479158,0.11908342788368922,0.9826728701591492,0.1368461400270462,-0.12500879168510437, 225, 171, 0, 196
1733261424197,6i,18.98033868243014,2.0s : 0.3s,-8.776853568475957,0.0007981933386817475,0.2296703987768872,0.012050371585527653,0.18907812237739563,-0.10413585603237152,0.0038654969539493322,7.492303848266602e-05,-8.499622344970703e-05,0.012049838900566101,-0.1367412061343665,1.443276653635764,0.11704221427998172,0.9826217889785767,0.1363154649734497,-0.125987246632576, 225, 171, 0, 196
1733261424207,6i,18.98033868243014,2.0s : 0.3s,-8.776853568475957,0.0010509783667069339,0.2477272475286055,0.016480980498704986,0.19140799343585968,-0.10808705538511276,-0.0038548405282199383,-0.007679879665374756,-0.013715997338294983,0.004951119422912598,-0.13636110398853651,1.4422929819254116,0.11522028635624122,0.982548713684082,0.13593891263008118,-0.1269603967666626, 225, 171, 0, 196
1733261424217,6i,18.98033868243014,2.0s : 0.3s,-8.776853568475957,0.0012725760498196136,0.26944873327198354,0.015460326876362493,0.21571199595928192,-0.10302678495645523,-0.002544565126299858,-0.011012911796569824,-0.00453399121761322,-0.009858012199401855,-0.13608769588047015,1.4412189318599649,0.1131902125478941,0.9824484586715698,0.13566802442073822,-0.12802042067050934, 225, 171, 0, 196
1733261424227,6i,18.98033868243014,2.0s : 0.3s,-8.776853568475957,0.0014394063429240208,0.30409405339715595,0.027792050759823567,0.26580607891082764,-0.10775113850831985,-0.0022156652994453907,-0.01467907428741455,0.0174475759267807,-0.01589040458202362,-0.13580145177742006,1.440002272024854,0.11086256505441103,0.9823304414749146,0.1353844255208969,-0.12922067940235138, 225, 171, 0, 196
1733261424237,6i,18.98033868243014,2.0s : 0.3s,-8.776853568475957,0.0015343427216470713,0.3418981579607391,0.03242812560254048,0.30299898982048035,-0.10519663244485855,-0.004181344527751207,-0.012402117252349854,0.024829745292663574,-0.01677064597606659,-0.13551198516864163,1.4386201038245667,0.10796997222702412,0.9821896553039551,0.13509762287139893,-0.13058345019817352, 225, 171, 0, 196
1733261424247,6i,18.98033868243014,2.0s : 0.3s,-8.776853568475957,0.0015997946484911944,0.3691124681973384,0.034278420061404885,0.30426040291786194,-0.10681597143411636,0.0016535416943952441,-0.009758353233337402,0.023182421922683716,-0.023288622498512268,-0.13521876875686817,1.4372451952978746,0.10494398524423362,0.9820485711097717,0.13480708003044128,-0.13193905353546143, 225, 171, 0, 196
1733261424257,6i,18.98033868243014,2.0s : 0.3s,-8.776853568475957,0.0016717296979330014,0.3925385081793781,0.025522950202528323,0.31333619356155396,-0.11336255818605423,0.01043771207332611,-0.0077977776527404785,0.021642044186592102,-0.011056110262870789,-0.1348637801115894,1.4357961913498356,0.10185809124934982,0.9819034934043884,0.13445532321929932,-0.13336831331253052, 225, 171, 0, 196
1733261424267,6i,18.98033868243014,2.0s : 0.3s,-8.776853568475957,0.0017740992284803272,0.41249527067640596,0.020523038648138592,0.3222600221633911,-0.11433261632919312,0.011999356560409069,-0.005477964878082275,0.013722136616706848,-0.014243945479393005,-0.1343100805465335,1.4342199472835833,0.09870514189661314,0.9817657470703125,0.13390663266181946,-0.1349259912967682, 225, 171, 0, 196
1733261424277,6i,18.98033868243014,2.0s : 0.3s,-8.776853568475957,0.0019044059557455785,0.4305781388878757,0.016244337146029148,0.33528420329093933,-0.10793782770633698,0.01318259909749031,-0.0013255476951599121,0.013893142342567444,-0.008312761783599854,-0.1337526012026266,1.4326494932969367,0.09541256280825972,0.9816264510154724,0.13335415720939636,-0.13647790253162384, 225, 171, 0, 196
1733261424287,6i,18.98033868243014,2.0s : 0.3s,-8.776853568475957,0.002048188902909297,0.43268188857271506,0.021817967893172252,0.3208639919757843,-0.10085976868867874,0.016550099477171898,-0.007395327091217041,0.0197136253118515,-0.005718901753425598,-0.13314524131682795,1.4311531124249661,0.09213216474501254,0.9815012812614441,0.1327521950006485,-0.13795790076255798, 225, 171, 0, 196
1733261424297,6i,18.98033868243014,2.0s : 0.3s,-8.776853568475957,0.002196412041491648,0.4327354492914354,0.01989815412314868,0.3058139383792877,-0.10197563469409943,0.020092103630304337,-0.009720683097839355,0.017351672053337097,-0.000603601336479187,-0.1325262460126574,1.4297307861941138,0.08903722785764061,0.9813850522041321,0.13213865458965302,-0.1393652707338333, 225, 171, 0, 196
1733261424307,6i,18.98033868243014,2.0s : 0.3s,-8.776853568475957,0.002321353635254199,0.4310411154066151,0.014884748088420647,0.2932531237602234,-0.09932640939950943,0.010665912181138992,-0.009735822677612305,-0.002187952399253845,0.011044561862945557,-0.13194979073482524,1.4283209752799018,0.08605808591371474,0.9812629222869873,0.13156723976135254,-0.14075951278209686, 225, 171, 0, 196
1733261424317,6i,18.98033868243014,2.0s : 0.3s,-8.776853568475957,0.0024102422460344623,0.45447501187657746,0.02268447078281492,0.2420453429222107,-0.3195807635784149,0.20892120897769928,-0.012638628482818604,-0.014983028173446655,0.011417493224143982,-0.13094221464205502,1.4266693690465075,0.08331818189278731,0.9811598658561707,0.13056835532188416,-0.14239895343780518, 225, 171, 0, 196
1733261424327,6i,18.98033868243014,2.0s : 0.3s,-8.776853568475957,0.0024207032386274288,0.6734881143967151,0.03972580074508764,0.2477225363254547,-0.6490504741668701,0.773802638053894,0.029824256896972656,-0.011656060814857483,0.02351146936416626,-0.130987824112475,1.4254461549054445,0.08053300164555403,0.9809790253639221,0.1306135654449463,-0.14359813928604126, 225, 171, 0, 196
1733261424337,6i,18.98033868243014,2.0s : 0.3s,-8.776853568475957,0.0021337115271311637,0.7071958745589114,0.06806047622346928,0.22615519165992737,-0.3938128650188446,0.3805469274520874,-0.05846726894378662,-0.027110427618026733,0.02188222110271454,-0.13058490301082495,1.4242682074211805,0.07815666344416308,0.980861246585846,0.13021409511566162,-0.14476126432418823, 225, 171, 0, 196
1733261424347,6i,18.98033868243014,2.0s : 0.3s,-8.776853568475957,0.0018165533402585605,0.5752414292594199,0.042219775915228866,0.23891745507717133,-0.1129937469959259,-0.005277568474411964,-0.01728278398513794,-0.024092435836791992,0.030056104063987732,-0.13003414180486333,1.423039263450856,0.07594715859161388,0.9807533621788025,0.1296679973602295,-0.14597710967063904, 225, 171, 0, 196
1733261424357,6i,18.98033868243014,2.0s : 0.3s,-8.776853568475957,0.00154561290256396,0.48486625442123144,0.03191667534783908,0.24409838020801544,-0.07673002034425735,-0.0007802878972142935,-0.01205301284790039,-0.01700986921787262,0.02416740357875824,-0.12944688743875116,1.4219292125388434,0.07355441534862257,0.9806658029556274,0.12908567488193512,-0.14707697927951813, 225, 171, 0, 196
1733261424367,6i,18.98033868243014,2.0s : 0.3s,-8.776853568475957,0.0013897526878903562,0.41927897020273563,0.021153950025131013,0.22140344977378845,-0.06460384279489517,-0.003207226749509573,-0.014995038509368896,-0.00456671416759491,0.014205053448677063,-0.12922415074846363,1.420889376586361,0.07120127665286713,0.9805406928062439,0.12886479496955872,-0.14810091257095337, 225, 171, 0, 196
1733261424377,6i,18.98033868243014,2.0s : 0.3s,-8.776853568475957,0.001339408569278753,0.3702908949625223,0.02708687973062959,0.19941692054271698,-0.05770519748330116,0.0022210946772247553,0.0027765631675720215,-0.002011626958847046,0.026868999004364014,-0.1288787304276166,1.420009997411202,0.06909793427433408,0.9804540276527405,0.12852224707603455,-0.14896979928016663, 225, 171, 0, 196
1733261424387,6i,18.98033868243014,2.0s : 0.3s,-8.776853568475957,0.0014155157543595327,0.331687659959484,0.024954911255512875,0.17801867425441742,-0.061435844749212265,-0.0007415388245135546,-0.0033262968063354492,-0.0045037418603897095,0.02431870996952057,-0.12860673837447834,1.4191614724529285,0.06721627957429523,0.9803617596626282,0.12825250625610352,-0.14980696141719818, 225, 171, 0, 196
1733261424397,6i,18.98033868243014,2.0s : 0.3s,-8.776853568475957,0.0016131280987121666,0.2949689405211941,0.016610739853407934,0.14987225830554962,-0.05537155643105507,-0.00013620220124721527,-0.001986205577850342,-0.011635899543762207,0.011686637997627258,-0.12835152804788777,1.4183548739809548,0.06556900409148275,0.9802728891372681,0.127999410033226,-0.15060262382030487, 225, 171, 0, 196
1733261424407,6i,18.98033868243014,2.0s : 0.3s,-8.776853568475957,0.0018939295496270933,0.26059746797036315,0.02218583477937594,0.12883663177490234,-0.04708997160196304,-0.005566354375332594,-0.0031087398529052734,-0.016844868659973145,0.014099553227424622,-0.12817266913931935,1.4176558368270833,0.06418030337239258,0.9801899194717407,0.12782201170921326,-0.15129131078720093, 225, 171, 0, 196
1733261424417,6i,18.98033868243014,2.0s : 0.3s,-8.776853568475957,0.0022380923894178926,0.2296024894950135,0.02679925620013523,0.10673345625400543,-0.05186714977025986,-0.008727259933948517,-0.00627511739730835,-0.02166418731212616,0.014473631978034973,-0.12806248705775244,1.4170117265183872,0.06300310964282299,0.9801062941551208,0.12771274149417877,-0.15192480385303497, 225, 171, 0, 196
1733261424427,6i,18.98033868243014,2.0s : 0.3s,-8.776853568475957,0.0026117463351834317,0.20232779784764238,0.022626221153686253,0.09199978411197662,-0.0489092618227005,-0.008666940033435822,-0.001376330852508545,-0.019016414880752563,0.012183085083961487,-0.12800827935970832,1.4163606744875488,0.0619905256329058,0.9800139665603638,0.12765897810459137,-0.1525639295578003, 225, 171, 0, 196
1733261424437,6i,18.98033868243014,2.0s : 0.3s,-8.776853568475957,0.00299200089684414,0.1728844827324547,0.016359733164230787,0.06390316784381866,-0.046413347125053406,-0.00847386009991169,4.9233436584472656e-05,-0.014798492193222046,0.006974458694458008,-0.12795559176834637,1.4157755036843138,0.06120822292096262,0.9799312353134155,0.12760671973228455,-0.1531384289264679, 225, 171, 0, 196
1733261424447,6i,18.98033868243014,2.0s : 0.3s,-8.776853568475957,0.0033801817196723923,0.15196915539044895,0.021253856264424085,0.056752048432826996,-0.05581244081258774,-0.01271747425198555,-0.001227259635925293,-0.020777329802513123,0.0043038129806518555,-0.12798374693764525,1.4151679900481702,0.06059847573237243,0.9798344373703003,0.12763464450836182,-0.15373316407203674, 225, 171, 0, 196
1733261424457,6i,18.98033868243014,2.0s : 0.3s,-8.776853568475957,0.003773739845866957,0.14459616554506713,0.02541237801741339,0.06374550610780716,-0.054829735308885574,-0.011318782344460487,-0.0036290884017944336,-0.024738818407058716,-0.004539772868156433,-0.127993245407269,1.4145227044609494,0.059990118559216835,0.9797338247299194,0.12764406204223633,-0.15436521172523499, 225, 171, 0, 196
1733261424467,6i,18.98033868243014,2.0s : 0.3s,-8.776853568475957,0.0041389890673535394,0.17304900394952716,0.011743734419936971,0.03657540678977966,-0.21279141306877136,0.0544484443962574,-0.0026906728744506836,-0.006982907652854919,-0.00905066728591919,-0.1276909364926204,1.4139311376722632,0.05936204169599973,0.9796804189682007,0.12734422087669373,-0.15495078265666962, 225, 171, 0, 196
1733261424477,6i,18.98033868243014,2.0s : 0.3s,-8.776853568475957,0.004366296023762994,0.24459634498530627,0.04005691772245928,0.06344377994537354,-0.29458746314048767,0.12063039839267731,0.03682821989059448,0.005001053214073181,-0.014940828084945679,-0.1285312353021232,1.4138363748409852,0.05833972687654126,0.979559600353241,0.12817762792110443,-0.15502682328224182, 225, 171, 0, 196
1733261424487,6i,18.98033868243014,2.0s : 0.3s,-8.776853568475957,0.004696831469884884,0.2428711165335081,0.0523655566838654,0.022246934473514557,-0.17182014882564545,0.031200947239995003,-0.048033297061920166,-0.004010707139968872,-0.020466268062591553,-0.12823268687872247,1.413345807514034,0.05779296032660698,0.9795213341712952,0.12788154184818268,-0.15551336109638214, 225, 171, 0, 196
1733261424497,6i,18.98033868243014,2.0s : 0.3s,-8.776853568475957,0.004999671653921962,0.21583363488920726,0.01011320309719039,0.06323032081127167,-0.09318658709526062,0.026449069380760193,-0.003659188747406006,0.0009106695652008057,-0.009383916854858398,-0.12814764799005063,1.4128756570114256,0.057417897796069615,0.979458749294281,0.1277972012758255,-0.1559755653142929, 225, 171, 0, 196
1733261424507,6i,18.98033868243014,2.0s : 0.3s,-8.776853568475957,0.005264780333335664,0.1818027211093488,0.013704994927125498,0.048164017498493195,-0.06810643523931503,-0.022663548588752747,0.0021173954010009766,0.0012250393629074097,-0.013484910130500793,-0.12770765130638673,1.4123668945089392,0.056896844206957425,0.9794348478317261,0.12736079096794128,-0.1564827412366867, 225, 171, 0, 196
1733261424517,6i,18.98033868243014,2.0s : 0.3s,-8.776853568475957,0.005473913986930153,0.15637963341977218,0.03181379041135581,0.05023382604122162,-0.05485082045197487,0.006649332121014595,0.00983738899230957,0.0011226534843444824,-0.030233800411224365,-0.12764162321809946,1.4118331198230587,0.05641783935805804,0.9793593883514404,0.12729530036449432,-0.15700682997703552, 225, 171, 0, 196
1733261424527,6i,18.98033868243014,2.0s : 0.3s,-8.776853568475957,0.005697347729967917,0.15227128718979066,0.022441072274284688,0.05992187559604645,-0.06640662997961044,0.030340678989887238,-0.007421135902404785,-0.015834465622901917,-0.01406407356262207,-0.12729244082405985,1.4112685196696326,0.055885359125124795,0.9793144464492798,0.12694895267486572,-0.15756680071353912, 225, 171, 0, 196
1733261424537,6i,18.98033868243014,2.0s : 0.3s,-8.776853568475957,0.005915326901851531,0.1779061278118394,0.02081188786708227,0.07057292014360428,-0.12188373506069183,0.14089755713939667,4.5239925384521484e-05,-0.01152220368385315,-0.017331227660179138,-0.12702156264485656,1.4106370558211447,0.05523736341737845,0.9792485237121582,0.12668026983737946,-0.15819063782691956, 225, 171, 0, 196
1733261424547,6i,18.98033868243014,2.0s : 0.3s,-8.776853568475957,0.0061152657678857575,0.23726590284912294,0.01819953480828215,0.060475945472717285,-0.17809414863586426,0.2310517132282257,0.0029761791229248047,-0.0045494139194488525,-0.017368599772453308,-0.126868211121736,1.4099304102930157,0.054589036543835213,0.9791556596755981,0.12652814388275146,-0.15888568758964539, 225, 171, 0, 196
1733261424557,6i,18.98033868243014,2.0s : 0.3s,-8.776853568475957,0.006322530135418029,0.32788549642087617,0.022314097953881156,0.05351417511701584,-0.23968081176280975,0.33131468296051025,-0.0006343722343444824,-0.0150042325258255,-0.016504228115081787,-0.12676312596332792,1.4092368088299874,0.054060156640525145,0.9790584444999695,0.1264239102602005,-0.1595669388771057, 225, 171, 0, 196
1733261424567,6i,18.98033868243014,2.0s : 0.3s,-8.776853568475957,0.006551647283039528,0.4368676789359908,0.021408104110395593,0.052857838571071625,-0.3009147346019745,0.420265793800354,-0.006462574005126953,-0.01688350737094879,-0.011466875672340393,-0.12668868727318625,1.40831679550287,0.05356163691012137,0.978920578956604,0.1263500601053238,-0.1604691594839096, 225, 171, 0, 196
1733261424577,6i,18.98033868243014,2.0s : 0.3s,-8.776853568475957,0.006772028598543746,0.5575488202380016,0.014893655017317086,0.06181138753890991,-0.35514920949935913,0.5133510231971741,-0.0012099742889404297,-0.003534674644470215,-0.014417454600334167,-0.126599005202791,1.4075606120317807,0.053043543475625225,0.9788100123405457,0.12626110017299652,-0.16121117770671844, 225, 171, 0, 196
1733261424587,6i,18.98033868243014,2.0s : 0.3s,-8.776853568475957,0.00697594549074517,0.684477051117781,0.009153791759489755,0.05890507996082306,-0.40653711557388306,0.6059713959693909,-0.0011157393455505371,0.002562090754508972,-0.008716806769371033,-0.12649813933586102,1.4068050705150255,0.05247615293180877,0.9787005186080933,0.12616103887557983,-0.16195273399353027, 225, 171, 0, 196
1733261424597,6i,18.98033868243014,2.0s : 0.3s,-8.776853568475957,0.007180397555974356,0.8157549269309535,0.00881395978977819,0.042746350169181824,-0.46916455030441284,0.6920833587646484,-0.00573498010635376,-0.0029354840517044067,-0.006014883518218994,-0.12639492053683435,1.4059485709233897,0.05200470695469297,0.9785743355751038,0.1260586529970169,-0.1627930849790573, 225, 171, 0, 196
1733261424607,6i,18.98033868243014,2.0s : 0.3s,-8.776853568475957,0.007395511829675289,0.9495373198011874,0.011522102453411044,0.04684136062860489,-0.5281726121902466,0.7768182158470154,-0.00872182846069336,-0.007281705737113953,-0.0019145011901855469,-0.12633084731869101,1.4052213082631317,0.051603873359044185,0.9784637093544006,0.12599508464336395,-0.16350606083869934, 225, 171, 0, 196
1733261424617,6i,18.98033868243014,2.0s : 0.3s,-8.776853568475957,0.007612448618686947,1.0853334618773307,0.009935568353543256,0.06439612060785294,-0.5778805017471313,0.8681460022926331,-0.009134411811828613,-0.0024135708808898926,-0.0030745267868041992,-0.12622259760550364,1.4044910448003165,0.051094668622183266,0.9783574342727661,0.1258876919746399,-0.1642228066921234, 225, 171, 0, 196
1733261424627,6i,18.98033868243014,2.0s : 0.3s,-8.776853568475957,0.007820759161770632,1.1997106514409397,0.019507379805965272,0.08077442646026611,-0.606465220451355,0.905404806137085,-0.014378726482391357,0.010164782404899597,-0.008394479751586914,-0.12612514373283845,1.4038325349285385,0.05037304342310212,0.9782611727714539,0.1257910132408142,-0.16486907005310059, 225, 171, 0, 196
1733261424637,6i,18.98033868243014,2.0s : 0.3s,-8.776853568475957,0.008028632500411742,1.2643551071018722,0.02862370835401544,0.08189987391233444,-0.5951367020606995,0.8665748238563538,-0.02130138874053955,0.014065459370613098,-0.012951076030731201,-0.12588467341944054,1.4031610108906318,0.04959367254665634,0.9781801104545593,0.1255524605512619,-0.1655310094356537, 225, 171, 0, 196
1733261424647,6i,18.98033868243014,2.0s : 0.3s,-8.776853568475957,0.008236189649100646,1.2920958334773123,0.022505221595806403,0.07830740511417389,-0.5763144493103027,0.8269175887107849,-0.016531825065612793,0.0098857581615448,-0.011638537049293518,-0.12563739915813496,1.4024640309633314,0.04881592976007686,0.9780950546264648,0.1253071278333664,-0.16621793806552887, 225, 171, 0, 196
1733261424657,6i,18.98033868243014,2.0s : 0.3s,-8.776853568475957,0.008454061423755023,1.2924792335631483,0.017668128047895044,0.07709220796823502,-0.5635539293289185,0.7805564403533936,-0.015080869197845459,0.0014268159866333008,-0.009093642234802246,-0.12541230412493293,1.4017390153001625,0.04807342232108023,0.9780020117759705,0.1250838041305542,-0.16693176329135895, 225, 171, 0, 196
1733261424667,6i,18.98033868243014,2.0s : 0.3s,-8.776853568475957,0.008678902477667344,1.2759027964046512,0.013129485378344298,0.07356804609298706,-0.5431424975395203,0.741504430770874,-0.012494146823883057,-0.0011307969689369202,-0.003873109817504883,-0.12520643719667232,1.4009924603552102,0.04731444409159206,0.9779024720191956,0.12487955391407013,-0.16766618192195892, 225, 171, 0, 196
1733261424677,6i,18.98033868243014,2.0s : 0.3s,-8.776853568475957,0.008906119812767302,1.2454991657233805,0.011529234033192013,0.06446642428636551,-0.5220284461975098,0.6997388601303101,-0.011190950870513916,-0.0005373656749725342,-0.0027197599411010742,-0.12499281842730627,1.400254496030696,0.04662026960343762,0.9778047204017639,0.12466760724782944,-0.16839231550693512, 225, 171, 0, 196
1733261424687,6i,18.98033868243014,2.0s : 0.3s,-8.776853568475957,0.009128625818549554,1.2058738206977382,0.011907012430789827,0.04882541671395302,-0.4999697506427765,0.6605678796768188,-0.011418461799621582,0.003260500729084015,0.0008745342493057251,-0.12477908293500904,1.3995482247786353,0.04605126733022988,0.9777117371559143,0.1244555339217186,-0.16908740997314453, 225, 171, 0, 196
1733261424697,6i,18.98033868243014,2.0s : 0.3s,-8.776853568475957,0.009356065631871191,1.1596670579511568,0.01404719674114552,0.04340268671512604,-0.48073533177375793,0.6178979277610779,-0.013950884342193604,-0.0007227510213851929,0.0014745146036148071,-0.1245798967732583,1.398860826516024,0.045595761878502436,0.9776197075843811,0.1242578998208046,-0.16976366937160492, 225, 171, 0, 196
1733261424707,6i,18.98033868243014,2.0s : 0.3s,-8.776853568475957,0.009591022366546157,1.1102039622509743,0.016307785260961542,0.052061423659324646,-0.4606887400150299,0.5787187814712524,-0.014400482177734375,-0.004571281373500824,0.006137862801551819,-0.1243679517398409,1.3981221454229582,0.045113869338931974,0.9775198698043823,0.12404759228229523,-0.1704902946949005, 225, 171, 0, 196
1733261424717,6i,18.98033868243014,2.0s : 0.3s,-8.776853568475957,0.009827267408355536,1.0556011368237985,0.01296727991527168,0.05912945419549942,-0.431539922952652,0.5375570058822632,-0.012962579727172852,-0.00025035440921783447,0.00024330615997314453,-0.12413459238513593,1.3973983758798851,0.04455629012237974,0.9774249196052551,0.12381602823734283,-0.17120276391506195, 225, 171, 0, 196
1733261424727,6i,18.98033868243014,2.0s : 0.3s,-8.776853568475957,0.010067445859465864,0.9960229845095704,0.015257819838891691,0.06334444135427475,-0.39762136340141296,0.4959416091442108,-0.014958739280700684,0.0016362592577934265,-0.0025218725204467773,-0.12389407002061971,1.3967669472542725,0.04392580233317321,0.9773458242416382,0.12357735633850098,-0.17182505130767822, 225, 171, 0, 196
1733261424737,6i,18.98033868243014,2.0s : 0.3s,-8.776853568475957,0.010312496217718129,0.9350296656824677,0.015831347374434614,0.053560782223939896,-0.3683926463127136,0.4586499035358429,-0.015783309936523438,0.00038955360651016235,0.001169160008430481,-0.1236281236608627,1.3962279348343825,0.04331020237706905,0.9772853255271912,0.12331344187259674,-0.17235751450061798, 225, 171, 0, 196
1733261424747,6i,18.98033868243014,2.0s : 0.3s,-8.776853568475957,0.010567663486960394,0.8746857801198409,0.017533999913186153,0.027349818497896194,-0.3483380675315857,0.4210571050643921,-0.013631939888000488,-0.009487025439739227,0.005622074007987976,-0.123386297098557,1.3957050990341993,0.04289531830509343,0.977224588394165,0.12307345867156982,-0.17287367582321167, 225, 171, 0, 196
1733261424757,6i,18.98033868243014,2.0s : 0.3s,-8.776853568475957,0.010824329519670935,0.8159082510327933,0.020361941590854485,0.005788865964859724,-0.32840779423713684,0.3858117461204529,-0.006547868251800537,-0.016399532556533813,0.010138511657714844,-0.12317131313160508,1.3951790651733096,0.04271990221656611,0.9771595001220703,0.12286010384559631,-0.17339229583740234, 225, 171, 0, 196
1733261424767,6i,18.98033868243014,2.0s : 0.3s,-8.776853568475957,0.011063797366680075,0.7566175759425791,0.011636898793949238,0.007991433143615723,-0.3006366789340973,0.3495410084724426,-0.001986563205718994,-0.007506325840950012,0.008667528629302979,-0.12294337145556883,1.3946750400504386,0.042650295952120956,0.9770994782447815,0.12263388931751251,-0.17388969659805298, 225, 171, 0, 196
1733261424777,6i,18.98033868243014,2.0s : 0.3s,-8.776853568475957,0.011292878176053631,0.6970865967618103,0.0069766864751216835,0.01639770157635212,-0.2737962603569031,0.3128381371498108,-0.006726741790771484,-0.0012328699231147766,0.0013802647590637207,-0.12271064570400318,1.3942206543747104,0.042507074895938614,0.977048397064209,0.12240291386842728,-0.17433865368366241, 225, 171, 0, 196
1733261424787,6i,18.98033868243014,2.0s : 0.3s,-8.776853568475957,0.011527018566989075,0.6400746474826087,0.013952220756475675,0.02871548756957054,-0.25331225991249084,0.27931174635887146,-0.013255000114440918,-0.0007252171635627747,-0.004294589161872864,-0.1224605242684964,1.3937718105095427,0.04227353455833739,0.9770002365112305,0.12215467542409897,-0.17478258907794952, 225, 171, 0, 196
1733261424797,6i,18.98033868243014,2.0s : 0.3s,-8.776853568475957,0.011771777881049465,0.5857333070551329,0.016658814981804278,0.04465264454483986,-0.2336767613887787,0.24719242751598358,-0.013978123664855957,-0.0028733909130096436,-0.008594870567321777,-0.12219581985894921,1.393275108302208,0.04189183047027096,0.9769450426101685,0.12189194560050964,-0.17527353763580322, 225, 171, 0, 196
1733261424807,6i,18.98033868243014,2.0s : 0.3s,-8.776853568475957,0.012009437509169368,0.5343578424818793,0.010501477949932047,0.06536723673343658,-0.21230410039424896,0.21836039423942566,-0.009681880474090576,0.0024059563875198364,-0.003279268741607666,-0.12187318617966668,1.3927454810680648,0.04134815663159972,0.9768907427787781,0.12157171219587326,-0.17579787969589233, 225, 171, 0, 196
1733261424817,6i,18.98033868243014,2.0s : 0.3s,-8.776853568475957,0.012203174909705556,0.48519359321542005,0.018899019977443823,0.07299239933490753,-0.1910289078950882,0.18999506533145905,-0.0007942914962768555,0.01873333752155304,0.0023673027753829956,-0.12151914987832473,1.3922057785744089,0.04062764826467941,0.9768381118774414,0.12122029066085815,-0.1763327419757843, 225, 171, 0, 196
1733261424827,6i,18.98033868243014,2.0s : 0.3s,-8.776853568475957,0.012353336062348905,0.4393090068280062,0.017954316265132032,0.06142350286245346,-0.17574381828308105,0.1655743569135666,0.003090381622314453,0.01768098771572113,-0.0004355311393737793,-0.12114969935581846,1.3916466235567484,0.03996900855111071,0.9767833352088928,0.12085355818271637,-0.17688687145709991, 225, 171, 0, 196
1733261424837,6i,18.98033868243014,2.0s : 0.3s,-8.776853568475957,0.012482682555347973,0.39478323954069444,0.005320758942668799,0.0711435079574585,-0.14928318560123444,0.1438767910003662,0.0009111762046813965,0.0027037635445594788,0.004491090774536133,-0.12075845775556598,1.3911104893356316,0.03932575003558208,0.9767346978187561,0.12046517431735992,-0.17741896212100983, 225, 171, 0, 196
1733261424847,6i,18.98033868243014,2.0s : 0.3s,-8.776853568475957,0.012613497465708315,0.35097179778171483,0.0077084244687481455,0.07890714704990387,-0.12168387323617935,0.12148267030715942,-0.006688892841339111,-0.0021693333983421326,0.0031579285860061646,-0.12030291737363763,1.3906420528287358,0.038577934038687214,0.9767053127288818,0.12001293897628784,-0.17788627743721008, 225, 171, 0, 196
1733261424857,6i,18.98033868243014,2.0s : 0.3s,-8.776853568475957,0.012752432110833713,0.3095737164434854,0.012356645472629555,0.07540189474821091,-0.09658437967300415,0.10625658929347992,-0.0116690993309021,0.003100872039794922,-0.002627432346343994,-0.11983587378790107,1.3902796755942715,0.03782636894097549,0.9766959547996521,0.11954925954341888,-0.1782502681016922, 225, 171, 0, 196
1733261424867,6i,18.98033868243014,2.0s : 0.3s,-8.776853568475957,0.012907057419723447,0.270421338101802,0.013878140371916797,0.06335669010877609,-0.08251338452100754,0.0865190327167511,-0.013560295104980469,-0.001251131296157837,-0.0026750415563583374,-0.11936270532149523,1.3899638520704125,0.037153861600619585,0.9766950607299805,0.11907947063446045,-0.17856886982917786, 225, 171, 0, 196
1733261424877,6i,18.98033868243014,2.0s : 0.3s,-8.776853568475957,0.013083991253758356,0.23703918427720272,0.017703190287205878,0.06808459758758545,-0.07458701729774475,0.06822977215051651,-0.011061310768127441,-0.012459643185138702,-0.005983948707580566,-0.11892568655922282,1.3896118390318308,0.036546222402185906,0.9766832590103149,0.1186455488204956,-0.17892202734947205, 225, 171, 0, 196
1733261424887,6i,18.98033868243014,2.0s : 0.3s,-8.776853568475957,0.013275346853134314,0.21272425217742155,0.01817291246857126,0.09740040451288223,-0.06082060560584068,0.055251192301511765,-0.007027089595794678,-0.012551657855510712,-0.011105433106422424,-0.11846516931195539,1.3891944869000377,0.03577167770690102,0.9766622185707092,0.11818827688694,-0.17933949828147888, 225, 171, 0, 196
1733261424897,6i,18.98033868243014,2.0s : 0.3s,-8.776853568475957,0.013452474043502662,0.20896244493912594,0.017726552080077996,0.15077681839466095,-0.04057525843381882,0.04748062044382095,-0.001907050609588623,0.007019437849521637,-0.016165435314178467,-0.11791792911523134,1.3887941719272956,0.03458748254273591,0.9766538143157959,0.11764485388994217,-0.17974212765693665, 225, 171, 0, 196
1733261424907,6i,18.98033868243014,2.0s : 0.3s,-8.776853568475957,0.013595137741424831,0.207564575665878,0.03581999580570264,0.1829262226819992,-0.025376152247190475,0.04178797826170921,-0.003536403179168701,0.023650743067264557,-0.0266684889793396,-0.11741166237787211,1.3884509310519413,0.03297039771633037,0.9766504168510437,0.11714208871126175,-0.1800881177186966, 225, 171, 0, 196
1733261424917,6i,18.98033868243014,2.0s : 0.3s,-8.776853568475957,0.01371560638173129,0.2258580895721445,0.03982484313705577,0.22323796153068542,-0.014097398146986961,0.04220156744122505,-0.006631791591644287,0.028186649084091187,-0.027341365814208984,-0.11670085938670512,1.3881554244790337,0.031039046104199105,0.9766788482666016,0.11643614619970322,-0.1803918033838272, 225, 171, 0, 196
1733261424927,6i,18.98033868243014,2.0s : 0.3s,-8.776853568475957,0.013828852557242826,0.25743183210770254,0.03723829433883846,0.2575420141220093,-0.0007189649622887373,0.04703204333782196,-0.006205260753631592,0.028629228472709656,-0.02299027144908905,-0.11582512403131141,1.3878594860170677,0.028733450923778853,0.9767252206802368,0.11556632071733475,-0.18069928884506226, 225, 171, 0, 196
1733261424937,6i,18.98033868243014,2.0s : 0.3s,-8.776853568475957,0.013938919559049336,0.2798171182903225,0.041606019962969545,0.24925239384174347,0.002358317608013749,0.04582110419869423,-0.005719602108001709,0.03084687888622284,-0.02732795476913452,-0.11495974815511294,1.38758551631453,0.026288638273868466,0.9767736792564392,0.11470670253038406,-0.18098503351211548, 225, 171, 0, 196
1733261424947,6i,18.98033868243014,2.0s : 0.3s,-8.776853568475957,0.014072215185918101,0.2966238654972541,0.03210320442445058,0.24823600053787231,0.00617582630366087,0.04835286736488342,-0.006247401237487793,0.01340910792350769,-0.028491780161857605,-0.11408119974542466,1.3873429871711065,0.02393638537928993,0.9768284559249878,0.11383391171693802,-0.1812402307987213, 225, 171, 0, 196
1733261424957,6i,18.98033868243014,2.0s : 0.3s,-8.776853568475957,0.014241110738371032,0.312738556902144,0.021746296716140492,0.25723615288734436,0.012399100698530674,0.05170924961566925,-0.008772850036621094,-0.005417615175247192,-0.01914648711681366,-0.11308032769497986,1.3871071783587983,0.021519241735543773,0.9768971800804138,0.1128394827246666,-0.18149130046367645, 225, 171, 0, 196
1733261424967,6i,18.98033868243014,2.0s : 0.3s,-8.776853568475957,0.01445183002284756,0.31496610277776516,0.02923416480641098,0.2424304336309433,0.021511327475309372,0.06273610144853592,-0.010460913181304932,-0.008844509720802307,-0.02582596242427826,-0.11199902245948033,1.386922844422578,0.019137683865146044,0.9769830703735352,0.11176501959562302,-0.18169355392456055, 225, 171, 0, 196
1733261424977,6i,18.98033868243014,2.0s : 0.3s,-8.776853568475957,0.014705515875808029,0.31496418194607007,0.029381847780121838,0.2255534529685974,0.02047136425971985,0.06730049848556519,-0.013402879238128662,-0.018980413675308228,-0.017983317375183105,-0.11105115666729648,1.3867555588918814,0.01693109624532159,0.9770564436912537,0.11082304269075394,-0.1818763166666031, 225, 171, 0, 196
1733261424987,6i,18.98033868243014,2.0s : 0.3s,-8.776853568475957,0.015018665530546997,0.31275426729252537,0.04522548551470564,0.2069118469953537,0.011939838528633118,0.07248120754957199,-0.014193356037139893,-0.04247743636369705,-0.00628972053527832,-0.11020524376389555,1.3864865119380092,0.014904144848658346,0.9770992994308472,0.10998230427503586,-0.1821562945842743, 225, 171, 0, 196
1733261424997,6i,18.98033868243014,2.0s : 0.3s,-8.776853568475957,0.015406716300249134,0.2978159443665543,0.05977464121762746,0.18439961969852448,0.000754828448407352,0.0617193765938282,-0.00849694013595581,-0.05916742980480194,-0.00015808641910552979,-0.10935779950494419,1.3862097064603005,0.013083185984624733,0.9771402478218079,0.10913995653390884,-0.18244382739067078, 225, 171, 0, 196
1733261425007,6i,18.98033868243014,2.0s : 0.3s,-8.776853568475957,0.015850885075295973,0.2966630419906654,0.06223832903753877,0.20389343798160553,-0.013275325298309326,0.06265594065189362,-0.006082296371459961,-0.061936140060424805,0.0007278919219970703,-0.10852046318726571,1.3858666333112364,0.011311322225101537,0.9771668910980225,0.10830758512020111,-0.18279576301574707, 225, 171, 0, 196
1733261425017,6i,18.98033868243014,2.0s : 0.3s,-8.776853568475957,0.016332788215499352,0.29910585767074177,0.0530764381020114,0.2289593666791916,-0.014101438224315643,0.0689934641122818,-0.009137749671936035,-0.05216065049171448,-0.003588363528251648,-0.10758964547522387,1.3854306527968976,0.009269254511480864,0.9771857261657715,0.10738220065832138,-0.18324024975299835, 225, 171, 0, 196
1733261425027,6i,18.98033868243014,2.0s : 0.3s,-8.776853568475957,0.016856699783989418,0.3111236397437776,0.05062188820312944,0.24347825348377228,-0.026454022154211998,0.08304613828659058,-0.0076961517333984375,-0.0476374551653862,-0.01529763638973236,-0.10646270158618044,1.384912792194752,0.007044766271212207,0.9772090315818787,0.10626170039176941,-0.18376852571964264, 225, 171, 0, 196
1733261425037,6i,18.98033868243014,2.0s : 0.3s,-8.776853568475957,0.017405020736616695,0.3151941011304913,0.04567738177107264,0.2330956608057022,-0.03497134521603584,0.09948556125164032,-0.0031786561012268066,-0.04466520994901657,-0.009018778800964355,-0.10513096160437756,1.3843228040141335,0.0048472066331842045,0.9772387742996216,0.10493741184473038,-0.18437112867832184, 225, 171, 0, 196
1733261425047,6i,18.98033868243014,2.0s : 0.3s,-8.776853568475957,0.0179559194076941,0.3145487741724057,0.0416893923447931,0.20467160642147064,-0.048162735998630524,0.10604875534772873,0.005282163619995117,-0.04100202023983002,-0.0053794533014297485,-0.10370306310942087,1.3836561598936898,0.00287444857148493,0.9772619009017944,0.10351728647947311,-0.18505024909973145, 225, 171, 0, 196
1733261425057,6i,18.98033868243014,2.0s : 0.3s,-8.776853568475957,0.01850531425643411,0.314518030455815,0.05120851715852319,0.2017943263053894,-0.047143276780843735,0.12354225665330887,0.0136796236038208,-0.04919348657131195,-0.003896281123161316,-0.10218185711159629,1.382964633005509,0.0011078005121174265,0.9772871136665344,0.10200413316488266,-0.1857551783323288, 225, 171, 0, 196
1733261425067,6i,18.98033868243014,2.0s : 0.3s,-8.776853568475957,0.019035770452069518,0.31603733362656117,0.053174356558528764,0.20797045528888702,-0.061181068420410156,0.13205479085445404,0.022756099700927734,-0.04796941578388214,0.002933815121650696,-0.10046067879059761,1.3822232577863782,-0.000694006173453159,0.97732013463974,0.10029178112745285,-0.186512291431427, 225, 171, 0, 196
1733261425077,6i,18.98033868243014,2.0s : 0.3s,-8.776853568475957,0.019529283578934128,0.31684223545663354,0.04939533328571496,0.19925153255462646,-0.073139987885952,0.13405774533748627,0.0324397087097168,-0.037223562598228455,-0.0014037936925888062,-0.09861682328463409,1.3813727700056835,-0.0024633645542233213,0.9773410558700562,0.09845705330371857,-0.1873779147863388, 225, 171, 0, 196
1733261425087,6i,18.98033868243014,2.0s : 0.3s,-8.776853568475957,0.020005806057756665,0.3158324018876786,0.04400770988332872,0.1795702576637268,-0.0863732397556305,0.1368863582611084,0.027029693126678467,-0.03258846700191498,-0.012002751231193542,-0.0967192887755622,1.380450114455883,-0.0040571386873033185,0.9773495197296143,0.09656856209039688,-0.18831461668014526, 225, 171, 0, 196
1733261425097,6i,18.98033868243014,2.0s : 0.3s,-8.776853568475957,0.020471284910634914,0.31674023399925677,0.0400954922673192,0.19139628112316132,-0.09054934233427048,0.13631510734558105,0.022650480270385742,-0.03267442435026169,-0.005194827914237976,-0.09478220767481327,1.3794062063418355,-0.005611922672983961,0.977334201335907,0.09464035928249359,-0.18937000632286072, 225, 171, 0, 196
1733261425107,6i,18.98033868243014,2.0s : 0.3s,-8.776853568475957,0.020904355224395575,0.3177227057705269,0.02055081765776456,0.187776118516922,-0.09574033319950104,0.13977986574172974,0.017086386680603027,-0.011065535247325897,-0.002818763256072998,-0.09274139744957409,1.3782301318144514,-0.007258783578622839,0.977298378944397,0.0926085114479065,-0.1905558556318283, 225, 171, 0, 196
1733261425117,6i,18.98033868243014,2.0s : 0.3s,-8.776853568475957,0.021305755007078424,0.31809637733302837,0.02004119334701874,0.17944468557834625,-0.10519775003194809,0.1386333703994751,0.010715782642364502,0.0034883469343185425,-0.016572654247283936,-0.0907677147015225,1.377022411080788,-0.008807064085434852,0.9772450923919678,0.09064313024282455,-0.19177086651325226, 225, 171, 0, 196
1733261425127,6i,18.98033868243014,2.0s : 0.3s,-8.776853568475957,0.021650237620808484,0.32214690629001447,0.027421972471421252,0.1967293918132782,-0.1051063984632492,0.1382705122232437,0.00991743803024292,0.02011924237012863,-0.015774190425872803,-0.08880785639001817,1.3758340694657614,-0.010345169227557195,0.9771888852119446,0.08869116753339767,-0.1929660588502884, 225, 171, 0, 196
1733261425137,6i,18.98033868243014,2.0s : 0.3s,-8.776853568475957,0.02188715209668373,0.33129355342741534,0.04755049973294061,0.21352942287921906,-0.09291338175535202,0.1410958617925644,0.011285841464996338,0.04604152590036392,-0.0037225931882858276,-0.08680363271092925,1.3747320255516113,-0.012121644151572672,0.9771479368209839,0.08669466525316238,-0.19407707452774048, 225, 171, 0, 196
1733261425147,6i,18.98033868243014,2.0s : 0.3s,-8.776853568475957,0.022032809090309646,0.33681491229173893,0.043862335149810354,0.21372860670089722,-0.09955894947052002,0.13811750710010529,-0.003733515739440918,0.04309666156768799,-0.00725555419921875,-0.08485851694745399,1.3736806246448978,-0.013938516040706846,0.9771069288253784,0.08475670963525772,-0.19513700902462006, 225, 171, 0, 196
1733261425157,6i,18.98033868243014,2.0s : 0.3s,-8.776853568475957,0.022119073370315948,0.3383656443700997,0.03473257679553949,0.2014884501695633,-0.11404414474964142,0.12976184487342834,-0.004707992076873779,0.034411266446113586,0.00022681057453155518,-0.08300885005452882,1.3725036125475956,-0.015723030933362084,0.977028489112854,0.08291355520486832,-0.19631747901439667, 225, 171, 0, 196
1733261425167,6i,18.98033868243014,2.0s : 0.3s,-8.776853568475957,0.022072119207090728,0.34420435318530745,0.036531673620073014,0.21322967112064362,-0.12672342360019684,0.12932391464710236,0.01435321569442749,0.032519228756427765,0.008429005742073059,-0.08124808900986533,1.3711499656799147,-0.0174950495216691,0.97690349817276,0.08115872740745544,-0.19766849279403687, 225, 171, 0, 196
1733261425177,6i,18.98033868243014,2.0s : 0.3s,-8.776853568475957,0.021817274112409094,0.3596424388101253,0.04345953654702137,0.23938697576522827,-0.13840031623840332,0.11037260293960571,0.0166168212890625,0.04006386548280716,0.002738475799560547,-0.0795420592342171,1.3696772732885543,-0.019436632278451813,0.97674560546875,0.07945820689201355,-0.19913433492183685, 225, 171, 0, 196
1733261425187,6i,18.98033868243014,2.0s : 0.3s,-8.776853568475957,0.02145554810973574,0.381526656638881,0.04511084450007188,0.27543365955352783,-0.14253540337085724,0.09753350168466568,0.004599392414093018,0.04487522691488266,-0.00021883845329284668,-0.07800659500208235,1.368136768023614,-0.021742036251192486,0.976556122303009,0.07792750746011734,-0.20066311955451965, 225, 171, 0, 196
1733261425197,6i,18.98033868243014,2.0s : 0.3s,-8.776853568475957,0.020995294551822266,0.42372371546547594,0.0513218834735797,0.3610740005970001,-0.14659859240055084,0.07057298719882965,0.0009101033210754395,0.051295243203639984,0.0013803839683532715,-0.07652600550595734,1.3664288606290003,-0.024666666007098634,0.9763238430023193,0.07645133137702942,-0.20235387980937958, 225, 171, 0, 196
1733261425207,6i,18.98033868243014,2.0s : 0.3s,-8.776853568475957,0.0203078132962688,0.494030338468552,0.07366747438885678,0.4798484444618225,-0.1391608715057373,0.04353940486907959,0.0058402419090271,0.07327913492918015,0.004791319370269775,-0.0751221794858109,1.364707597449129,-0.028649747932564733,0.9760780930519104,0.07505154609680176,-0.20405583083629608, 225, 171, 0, 196
1733261425217,6i,18.98033868243014,2.0s : 0.3s,-8.776853568475957,0.019388992499391276,0.5911180438318575,0.09469926813585625,0.6072967052459717,-0.12929172813892365,0.014206551015377045,0.004926502704620361,0.09436078369617462,0.00630265474319458,-0.07375108618362063,1.362945985457809,-0.033951209314185035,0.9758169651031494,0.07368424534797668,-0.2057960331439972, 225, 171, 0, 196
1733261425227,6i,18.98033868243014,2.0s : 0.3s,-8.776853568475957,0.01833663323960492,0.7201595075324699,0.10870210356353578,0.7619050145149231,-0.11878488212823868,-0.015157895162701607,0.002759993076324463,0.10857423394918442,-0.004490599036216736,-0.07235126860669881,1.3612059023205805,-0.040607024124156246,0.975557267665863,0.0722881630063057,-0.20751497149467468, 225, 171, 0, 196
1733261425237,6i,18.98033868243014,2.0s : 0.3s,-8.776853568475957,0.017249631169346424,0.8678992725556666,0.13330007203090863,0.9080340266227722,-0.08168971538543701,-0.031328342854976654,-0.011569797992706299,0.1327386349439621,-0.003937482833862305,-0.07081172966757272,1.359598692768355,-0.04891934671449371,0.9753301739692688,0.0707525685429573,-0.2091057300567627, 225, 171, 0, 196
1733261425247,6i,18.98033868243014,2.0s : 0.3s,-8.776853568475957,0.016315555750141347,1.0068854271512953,0.1742892748836993,0.9952173829078674,-0.053974997252225876,-0.06397077441215515,-0.02956944704055786,0.1712796837091446,-0.01287125051021576,-0.06926945915055722,1.3582683200152923,-0.05835181962509941,0.9751565456390381,0.06921407580375671,-0.21042583882808685, 225, 171, 0, 196
1733261425257,6i,18.98033868243014,2.0s : 0.3s,-8.776853568475957,0.015820095851304894,1.1585345123919946,0.20912976217905774,1.128035545349121,-0.019005825743079185,-0.11259769648313522,-0.0406421422958374,0.20480039715766907,-0.01184360682964325,-0.0678957781553972,1.357156576671111,-0.06894528057585496,0.9750140309333801,0.06784362345933914,-0.21152980625629425, 225, 171, 0, 196
1733261425267,6i,18.98033868243014,2.0s : 0.3s,-8.776853568475957,0.016195478507582364,1.2948272787236321,0.22175162196544707,1.1973391771316528,0.01101771928369999,-0.15768977999687195,-0.052245140075683594,0.21492999792099,-0.015789970755577087,-0.0667357159714835,1.3563226306299876,-0.08066699542713607,0.9749135375022888,0.06668619066476822,-0.2123594433069229, 225, 171, 0, 196
1733261425277,6i,18.98033868243014,2.0s : 0.3s,-8.776853568475957,0.01774389517043334,1.4241471826257752,0.24464461830868772,1.2734922170639038,0.019906817004084587,-0.20829570293426514,-0.07059484720230103,0.23379097878932953,-0.014461502432823181,-0.06589352464142233,1.355676489699954,-0.09309007842303127,0.9748306274414062,0.06584584712982178,-0.21300123631954193, 225, 171, 0, 196
1733261425287,6i,18.98033868243014,2.0s : 0.3s,-8.776853568475957,0.020555761391780367,1.5650785889250345,0.27525713977683625,1.387565016746521,0.03412880748510361,-0.27991601824760437,-0.09311717748641968,0.2589469850063324,-0.0064917802810668945,-0.06542522273208418,1.3550366602164572,-0.1066763624954871,0.9747242331504822,0.06537855416536331,-0.2136315256357193, 225, 171, 0, 196
1733261425297,6i,18.98033868243014,2.0s : 0.3s,-8.776853568475957,0.02455812590134406,1.6943209106968649,0.2986428618851762,1.450622797012329,0.04571488872170448,-0.3454931676387787,-0.10750728845596313,0.2777847647666931,-0.021572351455688477,-0.06544736339150067,1.3544777699934705,-0.12122992316991929,0.9746032953262329,0.06540065258741379,-0.21417593955993652, 225, 171, 0, 196
1733261425307,6i,18.98033868243014,2.0s : 0.3s,-8.776853568475957,0.029762102310280227,1.8180900924166181,0.3518101489330123,1.520224928855896,0.055590469390153885,-0.4040318727493286,-0.14125853776931763,0.3208557963371277,-0.02946123480796814,-0.06591063191061743,1.3539701224357912,-0.13657773544348067,0.9744645953178406,0.06586292386054993,-0.21466410160064697, 225, 171, 0, 196
1733261425317,6i,18.98033868243014,2.0s : 0.3s,-8.776853568475957,0.03616100305704199,1.9023397015510881,0.397525287769315,1.4961470365524292,0.06974437087774277,-0.4689927399158478,-0.18402767181396484,0.34740036725997925,-0.05893348157405853,-0.06691038611655503,1.3535560060843563,-0.15236090668806843,0.9743108749389648,0.06686047464609146,-0.21505331993103027, 225, 171, 0, 196
1733261425327,6i,18.98033868243014,2.0s : 0.3s,-8.776853568475957,0.04341180671982185,1.9588138781297937,0.4042623830175665,1.4694583415985107,0.05958925187587738,-0.5328828692436218,-0.20051831007003784,0.345577210187912,-0.06161877512931824,-0.06861540731147552,1.353138636041415,-0.16791041657121547,0.9741082787513733,0.06856157630681992,-0.21543502807617188, 225, 171, 0, 196
1733261425337,6i,18.98033868243014,2.0s : 0.3s,-8.776853568475957,0.0511660005133801,1.998140161873083,0.40260396486959166,1.441339135169983,0.04495517909526825,-0.6103611588478088,-0.19423502683639526,0.3520906865596771,-0.01987096667289734,-0.0710189218986107,1.352568957873649,-0.18326522083898272,0.9738216996192932,0.07095924019813538,-0.21595361828804016, 225, 171, 0, 196
1733261425347,6i,18.98033868243014,2.0s : 0.3s,-8.776853568475957,0.059370029424040724,2.0547578878804096,0.4170550249431962,1.4782007932662964,0.0338098481297493,-0.7080243825912476,-0.18355566263198853,0.3729609549045563,-0.03379850089550018,-0.07431201877556731,1.3518223171874015,-0.19867029417170523,0.9734268188476562,0.07424364238977432,-0.21662871539592743, 225, 171, 0, 196
1733261425357,6i,18.98033868243014,2.0s : 0.3s,-8.776853568475957,0.0682777822559372,2.1414397616856093,0.4785529205955354,1.554243564605713,0.009396119974553585,-0.8175866007804871,-0.18983179330825806,0.4376368522644043,-0.038089022040367126,-0.07843472391466018,1.350798341823013,-0.21496293740361913,0.9728975892066956,0.07835432887077332,-0.21755672991275787, 225, 171, 0, 196
1733261425367,6i,18.98033868243014,2.0s : 0.3s,-8.776853568475957,0.07817315420759566,2.241642929347014,0.553782904869155,1.6126776933670044,0.03243987634778023,-0.9115323424339294,-0.19552987813949585,0.514103353023529,-0.06435304880142212,-0.0834360528639826,1.3496286228720564,-0.2321663901893515,0.9722480177879333,0.08333928138017654,-0.2186059206724167, 225, 171, 0, 196
1733261425377,6i,18.98033868243014,2.0s : 0.3s,-8.776853568475957,0.0889874767247408,2.3338854958330257,0.5853866518038966,1.6157948970794678,0.020095590502023697,-1.0170003175735474,-0.21295303106307983,0.5415862798690796,-0.0633469820022583,-0.08926953761618549,1.3483067951402798,-0.2498847388994243,0.9714674353599548,0.08915101736783981,-0.2197798490524292, 225, 171, 0, 196
1733261425387,6i,18.98033868243014,2.0s : 0.3s,-8.776853568475957,0.10040468038584895,2.435722759234703,0.5740684529713916,1.643962025642395,0.016378307715058327,-1.1446102857589722,-0.25132715702056885,0.5140749216079712,-0.04600243270397186,-0.09621135226240443,1.3467821341025183,-0.2679524926229458,0.9705043435096741,0.09606298804283142,-0.22111792862415314, 225, 171, 0, 196
1733261425397,6i,18.98033868243014,2.0s : 0.3s,-8.776853568475957,0.11250701936383282,2.563089990153459,0.6120705191796925,1.7178375720977783,0.022324880585074425,-1.277846336364746,-0.2762969732284546,0.5421960949897766,-0.06567874550819397,-0.1042787878737404,1.3450627949661602,-0.28679455105951585,0.9693357944488525,0.1040899008512497,-0.22260549664497375, 225, 171, 0, 196
1733261425407,6i,18.98033868243014,2.0s : 0.3s,-8.776853568475957,0.1255355786535854,2.703733996326096,0.6805469753924137,1.7743642330169678,0.02680595964193344,-1.412908911705017,-0.2779257297515869,0.6158547401428223,-0.08139050006866455,-0.11345344714165446,1.343109466816579,-0.30667016244239426,0.9679281711578369,0.11321021616458893,-0.22427353262901306, 225, 171, 0, 196
1733261425417,6i,18.98033868243014,2.0s : 0.3s,-8.776853568475957,0.13945003229442313,2.843834391960731,0.7160687891556238,1.7970917224884033,0.025485031306743622,-1.5486470460891724,-0.28925031423568726,0.6495478749275208,-0.08471319079399109,-0.12382432297685057,1.3409085905821718,-0.32732924495994925,0.96623694896698,0.12350814044475555,-0.22612354159355164, 225, 171, 0, 196
1733261425427,6i,18.98033868243014,2.0s : 0.3s,-8.776853568475957,0.15396511640739066,2.9742468353245677,0.7130865486247829,1.783823013305664,-0.009326301515102386,-1.6866304874420166,-0.3001311421394348,0.6437064409255981,-0.06368470191955566,-0.13548571221226702,1.3382405393399972,-0.3483336866550785,0.9641631245613098,0.13507159054279327,-0.22835324704647064, 225, 171, 0, 196
1733261425437,6i,18.98033868243014,2.0s : 0.3s,-8.776853568475957,0.1689206846342518,3.1087843767300005,0.7173324732436666,1.8148237466812134,-0.03383750468492508,-1.805465579032898,-0.2778221368789673,0.6578875184059143,-0.06756293773651123,-0.14830433526042536,1.334953871093467,-0.369898922462609,0.9616448283195496,0.1477613002061844,-0.23109732568264008, 225, 171, 0, 196
1733261425447,6i,18.98033868243014,2.0s : 0.3s,-8.776853568475957,0.1841836954299206,3.2303175289678565,0.7200604682327488,1.7969450950622559,-0.06172297149896622,-1.9173858165740967,-0.2423601746559143,0.6728969812393188,-0.08341628313064575,-0.16213251248989197,1.3310279005411103,-0.3917838379465943,0.9586535692214966,0.16142311692237854,-0.23436325788497925, 225, 171, 0, 196
1733261425457,6i,18.98033868243014,2.0s : 0.3s,-8.776853568475957,0.19948782715399052,3.337984413411364,0.7047163992527167,1.7468258142471313,-0.09717310965061188,-2.0396511554718018,-0.22389018535614014,0.6642566919326782,-0.07253575325012207,-0.17709106659104804,1.3265195174834006,-0.4136867157087757,0.9551371932029724,0.17616687715053558,-0.23807215690612793, 225, 171, 0, 196
1733261425467,6i,18.98033868243014,2.0s : 0.3s,-8.776853568475957,0.21478231869589723,3.466623140027375,0.686247766488668,1.7875518798828125,-0.13756917417049408,-2.1723434925079346,-0.2090146541595459,0.6521638631820679,-0.04394504427909851,-0.19321331413317647,1.3211677484045279,-0.43598002609331293,0.9509734511375427,0.19201339781284332,-0.24244718253612518, 225, 171, 0, 196
1733261425477,6i,18.98033868243014,2.0s : 0.3s,-8.776853568475957,0.23008958727662557,3.629154553237758,0.7036023515360342,1.8892481327056885,-0.16467776894569397,-2.31449031829834,-0.1699952483177185,0.6813037395477295,-0.04453200101852417,-0.21033467082958263,1.3148493548870377,-0.45951195028204117,0.946103036403656,0.208787202835083,-0.24758225679397583, 225, 171, 0, 196
1733261425487,6i,18.98033868243014,2.0s : 0.3s,-8.776853568475957,0.2456331813416002,3.808213408958338,0.7474249082870763,1.9749492406845093,-0.17505015432834625,-2.4503087997436523,-0.1293739676475525,0.7333546280860901,-0.0640106201171875,-0.22841959949392512,1.3076081704207372,-0.4845844623457248,0.940485417842865,0.2264384627342224,-0.2534027397632599, 225, 171, 0, 196
1733261425497,6i,18.98033868243014,2.0s : 0.3s,-8.776853568475957,0.26137399653042126,3.9736242600875835,0.7546473461095609,1.9650145769119263,-0.20615828037261963,-2.584285259246826,-0.11030721664428711,0.7443666458129883,-0.05694937705993652,-0.24750191303785327,1.2995071785997296,-0.5106329348895762,0.9340682625770569,0.2449827641248703,-0.259807825088501, 225, 171, 0, 196
1733261425507,6i,18.98033868243014,2.0s : 0.3s,-8.776853568475957,0.27709992277137974,4.13303205676835,0.7187454142590075,1.98079514503479,-0.23265086114406586,-2.7054405212402344,-0.0924573540687561,0.71240234375,-0.023011058568954468,-0.26758621754344014,1.2903971241502656,-0.5374192800600214,0.9267467856407166,0.2644043266773224,-0.26689064502716064, 225, 171, 0, 196
1733261425517,6i,18.98033868243014,2.0s : 0.3s,-8.776853568475957,0.2926723042229156,4.270824395031535,0.6914122932296884,1.9377692937850952,-0.27157509326934814,-2.8145363330841064,-0.05373859405517578,0.6893042325973511,-0.004774689674377441,-0.2885607054143822,1.280285629192778,-0.5646651758518749,0.9184846878051758,0.2845727205276489,-0.27459847927093506, 225, 171, 0, 196
1733261425527,6i,18.98033868243014,2.0s : 0.3s,-8.776853568475957,0.3076729876587388,4.384964910875353,0.6664504238772904,1.8714247941970825,-0.3151540458202362,-2.909461498260498,0.0009285807609558105,0.666446328163147,0.002144038677215576,-0.31039178326464995,1.269122190922048,-0.5920729138948935,0.9092124104499817,0.3054317235946655,-0.2829210162162781, 225, 171, 0, 196
1733261425537,6i,18.98033868243014,2.0s : 0.3s,-8.776853568475957,0.32194519066943966,4.4783009218733865,0.6296481552171235,1.7873666286468506,-0.3538207411766052,-2.9989523887634277,0.04379689693450928,0.6276893615722656,0.023338735103607178,-0.3330058504959815,1.2570217915726587,-0.619423032388414,0.8989216685295105,0.3268852233886719,-0.2916950285434723, 225, 171, 0, 196
1733261425547,6i,18.98033868243014,2.0s : 0.3s,-8.776853568475957,0.335640667321288,4.578772624302572,0.6298639654437715,1.7293307781219482,-0.3892627954483032,-3.130577802658081,0.07519710063934326,0.6244094371795654,0.034450918436050415,-0.35654673521510827,1.2438429174824985,-0.6470330295099916,0.8874645829200745,0.3490402400493622,-0.300960898399353, 225, 171, 0, 196
1733261425557,6i,18.98033868243014,2.0s : 0.3s,-8.776853568475957,0.3492803537210479,4.684079630060137,0.6534492286208008,1.6928175687789917,-0.43871182203292847,-3.2419862747192383,0.11254614591598511,0.6432797908782959,0.02281162142753601,-0.3810743186633943,1.22941229608943,-0.6750795481105436,0.8746973872184753,0.3719179332256317,-0.310775488615036, 225, 171, 0, 196
1733261425567,6i,18.98033868243014,2.0s : 0.3s,-8.776853568475957,0.36281593953143154,4.799260617019906,0.6541316507827547,1.6863322257995605,-0.4942582845687866,-3.3516688346862793,0.16272056102752686,0.6323614120483398,0.039106011390686035,-0.4062645718638395,1.2134682828571621,-0.7039574387147091,0.8605796098709106,0.39518070220947266,-0.32130205631256104, 225, 171, 0, 196
1733261425577,6i,18.98033868243014,2.0s : 0.3s,-8.776853568475957,0.3762448620811973,4.936864206391759,0.6696097366482769,1.7412699460983276,-0.542133629322052,-3.472480297088623,0.21371346712112427,0.6344343423843384,0.014029204845428467,-0.43200974938865905,1.1956568442735989,-0.7342635547076511,0.8449718952178955,0.4186967611312866,-0.3327395021915436, 225, 171, 0, 196
1733261425587,6i,18.98033868243014,2.0s : 0.3s,-8.776853568475957,0.38948528993148285,5.068560456745649,0.7199425670136665,1.7470417022705078,-0.5722006559371948,-3.5624732971191406,0.25037407875061035,0.6740752458572388,-0.03539326786994934,-0.4580633671211753,1.1760089375186278,-0.7663562806389339,0.8279187083244324,0.44221195578575134,-0.3449625074863434, 225, 171, 0, 196
1733261425597,6i,18.98033868243014,2.0s : 0.3s,-8.776853568475957,0.4027038915327771,5.173555423613162,0.7629356097038721,1.6674299240112305,-0.6216168999671936,-3.6296944618225098,0.3077489137649536,0.6974576711654663,-0.030234873294830322,-0.48443061751094973,1.1548475014390849,-0.7991850297496925,0.8094843626022339,0.4657045602798462,-0.3575672209262848, 225, 171, 0, 196
1733261425607,6i,18.98033868243014,2.0s : 0.3s,-8.776853568475957,0.41557755921847317,5.252571907037353,0.7606838212419345,1.5635638236999512,-0.7108432650566101,-3.6780195236206055,0.38390159606933594,0.6565887928009033,0.01227182149887085,-0.5109900642165525,1.131905125013809,-0.8326913507962526,0.7895908355712891,0.4890410900115967,-0.37065503001213074, 225, 171, 0, 196
1733261425617,6i,18.98033868243014,2.0s : 0.3s,-8.776853568475957,0.4277951873305383,5.316299994655228,0.7458084838040846,1.493277668952942,-0.7657610774040222,-3.719048261642456,0.4513997435569763,0.5933695435523987,0.01952308416366577,-0.5377868237777543,1.1069909118792605,-0.8672471968798966,0.7681132555007935,0.512236475944519,-0.38420814275741577, 225, 171, 0, 196
1733261425627,6i,18.98033868243014,2.0s : 0.3s,-8.776853568475957,0.43948178076375194,5.390595264723421,0.7683855481263154,1.4830650091171265,-0.8302551507949829,-3.788177490234375,0.5078197121620178,0.5763296484947205,0.019484013319015503,-0.5643071881204903,1.080225743074603,-0.902414458407984,0.7453083395957947,0.5348305702209473,-0.3980850279331207, 225, 171, 0, 196
1733261425637,6i,18.98033868243014,2.0s : 0.3s,-8.776853568475957,0.45097442441583996,5.475853795998411,0.7946528861449385,1.4896131753921509,-0.8837359547615051,-3.8620505332946777,0.5369049906730652,0.5856178998947144,-0.0160597562789917,-0.5906110351703567,1.0510670021912798,-0.9394417742079811,0.7209227681159973,0.5568686723709106,-0.412513792514801, 225, 171, 0, 196
1733261425647,6i,18.98033868243014,2.0s : 0.3s,-8.776853568475957,0.462506285786871,5.555994937770152,0.8153160738928953,1.40342116355896,-0.9692026972770691,-3.931939125061035,0.5571503043174744,0.5893725752830505,-0.08344942331314087,-0.6167446028955791,1.019542062734229,-0.9780493464590443,0.6949249505996704,0.5783826112747192,-0.4272622764110565, 225, 171, 0, 196
1733261425657,6i,18.98033868243014,2.0s : 0.3s,-8.776853568475957,0.4741288937448483,5.645321157956912,0.8477263817994292,1.36069655418396,-1.0608978271484375,-4.013753890991211,0.6059895753860474,0.5844376683235168,-0.09924346208572388,-0.6428278739102781,0.9852883086825857,-1.0182705052342897,0.6670817732810974,0.5994612574577332,-0.44232144951820374, 225, 171, 0, 196
1733261425667,6i,18.98033868243014,2.0s : 0.3s,-8.776853568475957,0.48597831657279983,5.741294483335886,0.8963292746720263,1.368849754333496,-1.1379609107971191,-4.078466415405273,0.6642662286758423,0.5937889218330383,-0.0978328287601471,-0.6683951831245731,0.9479843872001011,-1.0607835816426279,0.6374610066413879,0.6197273135185242,-0.4578006863594055, 225, 171, 0, 196
1733261425677,6i,18.98033868243014,2.0s : 0.3s,-8.776853568475957,0.4982179862138598,5.848641037374329,0.9494832384014158,1.4206833839416504,-1.215223789215088,-4.145802021026611,0.7210439443588257,0.6076565980911255,-0.11120930314064026,-0.6929616319061113,0.9071745001290681,-1.10622618909404,0.6060739159584045,0.6388185620307922,-0.47390416264533997, 225, 171, 0, 196
1733261425687,6i,18.98033868243014,2.0s : 0.3s,-8.776853568475957,0.5109136355163322,5.940520690599568,0.986551874858099,1.458466649055481,-1.251718521118164,-4.165921211242676,0.7668942809104919,0.6113367676734924,-0.10688835382461548,-0.7160288858823006,0.862946988159754,-1.1548741044381958,0.5731784105300903,0.6563939452171326,-0.4905238151550293, 225, 171, 0, 196
1733261425697,6i,18.98033868243014,2.0s : 0.3s,-8.776853568475957,0.5240958185408116,6.017270626428047,1.002412058112235,1.4895228147506714,-1.290115475654602,-4.176736831665039,0.7886762022972107,0.6098296642303467,-0.10453498363494873,-0.7372360590923859,0.8157623917837418,-1.2061482043709497,0.5391436219215393,0.6722442507743835,-0.507357656955719, 225, 171, 0, 196
1733261425707,6i,18.98033868243014,2.0s : 0.3s,-8.776853568475957,0.5375469170835631,6.07433712096637,0.9883505766106837,1.4036281108856201,-1.378774642944336,-4.189184665679932,0.7996469140052795,0.5733395218849182,-0.09318512678146362,-0.7567308018325548,0.7656057098643007,-1.2595992412496178,0.5038504004478455,0.686548113822937,-0.5242007374763489, 225, 171, 0, 196
1733261425717,6i,18.98033868243014,2.0s : 0.3s,-8.776853568475957,0.5510179765265846,6.1226521074551,0.9846472595481913,1.3500502109527588,-1.464722990989685,-4.201958656311035,0.8299073576927185,0.5235076546669006,-0.08199840784072876,-0.7749104636224122,0.7126068879161023,-1.3146483244851008,0.467135488986969,0.6996521353721619,-0.5406212210655212, 225, 171, 0, 196
1733261425727,6i,18.98033868243014,2.0s : 0.3s,-8.776853568475957,0.5646477441349936,6.146890400048878,1.0277248049843057,1.278290867805481,-1.5348942279815674,-4.174116611480713,0.8848671317100525,0.5162968039512634,-0.08164584636688232,-0.7911336196538941,0.6569911248732344,-1.3714470360687254,0.4293724000453949,0.7111507058143616,-0.5566902756690979, 225, 171, 0, 196
1733261425737,6i,18.98033868243014,2.0s : 0.3s,-8.776853568475957,0.5783770654030088,6.165538678093631,1.0363989299047691,1.1699103116989136,-1.604767084121704,-4.1862263679504395,0.9096190333366394,0.48086607456207275,-0.12443381547927856,-0.8058721960854641,0.5992075516559611,-1.4292927565658524,0.3905518651008606,0.7214348912239075,-0.5718399286270142, 225, 171, 0, 196
1733261425747,6i,18.98033868243014,2.0s : 0.3s,-8.776853568475957,0.5922962564863348,6.189819431310463,1.022465208438022,1.1261777877807617,-1.6632705926895142,-4.205148696899414,0.9083183407783508,0.45204252004623413,-0.12669038772583008,-0.8188950560980082,0.5390157220143845,-1.488727068448375,0.35059279203414917,0.7303915619850159,-0.5861849188804626, 225, 171, 0, 196
1733261425757,6i,18.98033868243014,2.0s : 0.3s,-8.776853568475957,0.6065839037109784,6.237065362964583,1.0324908690727894,1.188528060913086,-1.7040436267852783,-4.251308441162109,0.9030721783638,0.48001521825790405,-0.14171600341796875,-0.8293366938414131,0.4761469653374887,-1.5504632814033004,0.30955907702445984,0.737483561038971,-0.6002426147460938, 225, 171, 0, 196
1733261425767,6i,18.98033868243014,2.0s : 0.3s,-8.776853568475957,0.6217989607259212,6.292760591718102,1.0852732264524723,1.2739851474761963,-1.7220407724380493,-4.280259132385254,0.9107468128204346,0.5561493635177612,-0.19762617349624634,-0.8365378349247566,0.41078855529545705,-1.61470595973402,0.2675674557685852,0.7423278093338013,-0.6142939925193787, 225, 171, 0, 196
1733261425777,6i,18.98033868243014,2.0s : 0.3s,-8.776853568475957,0.6381940777041918,6.348181573271697,1.125390844383275,1.3173538446426392,-1.7617356777191162,-4.296781539916992,0.9148021936416626,0.6123054623603821,-0.2339305877685547,-0.840206203050791,0.34369418367492527,-1.6805977870141104,0.22486156225204468,0.7447807192802429,-0.6282825469970703, 225, 171, 0, 196
1733261425787,6i,18.98033868243014,2.0s : 0.3s,-8.776853568475957,0.6554820755049386,6.39233587672167,1.13495304404674,1.2690447568893433,-1.8414857387542725,-4.293708801269531,0.93607097864151,0.5993924736976624,-0.229386568069458,-0.8409671970955758,0.2755764913091166,-1.7469024771768364,0.18142172694206238,0.7452883124351501,-0.641585111618042, 225, 171, 0, 196
1733261425797,6i,18.98033868243014,2.0s : 0.3s,-8.776853568475957,0.673135044956814,6.4268346950486706,1.1261600699024432,1.2013027667999268,-1.9237920045852661,-4.288660526275635,0.9687714576721191,0.5333951711654663,-0.21262162923812866,-0.8392112636398079,0.20689369390319823,-1.8128277655364002,0.13723137974739075,0.7441164255142212,-0.6538029313087463, 225, 171, 0, 196
1733261425807,6i,18.98033868243014,2.0s : 0.3s,-8.776853568475957,0.691024825980889,6.459328794431712,1.1413291313701488,1.144315481185913,-1.9977315664291382,-4.294859409332275,1.0034996271133423,0.49964356422424316,-0.21442246437072754,-0.8351080630109049,0.13821828025090982,-1.8779464523407012,0.09246288985013962,0.7413690090179443,-0.6646973490715027, 225, 171, 0, 196
1733261425817,6i,18.98033868243014,2.0s : 0.3s,-8.776853568475957,0.7093594080377417,6.501881171714116,1.1569080521084252,1.1369062662124634,-2.050316095352173,-4.326902389526367,1.0054017305374146,0.5187175869941711,-0.2419414520263672,-0.8282664672380912,0.06960767120285614,-1.9423477947501275,0.04702750965952873,0.7367603182792664,-0.6745166182518005, 225, 171, 0, 196
1733261425827,6i,18.98033868243014,2.0s : 0.3s,-8.776853568475957,0.7284294058611531,6.5552100738085475,1.1655513967392976,1.181854248046875,-2.083343505859375,-4.3640546798706055,0.9789679050445557,0.5724730491638184,-0.2690845727920532,-0.8183023970958508,0.0016154785019614967,-2.005833182636885,0.0011041167890653014,0.7299866080284119,-0.683460533618927, 225, 171, 0, 196
1733261425837,6i,18.98033868243014,2.0s : 0.3s,-8.776853568475957,0.7486469925121555,6.622699632572362,1.2209362794707685,1.248722791671753,-2.156771421432495,-4.395855903625488,0.9928059577941895,0.652282178401947,-0.28204554319381714,-0.8046627505936093,-0.06528741713614067,-2.0678243523590583,-0.04523516446352005,0.7205968499183655,-0.6918771862983704, 225, 171, 0, 196
1733261425847,6i,18.98033868243014,2.0s : 0.3s,-8.776853568475957,0.7698011311379168,6.687066043836234,1.2403340499820892,1.2565810680389404,-2.216549873352051,-4.412954330444336,1.0156716108322144,0.6505646705627441,-0.28914588689804077,-0.7879184180017127,-0.13073847351343315,-2.1276169042724016,-0.09195031970739365,0.7088866233825684,-0.6993032097816467, 225, 171, 0, 196
1733261425857,6i,18.98033868243014,2.0s : 0.3s,-8.776853568475957,0.7916214372784179,6.747270756926986,1.241574634446934,1.2731424570083618,-2.2782647609710693,-4.420536041259766,1.0242153406143188,0.6333553194999695,-0.3022441864013672,-0.7682269075114823,-0.19417378816870454,-2.1847281368755023,-0.13876307010650635,0.6948612332344055,-0.7056293487548828, 225, 171, 0, 196
1733261425867,6i,18.98033868243014,2.0s : 0.3s,-8.776853568475957,0.8140650393294836,6.807702805966257,1.2537819769600629,1.3589904308319092,-2.3354313373565674,-4.41880464553833,1.0419344902038574,0.6430236101150513,-0.269930362701416,-0.7456902527387191,-0.2551954704628327,-2.238728676438043,-0.18544340133666992,0.678479015827179,-0.7108283042907715, 225, 171, 0, 196
1733261425877,6i,18.98033868243014,2.0s : 0.3s,-8.776853568475957,0.8370545787159692,6.843372835577095,1.2636715476496496,1.6868377923965454,-2.205679416656494,-4.363205909729004,1.058945655822754,0.6449767351150513,-0.24393624067306519,-0.7183646428954809,-0.31130227320926807,-2.2880941959603502,-0.23060698807239532,0.658154308795929,-0.7166960835456848, 225, 171, 0, 196
1733261425887,6i,18.98033868243014,2.0s : 0.3s,-8.776853568475957,0.8610267048516785,6.994059358451487,1.3257502391480125,1.8754758834838867,-2.408259630203247,-4.555178165435791,1.055651307106018,0.7168241739273071,-0.3596903085708618,-0.6868801817824288,-0.36559185284090323,-2.334003786373031,-0.2764306664466858,0.6341279149055481,-0.7221272587776184, 225, 171, 0, 196
1733261425897,6i,18.98033868243014,2.0s : 0.3s,-8.776853568475957,0.886781830022843,7.087013798951527,1.4721756071681633,1.6087144613265991,-2.568429708480835,-4.523995399475098,1.0368049144744873,0.8629624843597412,-0.5896035432815552,-0.6530587149731876,-0.4183987122143906,-2.377718161082781,-0.32269349694252014,0.6076185703277588,-0.7257193922996521, 225, 171, 0, 196
1733261425907,6i,18.98033868243014,2.0s : 0.3s,-8.776853568475957,0.9121909465183584,7.134398498851065,1.2744041196163236,1.3425785303115845,-2.711055040359497,-4.483203887939453,1.08394193649292,0.6132439374923706,-0.27038419246673584,-0.620669917354571,-0.4703276472751687,-2.419370446516528,-0.36865565180778503,0.5815802812576294,-0.7251602411270142, 225, 171, 0, 196
1733261425917,6i,18.98033868243014,2.0s : 0.3s,-8.776853568475957,0.9375349365970264,7.145279770185319,1.2881344521800036,1.2181966304779053,-2.860603094100952,-4.364523410797119,1.1759693622589111,0.5167985558509827,-0.09646594524383545,-0.5883191266324302,-0.5209417808727838,-2.4578542888208226,-0.41402170062065125,0.5549635291099548,-0.7215271592140198, 225, 171, 0, 196
1733261425927,6i,18.98033868243014,2.0s : 0.3s,-8.776853568475957,0.9629229240249293,7.117414761826605,1.3092722990944936,1.1327171325683594,-2.8350675106048584,-4.2896223068237305,1.1603888273239136,0.5368613600730896,-0.2819070816040039,-0.5558889158391394,-0.5693773326270971,-2.4931974443213707,-0.4579351842403412,0.5276985764503479,-0.7154226899147034, 225, 171, 0, 196
1733261425937,6i,18.98033868243014,2.0s : 0.3s,-8.776853568475957,0.9883040095381606,7.0798301583873755,1.3191002882780136,1.136778712272644,-2.832071304321289,-4.2292704582214355,1.1877533197402954,0.5096001625061035,-0.26377129554748535,-0.5226976638548644,-0.6150390529110925,-2.525538471686197,-0.4999481439590454,0.4992194175720215,-0.7076947689056396, 225, 171, 0, 196
1733261425947,6i,18.98033868243014,2.0s : 0.3s,-8.776853568475957,1.0128512017740985,7.0250839783035035,1.2249148197877195,1.0954762697219849,-2.8467016220092773,-4.141920566558838,1.1210694313049316,0.460432231426239,-0.1778252124786377,-0.4887756151925409,-0.6583834942623743,-2.554983535503029,-0.5401978492736816,0.4695452153682709,-0.6983649730682373, 225, 171, 0, 196
1733261425957,6i,18.98033868243014,2.0s : 0.3s,-8.776853568475957,1.0373331071581238,6.955310269165431,1.2504404702387235,1.045640468597412,-2.850170850753784,-4.054483890533447,1.1419408321380615,0.43793344497680664,-0.260358989238739,-0.4547450821889972,-0.699698456214923,-2.581741676782555,-0.578540563583374,0.43923330307006836,-0.6872881054878235, 225, 171, 0, 196
1733261425967,6i,18.98033868243014,2.0s : 0.3s,-8.776853568475957,1.0615843373433982,6.893067713808502,1.3038010512775158,1.046822190284729,-2.858962059020996,-4.004440784454346,1.2185945510864258,0.41070568561553955,-0.21504729986190796,-0.4203176017922435,-0.7391859889562828,-2.6059981605357003,-0.6150484681129456,0.40805041790008545,-0.674692690372467, 225, 171, 0, 196
1733261425977,6i,18.98033868243014,2.0s : 0.3s,-8.776853568475957,1.0858370168274902,6.8162443123620715,1.2769631523227531,1.0823993682861328,-2.8543295860290527,-3.8934166431427,1.2070789337158203,0.3847165107727051,-0.1599642038345337,-0.3854211171867003,-0.776950965505407,-2.62761996255763,-0.6496754288673401,0.3759493827819824,-0.6607450246810913, 225, 171, 0, 196
1733261425987,6i,18.98033868243014,2.0s : 0.3s,-8.776853568475957,1.1098852228597917,6.73490469262767,1.308812006897134,1.0940994024276733,-2.8496346473693848,-3.8060293197631836,1.2466042041778564,0.3721008002758026,-0.14320552349090576,-0.35033871827766655,-0.8128284826505866,-2.64814462714276,-0.6821205019950867,0.3432159721851349,-0.6456891298294067, 225, 171, 0, 196
1733261425997,6i,18.98033868243014,2.0s : 0.3s,-8.776853568475957,1.1337934996065582,6.646511884256613,1.3481209347882779,1.106683611869812,-2.8776793479919434,-3.6817257404327393,1.3003807067871094,0.3483673632144928,-0.07127588987350464,-0.3152610364737594,-0.8474357446873982,-2.6663448475080527,-0.7126426100730896,0.3100646436214447,-0.6292856335639954, 225, 171, 0, 196
1733261426007,6i,18.98033868243014,2.0s : 0.3s,-8.776853568475957,1.157433353896527,6.5275637560105055,1.3351655134150837,1.117746353149414,-2.8417820930480957,-3.5212161540985107,1.2998895645141602,0.29991385340690613,-0.05482470989227295,-0.2806287961829983,-0.8806567861831187,-2.6819787895954867,-0.7409906387329102,0.2769598960876465,-0.6117401719093323, 225, 171, 0, 196
1733261426017,6i,18.98033868243014,2.0s : 0.3s,-8.776853568475957,1.1807715002342667,6.364978550925197,1.3658524709194473,1.0838209390640259,-2.76676607131958,-3.3308751583099365,1.3450217247009277,0.2374829202890396,-0.008449554443359375,-0.24696887995804404,-0.9121659524868204,-2.695197428001606,-0.7668357491493225,0.2444659322500229,-0.5934638977050781, 225, 171, 0, 196
1733261426027,6i,18.98033868243014,2.0s : 0.3s,-8.776853568475957,1.2035203928729596,6.167090743034967,1.3530694395844969,1.0937223434448242,-2.680445432662964,-3.119349479675293,1.3418235778808594,0.13476325571537018,0.11020553112030029,-0.214644197872924,-0.9419119553221578,-2.7061254537126764,-0.7901268005371094,0.21299980580806732,-0.5747441053390503, 225, 171, 0, 196
1733261426037,6i,18.98033868243014,2.0s : 0.3s,-8.776853568475957,1.2258421546856646,5.93694763592157,1.3434166084124173,1.072830080986023,-2.5814578533172607,-2.900794744491577,1.3228752613067627,0.008404448628425598,0.2338773012161255,-0.1837906567424835,-0.9699648483793465,-2.714829224997761,-0.8109735250473022,0.1827576905488968,-0.5558072924613953, 225, 171, 0, 196
1733261426047,6i,18.98033868243014,2.0s : 0.3s,-8.776853568475957,1.2462850871656497,5.66603642188502,1.3717721337738302,1.0373897552490234,-2.4510481357574463,-2.650717258453369,1.3234641551971436,-0.12327414751052856,0.3391237258911133,-0.1548678277643376,-0.9962636125774549,-2.7215832813193024,-0.829399824142456,0.15424950420856476,-0.5369386672973633, 225, 171, 0, 196
1733261426057,6i,18.98033868243014,2.0s : 0.3s,-8.776853568475957,1.2648066450124231,5.364597797856071,1.4486816467379793,1.0191642045974731,-2.3044724464416504,-2.399603843688965,1.3391168117523193,-0.2621810734272003,0.48652416467666626,-0.1280242746748118,-1.0207538411448323,-2.7264321372647853,-0.8455255031585693,0.12767483294010162,-0.5184454917907715, 225, 171, 0, 196
1733261426067,6i,18.98033868243014,2.0s : 0.3s,-8.776853568475957,1.281275923623304,5.028990036917114,1.499300414917872,0.999500036239624,-2.1292543411254883,-2.1274876594543457,1.319277048110962,-0.41293764114379883,0.5804242491722107,-0.103398893457555,-1.0432660353521392,-2.72937390666228,-0.8594381809234619,0.10321474820375443,-0.5007123351097107, 225, 171, 0, 196
1733261426077,6i,18.98033868243014,2.0s : 0.3s,-8.776853568475957,1.2957415369084073,4.6584835839875804,1.5545603555280547,0.9348853826522827,-1.9042130708694458,-1.8778419494628906,1.2970390319824219,-0.544950008392334,0.6613449454307556,-0.08121785123033234,-1.0635976682064776,-2.730877037941297,-0.8712273240089417,0.08112858980894089,-0.4841293692588806, 225, 171, 0, 196
1733261426087,6i,18.98033868243014,2.0s : 0.3s,-8.776853568475957,1.3081591971641244,4.24804717874762,1.6630244439287503,0.8928334712982178,-1.6508585214614868,-1.5896774530410767,1.2751777172088623,-0.6900396347045898,0.8145043849945068,-0.06161484519101048,-1.0814208480322858,-2.731187550745345,-0.8809518218040466,0.06157586723566055,-0.4691827893257141, 225, 171, 0, 196
1733261426097,6i,18.98033868243014,2.0s : 0.3s,-8.776853568475957,1.318557972182212,3.802755047739324,1.7358712478524345,0.9332852959632874,-1.3652653694152832,-1.262617588043213,1.2088217735290527,-0.7936899662017822,0.9602370262145996,-0.04475774508177403,-1.0964320682273436,-2.729736118863139,-0.8886924386024475,0.044742804020643234,-0.4563155472278595, 225, 171, 0, 196
1733261426107,6i,18.98033868243014,2.0s : 0.3s,-8.776853568475957,1.3274639123070044,3.3203659020100056,1.8064142679068385,0.9225878715515137,-1.0165104866027832,-0.957457423210144,1.1842364072799683,-0.8473442792892456,1.0689828395843506,-0.030637650282887747,-1.1082574602059796,-2.726411677321311,-0.8945025205612183,0.030632857233285904,-0.4460122287273407, 225, 171, 0, 196
1733261426117,6i,18.98033868243014,2.0s : 0.3s,-8.776853568475957,1.3351169442275816,2.789012201603592,1.9152561193824689,0.864804744720459,-0.6453993320465088,-0.5900522470474243,1.1612367630004883,-0.9383063316345215,1.1997151374816895,-0.01971322886826287,-1.116450013425305,-2.7218937808713113,-0.8983736038208008,0.019711952656507492,-0.4387897849082947, 225, 171, 0, 196
1733261426127,6i,18.98033868243014,2.0s : 0.3s,-8.776853568475957,1.3414689910947235,2.237649435069693,2.046553396471814,0.9057160019874573,-0.2244585007429123,-0.19212289154529572,1.103098750114441,-1.0507639646530151,1.366546392440796,-0.01237315630766971,-1.1206732807554545,-2.7156517882770013,-0.9003247022628784,0.012372840195894241,-0.4350430369377136, 225, 171, 0, 196
1733261426137,6i,18.98033868243014,2.0s : 0.3s,-8.776853568475957,1.3470307578546388,1.7115800470931712,2.1263296125526767,0.9476495981216431,0.24615482985973358,0.21847210824489594,1.096059799194336,-1.126936912536621,1.431762456893921,-0.008437279854705344,-1.1204726302810113,-2.7072622142230625,-0.9002742171287537,0.00843717996031046,-0.4352414906024933, 225, 171, 0, 196
1733261426147,6i,18.98033868243014,2.0s : 0.3s,-8.776853568475957,1.3522628406564294,1.336289279281032,2.238573660921839,0.9836995005607605,0.7412995100021362,0.6619681715965271,1.108009696006775,-1.2150362730026245,1.518951416015625,-0.008142401586647766,-1.11545062621341,-2.69665031765937,-0.8980792760848999,0.008142312057316303,-0.43975821137428284, 225, 171, 0, 196
1733261426157,6i,18.98033868243014,2.0s : 0.3s,-8.776853568475957,1.357769874573244,1.3345740627763472,2.4086660854977473,0.9700374603271484,1.250085711479187,1.1306954622268677,1.1608431339263916,-1.3089131116867065,1.6555548906326294,-0.01182477455724539,-1.105375217001003,-2.6838674649975878,-0.8935701847076416,0.011824498884379864,-0.4487677812576294, 225, 171, 0, 196
1733261426167,6i,18.98033868243014,2.0s : 0.3s,-8.776853568475957,1.3645824355715275,1.7580195066923319,2.5778069934680823,0.8749921917915344,1.761594295501709,1.6461635828018188,1.290652871131897,-1.3882174491882324,1.747042179107666,-0.019902151921397913,-1.0900908840594434,-2.66934591370176,-0.8864933252334595,0.019900837913155556,-0.4623132050037384, 225, 171, 0, 196
1733261426177,6i,18.98033868243014,2.0s : 0.3s,-8.776853568475957,1.3735571179159347,2.4554834015513705,2.753297815662855,0.919620931148529,2.3071165084838867,2.077275037765503,1.4340975284576416,-1.48540461063385,1.8214242458343506,-0.0318577149986034,-1.0693316103596244,-2.652676660295174,-0.8764345049858093,0.03185232728719711,-0.4804665446281433, 225, 171, 0, 196
1733261426187,6i,18.98033868243014,2.0s : 0.3s,-8.776853568475957,1.3854292911901842,3.292615217423392,2.8783211010180367,1.0059698820114136,2.8604583740234375,2.5885140895843506,1.5688157081604004,-1.5579921007156372,1.8428809642791748,-0.04743549015428605,-1.0426600654338654,-2.632649195333144,-0.8627761602401733,0.04741770401597023,-0.5033575892448425, 225, 171, 0, 196
1733261426197,6i,18.98033868243014,2.0s : 0.3s,-8.776853568475957,1.4013940497242068,4.215871496855625,2.95440817619377,1.0601367950439453,3.4459476470947266,3.1472716331481934,1.754321813583374,-1.5240201950073242,1.8243478536605835,-0.06659569235488326,-1.0098067818796708,-2.6088172175725535,-0.8448522090911865,0.0665464773774147,-0.530845046043396, 225, 171, 0, 196
1733261426207,6i,18.98033868243014,2.0s : 0.3s,-8.776853568475957,1.4223565714291457,5.21282404401427,3.1799474039995443,1.094106912612915,4.083437919616699,3.73529052734375,2.00958514213562,-1.6070833206176758,1.8683993816375732,-0.08945662739358488,-0.970016845497223,-2.5809098096527876,-0.8215968012809753,0.08933736383914948,-0.5630252957344055, 225, 171, 0, 196
1733261426217,6i,18.98033868243014,2.0s : 0.3s,-8.776853568475957,1.4489771109701397,6.294581878853662,3.443134912520432,1.1696730852127075,4.7796502113342285,4.3754706382751465,2.2663278579711914,-1.7256592512130737,1.9341758489608765,-0.11568766856211853,-0.9223630313489559,-2.5478048651794545,-0.7917033433914185,0.11542978882789612,-0.5999014973640442, 225, 171, 0, 196
1733261426227,6i,18.98033868243014,2.0s : 0.3s,-8.776853568475957,1.4823776353739322,7.465023584045536,3.771477163417957,1.1124050617218018,5.549321174621582,5.089860916137695,2.6012520790100098,-1.8302907943725586,2.026712417602539,-0.14534675087096208,-0.8656768955901671,-2.5089587865360987,-0.7535043358802795,0.14483553171157837,-0.6412907838821411, 225, 171, 0, 196
1733261426237,6i,18.98033868243014,2.0s : 0.3s,-8.776853568475957,1.5240200707456708,8.745348889388094,4.192818980373865,0.9978935718536377,6.412551403045654,5.882087707519531,3.018944501876831,-1.9400763511657715,2.168365478515625,-0.1787897926891304,-0.7986274982081548,-2.4635888191104804,-0.7049795389175415,0.1778387874364853,-0.6865692138671875, 225, 171, 0, 196
1733261426247,6i,18.98033868243014,2.0s : 0.3s,-8.776853568475957,1.5757673197577604,10.13019507148292,4.731321401941671,0.6856178641319275,7.3379926681518555,6.731755256652832,3.5364022254943848,-2.0545754432678223,2.3786511421203613,-0.21596413087139127,-0.71958562524925,-2.411008309741815,-0.64376300573349,0.21428926289081573,-0.7346082925796509, 225, 171, 0, 196
1733261426257,6i,18.98033868243014,2.0s : 0.3s,-8.776853568475957,1.6399752228945914,11.68598520081981,5.394793061507076,0.3160618841648102,8.426233291625977,7.738096714019775,4.194177150726318,-2.1657521724700928,2.611931800842285,-0.2571228274983925,-0.6265228145714483,-2.349705313552604,-0.5670562982559204,0.25429901480674744,-0.7834406495094299, 225, 171, 0, 196
1733261426267,6i,18.98033868243014,2.0s : 0.3s,-8.776853568475957,1.7198659316068898,13.433572150034887,6.238951905701347,0.18858636915683746,9.630695343017578,8.830838203430176,5.079857349395752,-2.25209903717041,2.8368327617645264,-0.29994162755502896,-0.5159528173769781,-2.2759216988389515,-0.4713369905948639,0.295464426279068,-0.8309887051582336, 225, 171, 0, 196
1733261426277,6i,18.98033868243014,2.0s : 0.3s,-8.776853568475957,1.818580824896327,15.221364915908644,7.182146235380207,0.34115755558013916,10.68824291229248,9.725054740905762,6.15182638168335,-2.3187081813812256,2.891686201095581,-0.3382112532363539,-0.3860432160163897,-2.186638641124212,-0.35519546270370483,0.3318002223968506,-0.8739249110221863, 225, 171, 0, 196
1733261426287,6i,18.98033868243014,2.0s : 0.3s,-8.776853568475957,1.9390322503604038,16.971151574637155,8.222680323751444,0.17659829556941986,11.352547645568848,10.835424423217773,7.397337436676025,-2.2962822914123535,2.7602460384368896,-0.36639098119723645,-0.23930670003778481,-2.082361645930077,-0.22129665315151215,0.3582482933998108,-0.9070203900337219, 225, 171, 0, 196
1733261426297,6i,18.98033868243014,2.0s : 0.3s,-8.776853568475957,2.085773298132026,18.41346440421037,9.567441899556856,-0.7783582210540771,12.316012382507324,10.600083351135254,8.977408409118652,-1.8333966732025146,2.753314256668091,-0.3851125337094966,-0.07842711534768923,-1.9690841346388648,-0.07260832190513611,0.3756634294986725,-0.923907458782196, 225, 171, 0, 196
1733261426307,6i,18.98033868243014,2.0s : 0.3s,-8.776853568475957,2.2617120627116982,19.540796130934304,10.967674361331314,-3.2263801097869873,12.293816566467285,10.88597297668457,10.572240829467773,-1.1027530431747437,2.702136278152466,-0.4044125297877127,0.09007506583139432,-1.8521875850436014,0.08269711583852768,0.39347875118255615,-0.9156067371368408, 225, 171, 0, 196
1733261426317,6i,18.98033868243014,2.0s : 0.3s,-8.776853568475957,2.4680415555929898,20.6128788633427,12.416845510737907,-5.942852020263672,11.939775466918945,11.608858108520508,12.150226593017578,-0.45043474435806274,2.5193560123443604,-0.42928908930086984,0.2640213367345904,-1.7227841619254274,0.23728521168231964,0.41622450947761536,-0.8777544498443604, 225, 171, 0, 196
1733261426327,6i,18.98033868243014,2.0s : 0.3s,-8.776853568475957,2.7047363941868903,21.751080220134938,13.860397114353717,-9.013666152954102,11.020995140075684,12.495827674865723,13.706820487976074,0.8125959634780884,1.8903354406356812,-0.4572113385302936,0.4452621359837731,-1.5685371820390823,0.38645654916763306,0.44144758582115173,-0.8097995519638062, 225, 171, 0, 196
1733261426337,6i,18.98033868243014,2.0s : 0.3s,-8.776853568475957,2.970890256132875,23.04360118540572,15.48012872322258,-12.579402923583984,9.901917457580566,12.792203903198242,15.197185516357422,2.8330860137939453,0.8084313869476318,-0.4843868623106215,0.6337551477850379,-1.3842483888952861,0.5240514278411865,0.4656658470630646,-0.7131096720695496, 225, 171, 0, 196
1733261426347,6i,18.98033868243014,2.0s : 0.3s,-8.776853568475957,3.2612938084734635,24.55340855154484,16.71056213273109,-16.315330505371094,7.06219482421875,13.679168701171875,15.848031997680664,5.289890766143799,-0.31594979763031006,-0.5037958919825526,0.8252584392486926,-1.1634280150348826,0.6434385180473328,0.48275327682495117,-0.5940843820571899, 225, 171, 0, 196
1733261426357,6i,18.98033868243014,2.0s : 0.3s,-8.776853568475957,3.5716241312819097,26.495858117401053,18.083775755377903,-20.78875732421875,2.485525131225586,14.320816993713379,16.012454986572266,8.348240852355957,-0.9649381041526794,-0.5054513005191026,1.0022930436612272,-0.8973062193017984,0.7373322248458862,0.4842023551464081,-0.47105127573013306, 225, 171, 0, 196
1733261426367,6i,18.98033868243014,2.0s : 0.3s,-8.776853568475957,3.8979433946026845,28.61516910932814,19.38304236454932,-21.727209091186523,0.9911292195320129,14.7691011428833,15.494606971740723,11.623848915100098,-0.7110713720321655,-0.4732726447044783,1.1591060186493085,-0.6012927943049804,0.8157113790512085,0.4558016359806061,-0.356174111366272, 225, 171, 0, 196
1733261426377,6i,18.98033868243014,2.0s : 0.3s,-8.776853568475957,4.225603283960551,29.027621203597906,19.47841455843103,-18.888317108154297,-1.8810639381408691,13.574322700500488,12.691438674926758,14.77330207824707,0.2925128638744354,-0.40278435398449736,1.2680206385743775,-0.3335280477100357,0.8781260251998901,0.3919813930988312,-0.2743091285228729, 225, 171, 0, 196
1733261426387,6i,18.98033868243014,2.0s : 0.3s,-8.776853568475957,4.5367913524181995,29.188758309337736,20.09469672355324,-18.309412002563477,-4.696948051452637,13.221832275390625,8.373676300048828,18.24762725830078,0.8381414413452148,-0.320676269419134,1.3171253767202857,-0.10157328933436392,0.9186516404151917,0.31520843505859375,-0.23816587030887604, 225, 171, 0, 196
1733261426397,6i,18.98033868243014,2.0s : 0.3s,-8.776853568475957,4.820205160767476,29.389211932176792,18.531005802640003,-17.779987335205078,-5.074202060699463,13.349206924438477,4.365392208099365,17.81893539428711,2.612865924835205,-0.23519868642705702,1.3263257547544216,0.1136098556466956,0.9435524344444275,0.23303620517253876,-0.23537880182266235, 225, 171, 0, 196
1733261426407,6i,18.98033868243014,2.0s : 0.3s,-8.776853568475957,5.066586026749059,30.11444565614295,14.198608141205819,-19.553882598876953,-4.577340602874756,13.006240844726562,1.429391860961914,13.335297584533691,4.661239147186279,-0.15403467273810859,1.3185313269361147,0.3341406319059256,0.9568844437599182,0.15342627465724945,-0.24664269387722015, 225, 171, 0, 196
1733261426417,6i,18.98033868243014,2.0s : 0.3s,-8.776853568475957,5.269854276302012,28.71347370616261,10.144141551318175,-7.266886234283447,0.9232223033905029,20.50381851196289,-0.3398315906524658,8.879355430603027,4.893380165100098,-0.04137154961695809,1.3048661433108748,0.49284647355094063,0.9640227556228638,0.04135974869132042,-0.2625819742679596, 225, 171, 0, 196
1733261426427,6i,18.98033868243014,2.0s : 0.3s,-8.776853568475957,5.4351813835201614,19.97051983806358,3.9724558437842923,15.19090461730957,5.646146297454834,9.5841703414917,1.2733033895492554,3.708679437637329,0.6362395286560059,0.1534952653832973,1.2920606387294895,0.417345106875915,0.9501006603240967,-0.15289323031902313,-0.27190548181533813, 225, 171, 0, 196
1733261426437,6i,18.98033868243014,2.0s : 0.3s,-8.776853568475957,5.575994639103198,31.602953778507885,10.22696001614815,-60.03359603881836,-0.7864235639572144,-4.493112564086914,6.928040504455566,-4.693930149078369,-5.878774166107178,0.07726486266968557,1.2637198918984207,0.7091637758996843,0.9503774642944336,-0.07718800753355026,-0.301371306180954, 225, 171, 0, 196
1733261426447,6i,18.98033868243014,2.0s : 0.3s,-8.776853568475957,5.647401180792584,35.32114270793707,19.330722004524794,-31.182416915893555,-24.881086349487305,-2.1525521278381348,0.5032190084457397,-17.001920700073242,9.184676170349121,-0.12612508328050723,1.1341381565497246,1.1362261345513252,0.8989720940589905,0.12579095363616943,-0.4195542633533478, 225, 171, 0, 196
1733261426457,6i,18.98033868243014,2.0s : 0.3s,-8.776853568475957,5.8271007661299015,32.64578443136075,27.52690122527337,-16.597614288330078,-12.295463562011719,1.7050338983535767,12.409000396728516,7.9403605461120605,23.252906799316406,-0.22687941566205844,0.9853077908338366,1.3349757106953324,0.8120836615562439,0.22493800520896912,-0.538444995880127, 225, 171, 0, 196
1733261426467,6i,18.98033868243014,2.0s : 0.3s,-8.776853568475957,6.06957619456089,28.236125624853617,23.28726384683747,-10.533203125,-10.97816276550293,-6.118356704711914,8.789724349975586,20.652217864990234,6.206714153289795,-0.3339993812479831,0.8996986775904099,1.4343991186285547,0.7398623824119568,0.3278239965438843,-0.5874820351600647, 225, 171, 0, 196
1733261426477,6i,18.98033868243014,2.0s : 0.3s,-8.776853568475957,6.274572949942117,23.494260954746093,15.244191984156446,-6.520814418792725,-7.484405040740967,-3.8524985313415527,-2.4069297313690186,13.373006820678711,6.910482406616211,-0.41989319377829576,0.8106301739613447,1.459186415184267,0.661766767501831,0.40766292810440063,-0.6291865110397339, 225, 171, 0, 196
1733261426487,6i,18.98033868243014,2.0s : 0.3s,-8.776853568475957,6.4281587821133375,21.472174509068438,4.8988857550316505,-9.294610977172852,-7.871899604797363,-5.954475402832031,-1.5318344831466675,3.823519706726074,2.6520297527313232,-0.5132833800087074,0.7516765656638504,1.4915279172766158,0.594868540763855,0.4910401701927185,-0.636404812335968, 225, 171, 0, 196
1733261426497,6i,18.98033868243014,2.0s : 0.3s,-8.776853568475957,6.541288657929427,20.891140618986412,3.496989156534647,-8.460552215576172,-11.921727180480957,-5.41015625,0.3415500819683075,-1.7063257694244385,3.0332703590393066,-0.616929449387905,0.6547537286846309,1.5007313918210103,0.4967067539691925,0.5785333514213562,-0.6469788551330566, 225, 171, 0, 196
1733261426507,6i,18.98033868243014,2.0s : 0.3s,-8.776853568475957,6.647481744228273,20.183204278220185,4.960681484695596,-7.235243797302246,-10.675962448120117,-6.994048595428467,3.3611209392547607,-0.3379141688346863,3.6327731609344482,-0.7164154718347789,0.5362405678324341,1.4956023557483331,0.3853085935115814,0.6566855907440186,-0.6483066082000732, 225, 171, 0, 196
1733261426517,6i,18.98033868243014,2.0s : 0.3s,-8.776853568475957,6.753271125137975,18.797904892793287,5.132711307745381,-5.137598991394043,-8.334700584411621,-7.80819845199585,3.17496657371521,1.7191038131713867,3.6481494903564453,-0.8055164763719762,0.40435781626948847,1.4414007399975373,0.27254319190979004,0.7211885452270508,-0.636873185634613, 225, 171, 0, 196
1733261426527,6i,18.98033868243014,2.0s : 0.3s,-8.776853568475957,6.827286776669881,17.59193300335316,3.7825353717664614,-3.5088984966278076,-7.6332502365112305,-8.634430885314941,-1.7363178730010986,0.7090640664100647,3.28481388092041,-0.8728139378560753,0.2542196165384495,1.3456479285938294,0.16162602603435516,0.7661404013633728,-0.6220176815986633, 225, 171, 0, 196
1733261426537,6i,18.98033868243014,2.0s : 0.3s,-8.776853568475957,6.884308952628682,16.793853820388165,2.835893936079817,-1.9414682388305664,-7.8279571533203125,-9.04964828491211,-0.429519921541214,0.26888102293014526,2.790252685546875,-0.9140054952215765,0.07774983306206906,1.2184677625243,0.0474245622754097,0.7919557690620422,-0.6087339520454407, 225, 171, 0, 196
1733261426547,6i,18.98033868243014,2.0s : 0.3s,-8.776853568475957,6.9324132262338125,16.501486678585984,2.310242134067976,-0.7316192388534546,-8.256268501281738,-9.543517112731934,0.4859165549278259,-0.07591712474822998,2.2572860717773438,-0.9252255386963316,-0.11999419282519448,1.0713578690703804,-0.07202190905809402,0.79875648021698,-0.5973280668258667, 225, 171, 0, 196
1733261426557,6i,18.98033868243014,2.0s : 0.3s,-8.776853568475957,6.9711070191599465,16.630977607462096,0.9699824226091178,-0.19232061505317688,-8.937591552734375,-9.629294395446777,0.34193599224090576,0.2478143572807312,0.8732317686080933,-0.9087411343874362,-0.3272783407215325,0.9191161821459668,-0.19761838018894196,0.7887305021286011,-0.5821093320846558, 225, 171, 0, 196
1733261426567,6i,18.98033868243014,2.0s : 0.3s,-8.776853568475957,7.004041067307065,16.904094917470594,0.8488982068795418,0.3454757332801819,-9.329207420349121,-9.620357513427734,0.7551555037498474,0.2980000376701355,0.24812155961990356,-0.867948656081646,-0.5274426916799426,0.7792597718120791,-0.3253459334373474,0.7630045413970947,-0.5585463047027588, 225, 171, 0, 196
1733261426577,6i,18.98033868243014,2.0s : 0.3s,-8.776853568475957,7.03664811902246,16.945266692118988,1.5713204310429183,0.7604502439498901,-9.179471969604492,-9.044631004333496,1.4662787914276123,0.5535793304443359,-0.11235803365707397,-0.8093306670079354,-0.7016013108512151,0.6701468106553684,-0.44534382224082947,0.7238255143165588,-0.527015745639801, 225, 171, 0, 196
1733261426587,6i,18.98033868243014,2.0s : 0.3s,-8.776853568475957,7.07239200851566,16.73368627717427,2.1730492249403843,1.0386393070220947,-8.505229949951172,-8.7368745803833,2.0390655994415283,0.7215741872787476,-0.2090098261833191,-0.7407809443696796,-0.846902596920717,0.5897613896199618,-0.5528900623321533,0.6748644113540649,-0.48874402046203613, 225, 171, 0, 196
1733261426597,6i,18.98033868243014,2.0s : 0.3s,-8.776853568475957,7.111247145218771,16.169779903213737,2.3609376660436237,2.138310670852661,-7.477412223815918,-8.1867036819458,2.308197259902954,0.474520206451416,-0.14519864320755005,-0.6646754084019039,-0.9607921439477046,0.5371880890599,-0.6451570391654968,0.6168036460876465,-0.45091643929481506, 225, 171, 0, 196
1733261426607,6i,18.98033868243014,2.0s : 0.3s,-8.776853568475957,7.154991086476536,15.592825738086395,2.6485533077802037,3.521404504776001,-6.663169860839844,-8.009057998657227,2.540266990661621,0.7393071055412292,0.12370628118515015,-0.5814322227207466,-1.045388669565239,0.5132241423430188,-0.7229605317115784,0.549221396446228,-0.41914692521095276, 225, 171, 0, 196
1733261426617,6i,18.98033868243014,2.0s : 0.3s,-8.776853568475957,7.204737460796886,15.11450300829014,3.024191678244488,4.437911033630371,-6.175015926361084,-7.710909843444824,2.7851243019104004,1.174035668373108,0.10226523876190186,-0.49346996607943344,-1.1104170039429948,0.5114522863418719,-0.7890002131462097,0.47368472814559937,-0.39128202199935913, 225, 171, 0, 196
1733261426627,6i,18.98033868243014,2.0s : 0.3s,-8.776853568475957,7.25880145588953,14.769365165389194,3.111358711302213,5.052750587463379,-5.842857360839844,-7.466202259063721,2.8685965538024902,1.2018080949783325,-0.08581459522247314,-0.40451677742485376,-1.1650974414587256,0.5239726181227686,-0.844670832157135,0.393574595451355,-0.36280903220176697, 225, 171, 0, 196
1733261426637,6i,18.98033868243014,2.0s : 0.3s,-8.776853568475957,7.316781842027885,14.496752724220398,3.274339906842561,5.342858791351318,-5.289780616760254,-7.448907852172852,3.086198329925537,1.0895463228225708,-0.0978289544582367,-0.31601692619693755,-1.2130550566355125,0.5461687077095028,-0.8903059363365173,0.3107832074165344,-0.33281975984573364, 225, 171, 0, 196
1733261426647,6i,18.98033868243014,2.0s : 0.3s,-8.776853568475957,7.3796201321093555,14.213507684697023,3.495668664590871,5.775696754455566,-4.544834613800049,-7.2910475730896,3.2298455238342285,1.3284437656402588,0.15177109837532043,-0.2279063277840652,-1.254587412300244,0.5750352203516143,-0.925844669342041,0.22593848407268524,-0.30292457342147827, 225, 171, 0, 196
1733261426657,6i,18.98033868243014,2.0s : 0.3s,-8.776853568475957,7.446377609205365,13.984328019022074,3.415649242836705,6.44395637512207,-3.8570618629455566,-7.064528942108154,3.059551239013672,1.2359833717346191,0.8821287155151367,-0.14157956757923013,-1.2896389015701988,0.6127405567554179,-0.9511221647262573,0.14110705256462097,-0.2746915817260742, 225, 171, 0, 196
1733261426667,6i,18.98033868243014,2.0s : 0.3s,-8.776853568475957,7.516584548100507,13.834729031843501,3.5206732419028324,7.105800151824951,-3.674999475479126,-6.514535427093506,3.006056308746338,1.137813687324524,1.436713457107544,-0.05805023345027207,-1.3223594052049683,0.6609776054634633,-0.9676652550697327,0.058017633855342865,-0.24547499418258667, 225, 171, 0, 196
1733261426677,6i,18.98033868243014,2.0s : 0.3s,-8.776853568475957,7.588291010869678,13.669102910962117,3.375143304070353,7.047510623931885,-3.6404805183410645,-6.163597583770752,2.893270254135132,1.1576954126358032,1.2962719202041626,0.01974203158840181,-1.357931873427834,0.7156374746006967,-0.9772394299507141,-0.019740749150514603,-0.2112194150686264, 225, 171, 0, 196
1733261426687,6i,18.98033868243014,2.0s : 0.3s,-8.776853568475957,7.65792650431479,13.485102130569144,2.914546978819728,7.113820552825928,-3.4563839435577393,-5.8444085121154785,2.5564756393432617,0.9369558691978455,1.0397740602493286,0.09237587771581561,-1.3967933464344906,0.7729912052437714,-0.9807004332542419,-0.09224455803632736,-0.17238812148571014, 225, 171, 0, 196
1733261426697,6i,18.98033868243014,2.0s : 0.3s,-8.776853568475957,7.724877963424385,13.406038445000597,2.736987238746203,7.783653259277344,-3.1190998554229736,-5.451790809631348,2.2859089374542236,0.9068504571914673,1.201391577720642,0.15947875303087153,-1.4380759819296702,0.8386569527147107,-0.9786273837089539,-0.15880359709262848,-0.1306518018245697, 225, 171, 0, 196
1733261426707,6i,18.98033868243014,2.0s : 0.3s,-8.776853568475957,7.792043192502696,13.191606786167691,3.043649830238808,7.565708637237549,-2.8003649711608887,-5.1168742179870605,2.4533042907714844,1.2023646831512451,1.3414251804351807,0.22048901238645213,-1.481346479434045,0.9110641412665079,-0.9718894362449646,-0.21870681643486023,-0.08716797083616257, 225, 171, 0, 196
1733261426717,6i,18.98033868243014,2.0s : 0.3s,-8.776853568475957,7.858178925165006,12.814794988875786,2.8716973211863333,7.219134330749512,-2.479374885559082,-4.692702293395996,2.314694404602051,1.0740289688110352,1.3173067569732666,0.2746109877229935,-1.5255367492401324,0.9834057282575654,-0.9615451097488403,-0.27117252349853516,-0.04354886710643768, 225, 171, 0, 196
1733261426727,6i,18.98033868243014,2.0s : 0.3s,-8.776853568475957,7.921281927881852,12.441165076731076,2.6204969016260353,7.205946445465088,-2.130408525466919,-4.362791061401367,2.0464468002319336,0.6312287449836731,1.5101687908172607,0.32136305742817184,-1.5702910274825597,1.0573736597507462,-0.9488058090209961,-0.3158601224422455,-0.00047943094978109, 225, 171, 0, 196
1733261426737,6i,18.98033868243014,2.0s : 0.3s,-8.776853568475957,7.9803488926379735,12.116991757712658,2.3289044082757084,7.36796760559082,-1.913094162940979,-3.889643430709839,1.843913197517395,0.5014795064926147,1.3312768936157227,0.36055962476288983,-1.6169533651427768,1.1358795070469037,-0.9347031116485596,-0.3527979254722595,0.04317379370331764, 225, 171, 0, 196
1733261426747,6i,18.98033868243014,2.0s : 0.3s,-8.776853568475957,8.034052954624768,11.812194573396217,1.885532802455686,7.428072452545166,-1.6610897779464722,-3.460150957107544,1.5252420902252197,0.5303961038589478,0.9734220504760742,0.39212936063844994,-1.6651512612471908,1.2179277302940184,-0.9199870824813843,-0.38215702772140503,0.08706384897232056, 225, 171, 0, 196
1733261426757,6i,18.98033868243014,2.0s : 0.3s,-8.776853568475957,8.083426490451444,11.519072985989538,1.7946230636316203,7.464247226715088,-1.293485403060913,-3.067065954208374,1.391295313835144,0.6027776002883911,0.960014820098877,0.4157034835264684,-1.7132768222934802,1.3026642794015268,-0.9055625200271606,-0.4038335978984833,0.12990523874759674, 225, 171, 0, 196
1733261426767,6i,18.98033868243014,2.0s : 0.3s,-8.776853568475957,8.130425210865324,11.205162823250763,1.9471916789441317,7.346769332885742,-0.9155897498130798,-2.751216411590576,1.3975238800048828,0.6141307353973389,1.2088531255722046,0.43207635783118015,-1.7595477129044494,1.3882657504646685,-0.8919699788093567,-0.41875723004341125,0.17038887739181519, 225, 171, 0, 196
1733261426777,6i,18.98033868243014,2.0s : 0.3s,-8.776853568475957,8.17497297303073,10.821144215799139,1.9120981672899666,7.029955863952637,-0.7079571485519409,-2.4213545322418213,1.2241582870483398,0.5471018552780151,1.363171100616455,0.44243847425652805,-1.8028972177689258,1.471593479224491,-0.8794776797294617,-0.4281443953514099,0.20787380635738373, 225, 171, 0, 196
1733261426787,6i,18.98033868243014,2.0s : 0.3s,-8.776853568475957,8.215870697267613,10.438377627852097,1.6319162692499445,6.853453636169434,-0.501172661781311,-2.0858869552612305,1.0061819553375244,0.41384297609329224,1.2163398265838623,0.4466764799089535,-1.8437377457218176,1.5524163127124344,-0.8685020208358765,-0.431970477104187,0.2431175410747528, 225, 171, 0, 196
1733261426797,6i,18.98033868243014,2.0s : 0.3s,-8.776853568475957,8.253050772690946,10.022151533379953,1.4269487097828122,6.520643711090088,-0.26961058378219604,-1.9008300304412842,0.8732950687408447,0.3975291848182678,1.0561765432357788,0.44636957061215776,-1.8811148899683692,1.630077183532907,-0.8589366674423218,-0.4316936731338501,0.27544277906417847, 225, 171, 0, 196
1733261426807,6i,18.98033868243014,2.0s : 0.3s,-8.776853568475957,8.287590971698949,9.54043556912349,1.4997472801149716,6.055024147033691,-0.10152941942214966,-1.7630202770233154,0.7453360557556152,0.5212525129318237,1.1924813985824585,0.44346750695007714,-1.914153036383996,1.7025304211049328,-0.8505454063415527,-0.42907413840293884,0.304085373878479, 225, 171, 0, 196
1733261426817,6i,18.98033868243014,2.0s : 0.3s,-8.776853568475957,8.320186208280369,9.122350764867463,1.5565182821222088,5.873428821563721,0.16368520259857178,-1.6710331439971924,0.6372793912887573,0.6244592666625977,1.275411605834961,0.4386375770642079,-1.9432079440515444,1.7711746076965094,-0.8432729840278625,-0.42470642924308777,0.32941630482673645, 225, 171, 0, 196
1733261426827,6i,18.98033868243014,2.0s : 0.3s,-8.776853568475957,8.351188890502062,8.69555859419299,1.5196761187718002,5.529781818389893,0.4415741264820099,-1.6172531843185425,0.5717796683311462,0.72892165184021,1.2046396732330322,0.43236089340222816,-1.9676287579202123,1.8363272401735957,-0.837419867515564,-0.4190156161785126,0.35093286633491516, 225, 171, 0, 196
1733261426837,6i,18.98033868243014,2.0s : 0.3s,-8.776853568475957,8.379883018305234,8.317561451061446,1.4011779079120785,5.350335121154785,0.6432396173477173,-1.4594802856445312,0.4153026342391968,0.6309136152267456,1.1801573038101196,0.4250283646354648,-1.9878605639720286,1.8979373203651397,-0.832935631275177,-0.41234663128852844,0.36903706192970276, 225, 171, 0, 196
1733261426847,6i,18.98033868243014,2.0s : 0.3s,-8.776853568475957,8.405887419070497,7.985588606290086,1.2943794522282768,5.172458648681641,0.8675094246864319,-1.3602856397628784,0.310873806476593,0.4591323733329773,1.1696038246154785,0.41625504764313537,-2.004298654976821,1.9568314725469964,-0.8300084471702576,-0.40433812141418457,0.384183406829834, 225, 171, 0, 196
1733261426857,6i,18.98033868243014,2.0s : 0.3s,-8.776853568475957,8.428998741623127,7.688047169490517,1.1353775460191387,4.993082523345947,1.0548737049102783,-1.2560514211654663,0.22473526000976562,0.370227575302124,1.0495274066925049,0.40652488305093404,-2.0171555022779395,2.0134068783503514,-0.8285102844238281,-0.3954198360443115,0.396502286195755, 225, 171, 0, 196
1733261426867,6i,18.98033868243014,2.0s : 0.3s,-8.776853568475957,8.448739203721775,7.290182462095173,1.0351708870462455,4.501208782196045,1.1600626707077026,-1.1205891370773315,0.07834982872009277,0.2109222412109375,1.010421633720398,0.39659104223951663,-2.0264929672968317,2.065608838815513,-0.8282582759857178,-0.3862762153148651,0.4059297442436218, 225, 171, 0, 196
1733261426877,6i,18.98033868243014,2.0s : 0.3s,-8.776853568475957,8.465699715702746,6.853667495206632,1.0843551324033764,4.079015731811523,1.2892544269561768,-0.9961430430412292,0.034166812896728516,0.08124995231628418,1.0807669162750244,0.38716018902666627,-2.0320236818585773,2.1122014602848727,-0.8292258977890015,-0.3775603175163269,0.41210731863975525, 225, 171, 0, 196
1733261426887,6i,18.98033868243014,2.0s : 0.3s,-8.776853568475957,8.480497921751308,6.4621247950999425,1.1316948422435822,3.8460631370544434,1.366499662399292,-0.8740370869636536,-0.04121166467666626,0.10649406909942627,1.1259191036224365,0.3778082379364428,-2.034630218570033,2.154838255394565,-0.8312705755233765,-0.3688841760158539,0.4158288538455963, 225, 171, 0, 196
1733261426897,6i,18.98033868243014,2.0s : 0.3s,-8.776853568475957,8.493199308343064,6.127087189021686,0.9857479895286599,3.6902425289154053,1.3895347118377686,-0.7489244341850281,-0.1150369644165039,0.18536534905433655,0.9613039493560791,0.3682047441311545,-2.035409608331981,2.1948841322388017,-0.834074854850769,-0.3599410951137543,0.41804471611976624, 225, 171, 0, 196
1733261426907,6i,18.98033868243014,2.0s : 0.3s,-8.776853568475957,8.50366158172389,5.818713198796921,0.8691513190655088,3.508387804031372,1.4036635160446167,-0.6014753580093384,-0.18488192558288574,0.15813884139060974,0.834406852722168,0.3581279391556319,-2.034793936810646,2.2326013385938657,-0.8375331163406372,-0.3505215644836426,0.4191330373287201, 225, 171, 0, 196
1733261426917,6i,18.98033868243014,2.0s : 0.3s,-8.776853568475957,8.512016544351164,5.480922286185313,0.8665963183179501,3.2041563987731934,1.4033244848251343,-0.4351519048213959,-0.24888837337493896,0.09751871228218079,0.824338436126709,0.34769170864758214,-2.032690847283083,2.2671370591574904,-0.8416420221328735,-0.3407285511493683,0.4189782738685608, 225, 171, 0, 196
1733261426927,6i,18.98033868243014,2.0s : 0.3s,-8.776853568475957,8.518522932805832,5.102450977616924,0.8899258654264223,2.8291211128234863,1.3787001371383667,-0.37328284978866577,-0.2702164053916931,-0.019547998905181885,0.8476845026016235,0.33792077294504375,-2.0290279486337974,2.2976677536181764,-0.8461166024208069,-0.33152616024017334,0.41734549403190613, 225, 171, 0, 196
1733261426937,6i,18.98033868243014,2.0s : 0.3s,-8.776853568475957,8.523773813779929,4.745882632583126,0.8975714207700051,2.5829713344573975,1.3696293830871582,-0.3069797158241272,-0.2759840488433838,-0.11379075050354004,0.8464744091033936,0.3290505578145207,-2.024253430919851,2.324998464208272,-0.8507097363471985,-0.32314467430114746,0.41457298398017883, 225, 171, 0, 196
1733261426947,6i,18.98033868243014,2.0s : 0.3s,-8.776853568475957,8.527945870221636,4.382954175750941,0.7919642076112594,2.2780544757843018,1.3479561805725098,-0.2531997859477997,-0.25056469440460205,-0.03516945242881775,0.7504583597183228,0.3209758907919486,-2.0184566658639995,2.349354515036943,-0.8554229140281677,-0.31549274921417236,0.41075074672698975, 225, 171, 0, 196
1733261426957,6i,18.98033868243014,2.0s : 0.3s,-8.776853568475957,8.53143964298523,4.034401762871325,0.6672057755893978,2.0275144577026367,1.3047248125076294,-0.22586590051651,-0.2233656644821167,0.05049809813499451,0.6266747713088989,0.3139138969009391,-2.01187799244011,2.3708352218852653,-0.8600999116897583,-0.308783620595932,0.40605542063713074, 225, 171, 0, 196
1733261426967,6i,18.98033868243014,2.0s : 0.3s,-8.776853568475957,8.534115479101441,3.7336797077255808,0.5761784943360978,1.901132345199585,1.233662724494934,-0.17181462049484253,-0.22923815250396729,0.030339866876602173,0.5277414321899414,0.30738990101439445,-2.0051946956432567,2.3903782503372857,-0.8646034002304077,-0.3025719225406647,0.4011373519897461, 225, 171, 0, 196
1733261426977,6i,18.98033868243014,2.0s : 0.3s,-8.776853568475957,8.535729607662406,3.457412946577128,0.46502670658930195,1.7632811069488525,1.1367814540863037,-0.14603868126869202,-0.23888206481933594,-0.00532376766204834,0.3989446759223938,0.3012123646798888,-1.9987359598603667,2.408461806512259,-0.8688603639602661,-0.29667821526527405,0.39631298184394836, 225, 171, 0, 196
1733261426987,6i,18.98033868243014,2.0s : 0.3s,-8.776853568475957,8.536153469101173,3.2159322996893933,0.38225336211940647,1.6460739374160767,1.0968130826950073,-0.1269606500864029,-0.25616878271102905,-0.021811872720718384,0.2828770577907562,0.2953446293436559,-1.9925339562679736,2.425324837990999,-0.8728747367858887,-0.29106956720352173,0.39162251353263855, 225, 171, 0, 196
1733261426997,6i,18.98033868243014,2.0s : 0.3s,-8.776853568475957,8.535902978002188,2.9964534504971163,0.3591058240219797,1.508939504623413,1.0750305652618408,-0.12761765718460083,-0.23660236597061157,0.008778601884841919,0.26999861001968384,0.29014570581033383,-1.9862028780796621,2.4409174864931447,-0.876709520816803,-0.2860918343067169,0.3866940140724182, 225, 171, 0, 196
1733261427007,6i,18.98033868243014,2.0s : 0.3s,-8.776853568475957,8.535320137841591,2.7864504987171745,0.40765148946670854,1.3198585510253906,1.1007840633392334,-0.13990794122219086,-0.24261438846588135,0.015986382961273193,0.3272039592266083,0.2856956682011468,-1.9793225884544068,2.455024596584822,-0.8805087804794312,-0.2818249762058258,0.3811548054218292, 225, 171, 0, 196
1733261427017,6i,18.98033868243014,2.0s : 0.3s,-8.776853568475957,8.534786470860055,2.5630695835462367,0.4441701279856622,1.0886684656143188,1.0843040943145752,-0.14874085783958435,-0.22743093967437744,0.04784655570983887,0.3785141706466675,0.2822779490613231,-1.9717591223439188,2.467142053403089,-0.8842481374740601,-0.278544157743454,0.3748580515384674, 225, 171, 0, 196
1733261427027,6i,18.98033868243014,2.0s : 0.3s,-8.776853568475957,8.53445100511205,2.360963445297271,0.4367754939416484,0.968278169631958,1.0386706590652466,-0.13344405591487885,-0.19684982299804688,0.06595355272293091,0.38428258895874023,0.27965211981125704,-1.963949356684827,2.477509080680066,-0.8878211975097656,-0.2760213017463684,0.36821985244750977, 225, 171, 0, 196
1733261427037,6i,18.98033868243014,2.0s : 0.3s,-8.776853568475957,8.534223508150413,2.1930473725242696,0.36204610699690926,0.9091197848320007,0.9977372884750366,-0.10489257425069809,-0.17372792959213257,0.037727415561676025,0.3153928220272064,0.2771949707111856,-1.9563666148214753,2.4870308234321334,-0.8912134766578674,-0.27365878224372864,0.3617311716079712, 225, 171, 0, 196
1733261427047,6i,18.98033868243014,2.0s : 0.3s,-8.776853568475957,8.533775208516152,2.0660894435147266,0.28431388052337203,0.9178387522697449,0.9488566517829895,-0.07973995059728622,-0.1707325577735901,0.010197252035140991,0.22711405158042908,0.274638274714781,-1.9491788324001995,2.496159732016549,-0.8944376707077026,-0.2711987793445587,0.35557329654693604, 225, 171, 0, 196
1733261427057,6i,18.98033868243014,2.0s : 0.3s,-8.776853568475957,8.533042541695627,1.914620722466397,0.22757977060875245,0.7876530289649963,0.8563986420631409,-0.08478051424026489,-0.15803879499435425,-0.00018709897994995117,0.16375669836997986,0.27228412837768945,-1.9424671864942884,2.504753614720903,-0.8973962664604187,-0.2689321041107178,0.34979307651519775, 225, 171, 0, 196
1733261427067,6i,18.98033868243014,2.0s : 0.3s,-8.776853568475957,8.532136094040712,1.7621826319980414,0.21886944643641684,0.6889340281486511,0.7901093363761902,-0.0804644301533699,-0.15014958381652832,-0.00215226411819458,0.15923035144805908,0.270371067474291,-1.9361942618722394,2.5122216059649953,-0.9000518321990967,-0.26708903908729553,0.3443402051925659, 225, 171, 0, 196
1733261427077,6i,18.98033868243014,2.0s : 0.3s,-8.776853568475957,8.531309004376713,1.5947985284313049,0.2699605797143083,0.5480781197547913,0.7127351760864258,-0.0882381945848465,-0.1475195288658142,0.012014269828796387,0.22577059268951416,0.2689370968017259,-1.9303926734321042,2.5185651474285238,-0.9023920297622681,-0.2657068967819214,0.3392471373081207, 225, 171, 0, 196
1733261427087,6i,18.98033868243014,2.0s : 0.3s,-8.776853568475957,8.53057155823452,1.4079648068438488,0.2753039015240513,0.3633851110935211,0.6382631063461304,-0.10434149950742722,-0.132748544216156,0.03051057457923889,0.23924708366394043,0.26827512527291825,-1.9248996652509869,2.5233080286031564,-0.9044066071510315,-0.2650686502456665,0.33434608578681946, 225, 171, 0, 196
1733261427097,6i,18.98033868243014,2.0s : 0.3s,-8.776853568475957,8.529960025844883,1.2396079511124918,0.27667010171922946,0.2714266777038574,0.5838472843170166,-0.08997613936662674,-0.1107744574546814,0.02293914556503296,0.2524859607219696,0.2680978461541404,-1.9196967821799658,2.5267238497019653,-0.9061779975891113,-0.2648977041244507,0.3296521008014679, 225, 171, 0, 196
1733261427107,6i,18.98033868243014,2.0s : 0.3s,-8.776853568475957,8.529761430260027,1.0955196011943438,0.24202484862998322,0.21720163524150848,0.537112832069397,-0.053777359426021576,-0.08030223846435547,0.0167272686958313,0.2277010679244995,0.2679696794299693,-1.91475998365202,2.529336841868729,-0.9078264236450195,-0.2647741138935089,0.32518595457077026, 225, 171, 0, 196
1733261427117,6i,18.98033868243014,2.0s : 0.3s,-8.776853568475957,8.52989613373567,0.9790072037184542,0.21344551071440093,0.19421882927417755,0.5033213496208191,-0.0037328344769775867,-0.058025896549224854,0.010796189308166504,0.2051229476928711,0.2675314395282425,-1.9101440590774594,2.5314436877879736,-0.9094271659851074,-0.264351487159729,0.3210306465625763, 225, 171, 0, 196
1733261427127,6i,18.98033868243014,2.0s : 0.3s,-8.776853568475957,8.530345249963004,0.8857688751246532,0.1964307295854142,0.16560928523540497,0.482217013835907,0.030920151621103287,-0.03178274631500244,-0.0004892051219940186,0.193841814994812,0.2667783747322125,-1.9056682911947083,2.533213175995826,-0.9110426306724548,-0.2636251449584961,0.3170223832130432, 225, 171, 0, 196
1733261427137,6i,18.98033868243014,2.0s : 0.3s,-8.776853568475957,8.53102922365598,0.7931447286114834,0.18841638160022858,0.06556924432516098,0.4483836889266968,0.0707453265786171,-0.013921082019805908,-0.022853940725326538,0.18650639057159424,0.26599237658606,-1.901272362917126,2.5340989406007832,-0.9126231074333191,-0.26286688446998596,0.3130815923213959, 225, 171, 0, 196
1733261427147,6i,18.98033868243014,2.0s : 0.3s,-8.776853568475957,8.531810252064252,0.7121884011038989,0.22097595190364547,-0.036013972014188766,0.42627647519111633,0.10005198419094086,-0.006289064884185791,-0.026362508535385132,0.21930763125419617,0.26510780485707774,-1.8968694656405227,2.5339593433644056,-0.9142125844955444,-0.26201331615448,0.30913475155830383, 225, 171, 0, 196
1733261427157,6i,18.98033868243014,2.0s : 0.3s,-8.776853568475957,8.533029030492129,0.6552126077771536,0.25489768413175445,-0.13034206628799438,0.4179255962371826,0.1218627393245697,0.0037024617195129395,0.00029411911964416504,0.25487062335014343,0.2643168228934508,-1.8923507419650067,2.5327725626013637,-0.9157964587211609,-0.2612498700618744,0.30506592988967896, 225, 171, 0, 196
1733261427167,6i,18.98033868243014,2.0s : 0.3s,-8.776853568475957,8.534583317296292,0.6444585846320942,0.2591053844281874,-0.1829470992088318,0.4168104827404022,0.151494562625885,0.01256495714187622,0.006639569997787476,0.25871536135673523,0.26352424404031,-1.8876692318379016,2.530772815982812,-0.9174110889434814,-0.2604847550392151,0.30083972215652466, 225, 171, 0, 196
1733261427177,6i,18.98033868243014,2.0s : 0.3s,-8.776853568475957,8.536268567785514,0.6320155535865317,0.2324223502354687,-0.2551930546760559,0.4258412718772888,0.1598142832517624,0.02851206064224243,0.024426549673080444,0.2293699085712433,0.2627134314378742,-1.8827655024299672,2.5281289389871677,-0.919076144695282,-0.25970184803009033,0.2964021563529968, 225, 171, 0, 196
1733261427187,6i,18.98033868243014,2.0s : 0.3s,-8.776853568475957,8.53811372091192,0.6570531099355088,0.20731056554125743,-0.32373684644699097,0.4551420211791992,0.16576509177684784,0.0347709059715271,0.034999579191207886,0.20135462284088135,0.2620326736596612,-1.8775155904777034,2.5247579847880655,-0.9207877516746521,-0.2590443789958954,0.29162630438804626, 225, 171, 0, 196
1733261427197,6i,18.98033868243014,2.0s : 0.3s,-8.776853568475957,8.540097593216618,0.7092342166273542,0.22815611720299023,-0.3858391046524048,0.49006593227386475,0.1802646666765213,0.04641067981719971,0.037818729877471924,0.2201613187789917,0.26146012934847773,-1.8717309377384792,2.5207024090782326,-0.9226008653640747,-0.2584913372993469,0.2863389551639557, 225, 171, 0, 196
1733261427207,6i,18.98033868243014,2.0s : 0.3s,-8.776853568475957,8.542243127411659,0.7756971592030111,0.23915833114713644,-0.4372131824493408,0.5205436944961548,0.20687347650527954,0.06013613939285278,0.043346136808395386,0.22737956047058105,0.2608164016744877,-1.8654816991885501,2.516022122494895,-0.9245312809944153,-0.2578694224357605,0.2806161046028137, 225, 171, 0, 196
1733261427217,6i,18.98033868243014,2.0s : 0.3s,-8.776853568475957,8.544525400409357,0.8540102661405656,0.22523647523353965,-0.5039240717887878,0.557431161403656,0.2210550606250763,0.06790709495544434,0.033784955739974976,0.21208176016807556,0.26011206200382864,-1.858724682928368,2.5107482166849673,-0.9265801310539246,-0.2571888566017151,0.27441418170928955, 225, 171, 0, 196
1733261427227,6i,18.98033868243014,2.0s : 0.3s,-8.776853568475957,8.546944133715032,0.9363097731577836,0.227280602318204,-0.5546972155570984,0.5942962765693665,0.2362317591905594,0.07941114902496338,0.026494383811950684,0.21130165457725525,0.2594048127192168,-1.851434452326945,2.5048215795684197,-0.9287305474281311,-0.2565053105354309,0.26770225167274475, 225, 171, 0, 196
1733261427237,6i,18.98033868243014,2.0s : 0.3s,-8.776853568475957,8.549510295408846,1.0180551629873331,0.23563462497103488,-0.58431476354599,0.6385201811790466,0.25646060705184937,0.08584928512573242,0.0349922776222229,0.21663129329681396,0.25859850482217617,-1.8436401305701258,2.4984472228406562,-0.9309878349304199,-0.2557259202003479,0.26051104068756104, 225, 171, 0, 196
1733261427247,6i,18.98033868243014,2.0s : 0.3s,-8.776853568475957,8.55220848890333,1.106714228468166,0.21983448964267358,-0.6459310054779053,0.6856771111488342,0.2709047198295593,0.0929228663444519,0.04234498739242554,0.19467779994010925,0.25766526896569036,-1.8352854568999688,2.4916174432211076,-0.9333616495132446,-0.25482359528541565,0.25278618931770325, 225, 171, 0, 196
1733261427257,6i,18.98033868243014,2.0s : 0.3s,-8.776853568475957,8.555007982562213,1.204549782060712,0.20766800909426805,-0.7261816263198853,0.7336686253547668,0.2787799537181854,0.0956571102142334,0.03045576810836792,0.1817915439605713,0.2567790090139195,-1.8262684542019458,2.484027034475481,-0.9358213543891907,-0.25396648049354553,0.24441692233085632, 225, 171, 0, 196
1733261427267,6i,18.98033868243014,2.0s : 0.3s,-8.776853568475957,8.557926487027729,1.3108156257658061,0.231916248363406,-0.7844763398170471,0.8014784455299377,0.3040192723274231,0.10035163164138794,0.026088356971740723,0.2074466049671173,0.25584488085937096,-1.8164959957870432,2.475716215418315,-0.9383950233459473,-0.2530628740787506,0.23531775176525116, 225, 171, 0, 196
1733261427277,6i,18.98033868243014,2.0s : 0.3s,-8.776853568475957,8.561345314939148,1.42933829386279,0.25749148160071084,-0.8586573600769043,0.8753108382225037,0.33569011092185974,0.12446475028991699,0.046845972537994385,0.2204900085926056,0.2546995294325914,-1.8058394567297755,2.4666933210209954,-0.9411305785179138,-0.2519546449184418,0.22537188231945038, 225, 171, 0, 196
1733261427287,6i,18.98033868243014,2.0s : 0.3s,-8.776853568475957,8.565265379355354,1.5550138263667208,0.26812686345825726,-0.9316258430480957,0.9505595564842224,0.35395726561546326,0.14376944303512573,0.04700601100921631,0.2213883399963379,0.25338293091051256,-1.794251782363297,2.456829019641664,-0.9440013766288757,-0.2506802976131439,0.2145247757434845, 225, 171, 0, 196
1733261427297,6i,18.98033868243014,2.0s : 0.3s,-8.776853568475957,8.569595379308394,1.6790693150338984,0.2911034157619095,-0.9475652575492859,1.045649528503418,0.401373952627182,0.1517001986503601,0.027322545647621155,0.24694478511810303,0.2517601773545863,-1.7816868875402376,2.446480858888889,-0.9470188021659851,-0.24910902976989746,0.20273175835609436, 225, 171, 0, 196
1733261427307,6i,18.98033868243014,2.0s : 0.3s,-8.776853568475957,8.574272483486512,1.8041327681960642,0.3029336551464773,-0.9685298204421997,1.1326689720153809,0.47227463126182556,0.16009283065795898,0.023333922028541565,0.2561144530773163,0.24942275447411613,-1.7681812996841202,2.4359150788610586,-0.9502385854721069,-0.24684461951255798,0.19003725051879883, 225, 171, 0, 196
1733261427317,6i,18.98033868243014,2.0s : 0.3s,-8.776853568475957,8.579123164531307,1.9458296496504008,0.296820804782562,-1.0499287843704224,1.2190427780151367,0.5411298871040344,0.18405920267105103,0.007812827825546265,0.23273108899593353,0.24635047603986168,-1.753676933382066,2.4247233112417352,-0.9536361694335938,-0.24386624991893768,0.176372230052948, 225, 171, 0, 196
