timestamp,club,max_speed,tempo,w.rotation,l.speed,t.spped,acc,rotation.x,rotation.y,rotation.z,userAcceleration.x,userAcceleration.y,userAcceleration.z,pitch,roll,yaw,gravity.x,gravity.y,gravity.z,impactIndex,minDownIndex,StartIndex,endIndex
1733262005773,6i,19.62047713707544,1.9s : 0.3s,-1.726497674412471,0.00028817738854577756,1.0543614157723646,0.03584384058663194,2.4879379272460938,0.2966592311859131,-0.266011118888855,-0.015262722969055176,-0.0007852762937545776,0.032422423362731934,-0.18183943168253588,1.3541854152630068,0.1463167259939676,0.9605294466018677,0.18083898723125458,-0.21137750148773193, 249, 184, 26, 219
1733262005783,6i,19.62047713707544,1.9s : 0.3s,-1.726497674412471,0.0010241692860527263,1.6343489765102113,0.09838298440057541,2.202038526535034,0.25344333052635193,-0.2559092342853546,0.01463693380355835,-0.0849771797657013,0.047369301319122314,-0.17932046246369804,1.3526419512698662,0.12265094569312575,0.9606438279151917,0.1783609688282013,-0.2129577398300171, 249, 184, 26, 219
1733262005793,6i,19.62047713707544,1.9s : 0.3s,-1.726497674412471,0.002497746657011264,1.9201724454790772,0.1566231364821338,1.902475357055664,0.22424517571926117,-0.2237972617149353,0.039578378200531006,-0.13380871713161469,0.07113076746463776,-0.1772153141979157,1.3513249289505183,0.10210265888279871,0.9607267379760742,0.17628918588161469,-0.21430398523807526, 249, 184, 26, 219
1733262005803,6i,19.62047713707544,1.9s : 0.3s,-1.726497674412471,0.004504368288563006,2.0221999977388645,0.14487295000821107,1.6619552373886108,0.1854727417230606,-0.20417508482933044,0.029077589511871338,-0.12647341191768646,0.06439830362796783,-0.17542163574575728,1.3501927944305454,0.08415582455799261,0.9607904553413391,0.17452332377433777,-0.21546036005020142, 249, 184, 26, 219
1733262005813,6i,19.62047713707544,1.9s : 0.3s,-1.726497674412471,0.006577911123717283,2.0235678663598704,0.11713664252328082,1.498144268989563,0.14928114414215088,-0.19168928265571594,0.015571177005767822,-0.11465498805046082,0.018241852521896362,-0.17389494902788982,1.3490766835054717,0.06831945265036263,0.9608083367347717,0.17301985621452332,-0.21659094095230103, 249, 184, 26, 219
1733262005823,6i,19.62047713707544,1.9s : 0.3s,-1.726497674412471,0.008623745134433555,1.9931643882101553,0.09962218067162167,1.4178651571273804,0.1258394569158554,-0.16515594720840454,0.014144062995910645,-0.09756995737552643,-0.014304816722869873,-0.17241275741073325,1.3478962544458588,0.053635995990261184,0.9608009457588196,0.17155982553958893,-0.21778139472007751, 249, 184, 26, 219
1733262005833,6i,19.62047713707544,1.9s : 0.3s,-1.726497674412471,0.010479953202205053,1.9463745792164895,0.06758113964133379,1.3560502529144287,0.11315092444419861,-0.15342426300048828,0.02071511745452881,-0.056536659598350525,-0.030687138438224792,-0.1708771306160031,1.346680419650836,0.03953886848505807,0.9607911705970764,0.17004677653312683,-0.2190076857805252, 249, 184, 26, 219
1733262005843,6i,19.62047713707544,1.9s : 0.3s,-1.726497674412471,0.011917055699528958,1.8729109687783492,0.05543559569683393,1.2561601400375366,0.10489645600318909,-0.13742798566818237,0.02281641960144043,-0.008329108357429504,-0.04983113706111908,-0.16938571658713586,1.3455100769392732,0.02640626070258614,0.9607803225517273,0.1685768961906433,-0.22018839418888092, 249, 184, 26, 219
1733262005853,6i,19.62047713707544,1.9s : 0.3s,-1.726497674412471,0.013177970948398654,1.7686279810383532,0.05395689259597991,1.1294132471084595,0.08325325697660446,-0.1011405810713768,0.018684029579162598,0.004644855856895447,-0.050405144691467285,-0.1678802807141787,1.3444511586376964,0.01446135712544591,0.9607928991317749,0.16709280014038086,-0.2212623804807663, 249, 184, 26, 219
1733262005863,6i,19.62047713707544,1.9s : 0.3s,-1.726497674412471,0.014357631658037355,1.645946863634918,0.04664749022405368,1.009231686592102,0.0500849150121212,-0.0844407007098198,0.033591628074645996,-0.01817852258682251,-0.02677932381629944,-0.16634450510354926,1.3433303015463094,0.003917738912816279,0.9607931971549988,0.1655784249305725,-0.22239676117897034, 249, 184, 26, 219
1733262005873,6i,19.62047713707544,1.9s : 0.3s,-1.726497674412471,0.015554888221598305,1.5150477349232918,0.07237826912927102,0.8995252251625061,0.028665199875831604,-0.06584277749061584,0.04548931121826172,-0.05437737703323364,-0.014575228095054626,-0.16494174500589504,1.3421331544295099,-0.005466231128336924,0.960751473903656,0.16419486701488495,-0.22359922528266907, 249, 184, 26, 219
1733262005883,6i,19.62047713707544,1.9s : 0.3s,-1.726497674412471,0.016782844648854812,1.3685095147580557,0.07594414413219731,0.7645493149757385,0.01943361759185791,-0.04178564250469208,0.03006291389465332,-0.06687764823436737,-0.019776612520217896,-0.16355309905940396,1.3410096448752864,-0.013643210187282614,0.9607206583023071,0.16282491385936737,-0.22473019361495972, 249, 184, 26, 219
1733262005893,6i,19.62047713707544,1.9s : 0.3s,-1.726497674412471,0.018028359753374346,1.1973215328970706,0.0688312712580624,0.595588207244873,-0.008426951244473457,-0.025847624987363815,0.021348655223846436,-0.06276780366897583,-0.018498152494430542,-0.16234164994063008,1.3399638148103565,-0.020305866340578117,0.9606766104698181,0.16162951290607452,-0.22577983140945435, 249, 184, 26, 219
1733262005903,6i,19.62047713707544,1.9s : 0.3s,-1.726497674412471,0.019417106979859225,1.0068048832883085,0.09157077410852148,0.42149898409843445,-0.044342342764139175,-0.0015172511339187622,0.018495142459869385,-0.08934122323989868,-0.007828295230865479,-0.1612982902923719,1.3389038246938982,-0.025207650699287026,0.9606002569198608,0.16059978306293488,-0.22683663666248322, 249, 184, 26, 219
1733262005913,6i,19.62047713707544,1.9s : 0.3s,-1.726497674412471,0.021241489985051727,0.8240641701486028,0.13130214332172335,0.2951153516769409,-0.0646987035870552,-0.02936895564198494,0.021288633346557617,-0.1295318603515625,0.00292302668094635,-0.16052431565603195,1.3377643885518817,-0.028523287598636194,0.9604617357254028,0.1598358005285263,-0.22795964777469635, 249, 184, 26, 219
1733262005923,6i,19.62047713707544,1.9s : 0.3s,-1.726497674412471,0.023212928154277997,0.6471946936182971,0.11782222915546807,0.11853046715259552,-0.13139118254184723,-0.3072431981563568,0.015571117401123047,-0.11623203754425049,-0.011389970779418945,-0.15983468410292004,1.336408841075179,-0.032289486521337785,0.960258960723877,0.1591549962759018,-0.22928695380687714, 249, 184, 26, 219
1733262005933,6i,19.62047713707544,1.9s : 0.3s,-1.726497674412471,0.025166336446439928,0.4877249979091465,0.09411414011769943,-0.0020494828931987286,-0.3637272119522095,0.007293451111763716,0.05617642402648926,-0.06942597031593323,-0.029693692922592163,-0.15961087300946533,1.335520408652651,-0.03286954103663404,0.9600895643234253,0.15893404185771942,-0.2301483005285263, 249, 184, 26, 219
1733262005943,6i,19.62047713707544,1.9s : 0.3s,-1.726497674412471,0.0270901558342484,0.34813243716128683,0.08702591329375473,-0.18690402805805206,-0.3204551041126251,0.16913826763629913,-0.0232505202293396,-0.08278651535511017,-0.013390883803367615,-0.1601301304451417,1.3346988614258504,-0.028971486377236177,0.9598196744918823,0.15944667160511017,-0.23091763257980347, 249, 184, 26, 219
1733262005953,6i,19.62047713707544,1.9s : 0.3s,-1.726497674412471,0.02911785522832156,0.24789633779893488,0.11981358143046916,-0.3527081608772278,-0.15896226465702057,0.03307498246431351,-0.019009053707122803,-0.11120788753032684,0.040333062410354614,-0.16081989229692456,1.3339110909852885,-0.024960786961128738,0.9595303535461426,0.16012758016586304,-0.2316478192806244, 249, 184, 26, 219
1733262005963,6i,19.62047713707544,1.9s : 0.3s,-1.726497674412471,0.03116284848030093,0.2909213554014492,0.10527228782414845,-0.47807514667510986,-0.13894754648208618,-0.022433817386627197,-0.006654500961303711,-0.09346185624599457,0.047988057136535645,-0.16150003254543596,1.3332056406611035,-0.020109374246618218,0.9592606425285339,0.16079890727996826,-0.23229898512363434, 249, 184, 26, 219
1733262005973,6i,19.62047713707544,1.9s : 0.3s,-1.726497674412471,0.03315929507718622,0.4214054235457441,0.07776665583292663,-0.5806567668914795,-0.14835777878761292,0.013522551394999027,-0.005003511905670166,-0.06455524265766144,0.043072476983070374,-0.16285407763104065,1.3325973711093628,-0.014482853750045717,0.9589065909385681,0.16213518381118774,-0.23283080756664276, 249, 184, 26, 219
1733262005983,6i,19.62047713707544,1.9s : 0.3s,-1.726497674412471,0.03507588719061692,0.5366847646586336,0.07166700119764871,-0.5981300473213196,-0.14746908843517303,0.005960505921393633,-0.012158393859863281,-0.04824133217334747,0.05158591270446777,-0.1641353955535604,1.3320854913888756,-0.008195601390234503,0.958584725856781,0.16339941322803497,-0.23327232897281647, 249, 184, 26, 219
1733262005993,6i,19.62047713707544,1.9s : 0.3s,-1.726497674412471,0.036579430883519184,0.5782843491551177,0.04980578776946551,-0.48712828755378723,-0.13712602853775024,0.010907094925642014,-0.009119033813476562,-0.011356845498085022,0.047628581523895264,-0.1653533394536187,1.3315321925664212,-0.002451273882417945,0.9582614898681641,0.16460086405277252,-0.23375533521175385, 249, 184, 26, 219
1733262006003,6i,19.62047713707544,1.9s : 0.3s,-1.726497674412471,0.037856296572314124,0.5462843868252593,0.05754861163481871,-0.3399992883205414,-0.09275483340024948,0.012158779427409172,-0.01348954439163208,0.04168044030666351,0.03731776773929596,-0.16622200952913663,1.3310465068181494,0.001866434675596585,0.9580084681510925,0.165457621216774,-0.23418666422367096, 249, 184, 26, 219
1733262006013,6i,19.62047713707544,1.9s : 0.3s,-1.726497674412471,0.038173849451976265,0.4619830065180885,0.10082289611784917,-0.1904579997062683,-0.050980936735868454,0.03318237513303757,-0.019582152366638184,0.09298966825008392,0.03368556499481201,-0.1666304600118326,1.3307595747228056,0.0047883486094159565,0.9578756093978882,0.16586042940616608,-0.2344454675912857, 249, 184, 26, 219
1733262006023,6i,19.62047713707544,1.9s : 0.3s,-1.726497674412471,0.03774385157104734,0.35881610778136586,0.11710308136037213,-0.07932855933904648,-0.0324740968644619,0.040248803794384,-0.018588900566101074,0.10827279090881348,0.040553510189056396,-0.16657483909699744,1.330585049244875,0.006373138490908406,0.9578436017036438,0.16580557823181152,-0.23461483418941498, 249, 184, 26, 219
1733262006033,6i,19.62047713707544,1.9s : 0.3s,-1.726497674412471,0.036863093047536995,0.25188483311192655,0.11079172834886825,0.01528183650225401,-0.0339595191180706,0.036052994430065155,0.0017771720886230469,0.1036895364522934,0.03898882865905762,-0.1662556158774156,1.3303201250095267,0.006994831375974003,0.9578328132629395,0.1654907613992691,-0.2348811775445938, 249, 184, 26, 219
1733262006043,6i,19.62047713707544,1.9s : 0.3s,-1.726497674412471,0.03579532481346477,0.15779176689389238,0.09563070333809426,0.07487006485462189,-0.03293580189347267,0.028164977207779884,0.013112664222717285,0.09072652459144592,0.027239441871643066,-0.16583081171054925,1.3299076016661748,0.006935014296614463,0.9578040242195129,0.16507180035114288,-0.23529304563999176, 249, 184, 26, 219
1733262006053,6i,19.62047713707544,1.9s : 0.3s,-1.726497674412471,0.03475451520331154,0.1320057724956609,0.06836942601684269,0.11809902638196945,-0.026086950674653053,0.02570301666855812,0.007322371006011963,0.06279893219470978,0.026020288467407227,-0.165324376405146,1.329464723016726,0.00626494442186424,0.9577807188034058,0.16457229852676392,-0.235737144947052, 249, 184, 26, 219
1733262006063,6i,19.62047713707544,1.9s : 0.3s,-1.726497674412471,0.03380598590698644,0.0605527944055144,0.044171986345814165,0.1453426331281662,-0.01066538318991661,-0.023183565586805344,0.0006192922592163086,0.037084177136421204,0.023990511894226074,-0.16487950514739608,1.3290532520536114,0.005179252616987635,0.9577546715736389,0.1641334742307663,-0.23614874482154846, 249, 184, 26, 219
1733262006073,6i,19.62047713707544,1.9s : 0.3s,-1.726497674412471,0.03307325022979783,0.22164288712139685,0.01550586567816954,0.1140516921877861,0.053408630192279816,-0.5687614679336548,-0.006434440612792969,0.013965651392936707,0.0019976049661636353,-0.1645097524639449,1.328563796126822,-0.00038058314241023203,0.9576978087425232,0.1637687236070633,-0.23663201928138733, 249, 184, 26, 219
1733262006083,6i,19.62047713707544,1.9s : 0.3s,-1.726497674412471,0.032438748509904525,0.42416604061596946,0.04426543033904459,0.14747916162014008,0.14975354075431824,-0.6466094255447388,0.043419063091278076,0.005250751972198486,-0.006829559803009033,-0.16381590581517147,1.3284726590137474,-0.004712497104312945,0.9577863812446594,0.1630842089653015,-0.23674653470516205, 249, 184, 26, 219
1733262006093,6i,19.62047713707544,1.9s : 0.3s,-1.726497674412471,0.031891485020148616,0.36516274456081677,0.04024933301858607,0.09967794269323349,0.007255915552377701,-0.15012127161026,-0.03174692392349243,-0.019718468189239502,-0.014944016933441162,-0.1636052973988192,1.328079618839583,-0.008218409534977022,0.9577264785766602,0.1628764122724533,-0.23713119328022003, 249, 184, 26, 219
1733262006103,6i,19.62047713707544,1.9s : 0.3s,-1.726497674412471,0.031474220870607326,0.23837029351601782,0.0541652267376221,0.05182759836316109,-0.05448201671242714,0.06001918017864227,-0.029621779918670654,-0.04471565783023834,-0.0075453221797943115,-0.1637942554345444,1.3278666332061182,-0.009499990217881839,0.9576461315155029,0.16306284070014954,-0.23732778429985046, 249, 184, 26, 219
1733262006113,6i,19.62047713707544,1.9s : 0.3s,-1.726497674412471,0.03145963050060393,0.1807270044640996,0.06600486806295047,-0.030795909464359283,-0.046330347657203674,-0.0454360730946064,-0.01616525650024414,-0.06364722549915314,-0.006660163402557373,-0.16374318881266606,1.3274543077294563,-0.009451594932869137,0.9575562477111816,0.16301245987415314,-0.23772461712360382, 249, 184, 26, 219
1733262006123,6i,19.62047713707544,1.9s : 0.3s,-1.726497674412471,0.03182410746983318,0.12233720087446655,0.05917671092529673,-0.07182642817497253,-0.05086784064769745,0.007216219324618578,0.017749011516571045,-0.05620066821575165,0.005323588848114014,-0.16397489460457165,1.327056421533548,-0.0087411416296204,0.9574249386787415,0.16324105858802795,-0.2380964756011963, 249, 184, 26, 219
1733262006133,6i,19.62047713707544,1.9s : 0.3s,-1.726497674412471,0.032495906583135954,0.1063279926757267,0.06687943250755368,-0.0756215751171112,-0.07821375876665115,0.03246980905532837,-0.00779646635055542,-0.06336800754070282,0.019914045929908752,-0.1641406754724592,1.3266001621291688,-0.008046636550948333,0.9572898149490356,0.16340461373329163,-0.23852671682834625, 249, 184, 26, 219
1733262006143,6i,19.62047713707544,1.9s : 0.3s,-1.726497674412471,0.03318785102345066,0.0853071615270613,0.041397518170124825,-0.03213880956172943,-0.12829609215259552,0.1136818379163742,-0.003385305404663086,-0.04019801318645477,0.009295910596847534,-0.16439638596289674,1.32618900349108,-0.00769481785777455,0.9571512341499329,0.16365689039230347,-0.23891019821166992, 249, 184, 26, 219
1733262006153,6i,19.62047713707544,1.9s : 0.3s,-1.726497674412471,0.03376194215435823,0.13912302356618456,0.008546915557602211,0.04121330380439758,-0.1704433411359787,0.19162794947624207,-0.0062081217765808105,0.005507156252861023,-0.0020445585250854492,-0.16451496072972013,1.325693179576002,-0.008426044818470027,0.957013726234436,0.16377386450767517,-0.23938001692295074, 249, 184, 26, 219
1733262006163,6i,19.62047713707544,1.9s : 0.3s,-1.726497674412471,0.03421742316455303,0.2328633438841299,0.028157495731175358,0.10061857104301453,-0.2145165205001831,0.26305046677589417,-0.009864211082458496,0.02457268536090851,-0.009577319025993347,-0.16438378445694884,1.3251990102600129,-0.010135640714940808,0.9569161534309387,0.1636444479227066,-0.23985812067985535, 249, 184, 26, 219
1733262006173,6i,19.62047713707544,1.9s : 0.3s,-1.726497674412471,0.03458418098443191,0.3394262180542628,0.021087661279655816,0.14883270859718323,-0.25290554761886597,0.33480873703956604,-0.010072588920593262,0.018189236521720886,-0.003519102931022644,-0.16404888680980018,1.324638363419257,-0.01277078078933177,0.9568345546722412,0.1633140593767166,-0.24040791392326355, 249, 184, 26, 219
1733262006183,6i,19.62047713707544,1.9s : 0.3s,-1.726497674412471,0.034876692464854746,0.45039808954471605,0.022106109253315576,0.19697973132133484,-0.28966566920280457,0.4006175696849823,-0.006714224815368652,0.020333677530288696,0.00549006462097168,-0.1634528619308575,1.3241141620122796,-0.016236985496890954,0.9568027257919312,0.1627260148525238,-0.24093319475650787, 249, 184, 26, 219
1733262006193,6i,19.62047713707544,1.9s : 0.3s,-1.726497674412471,0.035093559343006814,0.5591393853648883,0.02443723376885228,0.20133227109909058,-0.33776918053627014,0.46144846081733704,-0.0026960372924804688,0.024178296327590942,0.0023064613342285156,-0.1626029601070794,1.3236014490159738,-0.020023171730503945,0.9568127989768982,0.16188737750053406,-0.2414574921131134, 249, 184, 26, 219
1733262006203,6i,19.62047713707544,1.9s : 0.3s,-1.726497674412471,0.03528154194288668,0.6563863865035319,0.009326977633291,0.1700933873653412,-0.381936639547348,0.5095549821853638,0.000905156135559082,0.006968080997467041,0.006133437156677246,-0.16198275698038586,1.3231358316435997,-0.021839739244759453,0.9567974805831909,0.16127532720565796,-0.24192754924297333, 249, 184, 26, 219
1733262006213,6i,19.62047713707544,1.9s : 0.3s,-1.726497674412471,0.035501838574342554,0.7422349587566294,0.023132429655894526,0.12581540644168854,-0.4207172393798828,0.5522245764732361,0.002348959445953369,-0.01873128116130829,0.01336902379989624,-0.16147616744273613,1.322707176512288,-0.023293537328957264,0.9567727446556091,0.1607753485441208,-0.24235768616199493, 249, 184, 26, 219
1733262006223,6i,19.62047713707544,1.9s : 0.3s,-1.726497674412471,0.03583124792248204,0.8220730839758893,0.039249759016519135,0.10051138699054718,-0.46351155638694763,0.5872403383255005,-0.004954814910888672,-0.036929696798324585,0.012336567044258118,-0.16105335056517064,1.3222886193895713,-0.024409490061565054,0.9567369222640991,0.1603580117225647,-0.24277479946613312, 249, 184, 26, 219
1733262006233,6i,19.62047713707544,1.9s : 0.3s,-1.726497674412471,0.03628149811649243,0.8744286505828062,0.04685999689622542,0.08007747679948807,-0.46318379044532776,0.5781946182250977,-0.011639893054962158,-0.044813185930252075,0.007221534848213196,-0.16073881234052448,1.3219063459371794,-0.025337894782918827,0.9566928744316101,0.16004754602909088,-0.2431529313325882, 249, 184, 26, 219
1733262006243,6i,19.62047713707544,1.9s : 0.3s,-1.726497674412471,0.03683813425324829,0.8864623041758698,0.05232365585311484,0.07729288190603256,-0.4405567944049835,0.5219859480857849,-0.019432485103607178,-0.046892210841178894,0.012698978185653687,-0.16043355238230525,1.3215047008960699,-0.02769060722435247,0.9566424489021301,0.1597461998462677,-0.2435491979122162, 249, 184, 26, 219
1733262006253,6i,19.62047713707544,1.9s : 0.3s,-1.726497674412471,0.037409140960264944,0.8774440832217993,0.03706353200795301,0.10881298780441284,-0.41249579191207886,0.46273013949394226,-0.01412588357925415,-0.03355853259563446,0.006927460432052612,-0.1601733226442148,1.3210407881954376,-0.029748865540144526,0.9565696120262146,0.15948931872844696,-0.24400325119495392, 249, 184, 26, 219
1733262006263,6i,19.62047713707544,1.9s : 0.3s,-1.726497674412471,0.03794696486813667,0.8484515361937993,0.021816458201100033,0.1379237323999405,-0.3831173777580261,0.4181309640407562,-0.01403343677520752,-0.0158655047416687,-0.005225539207458496,-0.15987147608201538,1.3205340990564562,-0.03169589797253503,0.9564924836158752,0.1591913253068924,-0.2444998174905777, 249, 184, 26, 219
1733262006273,6i,19.62047713707544,1.9s : 0.3s,-1.726497674412471,0.03842647437252378,0.8116022288500813,0.018975796134915953,0.15750356018543243,-0.3598572313785553,0.3760634660720825,-0.01772916316986084,-0.0026002824306488037,-0.006244689226150513,-0.15947969108559637,1.3199885382163095,-0.033352988439592716,0.9564194083213806,0.1588045209646225,-0.24503710865974426, 249, 184, 26, 219
1733262006283,6i,19.62047713707544,1.9s : 0.3s,-1.726497674412471,0.03885126647620877,0.7686477232411288,0.01874026796042256,0.17603996396064758,-0.33099308609962463,0.3347141444683075,-0.017734944820404053,-0.0011465996503829956,-0.005945980548858643,-0.15901190271130028,1.3194083042449882,-0.034865961226460594,0.9563488364219666,0.1583426594734192,-0.24561043083667755, 249, 184, 26, 219
1733262006293,6i,19.62047713707544,1.9s : 0.3s,-1.726497674412471,0.03925124327887991,0.7203784341102931,0.018379922773378573,0.17153136432170868,-0.30021971464157104,0.2978467047214508,-0.014537990093231201,-0.010976672172546387,-0.002445623278617859,-0.15848995010809352,1.3188649305360678,-0.03595536240404316,0.9562951326370239,0.1578272581100464,-0.24615061283111572, 249, 184, 26, 219
1733262006303,6i,19.62047713707544,1.9s : 0.3s,-1.726497674412471,0.039640778926491274,0.6710073607400059,0.022322616743618635,0.17293564975261688,-0.2717422544956207,0.26576921343803406,-0.015473008155822754,-0.016072094440460205,-0.0007569789886474609,-0.1578862961123479,1.3183844570383958,-0.03674071496378802,0.956268846988678,0.1572311520576477,-0.24663381278514862, 249, 184, 26, 219
1733262006313,6i,19.62047713707544,1.9s : 0.3s,-1.726497674412471,0.04003268400001591,0.619825049364903,0.022129177482756536,0.15153275430202484,-0.2508224546909332,0.2333642989397049,-0.009940266609191895,-0.019665434956550598,0.002040162682533264,-0.1572295451816782,1.3179436660569093,-0.03837584076651652,0.9562597870826721,0.1565825343132019,-0.24708107113838196, 249, 184, 26, 219
1733262006323,6i,19.62047713707544,1.9s : 0.3s,-1.726497674412471,0.04044979312386991,0.5648779540687097,0.029178688965267457,0.11097333580255508,-0.23275424540042877,0.19979168474674225,-0.0013693571090698242,-0.028814956545829773,0.004383951425552368,-0.15662126816367694,1.3175280968331617,-0.03967854692763744,0.9562491774559021,0.15598173439502716,-0.24750229716300964, 249, 184, 26, 219
1733262006333,6i,19.62047713707544,1.9s : 0.3s,-1.726497674412471,0.040921481639222386,0.5083906084122608,0.0431537439347929,0.0708453580737114,-0.2201949506998062,0.16375119984149933,-0.0014017820358276367,-0.04176323115825653,0.010775581002235413,-0.15608949972720731,1.3170889469695413,-0.04057812977140188,0.9562204480171204,0.15545643866062164,-0.2479429692029953, 249, 184, 26, 219
1733262006343,6i,19.62047713707544,1.9s : 0.3s,-1.726497674412471,0.04155870208385011,0.45281167910988196,0.05676171656787768,0.007229636423289776,-0.2141338586807251,0.13380634784698486,0.00043255090713500977,-0.05613596737384796,0.00839395821094513,-0.15570228240376366,1.3165954030181288,-0.04097896633570326,0.9561561346054077,0.15507392585277557,-0.24842998385429382, 249, 184, 26, 219
1733262006353,6i,19.62047713707544,1.9s : 0.3s,-1.726497674412471,0.04248080518282331,0.40095246699442594,0.07550437114156731,-0.06406544893980026,-0.2001834660768509,0.11079274863004684,0.0015052556991577148,-0.07536287605762482,0.004368200898170471,-0.15545602806085146,1.3160601660760796,-0.04072880588427285,0.956059992313385,0.15483064949512482,-0.24895134568214417, 249, 184, 26, 219
1733262006363,6i,19.62047713707544,1.9s : 0.3s,-1.726497674412471,0.043683102895442194,0.3588755157347861,0.08712197481888376,-0.13029426336288452,-0.18020124733448029,0.09324438124895096,0.0033878684043884277,-0.08676812052726746,0.007074892520904541,-0.1553086121624016,1.3155811688594536,-0.03976085373622516,0.9559626579284668,0.15468500554561615,-0.24941502511501312, 249, 184, 26, 219
1733262006373,6i,19.62047713707544,1.9s : 0.3s,-1.726497674412471,0.04499400182716524,0.3404553550351999,0.08348807146457918,-0.15972113609313965,-0.16085585951805115,0.07743798196315765,0.0061182379722595215,-0.08150549232959747,0.017019987106323242,-0.15523305231941634,1.3151730595837332,-0.038254292991210956,0.955872118473053,0.15461035072803497,-0.24980808794498444, 249, 184, 26, 219
1733262006383,6i,19.62047713707544,1.9s : 0.3s,-1.726497674412471,0.04633290872752609,0.3072695894559275,0.07025098892896948,-0.11760750412940979,-0.13626742362976074,0.06550968438386917,-0.0008095502853393555,-0.06593817472457886,0.024221956729888916,-0.15505975746174297,1.3147652664234468,-0.03683629436916345,0.9557961225509644,0.15443913638591766,-0.2502046525478363, 249, 184, 26, 219
1733262006393,6i,19.62047713707544,1.9s : 0.3s,-1.726497674412471,0.047530217199972885,0.2694025139945548,0.03084132061053142,-0.0614536888897419,-0.11779547482728958,0.04167485982179642,-0.0011890530586242676,-0.024428725242614746,0.018788576126098633,-0.1547298612970153,1.3143170875998107,-0.03590658615290822,0.9557331204414368,0.15411318838596344,-0.2506459057331085, 249, 184, 26, 219
1733262006403,6i,19.62047713707544,1.9s : 0.3s,-1.726497674412471,0.04844817464450624,0.2273131745178601,0.02483629418150038,-0.010284775868058205,-0.10302931070327759,0.013080500066280365,0.007509589195251465,0.017467394471168518,0.015979290008544922,-0.1543637780798888,1.313790998372743,-0.035523326352060985,0.9556556344032288,0.15375147759914398,-0.2511630058288574, 249, 184, 26, 219
1733262006413,6i,19.62047713707544,1.9s : 0.3s,-1.726497674412471,0.04923287534311195,0.18613352468230907,0.03300569009222168,0.034845419228076935,-0.08286217600107193,0.00022682012058794498,0.014407157897949219,0.026554077863693237,0.013292491436004639,-0.15393907166574042,1.3132347936107585,-0.03564759849291548,0.9555788040161133,0.15333180129528046,-0.2517111003398895, 249, 184, 26, 219
1733262006423,6i,19.62047713707544,1.9s : 0.3s,-1.726497674412471,0.04989875641458634,0.15014242955868476,0.03213646415653597,0.0645654946565628,-0.061872731894254684,-0.01898069679737091,0.015676021575927734,0.02548086643218994,0.011736273765563965,-0.15345011975694692,1.3126956835922212,-0.036136867621839416,0.9555153250694275,0.15284861624240875,-0.25224533677101135, 249, 184, 26, 219
1733262006433,6i,19.62047713707544,1.9s : 0.3s,-1.726497674412471,0.050453583178437136,0.14195562204696197,0.0236082445788482,0.08273584395647049,-0.052316732704639435,-0.02526465803384781,0.009145617485046387,0.021711960434913635,-0.001515805721282959,-0.15252374863663812,1.3122142560907306,-0.036842452468756726,0.9555302262306213,0.15193305909633636,-0.25274142622947693, 249, 184, 26, 219
1733262006443,6i,19.62047713707544,1.9s : 0.3s,-1.726497674412471,0.050909172008205356,0.13387157714941117,0.020323145037305517,0.09326598793268204,-0.03916817530989647,-0.035956718027591705,-0.001989305019378662,0.016142770648002625,-0.012185394763946533,-0.1515355230837241,1.3117472120416647,-0.037688611637251054,0.9555567502975464,0.15095624327659607,-0.25322601199150085, 249, 184, 26, 219
1733262006453,6i,19.62047713707544,1.9s : 0.3s,-1.726497674412471,0.051291913252797056,0.12681925999130697,0.016428941498856972,0.10204628854990005,-0.02842698059976101,-0.03768087923526764,-0.005249619483947754,0.007258102297782898,-0.013772130012512207,-0.1505981168687604,1.31136970751273,-0.03863240360039208,0.9555975198745728,0.1500295102596283,-0.2536229193210602, 249, 184, 26, 219
1733262006463,6i,19.62047713707544,1.9s : 0.3s,-1.726497674412471,0.051622991325353924,0.12056456779376211,0.01237318542204179,0.10793586820363998,-0.01766274869441986,-0.03641481325030327,-0.002393960952758789,0.0014762580394744873,-0.012049287557601929,-0.14971718847214366,1.3110392911578357,-0.03870521695189378,0.9556409120559692,0.14915849268436432,-0.25397247076034546, 249, 184, 26, 219
1733262006473,6i,19.62047713707544,1.9s : 0.3s,-1.726497674412471,0.05191771397741711,0.11517484086054061,0.010374064038167827,0.09191828966140747,-0.010767116211354733,-0.02925890125334263,0.005780994892120361,-0.001204460859298706,-0.00852939486503601,-0.14904878368118465,1.3107358821003365,-0.03887874871339324,0.9556599259376526,0.14849753677845,-0.254287987947464, 249, 184, 26, 219
1733262006483,6i,19.62047713707544,1.9s : 0.3s,-1.726497674412471,0.05221277330227606,0.11137401634447378,0.01628983831884634,0.08070797473192215,-0.018151262775063515,-0.01920946314930916,0.005408883094787598,-0.015044987201690674,-0.003122687339782715,-0.14857130812550912,1.3104302839055146,-0.039663005442233196,0.9556506276130676,0.14802533388137817,-0.2545982599258423, 249, 184, 26, 219
1733262006493,6i,19.62047713707544,1.9s : 0.3s,-1.726497674412471,0.052541074545628515,0.10926669455104676,0.03141953021076315,0.06754051148891449,-0.034724291414022446,-0.01345483586192131,0.004900097846984863,-0.030889883637428284,-0.0029985010623931885,-0.14816107633507522,1.3099813626509913,-0.039646774350408434,0.9555948376655579,0.1476196050643921,-0.2550428807735443, 249, 184, 26, 219
1733262006503,6i,19.62047713707544,1.9s : 0.3s,-1.726497674412471,0.05289923913605345,0.10841462735722249,0.03268113295828912,0.07458137720823288,-0.03708438575267792,-0.002086867578327656,0.008302152156829834,-0.031220614910125732,-0.004940032958984375,-0.14775496184813397,1.309458415807062,-0.03965858138036627,0.9555191993713379,0.14721792936325073,-0.255558043718338, 249, 184, 26, 219
1733262006513,6i,19.62047713707544,1.9s : 0.3s,-1.726497674412471,0.053260938917591275,0.10944263163608516,0.02060730948404946,0.08952704071998596,-0.03951948881149292,0.01566370017826557,0.006595790386199951,-0.01930128037929535,-0.0029355287551879883,-0.14728991699756275,1.3088322985722294,-0.0403958845871176,0.9554250836372375,0.14675793051719666,-0.2561739683151245, 249, 184, 26, 219
1733262006523,6i,19.62047713707544,1.9s : 0.3s,-1.726497674412471,0.05360813208603756,0.11196927443102288,0.02200676293461264,0.08422096073627472,-0.050557758659124374,0.03569759428501129,-0.0034775137901306152,-0.016171172261238098,-0.014515429735183716,-0.1467788022804656,1.308084398516557,-0.04055080093221188,0.9553054571151733,0.1462523341178894,-0.2569079101085663, 249, 184, 26, 219
1733262006533,6i,19.62047713707544,1.9s : 0.3s,-1.726497674412471,0.053962987006482346,0.11286382050262962,0.03251421127949965,0.05920109152793884,-0.06164094805717468,0.053009938448667526,-0.010115563869476318,-0.02691185474395752,-0.015185564756393433,-0.14626826715915578,1.3072726981343485,-0.04050940442861374,0.9551684856414795,0.14574727416038513,-0.25770261883735657, 249, 184, 26, 219
1733262006543,6i,19.62047713707544,1.9s : 0.3s,-1.726497674412471,0.05434842855691087,0.113353722076836,0.03866140599397278,0.05447344854474068,-0.05976155400276184,0.05301180109381676,-0.00802302360534668,-0.03576090931892395,-0.012308239936828613,-0.14568117997094926,1.3064721844600236,-0.04042193444230252,0.9550444483757019,0.14516642689704895,-0.2584895193576813, 249, 184, 26, 219
1733262006553,6i,19.62047713707544,1.9s : 0.3s,-1.726497674412471,0.0547467534294085,0.1147764253891785,0.0299881143628232,0.06482475996017456,-0.055055882781744,0.06045610457658768,-0.005903303623199463,-0.028051286935806274,-0.008807003498077393,-0.14498325370912432,1.3058055422930854,-0.04047186416545451,0.9549694657325745,0.14447586238384247,-0.2591525912284851, 249, 184, 26, 219
1733262006563,6i,19.62047713707544,1.9s : 0.3s,-1.726497674412471,0.055132528533930844,0.1151448653617578,0.02599858295221835,0.053228288888931274,-0.05652568116784096,0.0533079132437706,-0.010788977146148682,-0.018834486603736877,-0.014310359954833984,-0.14410381055849494,1.3052278094031766,-0.040493623615170164,0.9549417495727539,0.14360558986663818,-0.2597375214099884, 249, 184, 26, 219
1733262006573,6i,19.62047713707544,1.9s : 0.3s,-1.726497674412471,0.055482133334284166,0.11838082787161994,0.018305973553324247,0.07868437469005585,-0.05700673907995224,0.0473058819770813,-0.005787909030914307,-0.006881892681121826,-0.01594516634941101,-0.14298876606123803,1.3046507613948592,-0.04062355245801723,0.9549457430839539,0.14250200986862183,-0.2603304982185364, 249, 184, 26, 219
1733262006583,6i,19.62047713707544,1.9s : 0.3s,-1.726497674412471,0.055769416820338216,0.13575514446895856,0.01473511037701337,0.11717025190591812,-0.04937252029776573,0.04965425655245781,0.0014794468879699707,0.009897619485855103,-0.010815352201461792,-0.14177620286274137,1.3040560904216871,-0.041096862321609556,0.954956591129303,0.1413017213344574,-0.2609436511993408, 249, 184, 26, 219
1733262006593,6i,19.62047713707544,1.9s : 0.3s,-1.726497674412471,0.05596894219067628,0.15322933050452475,0.027033450574614346,0.1272612363100052,-0.04917686805129051,0.05533071979880333,-0.0031478404998779297,0.024266019463539124,-0.01149168610572815,-0.14067194009179598,1.3034970286213496,-0.041759894003492774,0.9549604654312134,0.14020845293998718,-0.26151853799819946, 249, 184, 26, 219
1733262006603,6i,19.62047713707544,1.9s : 0.3s,-1.726497674412471,0.0561148890640464,0.15665831550800957,0.022306383526442368,0.11073391884565353,-0.06017811968922615,0.050972189754247665,-0.016434133052825928,0.01152607798576355,-0.009728491306304932,-0.13966916479710617,1.3026161404328773,-0.04250084506299453,0.9548649191856384,0.13921551406383514,-0.26239678263664246, 249, 184, 26, 219
1733262006613,6i,19.62047713707544,1.9s : 0.3s,-1.726497674412471,0.05624502396545763,0.15802760521399614,0.014402217059658311,0.09355587512254715,-0.0719025507569313,0.04928724095225334,-0.012990593910217285,-0.0021590441465377808,-0.005831539630889893,-0.1385731831222614,1.3016134125380558,-0.04306471032656365,0.95474773645401,0.13813011348247528,-0.2633945345878601, 249, 184, 26, 219
1733262006623,6i,19.62047713707544,1.9s : 0.3s,-1.726497674412471,0.056367932091600396,0.15626716335941596,0.008188302384076312,0.06395776569843292,-0.07359632104635239,0.04956207796931267,-0.005316674709320068,-0.004305541515350342,-0.004499286413192749,-0.1374127242193261,1.3006300678709688,-0.04336554461894924,0.954642117023468,0.13698068261146545,-0.26437583565711975, 249, 184, 26, 219
1733262006633,6i,19.62047713707544,1.9s : 0.3s,-1.726497674412471,0.05650037547693585,0.15394793910279092,0.012100388162184937,0.0503426194190979,-0.07904355227947235,0.05296659469604492,-0.006704747676849365,-0.009906843304634094,0.001822143793106079,-0.13642827720857886,1.299736073580867,-0.043470864051690525,0.9545348286628723,0.1360054612159729,-0.26526516675949097, 249, 184, 26, 219
1733262006643,6i,19.62047713707544,1.9s : 0.3s,-1.726497674412471,0.05664316084283607,0.15302795013155635,0.016562833733492224,0.0628562793135643,-0.08064650744199753,0.04539363086223602,-0.011308550834655762,-0.012060567736625671,-0.0009934008121490479,-0.1356450768501568,1.2987031136513323,-0.0434638261006546,0.9543626308441162,0.13522948324680328,-0.26627957820892334, 249, 184, 26, 219
1733262006653,6i,19.62047713707544,1.9s : 0.3s,-1.726497674412471,0.05677463382047948,0.15367957821246295,0.019224406189514917,0.08637852221727371,-0.07699491083621979,0.03223192319273949,-0.015721917152404785,-0.005441725254058838,-0.009632587432861328,-0.13507881755941079,1.297640181341895,-0.04382382670057062,0.9541526436805725,0.13466840982437134,-0.26731446385383606, 249, 184, 26, 219
1733262006663,6i,19.62047713707544,1.9s : 0.3s,-1.726497674412471,0.05685927779609693,0.15766117856819342,0.02573749302327918,0.11323197185993195,-0.06940171122550964,0.03696276247501373,-0.019089579582214355,0.010354042053222656,-0.013813048601150513,-0.13475249032466385,1.296724537538535,-0.04432630431239262,0.9539497494697571,0.13434505462646484,-0.2681998908519745, 249, 184, 26, 219
1733262006673,6i,19.62047713707544,1.9s : 0.3s,-1.726497674412471,0.05687473124515128,0.18733517610275013,0.03239612792241053,0.17990101873874664,-0.0703907236456871,0.03569802641868591,-0.020526885986328125,0.02352099120616913,-0.008655577898025513,-0.1344921595002132,1.2957585946663657,-0.04533830771358666,0.9537239670753479,0.13408707082271576,-0.26913076639175415, 249, 184, 26, 219
1733262006683,6i,19.62047713707544,1.9s : 0.3s,-1.726497674412471,0.05673704266189198,0.23508438815189606,0.04029165250091348,0.2566288113594055,-0.06465214490890503,0.026515981182456017,-0.019769251346588135,0.0333256721496582,-0.011045068502426147,-0.13386763321579198,1.294687932824909,-0.04715146129607002,0.9535157084465027,0.1334681659936905,-0.270174503326416, 249, 184, 26, 219
1733262006693,6i,19.62047713707544,1.9s : 0.3s,-1.726497674412471,0.056437656708841044,0.2767799686556175,0.04474160144711857,0.2736698389053345,-0.06314301490783691,0.02601943537592888,-0.020956575870513916,0.036674827337265015,-0.014750927686691284,-0.13295172838548022,1.2936804499273027,-0.04927072130557116,0.9533600211143494,0.13256040215492249,-0.2711682915687561, 249, 184, 26, 219
1733262006703,6i,19.62047713707544,1.9s : 0.3s,-1.726497674412471,0.05611008309212597,0.31335571893293657,0.0337134004842791,0.2935519516468048,-0.051119644194841385,0.030147600919008255,-0.017461061477661133,0.028406411409378052,0.004978001117706299,-0.13187231130397103,1.292777796101785,-0.05165047589259865,0.9532520771026611,0.13149042427539825,-0.2720679044723511, 249, 184, 26, 219
1733262006713,6i,19.62047713707544,1.9s : 0.3s,-1.726497674412471,0.05582438964739588,0.3118319532811375,0.027691045289178144,0.21577392518520355,-0.04812096804380417,0.02436564490199089,-0.010676920413970947,0.0035632848739624023,0.025300204753875732,-0.13090449823649383,1.2921286359520026,-0.05356630088730735,0.9531970620155334,0.1305309534072876,-0.2727214992046356, 249, 184, 26, 219
1733262006723,6i,19.62047713707544,1.9s : 0.3s,-1.726497674412471,0.05565379776905945,0.2725991126049853,0.04529921810543364,0.1232711598277092,-0.04951513558626175,0.029211800545454025,-0.02101367712020874,-0.00597776472568512,0.039682626724243164,-0.13007779394823826,1.2914942793313287,-0.05485276648506634,0.9531272649765015,0.12971128523349762,-0.27335578203201294, 249, 184, 26, 219
1733262006733,6i,19.62047713707544,1.9s : 0.3s,-1.726497674412471,0.05591430259788237,0.2559595335416816,0.06711586408166945,0.15274515748023987,-0.04535385221242905,0.028199931606650352,-0.02322453260421753,-0.04696249961853027,0.0419485867023468,-0.12938497361037807,1.2907277363274692,-0.05583636565077953,0.9530037045478821,0.12902428209781647,-0.2741110920906067, 249, 184, 26, 219
1733262006743,6i,19.62047713707544,1.9s : 0.3s,-1.726497674412471,0.05636357671485143,0.23015807156700663,0.0598203786916407,0.12261015921831131,-0.024064013734459877,0.023111164569854736,-0.010026037693023682,-0.030348196625709534,0.05056622624397278,-0.12895668815492614,1.2900910083146728,-0.05674724928905096,0.952881932258606,0.12859956920146942,-0.27473312616348267, 249, 184, 26, 219
1733262006753,6i,19.62047713707544,1.9s : 0.3s,-1.726497674412471,0.056789139942941616,0.18254948506394084,0.028424454834574155,0.04844924435019493,-0.012193637900054455,0.02290613204240799,-0.01512986421585083,-0.0002664029598236084,0.02406170964241028,-0.12878065767974817,1.2897612812942447,-0.057270349669212454,0.9528130888938904,0.1284249871969223,-0.27505359053611755, 249, 184, 26, 219
1733262006763,6i,19.62047713707544,1.9s : 0.3s,-1.726497674412471,0.057503915557124544,0.15760938709623656,0.07492118694087008,0.0712115541100502,-0.0045136138796806335,0.025943201035261154,-0.028294146060943604,-0.04897831380367279,0.04912993311882019,-0.1286634432483577,1.2895275493386453,-0.05745659279927985,0.9527630805969238,0.1283087432384491,-0.2752804160118103, 249, 184, 26, 219
1733262006773,6i,19.62047713707544,1.9s : 0.3s,-1.726497674412471,0.05826318470101159,0.14118336685207095,0.06173841304749179,0.0770619809627533,0.005021922290325165,0.012303423136472702,-0.00957423448562622,-0.034157007932662964,0.0505298376083374,-0.12856608703449268,1.2893270446071585,-0.057862834750332263,0.9527199268341064,0.12821219861507416,-0.2754749357700348, 249, 184, 26, 219
1733262006783,6i,19.62047713707544,1.9s : 0.3s,-1.726497674412471,0.05899252696191756,0.13750909130956404,0.0324453941898471,0.08025164902210236,0.01127768773585558,0.022255655378103256,-0.0015838146209716797,-0.007318675518035889,0.031569480895996094,-0.12839872124653975,1.2893266504896672,-0.058305803858381015,0.9527404308319092,0.1280462145805359,-0.27548128366470337, 249, 184, 26, 219
1733262006793,6i,19.62047713707544,1.9s : 0.3s,-1.726497674412471,0.05972703763433535,0.13177451961552314,0.045929743779434436,0.07325752079486847,0.013997264206409454,0.020880965515971184,-0.005300581455230713,-0.01889824867248535,0.04152470827102661,-0.1280276414342817,1.2895258345471714,-0.05864617350126825,0.9528408646583557,0.12767817080020905,-0.2753046751022339, 249, 184, 26, 219
1733262006803,6i,19.62047713707544,1.9s : 0.3s,-1.726497674412471,0.06050263906371292,0.12626936915919634,0.0569180246840495,0.06971444934606552,0.013673690147697926,0.01796586997807026,0.006626725196838379,-0.03509935736656189,0.04431459307670593,-0.1276392684028368,1.2898150786858038,-0.0590256258516169,0.9529680609703064,0.12729297578334808,-0.2750428020954132, 249, 184, 26, 219
1733262006813,6i,19.62047713707544,1.9s : 0.3s,-1.726497674412471,0.06129102675824751,0.12372045877157706,0.041928143860416246,0.07165762782096863,0.022755645215511322,0.02827639877796173,0.00574648380279541,-0.029317066073417664,0.029418647289276123,-0.12696317772413201,1.290163783408069,-0.059390058648842274,0.9531463384628296,0.12662234902381897,-0.274734228849411, 249, 184, 26, 219
1733262006823,6i,19.62047713707544,1.9s : 0.3s,-1.726497674412471,0.06205207913281682,0.12312153064118148,0.024165759935003542,0.08139707148075104,0.02040354162454605,0.03747948259115219,0.0025090575218200684,-0.015160754323005676,0.018650472164154053,-0.12624410871315953,1.2906335827074338,-0.05976455337373542,0.9533625245094299,0.12590904533863068,-0.27431151270866394, 249, 184, 26, 219
1733262006833,6i,19.62047713707544,1.9s : 0.3s,-1.726497674412471,0.06277558503963798,0.12357381152711001,0.02017985934976058,0.0880066454410553,0.023652376607060432,0.03818691894412041,0.007113814353942871,-0.014344364404678345,0.012282490730285645,-0.12568269111265995,1.290899380411878,-0.06025621738695379,0.9535031914710999,0.12535206973552704,-0.2740775942802429, 249, 184, 26, 219
1733262006843,6i,19.62047713707544,1.9s : 0.3s,-1.726497674412471,0.06349145355017928,0.13238566603301,0.027893069219347817,0.11483719199895859,0.018897568807005882,0.04165089130401611,0.0030972957611083984,-0.026355765759944916,0.008590906858444214,-0.12470116869576352,1.2913178246002812,-0.060793735908485066,0.9537355303764343,0.12437822669744492,-0.2737123668193817, 249, 184, 26, 219
1733262006853,6i,19.62047713707544,1.9s : 0.3s,-1.726497674412471,0.0641821895324601,0.16855502992266944,0.019894535059242432,0.18267282843589783,0.012274332344532013,0.04531703144311905,0.0018537044525146484,-0.018633954226970673,0.006718039512634277,-0.12365463917099777,1.291671033256229,-0.06185195160536184,0.9539568424224854,0.12333975732326508,-0.27341121435165405, 249, 184, 26, 219
1733262006863,6i,19.62047713707544,1.9s : 0.3s,-1.726497674412471,0.06476245043601842,0.2134736577910896,0.010543553585708748,0.234665185213089,0.007236962206661701,0.038792289793491364,0.009869158267974854,0.00312110036611557,-0.002006232738494873,-0.12265927638450665,1.29178238491157,-0.06349058601495071,0.9541048407554626,0.12235193699598312,-0.27333864569664, 249, 184, 26, 219
1733262006873,6i,19.62047713707544,1.9s : 0.3s,-1.726497674412471,0.06526121623167812,0.25701011324018963,0.016634399054342188,0.26422467827796936,0.012082850560545921,0.04043425992131233,0.012249946594238281,0.011186793446540833,-0.0012238025665283203,-0.12146642256654117,1.2919957773567181,-0.06553036954042638,0.9543027281761169,0.12116795778274536,-0.27317503094673157, 249, 184, 26, 219
1733262006883,6i,19.62047713707544,1.9s : 0.3s,-1.726497674412471,0.06572778829539082,0.2925409764832642,0.00908203788814709,0.27553510665893555,0.007867865264415741,0.04800828918814659,0.004914283752441406,-0.00665852427482605,0.0037412941455841064,-0.11995256592570372,1.2923457813767856,-0.0677309370658538,0.9545735120773315,0.11966511607170105,-0.2728910744190216, 249, 184, 26, 219
1733262006893,6i,19.62047713707544,1.9s : 0.3s,-1.726497674412471,0.06620929322586962,0.31278180785036996,0.028876320501947828,0.2625591456890106,0.00752733601257205,0.05456932261586189,0.0055081844329833984,-0.028032585978507996,0.004204273223876953,-0.1183968812537649,1.2925373872811088,-0.06990649318903096,0.9548036456108093,0.1181204617023468,-0.27275899052619934, 249, 184, 26, 219
1733262006903,6i,19.62047713707544,1.9s : 0.3s,-1.726497674412471,0.06672641395188947,0.31635254279101865,0.040445038432679804,0.2469032108783722,0.004831151571124792,0.06465977430343628,0.012012898921966553,-0.03800279647111893,0.006875962018966675,-0.11702028621501179,1.2925664415990064,-0.07194249956222755,0.9549670219421387,0.11675339192152023,-0.27277565002441406, 249, 184, 26, 219
1733262006913,6i,19.62047713707544,1.9s : 0.3s,-1.726497674412471,0.0673438606660408,0.31874846563348896,0.051623366267798676,0.24556072056293488,0.001930436585098505,0.06493587046861649,0.011921823024749756,-0.04919581115245819,0.010129868984222412,-0.11566138863655501,1.2925120056801762,-0.07384106967426439,0.9551039338111877,0.1154036819934845,-0.2728709876537323, 249, 184, 26, 219
1733262006923,6i,19.62047713707544,1.9s : 0.3s,-1.726497674412471,0.06802431824220811,0.33967863696675826,0.05167144500847727,0.280431866645813,0.01127626746892929,0.0716281309723854,0.007994890213012695,-0.05080169439315796,0.005020737648010254,-0.11403698912989206,1.2924350839181864,-0.07599422667664063,0.9552618861198425,0.11378998309373856,-0.27299559116363525, 249, 184, 26, 219
1733262006933,6i,19.62047713707544,1.9s : 0.3s,-1.726497674412471,0.06870305306585996,0.3684542810406231,0.03442067397694453,0.31613290309906006,0.020337052643299103,0.07097046822309494,0.008982419967651367,-0.033203624188899994,-0.0012721121311187744,-0.11241976385338284,1.292366393390166,-0.0786640372036562,0.9554187655448914,0.1121831163764,-0.2731114327907562, 249, 184, 26, 219
1733262006943,6i,19.62047713707544,1.9s : 0.3s,-1.726497674412471,0.06934747039010167,0.4020120945204513,0.021057389570765014,0.34866926074028015,0.02759896032512188,0.07635457813739777,0.003264307975769043,-0.019594751298427582,-0.006985962390899658,-0.11094772277895834,1.2922772244186849,-0.08147909065488969,0.9555521607398987,0.11072024703025818,-0.27324172854423523, 249, 184, 26, 219
1733262006953,6i,19.62047713707544,1.9s : 0.3s,-1.726497674412471,0.0699542701819719,0.44201122228289264,0.02816964562050793,0.38862374424934387,0.02663911134004593,0.08583852648735046,-0.009085237979888916,-0.020487308502197266,-0.017066270112991333,-0.1094201114311198,1.2922077778556946,-0.08458215183607036,0.9556946754455566,0.10920190066099167,-0.27335426211357117, 249, 184, 26, 219
1733262006963,6i,19.62047713707544,1.9s : 0.3s,-1.726497674412471,0.0705177466537268,0.4915596257090338,0.03625831815221512,0.44350188970565796,0.020418766885995865,0.08741458505392075,-0.009593069553375244,-0.020735837519168854,-0.02815428376197815,-0.1074905612305002,1.292102854504167,-0.0880852787223567,0.9558667540550232,0.10728368908166885,-0.27351200580596924, 249, 184, 26, 219
1733262006973,6i,19.62047713707544,1.9s : 0.3s,-1.726497674412471,0.07104568947792345,0.5592282145354478,0.04416480603729371,0.526594340801239,0.02634829469025135,0.08841533213853836,-0.010232746601104736,-0.02515377849340439,-0.03482970595359802,-0.10508952469719414,1.2919284801956374,-0.09235931819247492,0.956063985824585,0.10489620268344879,-0.2737487852573395, 249, 184, 26, 219
1733262006983,6i,19.62047713707544,1.9s : 0.3s,-1.726497674412471,0.07156558383902899,0.6255269969180947,0.05997446301720504,0.5723677277565002,0.04993698000907898,0.09125159680843353,-0.01664060354232788,-0.041180163621902466,-0.040301620960235596,-0.1027162840863022,1.2917856506197505,-0.09718950143273665,0.9562615156173706,0.10253576189279556,-0.2739531397819519, 249, 184, 26, 219
1733262006993,6i,19.62047713707544,1.9s : 0.3s,-1.726497674412471,0.07223006927959594,0.6737016931971581,0.07913625505027222,0.5702369213104248,0.047835301607847214,0.1263926774263382,-0.02007901668548584,-0.06500286608934402,-0.04042285680770874,-0.10009731493558995,1.2917653732929109,-0.10216459908984096,0.9565109014511108,0.09993024170398712,-0.27404558658599854, 249, 184, 26, 219
1733262007003,6i,19.62047713707544,1.9s : 0.3s,-1.726497674412471,0.07325057736652006,0.7062379823828083,0.09827222023175972,0.5667194128036499,0.02711004763841629,0.1349230408668518,-0.01904618740081787,-0.09496265649795532,-0.016636282205581665,-0.09726746007292321,1.2916402913349052,-0.10709145584491983,0.9567446708679199,0.09711416065692902,-0.2742420434951782, 249, 184, 26, 219
1733262007013,6i,19.62047713707544,1.9s : 0.3s,-1.726497674412471,0.07462214132397955,0.7266098018535767,0.10732998072511137,0.5626081824302673,-0.010866052471101284,0.13302117586135864,0.001652836799621582,-0.10708193480968475,-0.00710296630859375,-0.09442004632360201,1.2912120696520233,-0.11190322045157097,0.9568889737129211,0.09427981078624725,-0.27472689747810364, 249, 184, 26, 219
1733262007023,6i,19.62047713707544,1.9s : 0.3s,-1.726497674412471,0.07609362817190102,0.7757180120567326,0.09887989294365052,0.655655562877655,-0.05493178218603134,0.1092950776219368,0.031079649925231934,-0.09379681199789047,0.0036669671535491943,-0.09155956784547746,1.2903668086054976,-0.1172484758673644,0.9569116234779358,0.09143169224262238,-0.2756091356277466, 249, 184, 26, 219
1733262007033,6i,19.62047713707544,1.9s : 0.3s,-1.726497674412471,0.07756769124952134,0.9098923136930981,0.07928089381528776,0.915114164352417,-0.0456109382212162,0.04800859093666077,0.03672599792480469,-0.0701085701584816,-0.004631370306015015,-0.08865726783221088,1.289180164357713,-0.12445451056745836,0.9568347334861755,0.0885411724448204,-0.2768170237541199, 249, 184, 26, 219
1733262007043,6i,19.62047713707544,1.9s : 0.3s,-1.726497674412471,0.07867735723679362,1.1215768794256,0.03358025916749024,1.2096689939498901,-0.011356562376022339,0.0076688905246555805,0.01712179183959961,-0.019504301249980927,-0.021308690309524536,-0.08543461959097931,1.288033167451635,-0.13458282380265463,0.9567857384681702,0.08533072471618652,-0.27799251675605774, 249, 184, 26, 219
1733262007053,6i,19.62047713707544,1.9s : 0.3s,-1.726497674412471,0.07866870349422647,1.4200663032715846,0.12097529471889944,1.5826135873794556,0.016642536967992783,-0.07207583636045456,0.007687807083129883,0.10206812620162964,-0.0644826889038086,-0.0818305519339141,1.2869003423677268,-0.14812211395099048,0.9567591547966003,0.08173925429582596,-0.2791605293750763, 249, 184, 26, 219
1733262007063,6i,19.62047713707544,1.9s : 0.3s,-1.726497674412471,0.07707742640687182,1.7217240144124648,0.23849005679212426,1.807395577430725,0.049633510410785675,-0.12148413807153702,0.015938401222229004,0.21595916152000427,-0.09992554783821106,-0.07798889243183403,1.2859183071557752,-0.1648584201106341,0.9567787647247314,0.07790985703468323,-0.28018611669540405, 249, 184, 26, 219
1733262007073,6i,19.62047713707544,1.9s : 0.3s,-1.726497674412471,0.07420586817075964,1.9482303787780637,0.2671617321065329,1.8409208059310913,0.04285483434796333,-0.16227221488952637,0.01464146375656128,0.23410606384277344,-0.12788811326026917,-0.07418950644012834,1.2850392621273756,-0.18286133581574043,0.9568091630935669,0.07412146776914597,-0.28110846877098083, 249, 184, 26, 219
1733262007083,6i,19.62047713707544,1.9s : 0.3s,-1.726497674412471,0.07075249815933647,2.119454988645611,0.21923285401273968,1.8670495748519897,0.04431770741939545,-0.21650642156600952,0.008591294288635254,0.19461549818515778,-0.10056859254837036,-0.0707786633969791,1.2841168060280321,-0.20125899261161198,0.9567865133285522,0.07071958482265472,-0.282060831785202, 249, 184, 26, 219
1733262007093,6i,19.62047713707544,1.9s : 0.3s,-1.726497674412471,0.06701011568924004,2.2119159503772647,0.20223840489692224,1.7919445037841797,0.0554068461060524,-0.26832616329193115,-0.005369722843170166,0.17893733084201813,-0.09409022331237793,-0.06791050234333973,1.2833851047221658,-0.21958661874517726,0.9567704200744629,0.06785831600427628,-0.28281718492507935, 249, 184, 26, 219
1733262007103,6i,19.62047713707544,1.9s : 0.3s,-1.726497674412471,0.06285844996279176,2.2578597651805574,0.23092175625977657,1.73782217502594,0.06372842192649841,-0.30894309282302856,-0.010232746601104736,0.21393457055091858,-0.08632582426071167,-0.06569948135547646,1.2827615050633299,-0.2373380621197755,0.956735372543335,0.06565222889184952,-0.28345566987991333, 249, 184, 26, 219
1733262007113,6i,19.62047713707544,1.9s : 0.3s,-1.726497674412471,0.05822294412882832,2.2645533977987586,0.2598541612917699,1.6804330348968506,0.08574499934911728,-0.3127109408378601,-0.020418167114257812,0.25196921825408936,-0.060156434774398804,-0.06383950822155342,1.2823820314229493,-0.25457050337448706,0.9567431211471558,0.06379615515470505,-0.2838529646396637, 249, 184, 26, 219
1733262007123,6i,19.62047713707544,1.9s : 0.3s,-1.726497674412471,0.05303412873727404,2.264705969721963,0.29753676643856913,1.6573045253753662,0.0994269847869873,-0.32490769028663635,-0.04212510585784912,0.29273122549057007,-0.032588839530944824,-0.06210607842993201,1.2822602107485777,-0.27153182259781133,0.9568132162094116,0.06206616014242172,-0.28400057554244995, 249, 184, 26, 219
1733262007133,6i,19.62047713707544,1.9s : 0.3s,-1.726497674412471,0.047189690425780695,2.239344996678355,0.3518467550466119,1.5862326622009277,0.0725918710231781,-0.36206409335136414,-0.08676153421401978,0.34034526348114014,-0.020824909210205078,-0.06078471438805562,1.282109553336249,-0.28802876100729746,0.9568482041358948,0.06074729189276695,-0.2841678261756897, 249, 184, 26, 219
1733262007143,6i,19.62047713707544,1.9s : 0.3s,-1.726497674412471,0.040483018134823426,2.239637679492971,0.42506624247615205,1.6242955923080444,0.04933954030275345,-0.40970510244369507,-0.11428576707839966,0.4075159430503845,-0.03938058018684387,-0.05992713116833985,1.2817113444999564,-0.3044258762096271,0.9567844271659851,0.059891268610954285,-0.2845635414123535, 249, 184, 26, 219
1733262007153,6i,19.62047713707544,1.9s : 0.3s,-1.726497674412471,0.03284577624215105,2.2743625828452636,0.4962806228700449,1.6990760564804077,0.05956199765205383,-0.45404887199401855,-0.13410425186157227,0.47137686610221863,-0.07819435000419617,-0.05932810486530494,1.2812068696029995,-0.32157925155892647,0.9566749930381775,0.05929330736398697,-0.28505635261535645, 249, 184, 26, 219
1733262007163,6i,19.62047713707544,1.9s : 0.3s,-1.726497674412471,0.024441568624989175,2.322556980357916,0.5870512483757296,1.7373601198196411,0.06635678559541702,-0.5404135584831238,-0.17315274477005005,0.5467697381973267,-0.12526032328605652,-0.059160750981991146,1.2808033071160585,-0.3394369669429127,0.9565693736076355,0.059126246720552444,-0.28544527292251587, 249, 184, 26, 219
1733262007173,6i,19.62047713707544,1.9s : 0.3s,-1.726497674412471,0.016965479102508525,2.398850477227581,0.6425417469248506,1.8200912475585938,0.03325972706079483,-0.63198322057724,-0.22262543439865112,0.5917774438858032,-0.11444330215454102,-0.05968622618009479,1.2801733459392242,-0.3581455556732199,0.9563595652580261,0.05965079367160797,-0.286038875579834, 249, 184, 26, 219
1733262007183,6i,19.62047713707544,1.9s : 0.3s,-1.726497674412471,0.015522470998006115,2.495630035880653,0.6417373912264003,1.8921395540237427,0.0018757085781544447,-0.7550635933876038,-0.24270105361938477,0.5830003619194031,-0.1141650378704071,-0.06098885990052804,1.2791406014088247,-0.3778924451852696,0.955988347530365,0.06095105782151222,-0.2870038151741028, 249, 184, 26, 219
1733262007193,6i,19.62047713707544,1.9s : 0.3s,-1.726497674412471,0.022671447463130556,2.605022197929801,0.6462577888874096,1.951799750328064,-0.009683742187917233,-0.8829336762428284,-0.2364862561225891,0.5909530520439148,-0.1117938756942749,-0.06329448383386777,1.277797893404679,-0.3987355480613822,0.9554651379585266,0.06325223296880722,-0.28824582695961, 249, 184, 26, 219
1733262007203,6i,19.62047713707544,1.9s : 0.3s,-1.726497674412471,0.03422831533900022,2.690213459998024,0.6941861375693148,1.9169048070907593,-0.013879552483558655,-1.0119616985321045,-0.2736356854438782,0.6287106871604919,-0.10835486650466919,-0.06674292877123747,1.2763021151277392,-0.42004637096187397,0.9548184871673584,0.06669338792562485,-0.2896096408367157, 249, 184, 26, 219
1733262007213,6i,19.62047713707544,1.9s : 0.3s,-1.726497674412471,0.04772607935354968,2.765880422448626,0.7196219174889098,1.8939272165298462,-0.048443786799907684,-1.1383402347564697,-0.31413471698760986,0.6413368582725525,-0.0886685848236084,-0.07150788235957427,1.274504434298504,-0.4412582863305466,0.9539814591407776,0.07144695520401001,-0.2912295162677765, 249, 184, 26, 219
1733262007223,6i,19.62047713707544,1.9s : 0.3s,-1.726497674412471,0.062209070478080754,2.8436855675245103,0.723229585538789,1.8871012926101685,-0.08392960578203201,-1.2637969255447388,-0.31892138719558716,0.6470611095428467,-0.05159556865692139,-0.077457881344175,1.272229959245877,-0.4627748207660309,0.9528934955596924,0.07738044857978821,-0.2932683527469635, 249, 184, 26, 219
1733262007233,6i,19.62047713707544,1.9s : 0.3s,-1.726497674412471,0.07742339207061455,2.9355114718630615,0.752864547673037,1.8998653888702393,-0.10700257122516632,-1.4053897857666016,-0.2991231083869934,0.6879241466522217,-0.06395906209945679,-0.08462244141624406,1.2694741207343838,-0.48472434715754875,0.9515278935432434,0.08452147990465164,-0.2957211434841156, 249, 184, 26, 219
1733262007243,6i,19.62047713707544,1.9s : 0.3s,-1.726497674412471,0.09337165752398467,3.057628053650597,0.7912033426897603,1.9586617946624756,-0.10302940011024475,-1.5607279539108276,-0.30313581228256226,0.7287725210189819,-0.05479070544242859,-0.09301686279757342,1.2663698512617998,-0.5074842937105899,0.949894905090332,0.09288278967142105,-0.2984503209590912, 249, 184, 26, 219
1733262007253,6i,19.62047713707544,1.9s : 0.3s,-1.726497674412471,0.11014662793091946,3.18385971528984,0.8362037066593866,1.9717750549316406,-0.10806827992200851,-1.701812744140625,-0.3375910520553589,0.7623193860054016,-0.06432786583900452,-0.10263735951264061,1.2630006132255998,-0.5310595712341029,0.9479884505271912,0.10245724767446518,-0.30136433243751526, 249, 184, 26, 219
1733262007263,6i,19.62047713707544,1.9s : 0.3s,-1.726497674412471,0.1277296870079772,3.3024013403599883,0.8711395113195098,1.947792410850525,-0.12217078357934952,-1.8407623767852783,-0.35015422105789185,0.7941147089004517,-0.07521900534629822,-0.11355404569658803,1.2592658434227002,-0.5550874513007705,0.9457351565361023,0.11331016570329666,-0.3045417368412018, 249, 184, 26, 219
1733262007273,6i,19.62047713707544,1.9s : 0.3s,-1.726497674412471,0.1459261542201569,3.4185148972453163,0.8811606433861934,1.936651587486267,-0.1507989764213562,-1.9660850763320923,-0.33211976289749146,0.8150762319564819,-0.04232349991798401,-0.12568405633564303,1.2549985519176834,-0.5794289457992864,0.9430510401725769,0.12535342574119568,-0.3081251084804535, 249, 184, 26, 219
1733262007283,6i,19.62047713707544,1.9s : 0.3s,-1.726497674412471,0.16453582326727365,3.575481801079527,0.8831289474206914,2.0334601402282715,-0.18986168503761292,-2.1245293617248535,-0.2980805039405823,0.8309491276741028,-0.02425485849380493,-0.1389186292538901,1.2499261239968809,-0.6046994311768319,0.9398193359375,0.13847224414348602,-0.31235408782958984, 249, 184, 26, 219
1733262007293,6i,19.62047713707544,1.9s : 0.3s,-1.726497674412471,0.18343300528766338,3.768531444645477,0.8871882347384562,2.137314558029175,-0.20372796058654785,-2.3059394359588623,-0.25867944955825806,0.847992479801178,-0.03311586380004883,-0.15326290600326442,1.2439906477385152,-0.6317636533999912,0.9359712600708008,0.15266360342502594,-0.31725651025772095, 249, 184, 26, 219
1733262007303,6i,19.62047713707544,1.9s : 0.3s,-1.726497674412471,0.20268205378478155,3.9489249218702143,0.9112673643806333,2.1148533821105957,-0.22548332810401917,-2.4785561561584473,-0.24059104919433594,0.8769038915634155,-0.05969691276550293,-0.1690199943807485,1.2373281357618093,-0.6597676808793084,0.9314479827880859,0.16821639239788055,-0.32265785336494446, 249, 184, 26, 219
1733262007313,6i,19.62047713707544,1.9s : 0.3s,-1.726497674412471,0.2221803796440241,4.117131429126475,0.9115276483779475,2.094386577606201,-0.28050416707992554,-2.6267662048339844,-0.22981292009353638,0.8798058032989502,-0.06332790851593018,-0.18614776683730222,1.229727254321421,-0.6883121313706712,0.9261172413825989,0.1850745975971222,-0.3287162184715271, 249, 184, 26, 219
1733262007323,6i,19.62047713707544,1.9s : 0.3s,-1.726497674412471,0.2416768286091636,4.258232987196295,0.8778225863721044,2.0171353816986084,-0.3371528089046478,-2.75628399848938,-0.18796110153198242,0.8563886880874634,-0.042913079261779785,-0.20451274287619514,1.2209984632042055,-0.7170677000416744,0.9198641180992126,0.20309008657932281,-0.3355659246444702, 249, 184, 26, 219
1733262007333,6i,19.62047713707544,1.9s : 0.3s,-1.726497674412471,0.26110835401930277,4.377122625093923,0.8639422832927646,1.9017834663391113,-0.3995427191257477,-2.895599842071533,-0.129283607006073,0.8540355563163757,-0.017472445964813232,-0.22420840177071014,1.2111954161147267,-0.7455304280546422,0.9126087427139282,0.22233465313911438,-0.34309279918670654, 249, 184, 26, 219
1733262007343,6i,19.62047713707544,1.9s : 0.3s,-1.726497674412471,0.28029448589680106,4.502005518301191,0.8490680830149877,1.8525069952011108,-0.45825210213661194,-3.040550708770752,-0.08311730623245239,0.8446887135505676,0.022563248872756958,-0.24525652512425813,1.2001709395105444,-0.7741215248937211,0.9042078852653503,0.24280518293380737,-0.35135963559150696, 249, 184, 26, 219
1733262007353,6i,19.62047713707544,1.9s : 0.3s,-1.726497674412471,0.2991538179487632,4.647949670392569,0.8379521408216335,1.87234628200531,-0.4855188727378845,-3.188448190689087,-0.04536563158035278,0.8363436460494995,0.025200307369232178,-0.2673707618363264,1.187888258589407,-0.8035359241340997,0.8946239948272705,0.2641965448856354,-0.36034438014030457, 249, 184, 26, 219
1733262007363,6i,19.62047713707544,1.9s : 0.3s,-1.726497674412471,0.3179502759273881,4.807755031392171,0.8626719769611758,1.882727861404419,-0.49872204661369324,-3.3433425426483154,-0.0037093758583068848,0.8623988032341003,0.021388888359069824,-0.2904565408322882,1.17444512221975,-0.8342309398767161,0.8838362693786621,0.28638967871665955,-0.3698844015598297, 249, 184, 26, 219
1733262007373,6i,19.62047713707544,1.9s : 0.3s,-1.726497674412471,0.33667030795843356,4.960324408435058,0.8833486021976205,1.8505470752716064,-0.5474188327789307,-3.469298839569092,0.03183567523956299,0.8821905255317688,0.03211104869842529,-0.3144805341307912,1.159705637874088,-0.8659356314505235,0.8717287182807922,0.3093225359916687,-0.3800114393234253, 249, 184, 26, 219
1733262007383,6i,19.62047713707544,1.9s : 0.3s,-1.726497674412471,0.35529493582284244,5.109861522816988,0.8704663279718845,1.8288558721542358,-0.6070773601531982,-3.590846061706543,0.0970308780670166,0.8648988604545593,0.015703439712524414,-0.3392326263776364,1.1433215849069192,-0.8986119579577714,0.8581541180610657,0.33276355266571045,-0.3909476697444916, 249, 184, 26, 219
1733262007393,6i,19.62047713707544,1.9s : 0.3s,-1.726497674412471,0.37368461835920785,5.25001896953719,0.852565501061429,1.7281830310821533,-0.6754665374755859,-3.7311153411865234,0.20715904235839844,0.8267948031425476,0.01906353235244751,-0.3648880645132847,1.1252871647980442,-0.9319971206093819,0.8429813385009766,0.3568447232246399,-0.4025474190711975, 249, 184, 26, 219
1733262007403,6i,19.62047713707544,1.9s : 0.3s,-1.726497674412471,0.391777712536316,5.393714903617533,0.8554215655602503,1.6457254886627197,-0.7917817234992981,-3.8741893768310547,0.28868722915649414,0.8048800230026245,0.023955941200256348,-0.3916396627739147,1.105403651574062,-0.9659565424010593,0.8259825110435486,0.3817044496536255,-0.41479459404945374, 249, 184, 26, 219
1733262007413,6i,19.62047713707544,1.9s : 0.3s,-1.726497674412471,0.40932743471241384,5.523634163246549,0.8706659144175455,1.5435242652893066,-0.8156533241271973,-3.9906935691833496,0.3576616048812866,0.7932053804397583,0.0310247540473938,-0.41913961002836775,1.0838592789711115,-1.0005317264909457,0.8072705864906311,0.4069747030735016,-0.4274176359176636, 249, 184, 26, 219
1733262007423,6i,19.62047713707544,1.9s : 0.3s,-1.726497674412471,0.4256812376662231,5.64099819928726,0.8803112073873729,1.4516987800598145,-0.858339786529541,-4.0864338874816895,0.44028598070144653,0.7619811296463013,0.021927952766418457,-0.44764427160788695,1.0604433154660917,-1.0357968903172965,0.7865968942642212,0.4328431189060211,-0.44035446643829346, 249, 184, 26, 219
1733262007433,6i,19.62047713707544,1.9s : 0.3s,-1.726497674412471,0.44162858460742827,5.776349239604295,0.9649806971209199,1.540526270866394,-0.8870598673820496,-4.181589126586914,0.504814863204956,0.8217871189117432,-0.031868964433670044,-0.4759649905058007,1.0349318681059194,-1.072912455562729,0.7642585635185242,0.45819640159606934,-0.45383352041244507, 249, 184, 26, 219
1733262007443,6i,19.62047713707544,1.9s : 0.3s,-1.726497674412471,0.4574607612493404,5.906768216166726,1.0191727783724776,1.5040884017944336,-0.9425473809242249,-4.278779029846191,0.577316164970398,0.8390892744064331,-0.0367203950881958,-0.5042441371651443,1.0069377303331006,-1.1124067740543573,0.740005612373352,0.4831458032131195,-0.4679335951805115, 249, 184, 26, 219
1733262007453,6i,19.62047713707544,1.9s : 0.3s,-1.726497674412471,0.4730040127858963,6.020413525506101,1.0116813430819471,1.4853711128234863,-1.017444372177124,-4.327695369720459,0.6309413313865662,0.7893646955490112,-0.048120200634002686,-0.5321688719151584,0.9762276916474278,-1.153633203390322,0.7138309478759766,0.5074034929275513,-0.4826873242855072, 249, 184, 26, 219
1733262007463,6i,19.62047713707544,1.9s : 0.3s,-1.726497674412471,0.4882509258633963,6.118245419255527,1.064158426074086,1.3966606855392456,-1.0819714069366455,-4.392371654510498,0.7370927929878235,0.7675447463989258,0.0015596747398376465,-0.5596644762725503,0.9433419657410435,-1.1962858265504752,0.6860181093215942,0.5309019088745117,-0.4975161552429199, 249, 184, 26, 219
1733262007473,6i,19.62047713707544,1.9s : 0.3s,-1.726497674412471,0.5031929436541288,6.18911865796482,1.1086753049072826,1.2882354259490967,-1.1398531198501587,-4.419004440307617,0.8320563435554504,0.7326693534851074,0.006228268146514893,-0.5868651267799634,0.9081714709701952,-1.2401704389477324,0.6564689874649048,0.5537533760070801,-0.5122555494308472, 249, 184, 26, 219
1733262007483,6i,19.62047713707544,1.9s : 0.3s,-1.726497674412471,0.5177641769016866,6.261516641119614,1.0919083153701428,1.2513195276260376,-1.189811110496521,-4.47552490234375,0.8570391535758972,0.6748981475830078,0.047541022300720215,-0.6133814679764589,0.8705878992950388,-1.2861584044305194,0.6253063082695007,0.5756357908248901,-0.5269110798835754, 249, 184, 26, 219
1733262007493,6i,19.62047713707544,1.9s : 0.3s,-1.726497674412471,0.5321944304660866,6.33978495765923,1.1003171262924347,1.232518196105957,-1.2055659294128418,-4.54767370223999,0.8828660249710083,0.6565897464752197,0.011630356311798096,-0.6392379513056076,0.830374332601926,-1.3337364411590444,0.5924299359321594,0.5965840220451355,-0.5414001941680908, 249, 184, 26, 219
1733262007503,6i,19.62047713707544,1.9s : 0.3s,-1.726497674412471,0.5468993790662152,6.407219686284956,1.1456898923826546,1.2110048532485962,-1.2487072944641113,-4.574440956115723,0.9234614372253418,0.677298903465271,-0.03302270174026489,-0.6637392126063337,0.7872775517545082,-1.38399030295542,0.5580296516418457,0.6160665154457092,-0.5559360980987549, 249, 184, 26, 219
1733262007513,6i,19.62047713707544,1.9s : 0.3s,-1.726497674412471,0.5616719145327406,6.454546740412792,1.1464275497436467,1.0419977903366089,-1.3396284580230713,-4.595953941345215,0.9611882567405701,0.6235789060592651,-0.03952986001968384,-0.6873128363437147,0.7415418783549207,-1.4359122837003109,0.5220727920532227,0.6344624161720276,-0.5699976682662964, 249, 184, 26, 219
1733262007523,6i,19.62047713707544,1.9s : 0.3s,-1.726497674412471,0.576311089987616,6.504755380374111,1.1546317241698432,0.9875300526618958,-1.417720079421997,-4.629177093505859,1.008885145187378,0.5606208443641663,-0.03208506107330322,-0.710092022434223,0.692985840393092,-1.4892810750374947,0.4844314455986023,0.6519035696983337,-0.5833935141563416, 249, 184, 26, 219
1733262007533,6i,19.62047713707544,1.9s : 0.3s,-1.726497674412471,0.5911789449017327,6.549852969117746,1.2023686299059186,0.9796320199966431,-1.450052261352539,-4.644100189208984,1.0585110187530518,0.569294273853302,-0.033893585205078125,-0.73106042308265,0.6412688441482673,-1.5452845910217876,0.44534948468208313,0.6676594614982605,-0.5965690612792969, 249, 184, 26, 219
1733262007543,6i,19.62047713707544,1.9s : 0.3s,-1.726497674412471,0.6067772856643106,6.59973673698831,1.2362557692198883,1.0769308805465698,-1.4672653675079346,-4.662354946136475,1.070319414138794,0.614530622959137,-0.07139182090759277,-0.7494420651603547,0.5864943342103294,-1.6042131322246052,0.4051596522331238,0.6812304258346558,-0.609730064868927, 249, 184, 26, 219
1733262007553,6i,19.62047713707544,1.9s : 0.3s,-1.726497674412471,0.6231702813978427,6.6486179754847985,1.2371062516395974,1.0732073783874512,-1.539286732673645,-4.677855968475342,1.0641453266143799,0.622132420539856,-0.10477524995803833,-0.7649962627440746,0.5285844020312741,-1.6659168108027218,0.3638027012348175,0.692534327507019,-0.6229316592216492, 249, 184, 26, 219
1733262007563,6i,19.62047713707544,1.9s : 0.3s,-1.726497674412471,0.6401363344895975,6.692647168402413,1.2355634956999382,1.0964839458465576,-1.6003011465072632,-4.678467750549316,1.0760939121246338,0.5899366140365601,-0.14357519149780273,-0.7778728514747512,0.46787712020380257,-1.729669986686524,0.32129067182540894,0.7017655968666077,-0.635843813419342, 249, 184, 26, 219
1733262007573,6i,19.62047713707544,1.9s : 0.3s,-1.726497674412471,0.6576291145862002,6.745368534440491,1.248493425495322,1.1736037731170654,-1.6256213188171387,-4.709630966186523,1.0998883247375488,0.5754218101501465,-0.13368338346481323,-0.7874546687173578,0.40469646575050544,-1.795606461921799,0.2778428792953491,0.7085594534873962,-0.6486499309539795, 249, 184, 26, 219
1733262007583,6i,19.62047713707544,1.9s : 0.3s,-1.726497674412471,0.6759694842972627,6.801425490331613,1.2904093670546495,1.4015434980392456,-1.6214252710342407,-4.704914569854736,1.120927095413208,0.6123796105384827,-0.18349385261535645,-0.7927869937154409,0.33938705449161705,-1.8637804760237988,0.23365658521652222,0.7123121023178101,-0.6618278622627258, 249, 184, 26, 219
1733262007593,6i,19.62047713707544,1.9s : 0.3s,-1.726497674412471,0.6951890681055558,6.861965089202307,1.3040138899534068,1.6096045970916748,-1.6751177310943604,-4.684165000915527,1.1250686645507812,0.6263902187347412,-0.20568913221359253,-0.7923045072795466,0.27312577578603064,-1.9330902111913246,0.18941502273082733,0.7119734287261963,-0.6761773228645325, 249, 184, 26, 219
1733262007603,6i,19.62047713707544,1.9s : 0.3s,-1.726497674412471,0.715614333491055,6.9949344085272225,1.3820766962122604,1.7442777156829834,-1.7920042276382446,-4.844326972961426,1.1669104099273682,0.6747088432312012,-0.3053261637687683,-0.7871764039341517,0.20497029873892728,-2.003843576113416,0.14366699755191803,0.7083630561828613,-0.6910727620124817, 249, 184, 26, 219
1733262007613,6i,19.62047713707544,1.9s : 0.3s,-1.726497674412471,0.7370964500737719,7.092516259924678,1.3813609865351713,1.5851207971572876,-1.9311537742614746,-4.852124214172363,1.1422215700149536,0.6858119368553162,-0.36489731073379517,-0.7788739077914277,0.1359252965897358,-2.0745494629355448,0.0964411050081253,0.7024784088134766,-0.7051405310630798, 249, 184, 26, 219
1733262007623,6i,19.62047713707544,1.9s : 0.3s,-1.726497674412471,0.7587908741345919,7.156374650893046,1.2923772764360095,1.4676458835601807,-2.078362464904785,-4.818779945373535,1.1582187414169312,0.5302371382713318,-0.21821308135986328,-0.7686715095745147,0.06721269803054018,-2.14320967978008,0.048278458416461945,0.6951808929443359,-0.7172117233276367, 249, 184, 26, 219
1733262007633,6i,19.62047713707544,1.9s : 0.3s,-1.726497674412471,0.7808095795624916,7.180701906871381,1.3890405517382103,1.3143253326416016,-2.164116621017456,-4.77069091796875,1.250429630279541,0.5541759133338928,-0.2423807978630066,-0.7563721129416681,-0.00021303622873691873,-2.2092198480721947,-0.0001549477456137538,0.6862872838973999,-0.7273305058479309, 249, 184, 26, 219
1733262007643,6i,19.62047713707544,1.9s : 0.3s,-1.726497674412471,0.8035628277714623,7.198396493708776,1.4170961971343428,1.2792152166366577,-2.2370026111602783,-4.747074127197266,1.2405662536621094,0.6060231328010559,-0.31920677423477173,-0.7419964520282246,-0.06609833234751156,-2.2727465207073636,-0.04868698865175247,0.6757608652114868,-0.7355112433433533, 249, 184, 26, 219
1733262007653,6i,19.62047713707544,1.9s : 0.3s,-1.726497674412471,0.8268097036104926,7.212827371365477,1.3574087399302692,1.2988343238830566,-2.311391830444336,-4.71009635925293,1.1829798221588135,0.609112560749054,-0.2685127854347229,-0.7244487643151792,-0.13011568304952925,-2.333412650230216,-0.0971643477678299,0.6627227663993835,-0.7425345778465271, 249, 184, 26, 219
1733262007663,6i,19.62047713707544,1.9s : 0.3s,-1.726497674412471,0.850528097332419,7.231787548103594,1.35655645074082,1.3838517665863037,-2.341372013092041,-4.6935715675354,1.1658225059509277,0.6228886246681213,-0.3051443099975586,-0.7038150566462221,-0.19180079764243746,-2.391038087769515,-0.14532998204231262,0.6471309065818787,-0.7483987808227539, 249, 184, 26, 219
1733262007673,6i,19.62047713707544,1.9s : 0.3s,-1.726497674412471,0.8750856541061631,7.249421054737247,1.3971363299859327,1.545215368270874,-2.355966329574585,-4.64921236038208,1.1688014268875122,0.6827578544616699,-0.3460272550582886,-0.6792388639765249,-0.25035123771515344,-2.444917930067724,-0.19275769591331482,0.6282010078430176,-0.7537957429885864, 249, 184, 26, 219
1733262007683,6i,19.62047713707544,1.9s : 0.3s,-1.726497674412471,0.9000819593899482,7.272487503045004,1.37514069570113,1.597366452217102,-2.429661750793457,-4.6252241134643555,1.1542551517486572,0.6718165874481201,-0.3276727795600891,-0.6512719704820611,-0.3057943436516096,-2.494912782213079,-0.23942969739437103,0.6061984896659851,-0.7584173083305359, 249, 184, 26, 219
1733262007693,6i,19.62047713707544,1.9s : 0.3s,-1.726497674412471,0.9254055449217384,7.301921667292366,1.3543875064058069,1.520569086074829,-2.548583984375,-4.625608444213867,1.143054485321045,0.641239583492279,-0.34147292375564575,-0.621444364404512,-0.359276020627723,-2.5418882697003493,-0.2858614921569824,0.5822100639343262,-0.7611271739006042, 249, 184, 26, 219
1733262007703,6i,19.62047713707544,1.9s : 0.3s,-1.726497674412471,0.9510434684638343,7.318583322264312,1.3822664104033844,1.4433724880218506,-2.652678966522217,-4.5816473960876465,1.171903133392334,0.6287067532539368,-0.37687039375305176,-0.5904296945071718,-0.410985843622577,-2.5858572431535194,-0.331876277923584,0.5567180514335632,-0.7615268230438232, 249, 184, 26, 219
1733262007713,6i,19.62047713707544,1.9s : 0.3s,-1.726497674412471,0.9771056378068858,7.322453473233301,1.4287611037574868,1.3727399110794067,-2.7431700229644775,-4.539608001708984,1.2363300323486328,0.6135541200637817,-0.3693205714225769,-0.5584212404553829,-0.46092825170153673,-2.6269991463210483,-0.37721437215805054,0.5298479199409485,-0.7595857381820679, 249, 184, 26, 219
1733262007723,6i,19.62047713707544,1.9s : 0.3s,-1.726497674412471,1.0036261994550544,7.313463190105037,1.4517428536768775,1.354100227355957,-2.796609401702881,-4.45050048828125,1.2618125677108765,0.6099101901054382,-0.37867653369903564,-0.5254307621861709,-0.5087997654500056,-2.6649134638707537,-0.42141950130462646,0.5015857219696045,-0.7555245161056519, 249, 184, 26, 219
1733262007733,6i,19.62047713707544,1.9s : 0.3s,-1.726497674412471,1.0303797445074172,7.286255787444249,1.422979573303125,1.3234021663665771,-2.853099822998047,-4.378344535827637,1.2603280544281006,0.5709600448608398,-0.33233821392059326,-0.4915332745607237,-0.5544410225363372,-2.69951961883978,-0.4641396701335907,0.47197818756103516,-0.7495404481887817, 249, 184, 26, 219
1733262007743,6i,19.62047713707544,1.9s : 0.3s,-1.726497674412471,1.0567333964430956,7.256316283062742,1.3652444756999074,1.2812517881393433,-2.9186811447143555,-4.3129658699035645,1.2416198253631592,0.4927038550376892,-0.2819851040840149,-0.45692990389399823,-0.5983244420170665,-2.7312448032275305,-0.5054747462272644,0.4411950409412384,-0.7415134310722351, 249, 184, 26, 219
1733262007753,6i,19.62047713707544,1.9s : 0.3s,-1.726497674412471,1.0826014551638241,7.2254404510233226,1.3365352597959737,1.2394734621047974,-2.9966700077056885,-4.240705490112305,1.2250518798828125,0.4516627788543701,-0.2856135964393616,-0.421836193101326,-0.6408984480037607,-2.760270720576477,-0.545501708984375,0.4094363749027252,-0.7312931418418884, 249, 184, 26, 219
1733262007763,6i,19.62047713707544,1.9s : 0.3s,-1.726497674412471,1.1085856471969944,7.187931860456009,1.3710770604388207,1.2671818733215332,-3.016774892807007,-4.16478967666626,1.2540531158447266,0.4455224275588989,-0.3297163248062134,-0.38612965840751445,-0.6818672502278647,-2.7865609262503845,-0.5838412642478943,0.3766058683395386,-0.7192339301109314, 249, 184, 26, 219
1733262007773,6i,19.62047713707544,1.9s : 0.3s,-1.726497674412471,1.13466595560265,7.1436344044686475,1.3748158330341687,1.2673851251602173,-3.05774188041687,-4.076803207397461,1.2713199853897095,0.4233854115009308,-0.30758553743362427,-0.34981906216125497,-0.7212109927820383,-2.810031073702123,-0.6203036904335022,0.3427278399467468,-0.7055217623710632, 249, 184, 26, 219
1733262007783,6i,19.62047713707544,1.9s : 0.3s,-1.726497674412471,1.160486056632732,7.0933954858394035,1.3424999841771124,1.2959944009780884,-3.09220027923584,-3.979360818862915,1.2629272937774658,0.38340023159980774,-0.24561172723770142,-0.3132086645249308,-0.7592603074509894,-2.83085371465829,-0.654895007610321,0.308112770318985,-0.6900572180747986, 249, 184, 26, 219
1733262007793,6i,19.62047713707544,1.9s : 0.3s,-1.726497674412471,1.1863602247088703,7.031873150101691,1.3645816778938074,1.2857542037963867,-3.116546154022217,-3.8770787715911865,1.2960083484649658,0.3671532869338989,-0.2182750105857849,-0.276429425254559,-0.7959865349012378,-2.8490314366260803,-0.6874268054962158,0.2729223668575287,-0.6730213165283203, 249, 184, 26, 219
1733262007803,6i,19.62047713707544,1.9s : 0.3s,-1.726497674412471,1.2121722103082428,6.962394510975688,1.391604261067843,1.2248247861862183,-3.15189266204834,-3.7808682918548584,1.3401758670806885,0.3286580443382263,-0.18020808696746826,-0.24001547214722557,-0.831933968406222,-2.865239645081526,-0.7180445194244385,0.2377176582813263,-0.6541425585746765, 249, 184, 26, 219
1733262007813,6i,19.62047713707544,1.9s : 0.3s,-1.726497674412471,1.2379977486053735,6.884029157610657,1.378308089711024,1.2150933742523193,-3.15808367729187,-3.6783032417297363,1.3385729789733887,0.2987777590751648,-0.13670194149017334,-0.20389861351928157,-0.8670164746682859,-2.8794344012135187,-0.7466081976890564,0.2024887055158615,-0.6336990594863892, 249, 184, 26, 219
1733262007823,6i,19.62047713707544,1.9s : 0.3s,-1.726497674412471,1.2638034871227,6.778769341552687,1.3656035189606746,1.1913840770721436,-3.1322715282440186,-3.53706955909729,1.3321053981781006,0.277836412191391,-0.11478286981582642,-0.1683773693799082,-0.9009900376547879,-2.8931583364773017,-0.7728554606437683,0.16758288443088531,-0.6120542883872986, 249, 184, 26, 219
1733262007833,6i,19.62047713707544,1.9s : 0.3s,-1.726497674412471,1.2895276389369377,6.653768054055933,1.3567224960137534,1.198553442955017,-3.0736072063446045,-3.4089884757995605,1.3342175483703613,0.23478840291500092,-0.07371479272842407,-0.13357412517940204,-0.9338283815282366,-2.9049666452612435,-0.7967418432235718,0.1331772804260254,-0.5894627571105957, 249, 184, 26, 219
1733262007843,6i,19.62047713707544,1.9s : 0.3s,-1.726497674412471,1.314257878204336,6.510453410219663,1.3159057507425207,1.2623915672302246,-3.0455970764160156,-3.21940016746521,1.3018906116485596,0.19153663516044617,0.001580357551574707,-0.0994290992382886,-0.965511462597727,-2.914301784249578,-0.8182785511016846,0.09926535189151764,-0.5661861300468445, 249, 184, 26, 219
1733262007853,6i,19.62047713707544,1.9s : 0.3s,-1.726497674412471,1.3378068543654698,6.341009281679594,1.2675406779071308,1.2692310810089111,-2.985481023788452,-3.027484893798828,1.2604622840881348,0.12343106418848038,0.05156522989273071,-0.06643712360059773,-0.9962654827994077,-2.921177426940249,-0.8375954031944275,0.06638825684785843,-0.5422421097755432, 249, 184, 26, 219
1733262007863,6i,19.62047713707544,1.9s : 0.3s,-1.726497674412471,1.3601541996933006,6.148768154326515,1.2743154816401807,1.2241320610046387,-2.9180972576141357,-2.8429603576660156,1.2662436962127686,0.015590041875839233,0.142350971698761,-0.03489311214719098,-1.026032942127021,-2.926157981598822,-0.8547292947769165,0.03488603234291077,-0.517900288105011, 249, 184, 26, 219
1733262007873,6i,19.62047713707544,1.9s : 0.3s,-1.726497674412471,1.382102657502085,5.935205926591803,1.278514190553993,1.1661970615386963,-2.8539352416992188,-2.639418363571167,1.2449958324432373,-0.10651756823062897,0.2706250548362732,-0.005199214165141743,-1.0550009170004164,-2.9297257445579366,-0.869888961315155,0.005199190694838762,-0.4932202696800232, 249, 184, 26, 219
1733262007883,6i,19.62047713707544,1.9s : 0.3s,-1.726497674412471,1.402941796697727,5.676968726810261,1.3110841801063804,1.0980817079544067,-2.728881359100342,-2.3887746334075928,1.2345508337020874,-0.21840918064117432,0.383566677570343,0.022315352602248647,-1.0829198610674078,-2.9319322018199014,-0.8831103444099426,-0.022313499823212624,-0.4686344861984253, 249, 184, 26, 219
1733262007893,6i,19.62047713707544,1.9s : 0.3s,-1.726497674412471,1.4215393017582445,5.389749520210041,1.385193954096961,1.054789662361145,-2.608537197113037,-2.127302885055542,1.2449036836624146,-0.31731030344963074,0.5179684162139893,0.04730083666083441,-1.1096275095390127,-2.932795027172547,-0.8945313096046448,-0.047283198684453964,-0.44449740648269653, 249, 184, 26, 219
1733262007903,6i,19.62047713707544,1.9s : 0.3s,-1.726497674412471,1.4382207352240595,5.051701023710169,1.4563607537351808,0.9825800061225891,-2.381995677947998,-1.8723177909851074,1.2477725744247437,-0.4122556149959564,0.6277703046798706,0.0697191742328422,-1.134664271390972,-2.9322772688377823,-0.9041904211044312,-0.06966270506381989,-0.4214105010032654, 249, 184, 26, 219
1733262007913,6i,19.62047713707544,1.9s : 0.3s,-1.726497674412471,1.4532292109979184,4.663153513685406,1.549807682975539,0.9598110914230347,-2.1103286743164062,-1.5863021612167358,1.2562255859375,-0.5177249312400818,0.7454944849014282,0.08943467627949982,-1.1573045846508756,-2.9305518470618726,-0.9120635986328125,-0.0893154963850975,-0.4002033770084381, 249, 184, 26, 219
1733262007923,6i,19.62047713707544,1.9s : 0.3s,-1.726497674412471,1.4664258189585935,4.222167125477753,1.5646545936339415,0.9146603941917419,-1.7863235473632812,-1.2998806238174438,1.1706523895263672,-0.6034258008003235,0.8447450995445251,0.10640009874187342,-1.1770920644360838,-2.927560123502018,-0.9182718396186829,-0.10619945079088211,-0.38144248723983765, 249, 184, 26, 219
1733262007933,6i,19.62047713707544,1.9s : 0.3s,-1.726497674412471,1.4781067332080995,3.7264019412259883,1.610815703014118,0.8918566703796387,-1.4234751462936401,-0.9662047028541565,1.133819341659546,-0.6616590023040771,0.9334818124771118,0.1203082527095411,-1.1935796947596427,-2.923505178751739,-0.9229732751846313,-0.12001823633909225,-0.3656717836856842, 249, 184, 26, 219
1733262007943,6i,19.62047713707544,1.9s : 0.3s,-1.726497674412471,1.4886603294345928,3.1934930063819684,1.6742723492068823,0.9209234714508057,-1.0338174104690552,-0.6139121651649475,1.1112926006317139,-0.6978117823600769,1.0398439168930054,0.13091574465114938,-1.2065646146335782,-2.917902312161595,-0.9264018535614014,-0.1305420994758606,-0.35318315029144287, 249, 184, 26, 219
1733262007953,6i,19.62047713707544,1.9s : 0.3s,-1.726497674412471,1.4985041670250498,2.635385473864211,1.7343238046035536,0.9703987240791321,-0.5785050392150879,-0.26724302768707275,1.1051945686340332,-0.7303287982940674,1.1193944215774536,0.13826007606637541,-1.2154786189351436,-2.9105461543831534,-0.9285892844200134,-0.13782000541687012,-0.3445684015750885, 249, 184, 26, 219
1733262007963,6i,19.62047713707544,1.9s : 0.3s,-1.726497674412471,1.5078444737377212,2.070907404247715,1.8473170680751787,1.0155891180038452,-0.07840599119663239,0.14250852167606354,1.1097028255462646,-0.8002191781997681,1.2412853240966797,0.14232318220929713,-1.220042361305994,-2.9013591773218907,-0.9296185970306396,-0.14184318482875824,-0.3401317894458771, 249, 184, 26, 219
1733262007973,6i,19.62047713707544,1.9s : 0.3s,-1.726497674412471,1.5168184867891596,1.5679061109685262,1.9919077254161581,0.9932040572166443,0.4562148451805115,0.5619067549705505,1.1210874319076538,-0.895529568195343,1.381624460220337,0.14247331163618282,-1.2197018188826547,-2.8905284965544196,-0.9294827580451965,-0.14199179410934448,-0.3404410481452942, 249, 184, 26, 219
1733262007983,6i,19.62047713707544,1.9s : 0.3s,-1.726497674412471,1.5257871580640083,1.3200986467967202,2.1982896088320825,0.9533655643463135,1.0124183893203735,1.0293747186660767,1.1913151741027832,-1.0262335538864136,1.5362584590911865,0.13840781485688392,-1.2140311821296115,-2.8785714627219554,-0.9280705451965332,-0.1379663348197937,-0.34590503573417664, 249, 184, 26, 219
1733262007993,6i,19.62047713707544,1.9s : 0.3s,-1.726497674412471,1.5353220892151356,1.5769632494602595,2.3940999692687934,0.9581025242805481,1.5610815286636353,1.506600260734558,1.285838007926941,-1.1433827877044678,1.664635419845581,0.1299470324512329,-1.2029654203556737,-2.865045328435863,-0.9252422451972961,-0.12958161532878876,-0.35656046867370605, 249, 184, 26, 219
1733262008003,6i,19.62047713707544,1.9s : 0.3s,-1.726497674412471,1.5464466430981312,2.2037389010595465,2.51897507398566,0.9488693475723267,2.1221072673797607,1.9712917804718018,1.4315571784973145,-1.2001596689224243,1.6898213624954224,0.11726285168156109,-1.186450805449321,-2.8496172396308066,-0.920677661895752,-0.11699429899454117,-0.37237754464149475, 249, 184, 26, 219
1733262008013,6i,19.62047713707544,1.9s : 0.3s,-1.726497674412471,1.5601622926530667,2.9969272766924155,2.6612538279127698,0.96150803565979,2.6525766849517822,2.457246780395508,1.6160871982574463,-1.254253625869751,1.7021697759628296,0.10049925779221384,-1.164456363443388,-2.8321988400960927,-0.9139386415481567,-0.1003301665186882,-0.3932556211948395, 249, 184, 26, 219
1733262008023,6i,19.62047713707544,1.9s : 0.3s,-1.726497674412471,1.5773368450977825,3.887105236093122,2.8394790117234114,0.9885990619659424,3.2266924381256104,2.984846830368042,1.8195222616195679,-1.311320185661316,1.7413842678070068,0.07964845047974102,-1.1368870589397313,-2.812120368866357,-0.9044526815414429,-0.07956426590681076,-0.4190881550312042, 249, 184, 26, 219
1733262008033,6i,19.62047713707544,1.9s : 0.3s,-1.726497674412471,1.5989038557521293,4.848614849784593,3.0364741019429857,0.9791733026504517,3.8403239250183105,3.550349712371826,2.0677011013031006,-1.3654913902282715,1.7550556659698486,0.0545185668584674,-1.103124789855905,-2.7889942341278986,-0.8912941813468933,-0.0544915646314621,-0.45013928413391113, 249, 184, 26, 219
1733262008043,6i,19.62047713707544,1.9s : 0.3s,-1.726497674412471,1.6255354173201702,5.904913835044972,3.291067011685158,1.066875696182251,4.529689311981201,4.178764820098877,2.3247201442718506,-1.4593029022216797,1.815828561782837,0.025151005655436962,-1.0623857703096462,-2.7618810528951596,-0.8732430934906006,-0.025148354470729828,-0.4866355061531067, 249, 184, 26, 219
1733262008053,6i,19.62047713707544,1.9s : 0.3s,-1.726497674412471,1.6580158087323194,7.058565717837493,3.5878182276619017,1.1684190034866333,5.2944416999816895,4.850362777709961,2.621387481689453,-1.565406084060669,1.88421630859375,-0.008017887378284298,-1.0135981141192274,-2.729311027280802,-0.8487127423286438,0.00801780167967081,-0.5287932753562927, 249, 184, 26, 219
1733262008063,6i,19.62047713707544,1.9s : 0.3s,-1.726497674412471,1.6974075285845789,8.298685513958509,3.9267647045496443,1.0899920463562012,6.149259090423584,5.545220851898193,2.986172914505005,-1.6636549234390259,1.932486653327942,-0.044910839940553324,-0.9553658056811007,-2.6910149193764394,-0.8157016038894653,0.04489574581384659,-0.5767279863357544, 249, 184, 26, 219
1733262008073,6i,19.62047713707544,1.9s : 0.3s,-1.726497674412471,1.744893398527799,9.637330976276434,4.331270207385762,0.8827186822891235,7.0324201583862305,6.3649396896362305,3.3934645652770996,-1.753993034362793,2.0415210723876953,-0.08629926030579564,-0.8866350133816653,-2.647093711870523,-0.7720654606819153,0.08619218319654465,-0.6296712756156921, 249, 184, 26, 219
1733262008083,6i,19.62047713707544,1.9s : 0.3s,-1.726497674412471,1.8023191586763776,11.102373314536631,4.877990842863913,0.6228668093681335,7.994937419891357,7.296545505523682,3.952570915222168,-1.86150324344635,2.1695122718811035,-0.1323667407060423,-0.8059014298570801,-2.5958633031975094,-0.7151440382003784,0.1319805532693863,-0.6864036917686462, 249, 184, 26, 219
1733262008093,6i,19.62047713707544,1.9s : 0.3s,-1.726497674412471,1.872487338554698,12.795330775231289,5.598329202667482,0.5065100193023682,9.157231330871582,8.484786033630371,4.737785816192627,-1.948603630065918,2.2577908039093018,-0.18258765916769046,-0.71055361138702,-2.5341513542974625,-0.6414111852645874,0.18157482147216797,-0.7454007267951965, 249, 184, 26, 219
1733262008103,6i,19.62047713707544,1.9s : 0.3s,-1.726497674412471,1.958904088377053,14.68642641514204,6.50392924767451,0.52191561460495,10.424276351928711,9.685507774353027,5.737401008605957,-1.9699907302856445,2.3457326889038086,-0.23386595829971035,-0.5966257941184436,-2.457140723410959,-0.5465594530105591,0.23173996806144714,-0.804716944694519, 249, 184, 26, 219
1733262008113,6i,19.62047713707544,1.9s : 0.3s,-1.726497674412471,2.06464801474653,16.61861091496628,7.545388894340087,0.49554964900016785,11.527917861938477,10.714791297912598,6.909555435180664,-2.0698039531707764,2.2151408195495605,-0.2809435662691325,-0.4628151722352535,-2.363327428491169,-0.4289647340774536,0.2772623300552368,-0.8597179055213928, 249, 184, 26, 219
1733262008123,6i,19.62047713707544,1.9s : 0.3s,-1.726497674412471,2.192304300166035,18.353715785004006,8.675498612053532,-0.14991004765033722,12.377495765686035,11.226601600646973,8.146559715270996,-2.1435818672180176,2.074342727661133,-0.32045555891907185,-0.3109860477186483,-2.255727446396192,-0.2904198169708252,0.31499895453453064,-0.9035662412643433, 249, 184, 26, 219
1733262008133,6i,19.62047713707544,1.9s : 0.3s,-1.726497674412471,2.3462769715820446,19.921164387300895,10.077023649109368,-1.6603834629058838,12.886331558227539,11.952703475952148,9.675437927246094,-1.8490980863571167,2.124415874481201,-0.35485037067011826,-0.14549393966357724,-2.1385578060733748,-0.13594862818717957,0.34745004773139954,-0.927791178226471, 249, 184, 26, 219
1733262008143,6i,19.62047713707544,1.9s : 0.3s,-1.726497674412471,2.530259288179034,21.264122259821207,11.590757822977283,-3.698289394378662,12.80349349975586,12.682772636413574,11.354157447814941,-1.2793992757797241,1.9472835063934326,-0.3885268696400808,0.030555522372886144,-2.0080822589656893,0.02827376127243042,0.37882548570632935,-0.9250361323356628, 249, 184, 26, 219
1733262008153,6i,19.62047713707544,1.9s : 0.3s,-1.726497674412471,2.747777983955314,22.444234212769043,13.34961925940031,-5.984743595123291,12.28252124786377,13.436708450317383,13.278778076171875,-0.24055588245391846,1.352227807044983,-0.4201684801533557,0.21464401147455006,-1.8603348332830851,0.19447296857833862,0.40791428089141846,-0.8920685052871704, 249, 184, 26, 219
1733262008163,6i,19.62047713707544,1.9s : 0.3s,-1.726497674412471,2.9988565644451137,23.446365775128132,14.948249751935274,-8.784770965576172,11.370729446411133,13.69149112701416,14.87069034576416,1.4613981246948242,0.4207788109779358,-0.44867715571185857,0.4044083561894268,-1.6928504392405694,0.3545294404029846,0.4337739944458008,-0.8283411264419556, 249, 184, 26, 219
1733262008173,6i,19.62047713707544,1.9s : 0.3s,-1.726497674412471,3.2794001383475986,24.282214436563354,16.2654586338973,-12.252212524414062,9.116463661193848,13.931556701660156,15.840452194213867,3.6083905696868896,-0.7904026508331299,-0.47380590319356447,0.5925018723060783,-1.5015825867383221,0.4969196319580078,0.45627620816230774,-0.7381618022918701, 249, 184, 26, 219
1733262008183,6i,19.62047713707544,1.9s : 0.3s,-1.726497674412471,3.58479466966385,25.343489501615345,17.564906523004506,-16.825239181518555,5.314972400665283,14.378975868225098,16.31940269470215,6.243013381958008,-1.7966136932373047,-0.4967036809499743,0.7730215743328446,-1.2745887399006934,0.6139172911643982,0.47653013467788696,-0.6293048858642578, 249, 184, 26, 219
1733262008193,6i,19.62047713707544,1.9s : 0.3s,-1.726497674412471,3.909151845580492,27.410867563941846,18.664177002271696,-21.603979110717773,1.2178195714950562,15.324231147766113,15.941511154174805,9.529810905456543,-1.8445675373077393,-0.5115585440344337,0.9380213030851152,-0.9962308905727049,0.7031576037406921,0.489536851644516,-0.5156772136688232, 249, 184, 26, 219
1733262008203,6i,19.62047713707544,1.9s : 0.3s,-1.726497674412471,4.2431223645917635,29.13662171099136,19.24634927224974,-20.744197845458984,-0.7945616245269775,15.740396499633789,14.333434104919434,12.818922996520996,-0.8061267137527466,-0.4926153843624873,1.091872877437212,-0.6908533263362072,0.78196781873703,0.4729319214820862,-0.4060315489768982, 249, 184, 26, 219
1733262008213,6i,19.62047713707544,1.9s : 0.3s,-1.726497674412471,4.568467722741957,29.191515475203428,19.232970587470692,-16.784059524536133,-3.928931713104248,15.216568946838379,10.618217468261719,16.0294132232666,0.46746885776519775,-0.43323143115833557,1.1883660667781297,-0.4297305739329252,0.8420482873916626,0.4198058843612671,-0.33869996666908264, 249, 184, 26, 219
1733262008223,6i,19.62047713707544,1.9s : 0.3s,-1.726497674412471,4.868190035389896,28.310961881854148,19.843258372708785,-13.070977210998535,-4.455699920654297,14.951272964477539,5.952065944671631,18.890790939331055,1.2107152938842773,-0.34900906175764984,1.2265794718417453,-0.22245037538886345,0.8845884799957275,0.34196677803993225,-0.31711480021476746, 249, 184, 26, 219
1733262008233,6i,19.62047713707544,1.9s : 0.3s,-1.726497674412471,5.130896178733809,27.72165890375582,16.610612487707797,-13.127182960510254,-3.409248113632202,14.525690078735352,2.2339117527008057,16.118314743041992,3.3349685668945312,-0.2537705648580997,1.2412934965438422,-0.0447625548467611,0.9158989787101746,0.2510555386543274,-0.3132094740867615, 249, 184, 26, 219
1733262008243,6i,19.62047713707544,1.9s : 0.3s,-1.726497674412471,5.347142602934994,27.713319397704645,11.793019321387522,-14.708869934082031,-1.9234362840652466,14.338055610656738,-0.30055898427963257,10.545476913452148,5.270473003387451,-0.16161589825670644,1.2526698215566714,0.14003795028521654,0.9374455213546753,0.16091325879096985,-0.30871155858039856, 249, 184, 26, 219
1733262008253,6i,19.62047713707544,1.9s : 0.3s,-1.726497674412471,5.515752324490706,24.127991957942616,6.4534289806263425,11.67453384399414,2.571898937225342,21.50433349609375,-0.6822235584259033,4.830382823944092,4.224774360656738,-0.013367664952579163,1.2733298399899176,0.25131519901174143,0.9559967517852783,0.01336726639419794,-0.29307273030281067, 249, 184, 26, 219
1733262008263,6i,19.62047713707544,1.9s : 0.3s,-1.726497674412471,5.64802689133011,25.89974210500495,3.575804231433073,-34.5772705078125,1.243192195892334,1.3336379528045654,2.6986021995544434,-1.8176606893539429,-1.483250379562378,0.09986357774215232,1.300187056063004,0.31008771743083063,0.9588073492050171,-0.09969767183065414,-0.26598674058914185, 249, 184, 26, 219
1733262008273,6i,19.62047713707544,1.9s : 0.3s,-1.726497674412471,5.761891139903572,34.04955346406247,11.599818317956583,-42.51959991455078,-9.61442756652832,4.222242832183838,6.822743892669678,-9.20543384552002,1.8071907758712769,0.010707294087349332,1.225159494593255,0.6934398399040012,0.940805971622467,-0.010707089677453041,-0.33877649903297424, 249, 184, 26, 219
1733262008283,6i,19.62047713707544,1.9s : 0.3s,-1.726497674412471,5.897155338842278,35.14932197266821,20.461600807578385,-28.53709602355957,-9.598358154296875,-0.18304459750652313,9.937488555908203,-9.164017677307129,15.360475540161133,-0.111099875296452,1.1385563456821155,1.0444147086582987,0.9024314880371094,0.11087146401405334,-0.416323184967041, 249, 184, 26, 219
1733262008293,6i,19.62047713707544,1.9s : 0.3s,-1.726497674412471,6.081105879415694,34.67238182471334,14.86552678863192,-22.596378326416016,-16.587562561035156,-3.2259931564331055,9.390371322631836,8.13616943359375,8.161345481872559,-0.23426891481254425,1.0462913929101056,1.2584037005254498,0.8419283032417297,0.2321319282054901,-0.4871053099632263, 249, 184, 26, 219
1733262008303,6i,19.62047713707544,1.9s : 0.3s,-1.726497674412471,6.261045398573613,31.10839233052084,14.271775829315528,-14.053200721740723,-11.585857391357422,-1.8816546201705933,2.450727701187134,7.584967136383057,11.838318824768066,-0.34909781114740246,0.9408615464389901,1.416977062310015,0.7593247890472412,0.342050164937973,-0.5535590052604675, 249, 184, 26, 219
1733262008313,6i,19.62047713707544,1.9s : 0.3s,-1.726497674412471,6.46776298203869,26.677688616479237,17.34402657924398,-9.289012908935547,-9.222573280334473,-3.633420944213867,5.0277228355407715,14.031512260437012,8.868704795837402,-0.4341461761212247,0.8673451942001619,1.4924202346536377,0.6918662786483765,0.4206359386444092,-0.5868445038795471, 249, 184, 26, 219
1733262008323,6i,19.62047713707544,1.9s : 0.3s,-1.726497674412471,6.625791639171345,24.799252305294484,6.78425944338854,-11.134422302246094,-10.9469575881958,-4.38215970993042,-1.56494140625,5.819066047668457,3.1169865131378174,-0.5337011406677743,0.7937970457338803,1.5478243491877905,0.6138609647750854,0.508723258972168,-0.6036351323127747, 249, 184, 26, 219
1733262008333,6i,19.62047713707544,1.9s : 0.3s,-1.726497674412471,6.743547891939509,23.660925339879736,2.7077352271225577,-10.000513076782227,-12.34997272491455,-4.925149917602539,0.0857086181640625,-0.12441402673721313,2.703517198562622,-0.6433102707656146,0.7022113038616689,1.5942597004859356,0.5167998671531677,0.5998473167419434,-0.6108199954032898, 249, 184, 26, 219
1733262008343,6i,19.62047713707544,1.9s : 0.3s,-1.726497674412471,6.858536658559968,22.893575362658368,4.972257148868617,-10.069249153137207,-11.317938804626465,-6.026054859161377,4.255630970001221,0.6252279281616211,2.494400978088379,-0.7546854444958221,0.5960645200921774,1.6154230268411922,0.4089653491973877,0.6850595474243164,-0.6028604507446289, 249, 184, 26, 219
1733262008353,6i,19.62047713707544,1.9s : 0.3s,-1.726497674412471,6.958210689709779,22.635695909779876,3.855406040122843,-11.778825759887695,-9.32226848602295,-7.661202907562256,2.7366323471069336,-0.9071280360221863,2.5597105026245117,-0.883345142472115,0.4899747966762424,1.6120510255333933,0.2986306846141815,0.7728659510612488,-0.5599089860916138, 249, 184, 26, 219
1733262008363,6i,19.62047713707544,1.9s : 0.3s,-1.726497674412471,7.039902332131491,22.2543730939613,4.232562834714292,-11.446531295776367,-6.981593608856201,-10.131133079528809,1.0630749464035034,-0.9767043590545654,3.97875714302063,-1.0283823386994655,0.36347273252852763,1.5567606804101923,0.18352235853672028,0.8564650416374207,-0.4824802279472351, 249, 184, 26, 219
1733262008373,6i,19.62047713707544,1.9s : 0.3s,-1.726497674412471,7.114433618526273,21.325977676284587,4.9035951989324085,-8.41203498840332,-5.408827781677246,-11.96828842163086,0.8964431881904602,0.7285347580909729,4.765592575073242,-1.1534440885037038,0.14018295160265562,1.3745048782252525,0.05663603916764259,0.9141653776168823,-0.4013652205467224, 249, 184, 26, 219
1733262008383,6i,19.62047713707544,1.9s : 0.3s,-1.726497674412471,7.182968161791401,19.696420338891237,3.347297300271748,-3.8626551628112793,-5.091318130493164,-11.881610870361328,0.8656722903251648,2.2772557735443115,2.2954556941986084,-1.2111790558661488,-0.22709831349786835,1.0299201216151836,-0.0792342871427536,0.9360315799713135,-0.34287989139556885, 249, 184, 26, 219
1733262008393,6i,19.62047713707544,1.9s : 0.3s,-1.726497674412471,7.250408399779686,18.198337743697483,3.0241723425807874,-0.25990885496139526,-5.067706108093262,-12.081335067749023,2.0574755668640137,2.0506222248077393,0.8410476446151733,-1.1783386641496227,-0.592045246971307,0.68791640967369,-0.21343553066253662,0.9239718914031982,-0.31736594438552856, 249, 184, 26, 219
1733262008403,6i,19.62047713707544,1.9s : 0.3s,-1.726497674412471,7.32065066954431,17.285443098937076,3.690103887556315,1.7214398384094238,-5.425640106201172,-11.820564270019531,3.5199146270751953,1.053360939025879,0.3427804708480835,-1.091782993521804,-0.8291334630945094,0.48349885498985723,-0.3398456871509552,0.887450098991394,-0.3113473951816559, 249, 184, 26, 219
1733262008413,6i,19.62047713707544,1.9s : 0.3s,-1.726497674412471,7.39471576008977,16.754596409438527,3.990164921412857,2.350757598876953,-5.816633701324463,-10.982324600219727,3.9204537868499756,0.2770589590072632,0.6889822483062744,-0.9893013630630909,-0.9773255806064552,0.37764256028312065,-0.4553505778312683,0.8356424570083618,-0.307176798582077, 249, 184, 26, 219
1733262008423,6i,19.62047713707544,1.9s : 0.3s,-1.726497674412471,7.466707748465695,16.31140094478736,3.548647517696719,2.390486240386963,-5.7739577293396,-10.176124572753906,3.3192672729492188,-0.5636422634124756,1.1214594841003418,-0.8862674378564704,-1.0824168431189423,0.3198859359254443,-0.5583876967430115,0.7747170329093933,-0.29667606949806213, 249, 184, 26, 219
1733262008433,6i,19.62047713707544,1.9s : 0.3s,-1.726497674412471,7.53118547742981,15.81684681161957,2.90499828828622,2.6238389015197754,-5.465270519256592,-9.4989595413208,2.3899550437927246,-1.008103609085083,1.3079973459243774,-0.7869557547513302,-1.1613436012586003,0.2892390571673877,-0.6476454734802246,0.7082073092460632,-0.2810656428337097, 249, 184, 26, 219
1733262008443,6i,19.62047713707544,1.9s : 0.3s,-1.726497674412471,7.589644458435355,15.267812274014698,2.6379420040499713,3.6755893230438232,-5.335026741027832,-8.670933723449707,2.1577978134155273,-0.7984567284584045,1.2903927564620972,-0.69111946107407,-1.219833914480461,0.2825125616285909,-0.7235629558563232,0.6374001502990723,-0.2649105489253998, 249, 184, 26, 219
1733262008453,6i,19.62047713707544,1.9s : 0.3s,-1.726497674412471,7.645367497138363,14.817461523460643,2.6006396762297928,4.529762268066406,-5.309319972991943,-8.061954498291016,2.39705753326416,-0.447856068611145,0.9038068652153015,-0.5985823208790595,-1.2636358708811524,0.2982053234506204,-0.7874687314033508,0.5634718537330627,-0.24978463351726532, 249, 184, 26, 219
1733262008463,6i,19.62047713707544,1.9s : 0.3s,-1.726497674412471,7.698717811291869,14.384890968830415,2.4554006119315015,4.296627521514893,-5.2633795738220215,-7.566540718078613,2.3905091285705566,-0.2636401653289795,0.494926393032074,-0.5111496706885091,-1.3040206223009627,0.3220467567672595,-0.8413299322128296,0.4891802966594696,-0.22992703318595886, 249, 184, 26, 219
1733262008473,6i,19.62047713707544,1.9s : 0.3s,-1.726497674412471,7.748374628564549,13.871365331743645,2.230926492752795,4.470028877258301,-5.08112907409668,-6.830982685089111,2.162945032119751,-0.4222247898578644,0.34702742099761963,-0.4305352123893029,-1.3434424913995004,0.3492964151700138,-0.885357141494751,0.4173572361469269,-0.20483078062534332, 249, 184, 26, 219
1733262008483,6i,19.62047713707544,1.9s : 0.3s,-1.726497674412471,7.795279192022631,13.418972876461403,2.204938568397035,5.108686923980713,-4.70961332321167,-6.358546257019043,2.1270596981048584,-0.4427258372306824,0.375985324382782,-0.35652684230526793,-1.3787754925938736,0.3850131407051415,-0.9198910593986511,0.3490215837955475,-0.1788417547941208, 249, 184, 26, 219
1733262008493,6i,19.62047713707544,1.9s : 0.3s,-1.726497674412471,7.84295470732577,13.13697631793198,2.349373659011692,5.918534755706787,-4.2805938720703125,-6.143280506134033,2.3018627166748047,0.16590237617492676,0.4398420453071594,-0.285437103249901,-1.4093807763461306,0.430842380946982,-0.9470654726028442,0.28157690167427063,-0.15421275794506073, 249, 184, 26, 219
1733262008503,6i,19.62047713707544,1.9s : 0.3s,-1.726497674412471,7.892990615376776,12.950446573789925,2.4861389361653856,6.259899616241455,-3.9613351821899414,-5.977926731109619,2.2529196739196777,0.8170840740203857,0.6615235209465027,-0.2166033451361506,-1.4373223831719484,0.48456969152705526,-0.9679465293884277,0.21491357684135437,-0.12996837496757507, 249, 184, 26, 219
1733262008513,6i,19.62047713707544,1.9s : 0.3s,-1.726497674412471,7.944269445407195,12.701273908156617,2.420129119376733,6.11238956451416,-3.692920207977295,-5.707306385040283,2.1070973873138428,0.9356703162193298,0.7359936237335205,-0.15105463005354733,-1.4654758409914281,0.5399722608664227,-0.9831351041793823,0.15048083662986755,-0.1039288192987442, 249, 184, 26, 219
1733262008523,6i,19.62047713707544,1.9s : 0.3s,-1.726497674412471,7.9948319571675235,12.445055320968965,2.1851786585528115,6.082225322723389,-3.4033234119415283,-5.538547992706299,1.9223973751068115,0.7287864685058594,0.7404487729072571,-0.08960118097340328,-1.4943035947049907,0.5956821739550633,-0.9930762052536011,0.08948133885860443,-0.07611161470413208, 249, 184, 26, 219
1733262008533,6i,19.62047713707544,1.9s : 0.3s,-1.726497674412471,8.044939842157826,12.215240754459126,2.191756648161185,6.3315229415893555,-2.9910755157470703,-5.3118815422058105,1.896423578262329,0.809160590171814,0.7433935403823853,-0.031649751218795784,-1.5228865675497476,0.6542499178706564,-0.9983522891998291,0.031644467264413834,-0.04786744713783264, 249, 184, 26, 219
1733262008543,6i,19.62047713707544,1.9s : 0.3s,-1.726497674412471,8.095327692459518,12.008524052113625,2.2978442605044513,6.605556011199951,-2.6131086349487305,-5.005246162414551,1.86971116065979,1.0722830295562744,0.7965409755706787,0.022159718737527947,-1.5504787898357593,0.71723900336399,-0.999548077583313,-0.022157905623316765,-0.020311150699853897, 249, 184, 26, 219
1733262008553,6i,19.62047713707544,1.9s : 0.3s,-1.726497674412471,8.146230360398937,11.785067794984892,2.3586012186557066,6.69739294052124,-2.275228500366211,-4.692640781402588,1.8572851419448853,0.9515914916992188,1.0990747213363647,0.07103598537063299,-1.577971394820622,0.7835923459976519,-0.9974523782730103,-0.07097625732421875,0.007156911306083202, 249, 184, 26, 219
1733262008563,6i,19.62047713707544,1.9s : 0.3s,-1.726497674412471,8.195928212468335,11.44834064015286,2.156973728442932,6.388023853302002,-2.01039719581604,-4.386388778686523,1.6800425052642822,0.6587653756141663,1.1815333366394043,0.1150585161839515,-1.6055950147262723,0.8503134000316306,-0.992786705493927,-0.11480481922626495,0.034561626613140106, 249, 184, 26, 219
1733262008573,6i,19.62047713707544,1.9s : 0.3s,-1.726497674412471,8.242522325220447,11.119334147592498,1.8422863390410804,6.357885837554932,-1.7830737829208374,-4.091991424560547,1.35982084274292,0.5642567873001099,1.1074838638305664,0.15434640556568843,-1.6333622884167753,0.9163979988301193,-0.9861788749694824,-0.15373431146144867,0.0617818646132946, 249, 184, 26, 219
1733262008583,6i,19.62047713707544,1.9s : 0.3s,-1.726497674412471,8.28632255825176,10.902777526432534,1.7870008315038,6.674063205718994,-1.6849018335342407,-3.707484245300293,1.218883991241455,0.5892131328582764,1.1664140224456787,0.18840932500031587,-1.6623225284494285,0.9851784151542157,-0.9781920313835144,-0.18729661405086517,0.08978103846311569, 249, 184, 26, 219
1733262008593,6i,19.62047713707544,1.9s : 0.3s,-1.726497674412471,8.328519228560317,10.735792839257636,1.7941768113091026,6.792272567749023,-1.463577389717102,-3.4906911849975586,1.284956932067871,0.6791849136352539,1.051980972290039,0.2172827753816265,-1.6925968655628494,1.057813366660592,-0.9692525267601013,-0.21557708084583282,0.11864276230335236, 249, 184, 26, 219
1733262008603,6i,19.62047713707544,1.9s : 0.3s,-1.726497674412471,8.368944406390467,10.51685499863407,1.6719512624626316,6.645196914672852,-1.3921319246292114,-3.194349765777588,1.250056505203247,0.611262857913971,0.9268966913223267,0.24112556657515333,-1.7234769726617363,1.1307597893735073,-0.9597732424736023,-0.23879578709602356,0.14768819510936737, 249, 184, 26, 219
1733262008613,6i,19.62047713707544,1.9s : 0.3s,-1.726497674412471,8.406661577849246,10.317103323954449,1.4854660411265344,6.708637237548828,-1.2951488494873047,-2.826575517654419,1.1169036626815796,0.330571711063385,0.921877384185791,0.25976815298515615,-1.7550282055512096,1.2036693143946597,-0.9500945806503296,-0.2568565011024475,0.1770453006029129, 249, 184, 26, 219
1733262008623,6i,19.62047713707544,1.9s : 0.3s,-1.726497674412471,8.441784275711068,10.107772295404995,1.3761838553616568,6.740162372589111,-1.1104756593704224,-2.387676477432251,1.0659116506576538,0.2454489767551422,0.8351461887359619,0.2718090027304824,-1.7865299147450198,1.2776993574443773,-0.9409574270248413,-0.2684744596481323,0.2062050849199295, 249, 184, 26, 219
1733262008633,6i,19.62047713707544,1.9s : 0.3s,-1.726497674412471,8.474626033428247,9.832883511794847,1.283165496727566,6.494257926940918,-0.9877387285232544,-2.111872911453247,1.014493703842163,0.26692014932632446,0.7389653921127319,0.2784544689239206,-1.8166517655387604,1.3498707147593885,-0.9325693249702454,-0.27486997842788696,0.23401127755641937, 249, 184, 26, 219
1733262008643,6i,19.62047713707544,1.9s : 0.3s,-1.726497674412471,8.505276460353379,9.588554626587474,1.2678836643247928,6.45528507232666,-0.8610569834709167,-1.8454738855361938,0.905902624130249,0.15331539511680603,0.8737069368362427,0.2810231412957412,-1.8453300783726552,1.4201842853119488,-0.924793004989624,-0.27733880281448364,0.2604636251926422, 249, 184, 26, 219
1733262008653,6i,19.62047713707544,1.9s : 0.3s,-1.726497674412471,8.533875382003215,9.248644986665463,1.20582480275099,6.110680103302002,-0.6670215129852295,-1.56479811668396,0.8051180243492126,0.1720164716243744,0.881027102470398,0.2792066923177572,-1.8718233236932953,1.488269509268193,-0.9180484414100647,-0.2755931615829468,0.28501904010772705, 249, 184, 26, 219
1733262008663,6i,19.62047713707544,1.9s : 0.3s,-1.726497674412471,8.56072513387551,8.806340985238618,1.15676866283697,5.609638214111328,-0.573801577091217,-1.4228590726852417,0.711609423160553,0.2771310806274414,0.8688637018203735,0.2755860877279488,-1.8950862164329254,1.5507378365114775,-0.9121100306510925,-0.2721109688282013,0.30661237239837646, 249, 184, 26, 219
1733262008673,6i,19.62047713707544,1.9s : 0.3s,-1.726497674412471,8.587053846900785,8.410466048339432,1.279208598375436,5.459560394287109,-0.3032275438308716,-1.249459147453308,0.6154568195343018,0.19755828380584717,1.1038832664489746,0.26980471660943905,-1.915353570967566,1.6095992060316504,-0.9071742296218872,-0.2665432095527649,0.325560063123703, 249, 184, 26, 219
1733262008683,6i,19.62047713707544,1.9s : 0.3s,-1.726497674412471,8.612925030356054,7.965539146402674,1.2804921792134631,5.0515899658203125,-0.08907927572727203,-1.174744725227356,0.5462085008621216,0.28231537342071533,1.123216152191162,0.2630294604564233,-1.9318313314741,1.6651141954482955,-0.9033557176589966,-0.26000699400901794,0.341093510389328, 249, 184, 26, 219
1733262008693,6i,19.62047713707544,1.9s : 0.3s,-1.726497674412471,8.63826701501273,7.494696883348071,1.2970579334524488,4.653469562530518,0.0848534107208252,-1.1255812644958496,0.40733587741851807,0.4375267028808594,1.1510895490646362,0.2563499234458076,-1.944839846531741,1.716065795146655,-0.9004387855529785,-0.2535514533519745,0.35344231128692627, 249, 184, 26, 219
1733262008703,6i,19.62047713707544,1.9s : 0.3s,-1.726497674412471,8.662125299911173,7.107876685047571,1.347894439032487,4.525197982788086,0.2881484925746918,-1.040809154510498,0.37111032009124756,0.44957977533340454,1.215308427810669,0.24941408470212076,-1.9549212200780752,1.7641306134309525,-0.8984387516975403,-0.24683621525764465,0.3631521463394165, 249, 184, 26, 219
1733262008713,6i,19.62047713707544,1.9s : 0.3s,-1.726497674412471,8.684004518577137,6.817722292730452,1.1924593008354534,4.4942450523376465,0.4038024842739105,-0.9105076193809509,0.28445136547088623,0.3798850178718567,1.0939533710479736,0.2414150557697355,-1.9627032514113072,1.8109202395766704,-0.897381603717804,-0.2390768826007843,0.3708750605583191, 249, 184, 26, 219
1733262008723,6i,19.62047713707544,1.9s : 0.3s,-1.726497674412471,8.703411875358892,6.584058218553441,0.9941816314042108,4.432276248931885,0.46444639563560486,-0.7735891938209534,0.19837594032287598,0.2928650379180908,0.9291254878044128,0.23191968891471362,-1.969012735302274,1.8566231442944607,-0.8970760107040405,-0.22984623908996582,0.37739303708076477, 249, 184, 26, 219
1733262008733,6i,19.62047713707544,1.9s : 0.3s,-1.726497674412471,8.719957379675213,6.378799889533581,0.7877015194768862,4.334533214569092,0.504776656627655,-0.6675788760185242,0.13958406448364258,0.12349382042884827,0.7653360366821289,0.22146056890373192,-1.97406403900072,1.9009376441585517,-0.8973204493522644,-0.21965475380420685,0.38284212350845337, 249, 184, 26, 219
1733262008743,6i,19.62047713707544,1.9s : 0.3s,-1.726497674412471,8.733800840533418,6.107408218278121,0.7541393447702488,4.017947673797607,0.6410008072853088,-0.5241016149520874,0.0499994158744812,0.06132252514362335,0.749977171421051,0.21026844948031878,-1.9772536755217236,1.9429121763581374,-0.8982966542243958,-0.20872244238853455,0.38665005564689636, 249, 184, 26, 219
1733262008753,6i,19.62047713707544,1.9s : 0.3s,-1.726497674412471,8.745880288906926,5.791182956826321,0.8127043334457372,3.6906211376190186,0.7229480147361755,-0.4481249451637268,0.035426557064056396,0.0886719673871994,0.8070753216743469,0.19945845056628445,-1.978135799897394,1.9808771650095176,-0.8999744057655334,-0.1981385499238968,0.38831353187561035, 249, 184, 26, 219
1733262008763,6i,19.62047713707544,1.9s : 0.3s,-1.726497674412471,8.757134039072994,5.522077977070709,0.8709739686898871,3.555262327194214,0.8123423457145691,-0.39118656516075134,0.012952923774719238,-0.031430020928382874,0.8703103065490723,0.18903899879169173,-1.9772664935682462,2.0162889289235477,-0.9021590352058411,-0.18791510164737701,0.3883262276649475, 249, 184, 26, 219
1733262008773,6i,19.62047713707544,1.9s : 0.3s,-1.726497674412471,8.766886145267263,5.222866896824616,0.7764574089103449,3.2519242763519287,0.9247066974639893,-0.3314173221588135,0.017359673976898193,-0.056013524532318115,0.7742397785186768,0.1790263037073994,-1.9746107620750155,2.0494748115129675,-0.9048718214035034,-0.178071528673172,0.3866488039493561, 249, 184, 26, 219
1733262008783,6i,19.62047713707544,1.9s : 0.3s,-1.726497674412471,8.775515931565275,4.921710203340041,0.705490546153554,3.0015616416931152,0.9737924933433533,-0.2770118713378906,-0.004046976566314697,0.03266547620296478,0.7047222852706909,0.16958553858076617,-1.9703174284703022,2.0799327207782947,-0.9080318212509155,-0.1687738448381424,0.3833971917629242, 249, 184, 26, 219
1733262008793,6i,19.62047713707544,1.9s : 0.3s,-1.726497674412471,8.78374114533472,4.6241256436227465,0.7759950121730247,2.7641184329986572,1.0278005599975586,-0.18049049377441406,-0.03914445638656616,0.06523638963699341,0.7722565531730652,0.16057585172913544,-1.9648592270148066,2.107733112099677,-0.9114782214164734,-0.1598866730928421,0.3790038228034973, 249, 184, 26, 219
1733262008803,6i,19.62047713707544,1.9s : 0.3s,-1.726497674412471,8.791757448593275,4.351990170850914,0.7936920311987531,2.5861153602600098,1.057651400566101,-0.0862625315785408,-0.056433796882629395,0.05510637164115906,0.7897629737854004,0.15163405890463993,-1.9583436063026456,2.1332478206197427,-0.9152153134346008,-0.15105363726615906,0.3735823333263397, 249, 184, 26, 219
1733262008813,6i,19.62047713707544,1.9s : 0.3s,-1.726497674412471,8.798666740202515,4.09285970862461,0.6709323473139872,2.4009437561035156,1.0514061450958252,-0.017650214955210686,-0.07689744234085083,0.02738860249519348,0.6659480929374695,0.1427563720794569,-1.9512288741877466,2.156841487607894,-0.9190587997436523,-0.1422719806432724,0.3675448000431061, 249, 184, 26, 219
1733262008823,6i,19.62047713707544,1.9s : 0.3s,-1.726497674412471,8.804520293014242,3.8319282228914124,0.5633288847937398,2.1785895824432373,1.0584981441497803,0.008694574236869812,-0.0759233832359314,0.01794762909412384,0.5579004883766174,0.13433329978967962,-1.9436072540900162,2.1783402833706735,-0.9229167699813843,-0.13392964005470276,0.3609532117843628, 249, 184, 26, 219
1733262008833,6i,19.62047713707544,1.9s : 0.3s,-1.726497674412471,8.809476593473056,3.5886467970413314,0.5508247806531398,2.022089958190918,1.0247730016708374,0.07757530361413956,-0.09618473052978516,0.015370577573776245,0.5421440601348877,0.12639409164175774,-1.935707855878915,2.197954808822849,-0.9267033934593201,-0.12605783343315125,0.3540198504924774, 249, 184, 26, 219
1733262008843,6i,19.62047713707544,1.9s : 0.3s,-1.726497674412471,8.813649975426854,3.339206671248913,0.5377029251906917,1.8198918104171753,0.9784449338912964,0.12795671820640564,-0.11437392234802246,0.010449230670928955,0.5252940654754639,0.11859136455863314,-1.9278070092447124,2.215722610002063,-0.9303647875785828,-0.11831358075141907,0.34702032804489136, 249, 184, 26, 219
1733262008853,6i,19.62047713707544,1.9s : 0.3s,-1.726497674412471,8.816976785043174,3.1128645086458606,0.4890559655339619,1.6823605298995972,0.9510921835899353,0.17412352561950684,-0.11768448352813721,-0.05136194825172424,0.4718983471393585,0.11108250224412866,-1.920028525033919,2.2316939991490274,-0.9338441491127014,-0.11085419356822968,0.34006741642951965, 249, 184, 26, 219
1733262008863,6i,19.62047713707544,1.9s : 0.3s,-1.726497674412471,8.819427956425846,2.9195612377327342,0.4762781971332396,1.5840011835098267,0.9375420212745667,0.19938892126083374,-0.12838399410247803,-0.11537046730518341,0.44390103220939636,0.1038867270751465,-1.9121297168827847,2.2463571195380747,-0.9372287392616272,-0.10369995981454849,0.332939088344574, 249, 184, 26, 219
1733262008873,6i,19.62047713707544,1.9s : 0.3s,-1.726497674412471,8.821387521866141,2.718032212499126,0.43969919928349577,1.3669697046279907,0.9817131161689758,0.20436270534992218,-0.11307084560394287,-0.07545652985572815,0.4181586802005768,0.09713572423320904,-1.9038473825876405,2.2596116182988046,-0.9405943751335144,-0.09698304533958435,0.32538682222366333, 249, 184, 26, 219
1733262008883,6i,19.62047713707544,1.9s : 0.3s,-1.726497674412471,8.823200207557145,2.541399300645467,0.4439329456475369,1.2217475175857544,1.0323728322982788,0.20956705510616302,-0.10838007926940918,-0.01831939071416855,0.43011000752449036,0.09095206998322387,-1.8948034186534284,2.271274071431236,-0.9440492391586304,-0.09082672744989395,0.31705185770988464, 249, 184, 26, 219
1733262008893,6i,19.62047713707544,1.9s : 0.3s,-1.726497674412471,8.825030460074727,2.3946728030693816,0.49045478313355306,1.10328209400177,1.0774927139282227,0.23567332327365875,-0.1220628023147583,0.019383810460567474,0.4746270477771759,0.08522180468939805,-1.8851907053284935,2.2816426426446013,-0.9475326538085938,-0.08511868119239807,0.3081183433532715, 249, 184, 26, 219
1733262008903,6i,19.62047713707544,1.9s : 0.3s,-1.726497674412471,8.826929670321414,2.276210617336626,0.4902409233736777,0.9926125407218933,1.13246488571167,0.2321867048740387,-0.10305225849151611,0.035320498049259186,0.47798416018486023,0.07976233395559622,-1.8748878317071695,2.2909410823409435,-0.9510858654975891,-0.07967778295278549,0.2984744906425476, 249, 184, 26, 219
