timestamp,club,max_speed,tempo,w.rotation,l.speed,t.spped,acc,rotation.x,rotation.y,rotation.z,userAcceleration.x,userAcceleration.y,userAcceleration.z,pitch,roll,yaw,gravity.x,gravity.y,gravity.z,impactIndex,minDownIndex,StartIndex,endIndex
1733261872483,6i,20.41602742373601,1.5s : 0.3s,-8.360110724831799,0.00028348921171694107,0.10703185379050448,0.021696387892830613,0.15992385149002075,-0.040711741894483566,0.05292754992842674,0.019385933876037598,-0.005810633301734924,0.007820188999176025,-0.20188130327856282,1.507761113384186,0.18961672158868056,0.9777454137802124,0.20051278173923492,-0.06171415373682976, 271, 215, 95, 242
1733261872493,6i,20.41602742373601,1.5s : 0.3s,-8.360110724831799,0.0008067147623927925,0.14031910177610352,0.010419613971540353,0.15613816678524017,-0.03584428131580353,0.04884226247668266,0.009978890419006348,0.00235690176486969,0.0018534064292907715,-0.20122305105079563,1.507239619945429,0.18808538278518422,0.9778446555137634,0.1998678594827652,-0.062232404947280884, 271, 215, 95, 242
1733261872503,6i,20.41602742373601,1.5s : 0.3s,-8.360110724831799,0.0012789549972238641,0.1749415302482171,0.0038209984205485156,0.18340320885181427,-0.042534634470939636,0.04056179150938988,0.0016146302223205566,-0.002858102321624756,0.001955568790435791,-0.20078343580747007,1.506610379263777,0.18644342232191513,0.9778928756713867,0.19943708181381226,-0.06285332143306732, 271, 215, 95, 242
1733261872513,6i,20.41602742373601,1.5s : 0.3s,-8.360110724831799,0.0017091764019241493,0.2224083874602518,0.009268606348054943,0.24326227605342865,-0.029217762872576714,0.042544249445199966,0.0004763603210449219,0.007481813430786133,-0.005450010299682617,-0.200430959683819,1.5058868092455215,0.18430338794005388,0.9779172539710999,0.19909168779850006,-0.06356543302536011, 271, 215, 95, 242
1733261872523,6i,20.41602742373601,1.5s : 0.3s,-8.360110724831799,0.0020943306801709397,0.2656439074004842,0.028339987610616322,0.26909440755844116,-0.014465359039604664,0.04722914844751358,0.000994563102722168,0.027923956513404846,-0.004734806716442108,-0.19996857897718462,1.5051772011466205,0.18167804023632692,0.9779635071754456,0.19863852858543396,-0.06426537781953812, 271, 215, 95, 242
1733261872533,6i,20.41602742373601,1.5s : 0.3s,-8.360110724831799,0.002425399968194226,0.2866496223119109,0.016488768509594656,0.24528147280216217,-0.015058445744216442,0.046904776245355606,-0.0034373998641967773,0.015351295471191406,0.0049397870898246765,-0.19950099130324195,1.5045588484959913,0.17908213450715774,0.9780163764953613,0.19818024337291718,-0.0648762434720993, 271, 215, 95, 242
1733261872543,6i,20.41602742373601,1.5s : 0.3s,-8.360110724831799,0.002714905002111367,0.2871558721012961,0.01208718463751838,0.21126079559326172,-0.03643621876835823,0.04009664058685303,0.0012207627296447754,-0.0068340301513671875,0.009894736111164093,-0.1988772799468196,1.5040098542075915,0.17683189791035847,0.9781034588813782,0.1975688636302948,-0.06542138010263443, 271, 215, 95, 242
1733261872553,6i,20.41602742373601,1.5s : 0.3s,-8.360110724831799,0.002982363910948796,0.2888939321603351,0.003217797517123849,0.22148573398590088,-0.040138810873031616,0.03516153618693352,0.0029789209365844727,-0.0010664165019989014,-0.0005856677889823914,-0.19814598431022967,1.5033932719073964,0.1747257551736462,0.9782069325447083,0.1968519389629364,-0.06603416800498962, 271, 215, 95, 242
1733261872563,6i,20.41602742373601,1.5s : 0.3s,-8.360110724831799,0.003239502556535221,0.3063776274627279,0.03337127001079525,0.25481054186820984,-0.0278044231235981,0.03630126640200615,-0.00453341007232666,0.025944292545318604,-0.02049349993467331,-0.19758302581341566,1.5027252263429534,0.17236471410070284,0.9782729744911194,0.1962999552488327,-0.06669516116380692, 271, 215, 95, 242
1733261872573,6i,20.41602742373601,1.5s : 0.3s,-8.360110724831799,0.003488201256990692,0.324345828985556,0.048339600701696024,0.27035167813301086,-0.018982168287038803,0.034412287175655365,-0.012610852718353271,0.03637491166591644,-0.029232673346996307,-0.19709160151008895,1.5020570751716706,0.1697086897854344,0.978324294090271,0.19581806659698486,-0.06735540181398392, 271, 215, 95, 242
1733261872583,6i,20.41602742373601,1.5s : 0.3s,-8.360110724831799,0.0037561164703640093,0.3367681456970896,0.0366879370827062,0.2752782702445984,-0.017483431845903397,0.031315162777900696,-0.015898287296295166,0.022819936275482178,-0.02392696589231491,-0.19659897937740833,1.501413253925308,0.1669723069220852,0.9783768653869629,0.19533495604991913,-0.06799193471670151, 271, 215, 95, 242
1733261872593,6i,20.41602742373601,1.5s : 0.3s,-8.360110724831799,0.0040495134412775425,0.3379659436799313,0.023242610066093385,0.25719353556632996,-0.01731059141457081,0.033182572573423386,-0.007350504398345947,0.01122194528579712,-0.01898043602705002,-0.19621138586521222,1.5007141025252186,0.16427345821136607,0.9784045815467834,0.19495481252670288,-0.0686812475323677, 271, 215, 95, 242
1733261872603,6i,20.41602742373601,1.5s : 0.3s,-8.360110724831799,0.004351990102452215,0.32856197285862093,0.009668654230588623,0.2156900316476822,-0.026365693658590317,0.03393178433179855,-0.001038193702697754,0.0010130703449249268,-0.00955922156572342,-0.19602550477456077,1.5000394386791864,0.16187820801507166,0.9783943295478821,0.19477249681949615,-0.06934390217065811, 271, 215, 95, 242
1733261872613,6i,20.41602742373601,1.5s : 0.3s,-8.360110724831799,0.004650589485799458,0.3004175186917526,0.015208922713411122,0.16932439804077148,-0.044647496193647385,0.02416650764644146,0.0006264448165893555,-0.01207992434501648,-0.009219236671924591,-0.19580867018340162,1.4994142531181718,0.15996841005402995,0.9783928990364075,0.19455981254577637,-0.06995857506990433, 271, 215, 95, 242
1733261872623,6i,20.41602742373601,1.5s : 0.3s,-8.360110724831799,0.0049491951182935095,0.27138163108053215,0.022901362373056122,0.14448095858097076,-0.0521276518702507,0.017013821750879288,0.0024785399436950684,-0.017026066780090332,-0.015114307403564453,-0.19545320730771512,1.4987851887064565,0.1584345568258935,0.9784175157546997,0.19421114027500153,-0.07057899981737137, 271, 215, 95, 242
1733261872633,6i,20.41602742373601,1.5s : 0.3s,-8.360110724831799,0.005255835771176474,0.27248796667428976,0.029470204638605987,0.1402052640914917,-0.08830029517412186,0.19725097715854645,-0.007817208766937256,-0.01189027726650238,-0.025807082653045654,-0.19494647834587464,1.4979933733630635,0.15705161267877463,0.9784592986106873,0.19371402263641357,-0.07136084884405136, 271, 215, 95, 242
1733261872643,6i,20.41602742373601,1.5s : 0.3s,-8.360110724831799,0.0057085901282046495,0.2676130388589237,0.04764500009503743,0.1621909886598587,0.03513108938932419,0.07807264477014542,0.02929896116256714,-0.0067201703786849976,-0.03696560859680176,-0.19568021452951678,1.4971138216220357,0.1556953692497288,0.9782541990280151,0.1944338083267212,-0.07221094518899918, 271, 215, 95, 242
1733261872653,6i,20.41602742373601,1.5s : 0.3s,-8.360110724831799,0.006139838868339779,0.24248427503968262,0.0807393964980286,0.18433810770511627,0.08443765342235565,-0.13699863851070404,-0.06228315830230713,-0.005393102765083313,-0.05109376460313797,-0.19605404808323718,1.4959992313609782,0.15423606935468165,0.9781005382537842,0.1948004961013794,-0.07329581677913666, 271, 215, 95, 242
1733261872663,6i,20.41602742373601,1.5s : 0.3s,-8.360110724831799,0.00672445867603873,0.26577075797536265,0.0680568129083093,0.23594032227993011,0.028539232909679413,-0.10187481343746185,-0.039592862129211426,0.020272627472877502,-0.051508791744709015,-0.196084684709001,1.4946289417947167,0.15235573457904178,0.9779933094978333,0.19483055174350739,-0.0746355801820755, 271, 215, 95, 242
1733261872673,6i,20.41602742373601,1.5s : 0.3s,-8.360110724831799,0.007516108195788079,0.30396767639631983,0.07124664268104107,0.2937234342098236,-0.06295260041952133,0.030806800350546837,-0.0112992525100708,0.04261927306652069,-0.05596435070037842,-0.19609230219479024,1.4933805743518043,0.1497095848773838,0.9778977632522583,0.1948380172252655,-0.0758562907576561, 271, 215, 95, 242
1733261872683,6i,20.41602742373601,1.5s : 0.3s,-8.360110724831799,0.008437995377981858,0.34445130690341225,0.07028757383055008,0.31932497024536133,-0.08594047278165817,-0.01292323786765337,-0.00984048843383789,0.04168154299259186,-0.055732905864715576,-0.19591268701458298,1.4920075983345773,0.1465439253864832,0.9778275489807129,0.19466184079647064,-0.07720160484313965, 271, 215, 95, 242
1733261872693,6i,20.41602742373601,1.5s : 0.3s,-8.360110724831799,0.009389521911299478,0.37585314816767934,0.043616075614522846,0.32598820328712463,-0.08146290481090546,0.013277740217745304,-0.005992114543914795,0.021739274263381958,-0.037334442138671875,-0.1955072667399786,1.4905664430846135,0.14322628455111477,0.9777939319610596,0.19426415860652924,-0.07861705124378204, 271, 215, 95, 242
1733261872703,6i,20.41602742373601,1.5s : 0.3s,-8.360110724831799,0.01033774932410946,0.39621112179226214,0.033952545852438946,0.31996023654937744,-0.08609489351511002,0.011033594608306885,-0.004995882511138916,0.0173700749874115,-0.028741903603076935,-0.1949837150107016,1.4890436108138811,0.13995920487079314,0.9777743220329285,0.1937505602836609,-0.08011426776647568, 271, 215, 95, 242
1733261872713,6i,20.41602742373601,1.5s : 0.3s,-8.360110724831799,0.011267704088566935,0.40807440763775366,0.030327235437189914,0.3163737654685974,-0.09464896470308304,0.020121898502111435,0.004438877105712891,0.01789174973964691,-0.02408158779144287,-0.19446752708234882,1.4873757368168905,0.13669960684876564,0.9777389168739319,0.19324412941932678,-0.08175328373908997, 271, 215, 95, 242
1733261872723,6i,20.41602742373601,1.5s : 0.3s,-8.360110724831799,0.012131022217365693,0.40872538696155497,0.02025530502737575,0.29324010014533997,-0.0998380035161972,0.021660638973116875,0.007884860038757324,0.010347291827201843,-0.015525460243225098,-0.19400773043871414,1.4857800183582197,0.13359327791118755,0.977695643901825,0.19279298186302185,-0.08332091569900513, 271, 215, 95, 242
1733261872733,6i,20.41602742373601,1.5s : 0.3s,-8.360110724831799,0.012856798144671637,0.4058288588605002,0.009873222604913502,0.2635437250137329,-0.10950714349746704,0.023839104920625687,0.006098747253417969,0.002150893211364746,-0.0074605271220207214,-0.1935436855160089,1.4841874365916987,0.13078453059402825,0.9776505827903748,0.19233761727809906,-0.08488558232784271, 271, 215, 95, 242
1733261872743,6i,20.41602742373601,1.5s : 0.3s,-8.360110724831799,0.01352481064867524,0.39383818348794875,0.012779254396953838,0.24045370519161224,-0.11837258189916611,0.021627318114042282,0.009816646575927734,-0.0008619129657745361,-0.008136332035064697,-0.19309976683954252,1.4825450751505849,0.12825382798042143,0.9775949120521545,0.19190196692943573,-0.08649864792823792, 271, 215, 95, 242
1733261872753,6i,20.41602742373601,1.5s : 0.3s,-8.360110724831799,0.014145968132357271,0.3808447544447238,0.013111325499861295,0.22787266969680786,-0.11995290219783783,0.02120014652609825,0.008967399597167969,-0.00045561790466308594,-0.009554319083690643,-0.1926857597964084,1.4808810656994629,0.12590921372316466,0.9775285124778748,0.1914956420660019,-0.08813237398862839, 271, 215, 95, 242
1733261872763,6i,20.41602742373601,1.5s : 0.3s,-8.360110724831799,0.014724912521723709,0.36766455173900353,0.009943864226904733,0.21989357471466064,-0.11253999173641205,0.01877753436565399,0.004397869110107422,0.0028442591428756714,-0.008452773094177246,-0.19229308975631185,1.4792615864293468,0.12364613876504747,0.9774594306945801,0.19111022353172302,-0.08972222357988358, 271, 215, 95, 242
1733261872773,6i,20.41602742373601,1.5s : 0.3s,-8.360110724831799,0.015264968942801145,0.3485155110495715,0.009210980280318621,0.19573470950126648,-0.1168721541762352,0.018990587443113327,-0.0004603862762451172,-0.0007881373167037964,-0.009165644645690918,-0.19192081747968656,1.4777027898117026,0.12155411860116136,0.9773891568183899,0.1907448023557663,-0.09125237166881561, 271, 215, 95, 242
1733261872783,6i,20.41602742373601,1.5s : 0.3s,-8.360110724831799,0.01575606810306948,0.371298293544639,0.014281027453625899,0.19363373517990112,-0.18381533026695251,0.2918371856212616,-0.0076326727867126465,-0.010646283626556396,-0.005687415599822998,-0.19109804264390498,1.4760169103198406,0.11965577773408931,0.9773897528648376,0.1899370700120926,-0.09291481971740723, 271, 215, 95, 242
1733261872793,6i,20.41602742373601,1.5s : 0.3s,-8.360110724831799,0.016152349103627606,0.49772121930121155,0.05212055936240087,0.2150266468524933,-0.23624098300933838,0.6029526591300964,0.050982534885406494,-0.008945673704147339,-0.006108090281486511,-0.1910599146747198,1.4742466259061,0.11764809079112354,0.9772309064865112,0.18989962339401245,-0.09464562684297562, 271, 215, 95, 242
1733261872803,6i,20.41602742373601,1.5s : 0.3s,-8.360110724831799,0.016524973700701093,0.556537998746835,0.020944874851365425,0.1980266273021698,-0.255235880613327,0.4171273708343506,-0.018293142318725586,-0.006021261215209961,-0.008233658969402313,-0.19132952493093885,1.4730281970268353,0.11553184619797924,0.9770638942718506,0.19016432762145996,-0.0958312377333641, 271, 215, 95, 242
1733261872813,6i,20.41602742373601,1.5s : 0.3s,-8.360110724831799,0.01687379844686943,0.4470148755706548,0.014469167845596594,0.1586669683456421,-0.0989203155040741,0.01092527061700821,-0.011615395545959473,-0.004731982946395874,-0.007214412093162537,-0.1905913691724932,1.4713276078022914,0.11382921351210894,0.9770389199256897,0.189439594745636,-0.09750659763813019, 271, 215, 95, 242
1733261872823,6i,20.41602742373601,1.5s : 0.3s,-8.360110724831799,0.017198955591505145,0.3771503792156273,0.025751546254033066,0.0999145656824112,-0.11663348972797394,0.06543521583080292,-0.011671066284179688,-0.01994451880455017,-0.011364176869392395,-0.18989169915536286,1.469778742770292,0.1125789341094033,0.9770184755325317,0.18875254690647125,-0.09903313964605331, 271, 215, 95, 242
1733261872833,6i,20.41602742373601,1.5s : 0.3s,-8.360110724831799,0.017489209381884332,0.3116510109001829,0.025273842722757053,0.03844055160880089,-0.13112321496009827,0.035754553973674774,0.008260071277618408,-0.023103147745132446,-0.006064891815185547,-0.18947221785765667,1.468345524402425,0.11192619726741235,0.9769541621208191,0.18834058940410614,-0.10044140368700027, 271, 215, 95, 242
1733261872843,6i,20.41602742373601,1.5s : 0.3s,-8.360110724831799,0.01773456040943676,0.2590863524338715,0.026845757660239736,0.010139272548258305,-0.115355484187603,0.03728543967008591,-0.009612500667572021,-0.02506221830844879,0.0004239678382873535,-0.1890121887610471,1.4670855479096137,0.11175061915865757,0.9769129157066345,0.18788877129554749,-0.10168121755123138, 271, 215, 95, 242
1733261872853,6i,20.41602742373601,1.5s : 0.3s,-8.360110724831799,0.017961329543744815,0.19854455096177076,0.010862978985436028,0.007512064650654793,-0.07774659246206284,-0.0417473278939724,-0.009509146213531494,-0.004227489233016968,-0.0031158924102783203,-0.18864829130522165,1.465858678292457,0.11170798917817688,0.9768553376197815,0.18753133714199066,-0.10288684070110321, 271, 215, 95, 242
1733261872863,6i,20.41602742373601,1.5s : 0.3s,-8.360110724831799,0.018176025564956642,0.15305401433746452,0.009007403287128124,0.013279272243380547,-0.035224657505750656,-0.10781273245811462,-0.004982173442840576,0.007199540734291077,-0.002116098999977112,-0.18829285680587066,1.464529881837322,0.11168530936039042,0.9767840504646301,0.1871822029352188,-0.1041918620467186, 271, 215, 95, 242
1733261872873,6i,20.41602742373601,1.5s : 0.3s,-8.360110724831799,0.018367462401278713,0.11085371672684301,0.011043958274193277,-0.024999406188726425,0.010393695905804634,-0.17645731568336487,0.008795201778411865,-0.006643533706665039,-0.0006905794143676758,-0.18793899346872447,1.463187021481362,0.11183436311472619,0.9767089486122131,0.18683457374572754,-0.10551054775714874, 271, 215, 95, 242
1733261872883,6i,20.41602742373601,1.5s : 0.3s,-8.360110724831799,0.018484250797540597,0.13939796316784028,0.03483322208916369,-0.10290871560573578,0.04351503401994705,-0.23462489247322083,0.000874638557434082,-0.03418116271495819,0.006651051342487335,-0.18768590734195134,1.4618933108841814,0.11268925140142592,0.9766186475753784,0.1865859478712082,-0.10677918046712875, 271, 215, 95, 242
1733261872893,6i,20.41602742373601,1.5s : 0.3s,-8.360110724831799,0.018358708540799126,0.2221496016753643,0.05438516441255937,-0.16782246530056,0.06916046887636185,-0.28925246000289917,-0.0008794665336608887,-0.050780028104782104,0.01945151388645172,-0.1874812672732572,1.4605399291759762,0.11429558655728513,0.9765110611915588,0.1863848865032196,-0.10810500383377075, 271, 215, 95, 242
1733261872903,6i,20.41602742373601,1.5s : 0.3s,-8.360110724831799,0.018033657324933054,0.31223467286993295,0.0581964186661887,-0.21058525145053864,0.10732609778642654,-0.3251561224460602,0.005067408084869385,-0.04983586072921753,0.029623158276081085,-0.18723466343993428,1.4591760809178866,0.11653989938489029,0.9764084219932556,0.18614260852336884,-0.109441839158535, 271, 215, 95, 242
1733261872913,6i,20.41602742373601,1.5s : 0.3s,-8.360110724831799,0.017685160248985813,0.3960488141204128,0.050178601003541726,-0.19165895879268646,0.15258120000362396,-0.37335747480392456,-0.00934988260269165,-0.042203471064567566,0.02548212558031082,-0.18692101686010507,1.4577979375262236,0.11896646728379404,0.9763146042823792,0.18583442270755768,-0.11079394072294235, 271, 215, 95, 242
1733261872923,6i,20.41602742373601,1.5s : 0.3s,-8.360110724831799,0.017368090169552965,0.47406939086057953,0.04116405773857387,-0.1775418072938919,0.21884606778621674,-0.40898722410202026,-0.029467463493347168,-0.02796834707260132,0.006627202033996582,-0.18656524184601941,1.4565814454301755,0.12121111341027699,0.9762448072433472,0.18548484146595,-0.1119890809059143, 271, 215, 95, 242
1733261872933,6i,20.41602742373601,1.5s : 0.3s,-8.360110724831799,0.01708792420915667,0.5580235869912743,0.032418747875089304,-0.20912984013557434,0.2801341712474823,-0.44749999046325684,-0.031087934970855713,-0.006477877497673035,0.006523236632347107,-0.18621745085102268,1.4556325903614418,0.12354414118261707,0.9762021899223328,0.18514306843280792,-0.11292275786399841, 271, 215, 95, 242
1733261872943,6i,20.41602742373601,1.5s : 0.3s,-8.360110724831799,0.016824322695945224,0.6411948182111864,0.03756488925991305,-0.3209800720214844,0.2918989360332489,-0.4543529450893402,-0.02184838056564331,-0.028039738535881042,0.01214669644832611,-0.18586152758246596,1.4548504116488417,0.12667243261221106,0.9761790037155151,0.18479329347610474,-0.11369390040636063, 271, 215, 95, 242
1733261872953,6i,20.41602742373601,1.5s : 0.3s,-8.360110724831799,0.016341680164156134,0.6920943254675638,0.08865060128275473,-0.4036986529827118,0.23240923881530762,-0.4050160050392151,-0.0010992884635925293,-0.07646900415420532,0.04483538866043091,-0.18553331669380768,1.4539465367996949,0.13093609620553467,0.9761359691619873,0.18447072803974152,-0.11458326131105423, 271, 215, 95, 242
1733261872963,6i,20.41602742373601,1.5s : 0.3s,-8.360110724831799,0.015685867322418716,0.7072272140402454,0.08652812661456395,-0.40255841612815857,0.20235612988471985,-0.3407961130142212,0.012201845645904541,-0.06501525640487671,0.055778563022613525,-0.18510432684754133,1.4529060085737986,0.13556798414940435,0.9760947227478027,0.1840490847826004,-0.11560819298028946, 271, 215, 95, 242
1733261872973,6i,20.41602742373601,1.5s : 0.3s,-8.360110724831799,0.015106554904826045,0.7005078013655078,0.027941631926034414,-0.3512691259384155,0.2021832913160324,-0.29470425844192505,-0.0051299333572387695,-0.006715461611747742,0.026633083820343018,-0.18451856216302037,1.451966635591164,0.13987881009976547,0.976092517375946,0.18347328901290894,-0.11653781682252884, 271, 215, 95, 242
1733261872983,6i,20.41602742373601,1.5s : 0.3s,-8.360110724831799,0.014646099050776027,0.6765251827560927,0.037565646336399965,-0.3405163288116455,0.20408318936824799,-0.2502506375312805,-0.03132897615432739,0.020103752613067627,-0.005050957202911377,-0.18390354075975088,1.45126821368808,0.14381968216926433,0.9761227369308472,0.18286867439746857,-0.11723294109106064, 271, 215, 95, 242
1733261872993,6i,20.41602742373601,1.5s : 0.3s,-8.360110724831799,0.014278156685939977,0.647748466315378,0.026604341287615064,-0.3452237546443939,0.17662732303142548,-0.20945100486278534,-0.02583765983581543,0.006279215216636658,-0.0008819103240966797,-0.18328282991394723,1.45071591240592,0.14776988941629188,0.9761703610420227,0.18225839734077454,-0.11778561770915985, 271, 215, 95, 242
1733261873003,6i,20.41602742373601,1.5s : 0.3s,-8.360110724831799,0.013984290868517418,0.6118999959064715,0.009971014032253133,-0.33862268924713135,0.1515178382396698,-0.15972009301185608,-0.0014905333518981934,-0.004814669489860535,0.008603394031524658,-0.18263184039350938,1.4501579363085295,0.1516968636293524,0.976222038269043,0.18161827325820923,-0.11834452301263809, 271, 215, 95, 242
1733261873013,6i,20.41602742373601,1.5s : 0.3s,-8.360110724831799,0.013738741182135696,0.574341890375147,0.011372357818352682,-0.3295021653175354,0.1298048198223114,-0.11970504373311996,0.008805692195892334,0.006496921181678772,0.0030952095985412598,-0.1819132164560389,1.4496110664623263,0.15554179094624082,0.9762864708900452,0.18091155588626862,-0.11889412254095078, 271, 215, 95, 242
1733261873023,6i,20.41602742373601,1.5s : 0.3s,-8.360110724831799,0.013522220465131107,0.5374633366962887,0.025161140147081262,-0.3155994117259979,0.10992477089166641,-0.09132440388202667,0.0035965442657470703,0.024876371026039124,-0.0011463016271591187,-0.18120706041796728,1.4491107008047304,0.159258085847551,0.9763533473014832,0.18021699786186218,-0.1193980723619461, 271, 215, 95, 242
1733261873033,6i,20.41602742373601,1.5s : 0.3s,-8.360110724831799,0.013327941102597536,0.4900572266456446,0.034731888506392944,-0.26491811871528625,0.08694462478160858,-0.07327322661876678,-0.002917766571044922,0.03398652374744415,-0.006535053253173828,-0.18060144992282678,1.448579775336154,0.16264144685476845,0.9763980507850647,0.17962127923965454,-0.1199297234416008, 271, 215, 95, 242
1733261873043,6i,20.41602742373601,1.5s : 0.3s,-8.360110724831799,0.013157303983584473,0.4271377991619146,0.0422385399873444,-0.18583914637565613,0.08379635959863663,-0.05376600846648216,-0.006442129611968994,0.03980612754821777,-0.012572407722473145,-0.18006799223049855,1.448039520977133,0.165317554359117,0.9764281511306763,0.17909646034240723,-0.12046893686056137, 271, 215, 95, 242
1733261873053,6i,20.41602742373601,1.5s : 0.3s,-8.360110724831799,0.013005654592317081,0.3483815942177917,0.05495446989956885,-0.0868941992521286,0.08479771018028259,-0.04389340430498123,-0.01342153549194336,0.05124436318874359,-0.014624342322349548,-0.1796086598221684,1.4475416121617306,0.16705853122616496,0.9764494299888611,0.17864453792572021,-0.12096517533063889, 271, 215, 95, 242
1733261873063,6i,20.41602742373601,1.5s : 0.3s,-8.360110724831799,0.012920589759567482,0.26865529985353376,0.06370155490411196,-0.009841625578701496,0.09590668976306915,-0.023610737174749374,-0.02246946096420288,0.05582669377326965,-0.020889990031719208,-0.17918519347683665,1.4471702285470704,0.16785110717397475,0.9764794707298279,0.17822787165641785,-0.12133712321519852, 271, 215, 95, 242
1733261873073,6i,20.41602742373601,1.5s : 0.3s,-8.360110724831799,0.012874779709506902,0.20677823592863012,0.049697574954145465,0.02176290564239025,0.09828834980726242,-0.009724214673042297,-0.020806431770324707,0.043477609753608704,-0.012109450995922089,-0.1787868204850679,1.4469691356095826,0.1680816900486609,0.9765254259109497,0.1778358668088913,-0.12154224514961243, 271, 215, 95, 242
1733261873083,6i,20.41602742373601,1.5s : 0.3s,-8.360110724831799,0.012866766419829756,0.16776304688580726,0.0249470131931844,0.011687900871038437,0.09206383675336838,0.01075003482401371,-0.012861788272857666,0.020936235785484314,-0.004312992095947266,-0.17844990759698537,1.4468993925071332,0.16814915556161678,0.9765764474868774,0.17750431597232819,-0.12161775678396225, 271, 215, 95, 242
1733261873093,6i,20.41602742373601,1.5s : 0.3s,-8.360110724831799,0.01289358560381906,0.16364658584462652,0.006066111146359227,-0.07097236067056656,0.08060052245855331,0.034367211163043976,-0.005121767520904541,0.0028222501277923584,-0.0016124844551086426,-0.17817268275916573,1.4469684605531803,0.1686879683590869,0.9766336679458618,0.17723147571086884,-0.12155638635158539, 271, 215, 95, 242
1733261873103,6i,20.41602742373601,1.5s : 0.3s,-8.360110724831799,0.012917182280941924,0.1771196061142948,0.019251074454305215,-0.16657651960849762,0.06936469674110413,0.057017963379621506,-0.003648698329925537,-0.012789815664291382,0.01391802728176117,-0.17797349085268604,1.4472414669943803,0.17013534920132167,0.9767018556594849,0.17703543603420258,-0.12129411101341248, 271, 215, 95, 242
1733261873113,6i,20.41602742373601,1.5s : 0.3s,-8.360110724831799,0.012918273542642973,0.2417992402230338,0.02925994261518625,-0.2901999354362488,0.08773811161518097,0.08042608201503754,-0.003002464771270752,-0.020386993885040283,0.020772576332092285,-0.17784771894238027,1.4478969889335294,0.17265062569275133,0.976803183555603,0.17691165208816528,-0.12065654993057251, 271, 215, 95, 242
1733261873123,6i,20.41602742373601,1.5s : 0.3s,-8.360110724831799,0.0128876538669389,0.3495135652088366,0.03727080011265546,-0.439621239900589,0.09311471879482269,0.09107816964387894,-0.009435653686523438,-0.02548837661743164,0.025503404438495636,-0.17786823888880207,1.4490205805410843,0.17657537696919667,0.9769344329833984,0.17693184316158295,-0.11955849081277847, 271, 215, 95, 242
1733261873133,6i,20.41602742373601,1.5s : 0.3s,-8.360110724831799,0.012803190605787078,0.4882072863935162,0.057889952893385534,-0.5889387726783752,0.114198699593544,0.1045479029417038,-0.020123660564422607,-0.0494467169046402,0.022389888763427734,-0.1780563791958611,1.4506414079681982,0.1819533477816425,0.9770938754081726,0.1771170198917389,-0.11797090619802475, 271, 215, 95, 242
1733261873143,6i,20.41602742373601,1.5s : 0.3s,-8.360110724831799,0.01276711123104026,0.6524913593523142,0.059491306502667665,-0.7566247582435608,0.12676286697387695,0.10495243221521378,-0.02592366933822632,-0.051705241203308105,0.013919301331043243,-0.17844420367225095,1.452805583552253,0.18891604780746615,0.9772786498069763,0.1774986982345581,-0.11584793776273727, 271, 215, 95, 242
1733261873153,6i,20.41602742373601,1.5s : 0.3s,-8.360110724831799,0.012813011209601611,0.8382672899970122,0.06233567197765056,-0.9344051480293274,0.13055574893951416,0.10861267894506454,-0.028834760189056396,-0.053986117243766785,0.01182335615158081,-0.1790563812353621,1.4554522523027313,0.19765871090617507,0.9774737358093262,0.17810112237930298,-0.11324847489595413, 271, 215, 95, 242
1733261873163,6i,20.41602742373601,1.5s : 0.3s,-8.360110724831799,0.01308070996873458,1.0068904203127604,0.08245347806388444,-1.0381989479064941,0.09359222650527954,0.09432542324066162,-0.020182311534881592,-0.07991902530193329,-0.0020493268966674805,-0.17988664167695664,1.4582627896003864,0.20784381890219975,0.9776408672332764,0.1789180487394333,-0.11048416048288345, 271, 215, 95, 242
1733261873173,6i,20.41602742373601,1.5s : 0.3s,-8.360110724831799,0.013459780904845021,1.0901140261089752,0.07580199281131482,-0.9552336931228638,0.05463390424847603,0.07482815533876419,-0.007655501365661621,-0.07519836723804474,0.005704469978809357,-0.1809045317799233,1.4607679619969882,0.21814142180799262,0.9777330160140991,0.17991942167282104,-0.10801459848880768, 271, 215, 95, 242
1733261873183,6i,20.41602742373601,1.5s : 0.3s,-8.360110724831799,0.013732360617543089,1.067420579909615,0.014196605599746163,-0.7495225071907043,0.06130863353610039,0.07858458161354065,0.00603872537612915,-0.006899937987327576,0.010838277637958527,-0.18178870985076728,1.4628967982939416,0.2268527401587912,0.9778021574020386,0.18078909814357758,-0.10591574758291245, 271, 215, 95, 242
1733261873193,6i,20.41602742373601,1.5s : 0.3s,-8.360110724831799,0.013974512029184443,0.987035035994377,0.05876541883497735,-0.5880289077758789,0.07095140218734741,0.06373772025108337,0.002772092819213867,0.05805981159210205,-0.008645705878734589,-0.18246824206013312,1.4648012284413054,0.23359221745611725,0.9778797626495361,0.18145738542079926,-0.10404038429260254, 271, 215, 95, 242
1733261873203,6i,20.41602742373601,1.5s : 0.3s,-8.360110724831799,0.014075345260987178,0.9020449874287438,0.06373758564352512,-0.5172680616378784,0.07069206237792969,0.05029571056365967,-0.01392984390258789,0.06195744872093201,-0.005451038479804993,-0.18311324253074007,1.4666085303523602,0.239199457422169,0.9779497385025024,0.1820916384458542,-0.10226071625947952, 271, 215, 95, 242
1733261873213,6i,20.41602742373601,1.5s : 0.3s,-8.360110724831799,0.014077196667296494,0.8272617935120467,0.04328500698940642,-0.48187175393104553,0.05619274452328682,0.03635406494140625,-0.00948244333267212,0.04210199415683746,0.0033312439918518066,-0.18373783881326666,1.4682572955325794,0.24424872280060306,0.9780036211013794,0.18270576000213623,-0.10063649713993073, 271, 215, 95, 242
1733261873223,6i,20.41602742373601,1.5s : 0.3s,-8.360110724831799,0.014019977157621414,0.7597998152879862,0.038806828349826857,-0.44776636362075806,0.04300392419099808,0.00839942879974842,0.0013925433158874512,0.038721099495887756,-0.0021696090698242188,-0.18441409079868032,1.4696876424416052,0.24895117402748843,0.9780234098434448,0.18337059020996094,-0.0992250144481659, 271, 215, 95, 242
1733261873233,6i,20.41602742373601,1.5s : 0.3s,-8.360110724831799,0.013877761708643235,0.7036555502093751,0.045553615104791716,-0.4274477958679199,0.034274615347385406,-0.01953340321779251,0.002224743366241455,0.045499250292778015,2.4266541004180908e-05,-0.18521795922074247,1.470939740444739,0.2533530691654674,0.9779998064041138,0.1841607689857483,-0.09798562526702881, 271, 215, 95, 242
1733261873243,6i,20.41602742373601,1.5s : 0.3s,-8.360110724831799,0.013574948189079842,0.6560045762254341,0.057363456325196675,-0.40567243099212646,0.03656759858131409,-0.052947886288166046,-0.0002067089080810547,0.055596426129341125,0.014126598834991455,-0.18612267525799647,1.472074127479787,0.2575057281546368,0.9779441952705383,0.18504993617534637,-0.09685967117547989, 271, 215, 95, 242
1733261873253,6i,20.41602742373601,1.5s : 0.3s,-8.360110724831799,0.013254240959542916,0.6177951494420372,0.05201267539078441,-0.39072465896606445,0.04461114481091499,-0.04787749424576759,-0.004359722137451172,0.049337491393089294,0.015878386795520782,-0.187026204190113,1.4731993841493602,0.2614737101699358,0.9778857231140137,0.1859377771615982,-0.0957428365945816, 271, 215, 95, 242
1733261873263,6i,20.41602742373601,1.5s : 0.3s,-8.360110724831799,0.012945025366230586,0.6063104040639266,0.037096698358341416,-0.4214538037776947,0.05281403660774231,-0.029318589717149734,-0.008590102195739746,0.02889789640903473,0.021616816520690918,-0.18781096106104855,1.4744476707499172,0.26554270685853215,0.9778589606285095,0.18670879304409027,-0.09450801461935043, 271, 215, 95, 242
1733261873273,6i,20.41602742373601,1.5s : 0.3s,-8.360110724831799,0.01265514376501941,0.6072754761682301,0.02972019784303014,-0.4565819501876831,0.044062353670597076,-0.01550317369401455,-0.006592452526092529,-0.00560016930103302,0.02843356877565384,-0.1884612415571678,1.4757506153764122,0.2699483429391298,0.977860152721405,0.18734760582447052,-0.09322229772806168, 271, 215, 95, 242
1733261873283,6i,20.41602742373601,1.5s : 0.3s,-8.360110724831799,0.012406116822706223,0.624736798262768,0.045044768236020355,-0.4961634576320648,0.02207680605351925,-0.0027179368771612644,-0.0017529129981994629,-0.04086863994598389,0.0188603475689888,-0.18899493137815215,1.4769641631235668,0.2747561551002845,0.977872908115387,0.1878718137741089,-0.09202616661787033, 271, 215, 95, 242
1733261873293,6i,20.41602742373601,1.5s : 0.3s,-8.360110724831799,0.012189186542144924,0.6508700836507303,0.04837858271688771,-0.5313544869422913,0.0079735042527318,-0.0009136453736573458,0.008112072944641113,-0.04604724049568176,0.012423090636730194,-0.1894981056556076,1.478076641512073,0.2799741303127006,0.9778805375099182,0.18836601078510284,-0.09092949330806732, 271, 215, 95, 242
1733261873303,6i,20.41602742373601,1.5s : 0.3s,-8.360110724831799,0.01201635764974403,0.6765331153623706,0.040953203430174945,-0.5494886040687561,-0.001140143722295761,-0.0032210415229201317,0.0068648457527160645,-0.040304526686668396,0.0023630261421203613,-0.19002084909462064,1.4791174614120477,0.28545982651196716,0.9778764247894287,0.1888793706893921,-0.0899026170372963, 271, 215, 95, 242
1733261873313,6i,20.41602742373601,1.5s : 0.3s,-8.360110724831799,0.011929686628740417,0.6966655583965317,0.03466059033467079,-0.5545430183410645,-0.008941341191530228,-0.009600377641618252,-0.0007308125495910645,-0.030882731080055237,-0.01571875810623169,-0.19058854282380117,1.4801062002552479,0.29105064238676287,0.9778579473495483,0.18943680822849274,-0.08892598748207092, 271, 215, 95, 242
1733261873323,6i,20.41602742373601,1.5s : 0.3s,-8.360110724831799,0.011955877587603738,0.718235510414648,0.032279677046751894,-0.572536289691925,-0.011954841203987598,-0.02327607572078705,-0.005052387714385986,-0.014550760388374329,-0.028367698192596436,-0.19126720604567707,1.4810768200783033,0.2967575501913438,0.9778155088424683,0.19010314345359802,-0.08796527981758118, 271, 215, 95, 242
1733261873333,6i,20.41602742373601,1.5s : 0.3s,-8.360110724831799,0.012130866284599567,0.7366509828910662,0.036554039238396396,-0.5801854133605957,-0.018894772976636887,-0.03302137926220894,-0.003517448902130127,-0.0025398731231689453,-0.03629565238952637,-0.19207320649121884,1.4820236300143437,0.3025755374860239,0.9777454137802124,0.19089438021183014,-0.08702582120895386, 271, 215, 95, 242
1733261873343,6i,20.41602742373601,1.5s : 0.3s,-8.360110724831799,0.012410669688419853,0.7429114251216511,0.03941747206072487,-0.5746168494224548,-0.03305511176586151,-0.029246516525745392,0.0029298067092895508,-0.005288764834403992,-0.038951024413108826,-0.19289943990781178,1.4828680539057202,0.30840958741762026,0.9776608943939209,0.1917053610086441,-0.08618625998497009, 271, 215, 95, 242
1733261873353,6i,20.41602742373601,1.5s : 0.3s,-8.360110724831799,0.012730019966846607,0.741249744007097,0.03663046258253246,-0.5396484732627869,-0.04398072883486748,-0.03158876672387123,0.006030082702636719,-0.008391052484512329,-0.03514283895492554,-0.19369728351443738,1.4835477834648292,0.3140501745021422,0.9775667786598206,0.19248834252357483,-0.08550835400819778, 271, 215, 95, 242
1733261873363,6i,20.41602742373601,1.5s : 0.3s,-8.360110724831799,0.013088192467899011,0.7089757866284104,0.03886709249619372,-0.47037753462791443,-0.03919840231537819,-0.028800569474697113,0.0028486251831054688,0.006493419408798218,-0.03821481019258499,-0.19445200779768562,1.4840862619496753,0.31916678864540415,0.9774676561355591,0.19322890043258667,-0.08496934175491333, 271, 215, 95, 242
1733261873373,6i,20.41602742373601,1.5s : 0.3s,-8.360110724831799,0.013494537482747497,0.6584218272819049,0.04651383732614928,-0.40111324191093445,-0.0383046455681324,-0.0145832858979702,-0.0012531876564025879,0.024907857179641724,-0.03926277160644531,-0.19506151387447,1.4845391608090104,0.3235533990179496,0.9773885011672974,0.19382688403129578,-0.08451647311449051, 271, 215, 95, 242
1733261873383,6i,20.41602742373601,1.5s : 0.3s,-8.360110724831799,0.013928797389583658,0.6143943759891373,0.043859644605194856,-0.3792942464351654,-0.04091684892773628,-0.012135307304561138,0.0027658939361572266,0.020223990082740784,-0.03882020711898804,-0.19549644762837196,1.484921972748087,0.3274687032977659,0.9773367047309875,0.19425354897975922,-0.08413507044315338, 271, 215, 95, 242
1733261873393,6i,20.41602742373601,1.5s : 0.3s,-8.360110724831799,0.014384073872936932,0.5588328286277436,0.03175483643516367,-0.3170308768749237,-0.045454077422618866,-0.012126252986490726,0.0030037760734558105,-0.002292051911354065,-0.031529247760772705,-0.19595706768526092,1.4851511600188563,0.3310480505965677,0.9772666692733765,0.19470538198947906,-0.08390340954065323, 271, 215, 95, 242
1733261873403,6i,20.41602742373601,1.5s : 0.3s,-8.360110724831799,0.014817808537329861,0.4780297888372328,0.027170291187597305,-0.21214479207992554,-0.048514626920223236,0.0004467638209462166,0.005093693733215332,0.021250814199447632,-0.016145646572113037,-0.19620747533918412,1.485190882550491,0.33373947742219057,0.9772214293479919,0.19495098292827606,-0.08386042714118958, 271, 215, 95, 242
1733261873413,6i,20.41602742373601,1.5s : 0.3s,-8.360110724831799,0.015233144758771178,0.3860887393037705,0.05365675976108885,-0.1231992095708847,-0.0458458736538887,0.0046942392364144325,0.012562751770019531,0.04276593029499054,-0.029871396720409393,-0.19633166803819807,1.4850253294561278,0.33541595252661677,0.9771832823753357,0.19507279992103577,-0.08402012288570404, 271, 215, 95, 242
1733261873423,6i,20.41602742373601,1.5s : 0.3s,-8.360110724831799,0.015677932237209872,0.2974744680363829,0.04224713888812572,-0.06007044017314911,-0.04958464205265045,0.0012385549489408731,-0.0007513761520385742,0.02645854651927948,-0.03292721509933472,-0.19638957318220385,1.4847161465570102,0.33633572905543646,0.9771460890769958,0.19512958824634552,-0.0843212828040123, 271, 215, 95, 242
1733261873433,6i,20.41602742373601,1.5s : 0.3s,-8.360110724831799,0.016161761341490628,0.2141818951008822,0.03918235415739795,-0.0020966206211596727,-0.052541013807058334,0.0033589638769626617,-0.0013971924781799316,0.014669939875602722,-0.036305613815784454,-0.19639861355800167,1.4842539081069115,0.3366556324969723,0.9771053194999695,0.19513845443725586,-0.08477280288934708, 271, 215, 95, 242
1733261873443,6i,20.41602742373601,1.5s : 0.3s,-8.360110724831799,0.016699888733443077,0.1408874341886828,0.05021119011646201,0.0491749569773674,-0.05960411950945854,-0.0008315537124872208,0.0009694099426269531,0.01814618706703186,-0.04680747538805008,-0.19637029459533437,1.4836336094158713,0.3364121323881775,0.9770581126213074,0.19511067867279053,-0.08537936955690384, 271, 215, 95, 242
1733261873453,6i,20.41602742373601,1.5s : 0.3s,-8.360110724831799,0.017327981359570508,0.10245082282364124,0.05825375336921958,0.11742351949214935,-0.06089841201901436,-0.003917891066521406,0.0023415088653564453,0.02379971742630005,-0.05311864614486694,-0.19633124128894333,1.4828473276935068,0.3355661798993863,0.9769981503486633,0.19507236778736115,-0.08614823967218399, 271, 215, 95, 242
1733261873463,6i,20.41602742373601,1.5s : 0.3s,-8.360110724831799,0.018082503235648563,0.08447623120009726,0.06791369362961117,0.21678899228572845,-0.06914568692445755,-0.007526273839175701,0.003374338150024414,0.03347146511077881,-0.05899614095687866,-0.19625580307579032,1.4818519896554874,0.3338790332199449,0.9769265651702881,0.1949983835220337,-0.08712194859981537, 271, 215, 95, 242
1733261873473,6i,20.41602742373601,1.5s : 0.3s,-8.360110724831799,0.018967603863994133,0.17090869255128663,0.07485395712940021,0.3119778037071228,-0.06956353783607483,-0.00041217217221856117,0.003385007381439209,0.03962302207946777,-0.06341665983200073,-0.19606681083878427,1.4806167671818797,0.3311735013629073,0.9768549203872681,0.19481301307678223,-0.0883319228887558, 271, 215, 95, 242
1733261873483,6i,20.41602742373601,1.5s : 0.3s,-8.360110724831799,0.019906618114376207,0.27421250823735716,0.06535292899631731,0.3846167325973511,-0.07503700256347656,0.004693673457950354,0.0023343563079833984,0.03006131947040558,-0.05798166245222092,-0.1957344537462788,1.479182691680005,0.3276311334719538,0.9767916202545166,0.19448702037334442,-0.089738629758358, 271, 215, 95, 242
1733261873493,6i,20.41602742373601,1.5s : 0.3s,-8.360110724831799,0.02086949435218414,0.3711333752434968,0.04998732295157459,0.4380336403846741,-0.08779674023389816,0.01605791412293911,0.0018268227577209473,0.01825752854347229,-0.04649793356657028,-0.1952611194808126,1.4775417508812632,0.32345070084753613,0.9767345190048218,0.19402270019054413,-0.09134992212057114, 271, 215, 95, 242
1733261873503,6i,20.41602742373601,1.5s : 0.3s,-8.360110724831799,0.02183820858192276,0.45034402179991095,0.043844594710319734,0.4617508053779602,-0.10251963138580322,0.026343075558543205,0.007048130035400391,0.009470313787460327,-0.04222541302442551,-0.19462159758515776,1.4756789282807368,0.3188835092834148,0.9766860008239746,0.19339528679847717,-0.09318101406097412, 271, 215, 95, 242
1733261873513,6i,20.41602742373601,1.5s : 0.3s,-8.360110724831799,0.022796210635604365,0.5082822889125306,0.03715161011701993,0.4657468795776367,-0.11048514395952225,0.02925311215221882,0.006960630416870117,2.8342008590698242e-05,-0.03649371117353439,-0.19390294023684018,1.4736828423507196,0.3141897059244521,0.9766361713409424,0.1926901489496231,-0.09514383226633072, 271, 215, 95, 242
1733261873523,6i,20.41602742373601,1.5s : 0.3s,-8.360110724831799,0.023737380042640543,0.5542126721056219,0.03421534558692929,0.475212961435318,-0.12791717052459717,0.027185533195734024,0.0003215670585632324,-0.007950693368911743,-0.03327721357345581,-0.1931552736047545,1.47157555513756,0.3094603079230962,0.9765766859054565,0.19195644557476044,-0.0972159206867218, 271, 215, 95, 242
1733261873533,6i,20.41602742373601,1.5s : 0.3s,-8.360110724831799,0.02467883469617781,0.6050349492355604,0.04426217307738174,0.520389974117279,-0.14045506715774536,0.015831945464015007,-0.005269765853881836,-0.015618905425071716,-0.04107820987701416,-0.19246412015592393,1.4692179281617395,0.30444248405046914,0.9764764308929443,0.1912781000137329,-0.09953147917985916, 271, 215, 95, 242
1733261873543,6i,20.41602742373601,1.5s : 0.3s,-8.360110724831799,0.025632450854310547,0.6644360528748486,0.04848115232013501,0.5785872340202332,-0.1521775871515274,0.012534020468592644,-0.008350670337677002,-0.011024221777915955,-0.046466708183288574,-0.19176277751876106,1.4666713081741096,0.29890209808339624,0.9763529896736145,0.19058965146541595,-0.10203178972005844, 271, 215, 95, 242
1733261873553,6i,20.41602742373601,1.5s : 0.3s,-8.360110724831799,0.026598391611484223,0.7316095706115009,0.04692789976600293,0.6474347710609436,-0.13908922672271729,0.012337211519479752,-0.007213175296783447,0.005637794733047485,-0.04602622240781784,-0.19100178079572416,1.4640163575681249,0.29272616212041747,0.976222574710846,0.18984255194664001,-0.10463901609182358, 271, 215, 95, 242
1733261873563,6i,20.41602742373601,1.5s : 0.3s,-8.360110724831799,0.027590344663316117,0.7994085392050151,0.05571826944197273,0.7045426964759827,-0.11922155320644379,0.012838185764849186,-0.008058667182922363,0.020853951573371887,-0.05103622376918793,-0.1901438417348924,1.4613978857996623,0.28585904056738876,0.9761066436767578,0.18900014460086823,-0.107212595641613, 271, 215, 95, 242
1733261873573,6i,20.41602742373601,1.5s : 0.3s,-8.360110724831799,0.028594838539619926,0.8615974010175309,0.05067149432993351,0.7413478493690491,-0.11790542304515839,0.015313593670725822,-0.004980862140655518,0.017918020486831665,-0.04713529348373413,-0.18920245071654213,1.4588283458618205,0.278544963051813,0.976004421710968,0.18807563185691833,-0.1097402274608612, 271, 215, 95, 242
1733261873583,6i,20.41602742373601,1.5s : 0.3s,-8.360110724831799,0.029581638037405742,0.9029708676006358,0.03860371810566187,0.7354472279548645,-0.1156863421201706,0.031189728528261185,0.003916025161743164,-0.0010436177253723145,-0.038390398025512695,-0.18815651935997818,1.4562384014124057,0.27106774207335127,0.9759119153022766,0.1870482712984085,-0.11229008436203003, 271, 215, 95, 242
1733261873593,6i,20.41602742373601,1.5s : 0.3s,-8.360110724831799,0.030500651776286206,0.9100907394748637,0.028123709326186203,0.6918928027153015,-0.10319345444440842,0.055502258241176605,0.013176798820495605,-0.016359806060791016,-0.018699511885643005,-0.1868947676167057,1.4537885418718606,0.26387615518301916,0.9758673310279846,0.18580864369869232,-0.11470803618431091, 271, 215, 95, 242
1733261873603,6i,20.41602742373601,1.5s : 0.3s,-8.360110724831799,0.031344331749145825,0.9071385949017011,0.036145282792758374,0.6449416875839233,-0.10998393595218658,0.06870704144239426,0.009193122386932373,-0.032237932085990906,-0.013516053557395935,-0.18550647615152296,1.4514632215769319,0.257186289470879,0.9758532047271729,0.1844443380832672,-0.1170075312256813, 271, 215, 95, 242
1733261873613,6i,20.41602742373601,1.5s : 0.3s,-8.360110724831799,0.03212431598127684,0.883456608410155,0.041071681148555785,0.602525532245636,-0.11400584876537323,0.08363725990056992,0.003009974956512451,-0.03816264867782593,-0.014880701899528503,-0.184005130142784,1.4491741320897948,0.25099176925908995,0.9758565425872803,0.18296854197978973,-0.11927449703216553, 271, 215, 95, 242
1733261873623,6i,20.41602742373601,1.5s : 0.3s,-8.360110724831799,0.03284207222038051,0.8517681948303713,0.03595962321006742,0.5652130246162415,-0.09149565547704697,0.10546845197677612,-0.001303255558013916,-0.034222498536109924,-0.01096433401107788,-0.182372265424421,1.4470589177834854,0.2452001521649038,0.9758974313735962,0.18136300146579742,-0.12137510627508163, 271, 215, 95, 242
1733261873633,6i,20.41602742373601,1.5s : 0.3s,-8.360110724831799,0.03349911280746394,0.8178943205457337,0.03367879165456371,0.5351765155792236,-0.0736578032374382,0.12092810869216919,-0.011689841747283936,-0.030993014574050903,-0.006086185574531555,-0.18056265306344327,1.4452447536960722,0.2398020423537099,0.9759997129440308,0.1795831024646759,-0.12318624556064606, 271, 215, 95, 242
1733261873643,6i,20.41602742373601,1.5s : 0.3s,-8.360110724831799,0.03412200580138776,0.7896313847161492,0.045517961554223184,0.5217905640602112,-0.051709044724702835,0.14256951212882996,-0.026306629180908203,-0.03481908142566681,-0.012941315770149231,-0.17860466740586298,1.4436681279294177,0.234628741080549,0.9761511087417603,0.1776566058397293,-0.12476921826601028, 271, 215, 95, 242
1733261873653,6i,20.41602742373601,1.5s : 0.3s,-8.360110724831799,0.03474545909796056,0.7643088074545503,0.04954368971762167,0.5065311789512634,-0.0326746329665184,0.1498442143201828,-0.032888710498809814,-0.027618780732154846,-0.024700462818145752,-0.17649819325886645,1.4423513870850708,0.22963616290983335,0.9763548970222473,0.17558325827121735,-0.12610208988189697, 271, 215, 95, 242
1733261873663,6i,20.41602742373601,1.5s : 0.3s,-8.360110724831799,0.03538879532717976,0.7417608210091733,0.04624030136663572,0.4933472275733948,-0.01972527988255024,0.1510244607925415,-0.033299267292022705,-0.008088663220405579,-0.031046703457832336,-0.1743608364943931,1.441227096807497,0.22481326337972368,0.9765825271606445,0.17347870767116547,-0.12724792957305908, 271, 215, 95, 242
1733261873673,6i,20.41602742373601,1.5s : 0.3s,-8.360110724831799,0.036083309235425194,0.7394457944559663,0.0535044030138655,0.5191473960876465,-0.011417281813919544,0.13691449165344238,-0.030989885330200195,0.013273656368255615,-0.04154706001281738,-0.1722850276477861,1.4401989850247157,0.21992073910296853,0.9768059253692627,0.17143400013446808,-0.12829849123954773, 271, 215, 95, 242
1733261873683,6i,20.41602742373601,1.5s : 0.3s,-8.360110724831799,0.03681191747712277,0.7446668110003357,0.05399149798665644,0.5614132285118103,-0.017216358333826065,0.1304379105567932,-0.023185253143310547,0.03005509078502655,-0.03839553892612457,-0.17025975228355758,1.439143445054199,0.21466384641520314,0.9770122766494751,0.16943834722042084,-0.12937481701374054, 271, 215, 95, 242
1733261873693,6i,20.41602742373601,1.5s : 0.3s,-8.360110724831799,0.037560266935044356,0.7585083990965901,0.04648441934169334,0.5800130367279053,-0.024750974029302597,0.11866115033626556,-0.016177654266357422,0.023500949144363403,-0.03669863939285278,-0.16827104229714598,1.4379673683012488,0.20907800725046946,0.9771915078163147,0.1674780696630478,-0.13056813180446625, 271, 215, 95, 242
1733261873703,6i,20.41602742373601,1.5s : 0.3s,-8.360110724831799,0.03830248485483711,0.778675037281405,0.034203404618222286,0.6064424514770508,-0.03107917681336403,0.10311514884233475,-0.012462496757507324,0.016479521989822388,-0.02725774049758911,-0.16638551684874786,1.4367029389125634,0.20325245238402959,0.9773368239402771,0.1656188666820526,-0.1318455934524536, 271, 215, 95, 242
1733261873713,6i,20.41602742373601,1.5s : 0.3s,-8.360110724831799,0.039012477725324096,0.7846288401536852,0.01942853858512816,0.5984138250350952,-0.04273609817028046,0.09283082187175751,-0.0027608871459960938,0.007145360112190247,-0.01785467565059662,-0.16460213870202772,1.435334537967001,0.19731288508569214,0.9774465560913086,0.16385985910892487,-0.1332225203514099, 271, 215, 95, 242
1733261873723,6i,20.41602742373601,1.5s : 0.3s,-8.360110724831799,0.03967144001078732,0.7739718056552742,0.01644001814667931,0.5432836413383484,-0.05543471872806549,0.07611865550279617,-0.0011482834815979004,-0.013110965490341187,-0.009851813316345215,-0.16300175844129192,1.4338959703472791,0.191661538481942,0.9775124788284302,0.16228090226650238,-0.1346641331911087, 271, 215, 95, 242
1733261873733,6i,20.41602742373601,1.5s : 0.3s,-8.360110724831799,0.04027991004503081,0.7407558855947759,0.040730378724561825,0.4838509261608124,-0.08734684437513351,0.06879309564828873,-0.007487177848815918,-0.03912711143493652,-0.00848381221294403,-0.16156368920928652,1.4323574131139083,0.18661706338921671,0.9775341153144836,0.16086173057556152,-0.1361999809741974, 271, 215, 95, 242
1733261873743,6i,20.41602742373601,1.5s : 0.3s,-8.360110724831799,0.040814484715362045,0.7042230756120065,0.06003570718262674,0.4469159245491028,-0.11863512545824051,0.05592972785234451,-0.00781792402267456,-0.0576673299074173,-0.014752805233001709,-0.16032779544950762,1.4305568098927242,0.1820547955141582,0.9774835109710693,0.1596418023109436,-0.13798761367797852, 271, 215, 95, 242
1733261873753,6i,20.41602742373601,1.5s : 0.3s,-8.360110724831799,0.04134890040438921,0.6725036753121044,0.05830492788017799,0.42945384979248047,-0.11928493529558182,0.052410632371902466,-0.007977426052093506,-0.05203874409198761,-0.02505582571029663,-0.1591705748920596,1.4286353873827775,0.1777121960972831,0.9773988723754883,0.1584993153810501,-0.1398916095495224, 271, 215, 95, 242
1733261873763,6i,20.41602742373601,1.5s : 0.3s,-8.360110724831799,0.0418756870231661,0.638480596709304,0.03895660800384673,0.3972058892250061,-0.12301265448331833,0.050868988037109375,-0.006668448448181152,-0.03376716375350952,-0.018246307969093323,-0.1580665371293748,1.4267831294690179,0.1736507857335191,0.9773107171058655,0.15740914642810822,-0.1417267918586731, 271, 215, 95, 242
1733261873773,6i,20.41602742373601,1.5s : 0.3s,-8.360110724831799,0.04237360402308698,0.6009405659375424,0.045530744911923896,0.3568483591079712,-0.1398952305316925,0.04779090732336044,0.00019156932830810547,-0.044549793004989624,-0.009398296475410461,-0.15704142737415988,1.4248572877620944,0.16994068885127955,0.9771950840950012,0.15639673173427582,-0.14363206923007965, 271, 215, 95, 242
1733261873783,6i,20.41602742373601,1.5s : 0.3s,-8.360110724831799,0.04276250017172922,0.5671130657574931,0.06079869308438782,0.32975733280181885,-0.1569734662771225,0.050092145800590515,0.014600753784179688,-0.05872315168380737,0.005906820297241211,-0.1560661189261612,1.4228338015607216,0.16657008608412413,0.9770526885986328,0.15543334186077118,-0.14563150703907013, 271, 215, 95, 242
1733261873793,6i,20.41602742373601,1.5s : 0.3s,-8.360110724831799,0.04308682337548202,0.5502000597784065,0.054655589270023695,0.34016019105911255,-0.16715233027935028,0.0554666742682457,0.022300124168395996,-0.04855626821517944,0.011498987674713135,-0.15505759796813992,1.4206789894807286,0.16331228010521162,0.9768912196159363,0.15443700551986694,-0.14775991439819336, 271, 215, 95, 242
1733261873803,6i,20.41602742373601,1.5s : 0.3s,-8.360110724831799,0.043365370281600035,0.549307328705913,0.042534388055594424,0.36201128363609314,-0.1727287620306015,0.05662624537944794,0.019650816917419434,-0.036976173520088196,0.007468745112419128,-0.15397796131867275,1.4184102714041082,0.15988244223478823,0.9767177104949951,0.1533702313899994,-0.15000104904174805, 271, 215, 95, 242
1733261873813,6i,20.41602742373601,1.5s : 0.3s,-8.360110724831799,0.043612266087853874,0.5523611715452063,0.0367464490572936,0.38993319869041443,-0.16999183595180511,0.06541600823402405,0.010376453399658203,-0.034773290157318115,0.005783513188362122,-0.15279881745691898,1.4161018530337646,0.15621854387952372,0.9765467643737793,0.15220493078231812,-0.15228305757045746, 271, 215, 95, 242
1733261873823,6i,20.41602742373601,1.5s : 0.3s,-8.360110724831799,0.04384594062000477,0.5698337343588723,0.03434367424141056,0.41871145367622375,-0.1585204005241394,0.08214089274406433,0.00194627046585083,-0.03426744043827057,0.001201048493385315,-0.15145344454715592,1.4138420954953768,0.1522879632262346,0.9764014482498169,0.15087509155273438,-0.15452128648757935, 271, 215, 95, 242
1733261873833,6i,20.41602742373601,1.5s : 0.3s,-8.360110724831799,0.04408052011979738,0.5977243440727863,0.03597558586044226,0.4615806043148041,-0.15355972945690155,0.08702752739191055,-0.005640983581542969,-0.035449132323265076,-0.0024043917655944824,-0.1499169299490589,1.4116175921981293,0.1480499791555203,0.976283073425293,0.14935599267482758,-0.15672947466373444, 271, 215, 95, 242
1733261873843,6i,20.41602742373601,1.5s : 0.3s,-8.360110724831799,0.044335052514030665,0.6361346698888644,0.03386627866978416,0.5134252905845642,-0.14755462110042572,0.08885129541158676,-0.013127684593200684,-0.029721304774284363,-0.009551584720611572,-0.14827553119423764,1.4093816498463294,0.14331676489030246,0.9761708974838257,0.14773280918598175,-0.15895119309425354, 271, 215, 95, 242
1733261873853,6i,20.41602742373601,1.5s : 0.3s,-8.360110724831799,0.0446129616622618,0.6922739356404937,0.021544742547614473,0.5899275541305542,-0.1498023271560669,0.08540169894695282,-0.012176215648651123,-0.01090066134929657,-0.014038920402526855,-0.14652573690531814,1.4070963504126508,0.13798298765252756,0.9760587215423584,0.14600197970867157,-0.16122350096702576, 271, 215, 95, 242
1733261873863,6i,20.41602742373601,1.5s : 0.3s,-8.360110724831799,0.044913002623958496,0.7732540240479184,0.019050240247088696,0.6988717317581177,-0.14936888217926025,0.07911767065525055,-0.005560457706451416,0.002001643180847168,-0.01811039447784424,-0.1446663755474505,1.4046532252436843,0.13170873862612034,0.9759279489517212,0.14416229724884033,-0.16365227103233337, 271, 215, 95, 242
1733261873873,6i,20.41602742373601,1.5s : 0.3s,-8.360110724831799,0.04525298317422874,0.8610713841009517,0.031829249324572616,0.7781609296798706,-0.1436454802751541,0.08716601133346558,-0.005284726619720459,0.010695219039916992,-0.02950906753540039,-0.14261980266771113,1.4021549314067572,0.12448201245681179,0.9758048057556152,0.14213679730892181,-0.16613906621932983, 271, 215, 95, 242
1733261873883,6i,20.41602742373601,1.5s : 0.3s,-8.360110724831799,0.04561460365008849,0.9607176411821712,0.024762996243234688,0.872713029384613,-0.15774719417095184,0.07838650792837143,-0.01341933012008667,0.0006786137819290161,-0.020800650119781494,-0.14040726217631322,1.399508083800515,0.1164131861341917,0.9756691455841064,0.13994638621807098,-0.16877448558807373, 271, 215, 95, 242
1733261873893,6i,20.41602742373601,1.5s : 0.3s,-8.360110724831799,0.04598476134892192,1.0979401177790264,0.022632995685101177,1.0441361665725708,-0.15558551251888275,0.07731591165065765,-0.01671421527862549,-0.0025750547647476196,-0.015041828155517578,-0.1380072275638606,1.3965886294393366,0.1070209233533372,0.9755002856254578,0.13756956160068512,-0.17167991399765015, 271, 215, 95, 242
1733261873903,6i,20.41602742373601,1.5s : 0.3s,-8.360110724831799,0.04637412271656625,1.2497464933542537,0.03332328493644899,1.1853388547897339,-0.1427631825208664,0.08593989163637161,-0.01601707935333252,0.016780361533164978,-0.023923084139823914,-0.13525825103655914,1.3936059710217403,0.09608408659271282,0.97535240650177,0.13484621047973633,-0.17465472221374512, 271, 215, 95, 242
1733261873913,6i,20.41602742373601,1.5s : 0.3s,-8.360110724831799,0.046796089948648395,1.4336955815289736,0.043165845027017126,1.3783458471298218,-0.15250369906425476,0.08559021353721619,-0.021508514881134033,0.02233843505382538,-0.03002779185771942,-0.1321443266526219,1.3904129328490882,0.08355392028773913,0.9751980304718018,0.13176007568836212,-0.1778426170349121, 271, 215, 95, 242
1733261873923,6i,20.41602742373601,1.5s : 0.3s,-8.360110724831799,0.04726453031209099,1.626364939035226,0.040975881986808675,1.5395764112472534,-0.1317095160484314,0.09795285016298294,-0.019123315811157227,-0.0018591731786727905,-0.03619205951690674,-0.12858653785643323,1.3870872344670837,0.06917531557653246,0.975055992603302,0.12823247909545898,-0.18116934597492218, 271, 215, 95, 242
1733261873933,6i,20.41602742373601,1.5s : 0.3s,-8.360110724831799,0.04779531393582295,1.7984032432865695,0.04529814089809622,1.634421944618225,-0.10126585513353348,0.10320673137903214,-0.0233955979347229,-0.0051978155970573425,-0.03843891620635986,-0.12467645316741757,1.3839293170421243,0.053906418297665314,0.9749642014503479,0.12435370683670044,-0.18433932960033417, 271, 215, 95, 242
1733261873943,6i,20.41602742373601,1.5s : 0.3s,-8.360110724831799,0.04857202073940413,1.96012705803209,0.06851150264431928,1.7380152940750122,-0.08905868232250214,0.09594832360744476,-0.04232853651046753,-0.02171635627746582,-0.049300312995910645,-0.12053401058127738,1.3809873862503956,0.037653721208936605,0.9749152660369873,0.12024235725402832,-0.1873023957014084, 271, 215, 95, 242
1733261873953,6i,20.41602742373601,1.5s : 0.3s,-8.360110724831799,0.04938397149083929,2.096696295666234,0.06970034295627744,1.7958014011383057,-0.087275430560112,0.09310460090637207,-0.031617820262908936,-0.056520186364650726,-0.025766640901565552,-0.11626068507603547,1.378044573525903,0.020511771196200717,0.9748553037643433,0.11599895358085632,-0.19026726484298706, 271, 215, 95, 242
1733261873963,6i,20.41602742373601,1.5s : 0.3s,-8.360110724831799,0.050012447962240886,2.187828710410274,0.07200940550973046,1.78465735912323,-0.06301300972700119,0.11140766739845276,-0.006866276264190674,-0.0679592713713646,0.02279794216156006,-0.11178631693963063,1.3752694891696708,0.0031461272430754984,0.9748228788375854,0.11155364662408829,-0.19307073950767517, 271, 215, 95, 242
1733261873973,6i,20.41602742373601,1.5s : 0.3s,-8.360110724831799,0.05054509323263963,2.238518501320901,0.04062102127686972,1.753455400466919,-0.04621192440390587,0.09472483396530151,0.005225718021392822,-0.03192611783742905,0.02456587553024292,-0.10729667166337775,1.3728343079816607,-0.01390182513288109,0.9748311042785645,0.10709091275930405,-0.19554057717323303, 271, 215, 95, 242
1733261873983,6i,20.41602742373601,1.5s : 0.3s,-8.360110724831799,0.05099658014728186,2.2989412586079885,0.01722340220673299,1.817442536354065,-0.031664274632930756,0.06388505548238754,0.00970226526260376,0.012795671820640564,0.006227552890777588,-0.10300220898651183,1.3705593912925875,-0.031235600061717245,0.9748253226280212,0.10282017290592194,-0.19784735143184662, 271, 215, 95, 242
1733261873993,6i,20.41602742373601,1.5s : 0.3s,-8.360110724831799,0.05132412673995159,2.353227487484729,0.056423262159329766,1.8485349416732788,0.0195818692445755,0.055925402790308,0.023327946662902832,0.05121903866529465,0.004000186920166016,-0.09876752688855414,1.3686898138007535,-0.048993338398608276,0.9748715162277222,0.09860702604055405,-0.19975513219833374, 271, 215, 95, 242
1733261874003,6i,20.41602742373601,1.5s : 0.3s,-8.360110724831799,0.051375274210573904,2.425583711938085,0.11082345684783593,1.9347319602966309,0.0577734149992466,0.01736079901456833,0.01768702268600464,0.10940025746822357,-0.0007690787315368652,-0.09459819720723033,1.3672322412930664,-0.06731951879514997,0.9749735593795776,0.09445717185735703,-0.20125722885131836, 271, 215, 95, 242
1733261874013,6i,20.41602742373601,1.5s : 0.3s,-8.360110724831799,0.05144402829733549,2.49936834662859,0.16900527723802425,1.990445613861084,0.11784128099679947,0.006496966350823641,-0.012976527214050293,0.1651020050048828,-0.03370046615600586,-0.09049938148957218,1.3663437150984852,-0.0866677138737261,0.9751652479171753,0.09037590026855469,-0.20220035314559937, 271, 215, 95, 242
1733261874023,6i,20.41602742373601,1.5s : 0.3s,-8.360110724831799,0.051568071473721264,2.5217795960473777,0.20398627358933102,1.9158707857131958,0.13719096779823303,-0.03050256334245205,-0.041437387466430664,0.19797277450561523,-0.026459842920303345,-0.08662039514941787,1.3659063830616052,-0.10576312650710717,0.9754127860069275,0.08651211857795715,-0.20269663631916046, 271, 215, 95, 242
1733261874033,6i,20.41602742373601,1.5s : 0.3s,-8.360110724831799,0.05163993125958448,2.51700681437574,0.22133792753884157,1.8496736288070679,0.12709198892116547,-0.07382073998451233,-0.05189567804336548,0.21501974761486053,0.007989048957824707,-0.0832943067498452,1.3656267566687201,-0.12429994663662897,0.9756323099136353,0.08319802582263947,-0.20302686095237732, 271, 215, 95, 242
1733261874043,6i,20.41602742373601,1.5s : 0.3s,-8.360110724831799,0.05173422266511247,2.4853074371211914,0.26537634319099423,1.7923520803451538,0.1242717057466507,-0.110615573823452,-0.039664506912231445,0.2616926431655884,0.01919090747833252,-0.08048101761901905,1.3653757677049252,-0.1423372729550339,0.9758065342903137,0.08039416372776031,-0.20331865549087524, 271, 215, 95, 242
1733261874053,6i,20.41602742373601,1.5s : 0.3s,-8.360110724831799,0.05221180104222376,2.423979527895386,0.30536220011910276,1.691775918006897,0.12135660648345947,-0.15982413291931152,-0.050569355487823486,0.3011213541030884,0.003839746117591858,-0.07823088490764055,1.3652418778845388,-0.15963492865429826,0.9759538769721985,0.07815111428499222,-0.20348569750785828, 271, 215, 95, 242
1733261874063,6i,20.41602742373601,1.5s : 0.3s,-8.360110724831799,0.0531906294597469,2.3818455521716264,0.3213680900665386,1.6871670484542847,0.13755014538764954,-0.22013521194458008,-0.09294170141220093,0.3064235746860504,0.027274206280708313,-0.0766623499504101,1.3651765947172096,-0.17650384116162252,0.9760593771934509,0.07658728212118149,-0.20357419550418854, 271, 215, 95, 242
1733261874073,6i,20.41602742373601,1.5s : 0.3s,-8.360110724831799,0.05493315559331029,2.3309268704184385,0.36921636610628356,1.6236144304275513,0.1541203260421753,-0.2876684367656708,-0.12539196014404297,0.345788836479187,0.03205716609954834,-0.07574657297010023,1.3653403364720893,-0.19316224215341976,0.976161003112793,0.0756741613149643,-0.20342861115932465, 271, 215, 95, 242
1733261874083,6i,20.41602742373601,1.5s : 0.3s,-8.360110724831799,0.05767470788092332,2.288037299458125,0.4206469225857888,1.5922678709030151,0.14182962477207184,-0.36783820390701294,-0.15337061882019043,0.3894968032836914,0.04139477014541626,-0.07569388169515671,1.3655920803804988,-0.20953592819770914,0.9762161374092102,0.07562161982059479,-0.20318366587162018, 271, 215, 95, 242
1733261874093,6i,20.41602742373601,1.5s : 0.3s,-8.360110724831799,0.06169149826586407,2.2543121373437063,0.4474442088708859,1.5670557022094727,0.11416789889335632,-0.44386398792266846,-0.17264437675476074,0.4121631979942322,0.022841572761535645,-0.07645189479615588,1.365578537794972,-0.22586217879726983,0.976157009601593,0.07637744396924973,-0.20318515598773956, 271, 215, 95, 242
1733261874103,6i,20.41602742373601,1.5s : 0.3s,-8.360110724831799,0.06722368001690777,2.22601520917609,0.48455549897024575,1.532827377319336,0.1115095317363739,-0.5204392671585083,-0.19047677516937256,0.44532614946365356,-0.014044582843780518,-0.07799206335302249,1.3654500929137636,-0.2420521937709321,0.9760144948959351,0.07791301608085632,-0.2032863050699234, 271, 215, 95, 242
1733261874113,6i,20.41602742373601,1.5s : 0.3s,-8.360110724831799,0.07417220718870922,2.220797669476635,0.5238255197027732,1.5199824571609497,0.11595221608877182,-0.6003000140190125,-0.22789418697357178,0.47159522771835327,-0.007440149784088135,-0.0803711980799577,1.3653196316866838,-0.25809987460571165,0.975803792476654,0.08028469979763031,-0.20337523519992828, 271, 215, 95, 242
1733261874123,6i,20.41602742373601,1.5s : 0.3s,-8.360110724831799,0.08242272214137587,2.230871323556747,0.552875342621098,1.550694227218628,0.10922227799892426,-0.6853280067443848,-0.25284743309020996,0.4915192425251007,-0.01217186450958252,-0.08354434349165338,1.3650947658412358,-0.2744491664011262,0.9755037426948547,0.08344719558954239,-0.2035415917634964, 271, 215, 95, 242
1733261874133,6i,20.41602742373601,1.5s : 0.3s,-8.360110724831799,0.0919674513321457,2.2682349599432547,0.5893433847984598,1.5903323888778687,0.0936742052435875,-0.7738312482833862,-0.2527874708175659,0.530684769153595,-0.04240041971206665,-0.08745343637852453,1.3646815553227718,-0.29136486241061915,0.9750928282737732,0.08734200149774551,-0.20387636125087738, 271, 215, 95, 242
1733261874143,6i,20.41602742373601,1.5s : 0.3s,-8.360110724831799,0.1026836512032573,2.3388270427420568,0.6222258247498323,1.6509981155395508,0.09415241330862045,-0.8960976004600525,-0.2652401328086853,0.5603159666061401,-0.05346649885177612,-0.09231142156189623,1.364014200432673,-0.3090396527093543,0.9745296835899353,0.09218037128448486,-0.2044375091791153, 271, 215, 95, 242
1733261874153,6i,20.41602742373601,1.5s : 0.3s,-8.360110724831799,0.11444514259225548,2.4024924246736856,0.6519506678063425,1.6305607557296753,0.09874903410673141,-1.0039775371551514,-0.28410840034484863,0.5836090445518494,-0.06101289391517639,-0.09823531655931034,1.3632461094107522,-0.3271465537755385,0.9738208055496216,0.09807739406824112,-0.20506982505321503, 271, 215, 95, 242
1733261874163,6i,20.41602742373601,1.5s : 0.3s,-8.360110724831799,0.1270790182429605,2.4956725994488282,0.6792414056548338,1.6819565296173096,0.08452074229717255,-1.148142695426941,-0.28986769914627075,0.6129152774810791,-0.040993496775627136,-0.10534281131494508,1.3622621548420812,-0.3455500149419606,0.9729121327400208,0.105148084461689,-0.20587842166423798, 271, 215, 95, 242
1733261874173,6i,20.41602742373601,1.5s : 0.3s,-8.360110724831799,0.14053670147889863,2.6094868764450765,0.7059911187651623,1.7257308959960938,0.09261249005794525,-1.2924742698669434,-0.30404800176620483,0.6353299617767334,-0.04831264913082123,-0.11372485509486027,1.361009887173537,-0.3649240631592564,0.9717573523521423,0.11347987502813339,-0.2069057822227478, 271, 215, 95, 242
1733261874183,6i,20.41602742373601,1.5s : 0.3s,-8.360110724831799,0.15477416321873882,2.7086154239402216,0.7314106476432024,1.6833752393722534,0.09208625555038452,-1.4280883073806763,-0.30790436267852783,0.6605671644210815,-0.061704620718955994,-0.12348360936528265,1.3595932035389269,-0.3845098095792564,0.9703341722488403,0.12317003309726715,-0.20804017782211304, 271, 215, 95, 242
1733261874193,6i,20.41602742373601,1.5s : 0.3s,-8.360110724831799,0.1694718311346331,2.7984510498236568,0.7212922381743029,1.6420930624008179,0.09483889490365982,-1.5513404607772827,-0.29853683710098267,0.6552597284317017,-0.0421062707901001,-0.134544010801868,1.358003225108071,-0.40405091526221565,0.9686113595962524,0.13413845002651215,-0.20928221940994263, 271, 215, 95, 242
1733261874203,6i,20.41602742373601,1.5s : 0.3s,-8.360110724831799,0.1842970203762354,2.8937519867663193,0.7029891631346178,1.6219720840454102,0.0866059958934784,-1.6859850883483887,-0.28461724519729614,0.6423191428184509,-0.024756938219070435,-0.14690497599849103,1.356172266527571,-0.42348421573221395,0.9665326476097107,0.14637714624404907,-0.2106861174106598, 271, 215, 95, 242
1733261874213,6i,20.41602742373601,1.5s : 0.3s,-8.360110724831799,0.19920749230540483,3.0011982340990944,0.7019475676435362,1.630358099937439,0.05116864666342735,-1.813646674156189,-0.2682484984397888,0.6486582159996033,-0.003955960273742676,-0.16051716683605274,1.3538412629208714,-0.4432904510231947,0.9640035629272461,0.15982875227928162,-0.21248988807201385, 271, 215, 95, 242
1733261874223,6i,20.41602742373601,1.5s : 0.3s,-8.360110724831799,0.2143141231826046,3.131570669357126,0.7189669367870619,1.6743053197860718,0.02184005081653595,-1.9528119564056396,-0.23628509044647217,0.6781414151191711,-0.034742385149002075,-0.17532501474032275,1.3507412015938864,-0.4635993556504581,0.9609251618385315,0.17442817986011505,-0.21493715047836304, 271, 215, 95, 242
1733261874233,6i,20.41602742373601,1.5s : 0.3s,-8.360110724831799,0.22978890372487848,3.284993297604224,0.7481823469395248,1.7436541318893433,0.006006804294884205,-2.0909111499786377,-0.21705889701843262,0.7142593860626221,-0.049957871437072754,-0.19127804071408297,1.3469262415163665,-0.48495952071387666,0.9572627544403076,0.19011378288269043,-0.21795587241649628, 271, 215, 95, 242
1733261874243,6i,20.41602742373601,1.5s : 0.3s,-8.360110724831799,0.2457202144694313,3.458690045579682,0.7774316932650813,1.8183344602584839,0.015239672735333443,-2.2390429973602295,-0.223283052444458,0.7430976629257202,-0.04848277568817139,-0.20837341718644678,1.3425246337944396,-0.5075118831088455,0.9529889225959778,0.20686878263950348,-0.22139938175678253, 271, 215, 95, 242
1733261874253,6i,20.41602742373601,1.5s : 0.3s,-8.360110724831799,0.26201161689823793,3.641048508053254,0.7855102026728757,1.868092656135559,-0.002142779529094696,-2.391711950302124,-0.20837432146072388,0.7561383247375488,-0.04314225912094116,-0.22672569309138077,1.3374455460932675,-0.5311756480859452,0.9479984045028687,0.22478821873664856,-0.22532086074352264, 271, 215, 95, 242
1733261874263,6i,20.41602742373601,1.5s : 0.3s,-8.360110724831799,0.2783723336086278,3.816998876609575,0.7671301811803786,1.900904655456543,-0.026460370048880577,-2.5168397426605225,-0.16671621799468994,0.7475619316101074,-0.042960166931152344,-0.2461893996735386,1.3315058858116788,-0.5557651665515283,0.9422136545181274,0.24371004104614258,-0.22986695170402527, 271, 215, 95, 242
1733261874273,6i,20.41602742373601,1.5s : 0.3s,-8.360110724831799,0.29470135847959955,3.96974792872721,0.7346501373299031,1.869375467300415,-0.061223942786455154,-2.632412910461426,-0.12607049942016602,0.7229821085929871,-0.03337550163269043,-0.2666472103194902,1.324633595876009,-0.5809407963577925,0.9355798363685608,0.2634986340999603,-0.2350723296403885, 271, 215, 95, 242
1733261874283,6i,20.41602742373601,1.5s : 0.3s,-8.360110724831799,0.31055621910165515,4.108282699996953,0.697777465183861,1.8403313159942627,-0.100644052028656,-2.747986078262329,-0.09335446357727051,0.6915038824081421,0.0008459687232971191,-0.28811261812574,1.3168213743113797,-0.6063641449353152,0.9280255436897278,0.2841431498527527,-0.24089720845222473, 271, 215, 95, 242
1733261874293,6i,20.41602742373601,1.5s : 0.3s,-8.360110724831799,0.32604577922956574,4.25837514050203,0.6938727733693687,1.871253252029419,-0.1433209478855133,-2.8824574947357178,-0.04755127429962158,0.6920150518417358,0.017705082893371582,-0.3105894398029767,1.3078366742397165,-0.6324810047782883,0.9194232225418091,0.3056199252605438,-0.2475024312734604, 271, 215, 95, 242
1733261874303,6i,20.41602742373601,1.5s : 0.3s,-8.360110724831799,0.3414939355919864,4.4165686705113245,0.7213132498480709,1.9112813472747803,-0.17386411130428314,-3.010270833969116,-0.0027639269828796387,0.7212820053100586,0.006118327379226685,-0.33401218870738164,1.2975516709374608,-0.6598504865185155,0.909685492515564,0.3278360962867737,-0.2549434304237366, 271, 215, 95, 242
1733261874313,6i,20.41602742373601,1.5s : 0.3s,-8.360110724831799,0.3568824464229299,4.562205514102796,0.7493744261748224,1.8945703506469727,-0.2117430567741394,-3.1210343837738037,0.036411941051483154,0.7482898235321045,-0.017278343439102173,-0.35823052482888057,1.2859591898640022,-0.6882376896002863,0.8987839818000793,0.3506176471710205,-0.26316285133361816, 271, 215, 95, 242
1733261874323,6i,20.41602742373601,1.5s : 0.3s,-8.360110724831799,0.3721964834393777,4.680402207511075,0.7255385629240111,1.8053953647613525,-0.2757417857646942,-3.2188668251037598,0.08922040462493896,0.7198968529701233,-0.013944417238235474,-0.3832915890281309,1.2730820304979638,-0.7168175699814759,0.886640191078186,0.3739752471446991,-0.27205100655555725, 271, 215, 95, 242
1733261874333,6i,20.41602742373601,1.5s : 0.3s,-8.360110724831799,0.3871013844396778,4.778848323448022,0.6918411618065793,1.7064136266708374,-0.35472795367240906,-3.3129632472991943,0.15674656629562378,0.6737604737281799,0.011024117469787598,-0.40918775542913316,1.2588286784803906,-0.7452206143055937,0.8731606602668762,0.39786428213119507,-0.2815929353237152, 271, 215, 95, 242
1733261874343,6i,20.41602742373601,1.5s : 0.3s,-8.360110724831799,0.40158413869223475,4.886949246120423,0.6831277166154872,1.6789140701293945,-0.41327017545700073,-3.428179979324341,0.210610032081604,0.6495652198791504,0.019285142421722412,-0.43586738118239754,1.2430034506487642,-0.7741738604332586,0.8582376837730408,0.4221968352794647,-0.2918528616428375, 271, 215, 95, 242
1733261874353,6i,20.41602742373601,1.5s : 0.3s,-8.360110724831799,0.41586115566317944,5.008211540678558,0.722582495353844,1.6762142181396484,-0.4363517761230469,-3.5498292446136475,0.2413238286972046,0.6810468435287476,-0.007966756820678711,-0.4632778731600753,1.2255047264772976,-0.8043778878075186,0.8417907953262329,0.44688287377357483,-0.3027937114238739, 271, 215, 95, 242
1733261874363,6i,20.41602742373601,1.5s : 0.3s,-8.360110724831799,0.4297788481929435,5.115561868548121,0.7682283932351243,1.6161381006240845,-0.49628618359565735,-3.6320531368255615,0.2993088364601135,0.7068622708320618,-0.0305747389793396,-0.49126528275129366,1.2064120746092262,-0.8356343584073648,0.8238449096679688,0.4717419147491455,-0.3142280876636505, 271, 215, 95, 242
1733261874373,6i,20.41602742373601,1.5s : 0.3s,-8.360110724831799,0.44304985599150865,5.191762179514455,0.7776749997448782,1.4912809133529663,-0.5747940540313721,-3.680210590362549,0.4039268493652344,0.6642860174179077,-0.01859012246131897,-0.5196099278757399,1.1855766323810273,-0.8673052442636681,0.8044013381004333,0.4965415894985199,-0.32616689801216125, 271, 215, 95, 242
1733261874383,6i,20.41602742373601,1.5s : 0.3s,-8.360110724831799,0.45568351232516374,5.250014055092629,0.810722799467954,1.342233419418335,-0.6506858468055725,-3.7425944805145264,0.4954105615615845,0.6412398815155029,-0.02551954984664917,-0.5484055541112713,1.1631915485538529,-0.8989212718141658,0.783443808555603,0.5213272571563721,-0.33828043937683105, 271, 215, 95, 242
1733261874393,6i,20.41602742373601,1.5s : 0.3s,-8.360110724831799,0.4680820892104414,5.336876206698434,0.8578055249490982,1.3643144369125366,-0.7126661539077759,-3.8399078845977783,0.540952205657959,0.6656588912010193,-0.009963452816009521,-0.5776683553493452,1.138490961700268,-0.9317228272197355,0.7606682777404785,0.5460721254348755,-0.3509831726551056, 271, 215, 95, 242
1733261874403,6i,20.41602742373601,1.5s : 0.3s,-8.360110724831799,0.48077126265268416,5.448636121064594,0.9172128733165199,1.407374620437622,-0.761427640914917,-3.9470162391662598,0.5717523097991943,0.7168393135070801,-0.022806793451309204,-0.6068716748002232,1.1113354827327442,-0.9667911508046887,0.7362463474273682,0.5703005194664001,-0.36427807807922363, 271, 215, 95, 242
1733261874413,6i,20.41602742373601,1.5s : 0.3s,-8.360110724831799,0.49402600354750115,5.572878004881552,0.9691399784922875,1.4552631378173828,-0.8243136405944824,-4.038619041442871,0.6085381507873535,0.7536479830741882,-0.03046858310699463,-0.635861670481214,1.0811788643000209,-1.0046938728291783,0.7100348472595215,0.593870997428894,-0.3783753514289856, 271, 215, 95, 242
1733261874423,6i,20.41602742373601,1.5s : 0.3s,-8.360110724831799,0.5075869172765921,5.687341672201871,0.9678060351064443,1.4254906177520752,-0.9120367169380188,-4.105381965637207,0.647081732749939,0.717313289642334,-0.058270037174224854,-0.6644876297029676,1.047887533857731,-1.0449796429583105,0.6820351481437683,0.6166558861732483,-0.39314594864845276, 271, 215, 95, 242
1733261874433,6i,20.41602742373601,1.5s : 0.3s,-8.360110724831799,0.5212116845060893,5.806782308731308,0.9616519224634681,1.401460886001587,-0.9819703102111816,-4.203248023986816,0.6834359765052795,0.6717755794525146,-0.08004534244537354,-0.6928210558387363,1.0113278776798698,-1.0877366764925054,0.65213543176651,0.6387103796005249,-0.40837326645851135, 271, 215, 95, 242
1733261874443,6i,20.41602742373601,1.5s : 0.3s,-8.360110724831799,0.5350836436775166,5.915201547855406,0.9945609547233546,1.3852190971374512,-1.034969687461853,-4.261754035949707,0.7197571396827698,0.6806575059890747,-0.08835446834564209,-0.720649631671258,0.971501673771658,-1.1332225516964594,0.6204375624656677,0.6598729491233826,-0.4238220453262329, 271, 215, 95, 242
1733261874453,6i,20.41602742373601,1.5s : 0.3s,-8.360110724831799,0.5493018491872371,6.007282939187221,1.040492800675028,1.4333847761154175,-1.0948644876480103,-4.273112773895264,0.7770957946777344,0.6881744861602783,-0.07185590267181396,-0.7472075019024955,0.9281287558022103,-1.1818300551535663,0.5872383713722229,0.6795928478240967,-0.43966442346572876, 271, 215, 95, 242
1733261874463,6i,20.41602742373601,1.5s : 0.3s,-8.360110724831799,0.5636629716284914,6.078739512134895,1.0631998684885666,1.4128961563110352,-1.1805108785629272,-4.27703332901001,0.838594377040863,0.6516275405883789,-0.05034857988357544,-0.7719789710367587,0.8810048491436393,-1.233372345056791,0.5527172684669495,0.6975545883178711,-0.45598381757736206, 271, 215, 95, 242
1733261874473,6i,20.41602742373601,1.5s : 0.3s,-8.360110724831799,0.577945409552446,6.135263449592319,1.0569669615389798,1.4028722047805786,-1.2517411708831787,-4.277903079986572,0.8709999322891235,0.5973795056343079,-0.040939003229141235,-0.7952259998492047,0.830369140452571,-1.2877784277569777,0.5168173909187317,0.7140218615531921,-0.472305566072464, 271, 215, 95, 242
1733261874483,6i,20.41602742373601,1.5s : 0.3s,-8.360110724831799,0.5923166815932078,6.195963487419239,1.0359031270629862,1.3318477869033813,-1.3298441171646118,-4.33538818359375,0.8782767653465271,0.5472576022148132,-0.047268688678741455,-0.8166634412588621,0.7759119146461331,-1.3447973757876703,0.4795113205909729,0.7288655042648315,-0.48869624733924866, 271, 215, 95, 242
1733261874493,6i,20.41602742373601,1.5s : 0.3s,-8.360110724831799,0.6068588451379388,6.237834982097982,1.0486975783033523,1.4155895709991455,-1.3428385257720947,-4.300362586975098,0.8734298348426819,0.5684603452682495,-0.11721676588058472,-0.8359729832491694,0.7179793195787012,-1.4050017424500494,0.4410690665245056,0.741949200630188,-0.5049450397491455, 271, 215, 95, 242
1733261874503,6i,20.41602742373601,1.5s : 0.3s,-8.360110724831799,0.6216481953252216,6.2733211235618755,1.0605390820970844,1.3780502080917358,-1.4008395671844482,-4.311188697814941,0.888716459274292,0.568157434463501,-0.11010599136352539,-0.8523689050683602,0.6567388691547205,-1.4682501960095655,0.4018566310405731,0.7528417110443115,-0.5212874412536621, 271, 215, 95, 242
1733261874513,6i,20.41602742373601,1.5s : 0.3s,-8.360110724831799,0.6366589810351947,6.277139080932524,1.0319639508178513,1.239084005355835,-1.4723955392837524,-4.28679084777832,0.9144037961959839,0.46802741289138794,-0.09882122278213501,-0.8670070103706605,0.5930356858703038,-1.5329982131249775,0.3616582155227661,0.7623955607414246,-0.5366157293319702, 271, 215, 95, 242
1733261874523,6i,20.41602742373601,1.5s : 0.3s,-8.360110724831799,0.6515902283484397,6.277509460300576,1.0602843075092712,1.2080798149108887,-1.547102689743042,-4.257274150848389,0.9572799205780029,0.4490126967430115,-0.07877540588378906,-0.8793383282752398,0.5269683875154308,-1.5990482774553305,0.32068949937820435,0.7703171372413635,-0.5511531233787537, 271, 215, 95, 242
1733261874533,6i,20.41602742373601,1.5s : 0.3s,-8.360110724831799,0.6664894483122256,6.275339239722719,1.0637420124109276,1.1245956420898438,-1.6027833223342896,-4.243596076965332,0.9671248197555542,0.42382538318634033,-0.12879711389541626,-0.889200591754591,0.4587829575796712,-1.6664159163819945,0.2790147066116333,0.7765683531761169,-0.5648826956748962, 271, 215, 95, 242
1733261874543,6i,20.41602742373601,1.5s : 0.3s,-8.360110724831799,0.6816798861266258,6.285525197048752,1.0487472853162874,1.2011504173278809,-1.6279879808425903,-4.255249977111816,0.9436310529708862,0.43739962577819824,-0.13458406925201416,-0.8961668612945749,0.38855947293496185,-1.735356824123742,0.23663628101348877,0.780938446521759,-0.5780470967292786, 271, 215, 95, 242
1733261874553,6i,20.41602742373601,1.5s : 0.3s,-8.360110724831799,0.6973025263572974,6.308756636495344,1.0929429127525025,1.2553257942199707,-1.6613150835037231,-4.2635087966918945,0.958099901676178,0.4984484314918518,-0.16768407821655273,-0.8993270605064062,0.31670326064265686,-1.8058576779455033,0.19375555217266083,0.7829084396362305,-0.5911964774131775, 271, 215, 95, 242
1733261874563,6i,20.41602742373601,1.5s : 0.3s,-8.360110724831799,0.7134434358721587,6.319033967996117,1.1213852572647944,1.2087371349334717,-1.7056396007537842,-4.248774528503418,0.9851299524307251,0.5013231039047241,-0.1889418363571167,-0.8992193036163367,0.2440543357740539,-1.8767729078690856,0.1503528356552124,0.7828413844108582,-0.6037827134132385, 271, 215, 95, 242
1733261874573,6i,20.41602742373601,1.5s : 0.3s,-8.360110724831799,0.7299655751401204,6.326209985580791,1.1248746767813658,1.1783077716827393,-1.7581406831741333,-4.239627838134766,1.000084638595581,0.47865867614746094,-0.1898937225341797,-0.8964122683551337,0.17154278360671057,-1.9469090283603476,0.10658954828977585,0.7810916900634766,-0.6152514815330505, 271, 215, 95, 242
1733261874583,6i,20.41602742373601,1.5s : 0.3s,-8.360110724831799,0.7470439094905889,6.344422724959104,1.1390503910243621,1.2481868267059326,-1.7850216627120972,-4.233912467956543,1.0014140605926514,0.4997086524963379,-0.21188896894454956,-0.8901192797632551,0.09960747742942617,-2.0160094606757855,0.06258130818605423,0.7771468162536621,-0.6261999607086182, 271, 215, 95, 242
1733261874593,6i,20.41602742373601,1.5s : 0.3s,-8.360110724831799,0.764660563052136,6.367899075541362,1.1368486418149855,1.276018500328064,-1.836479902267456,-4.2333550453186035,0.9898960590362549,0.5109207034111023,-0.22691553831100464,-0.8802193314913882,0.028873681081671078,-2.083511635121093,0.018389461562037468,0.7708786129951477,-0.6367165446281433, 271, 215, 95, 242
1733261874603,6i,20.41602742373601,1.5s : 0.3s,-8.360110724831799,0.7827300051524333,6.407683072332329,1.1340432713607917,1.3290607929229736,-1.885828971862793,-4.260833740234375,0.9836013317108154,0.5150446891784668,-0.23089289665222168,-0.8669522825066609,-0.04040765338607453,-2.1490417545212814,-0.026142820715904236,0.762360155582428,-0.6466248035430908, 271, 215, 95, 242
1733261874613,6i,20.41602742373601,1.5s : 0.3s,-8.360110724831799,0.8013388339019678,6.42982483389334,1.1420336928994785,1.6192502975463867,-1.7838935852050781,-4.195016860961914,0.97165846824646,0.5415316224098206,-0.258581280708313,-0.8494285307631221,-0.10670718666319355,-2.2116076200546138,-0.07033708691596985,0.7509031295776367,-0.6566560864448547, 271, 215, 95, 242
1733261874623,6i,20.41602742373601,1.5s : 0.3s,-8.360110724831799,0.8217211983071208,6.574161228866402,1.288082628375422,1.863209843635559,-1.9981623888015747,-4.378873825073242,1.0074790716171265,0.7018507122993469,-0.3892921209335327,-0.8264896545105622,-0.16997179094802822,-2.2705325414563977,-0.11459577828645706,0.7355577945709229,-0.6676994562149048, 271, 215, 95, 242
1733261874633,6i,20.41602742373601,1.5s : 0.3s,-8.360110724831799,0.8440207971275905,6.743880415681648,1.354695787808056,1.8718806505203247,-2.073446273803711,-4.532173156738281,0.9730913639068604,0.7949061989784241,-0.5063773393630981,-0.7988701574580733,-0.23254190185116086,-2.3282883994319254,-0.16074396669864655,0.7165684700012207,-0.6787422299385071, 271, 215, 95, 242
1733261874643,6i,20.41602742373601,1.5s : 0.3s,-8.360110724831799,0.8659250377643805,6.822420184226831,1.1538496989911997,1.5282049179077148,-2.2732908725738525,-4.452296257019043,1.0015416145324707,0.5401775240898132,-0.1910281777381897,-0.7708506562289824,-0.29313980514409094,-2.382926536886445,-0.20727591216564178,0.6967456936836243,-0.6867183446884155, 271, 215, 95, 242
1733261874653,6i,20.41602742373601,1.5s : 0.3s,-8.360110724831799,0.8875716480218999,6.8626979024014805,1.2316436307600163,1.3704341650009155,-2.459768772125244,-4.370766639709473,1.1301767826080322,0.4735819101333618,-0.12396228313446045,-0.743170243438059,-0.35212776428114606,-2.433558728815758,-0.2539561688899994,0.676625669002533,-0.6911469101905823, 271, 215, 95, 242
1733261874663,6i,20.41602742373601,1.5s : 0.3s,-8.360110724831799,0.9099248654042121,6.863434224152387,1.3070479548073115,1.2845861911773682,-2.441063165664673,-4.327200412750244,1.122196912765503,0.5820692777633667,-0.3320298194885254,-0.7147972917516562,-0.40844357364028616,-2.4805024777381743,-0.29996180534362793,0.6554643511772156,-0.6931013464927673, 271, 215, 95, 242
1733261874673,6i,20.41602742373601,1.5s : 0.3s,-8.360110724831799,0.9325908733188285,6.84438202618107,1.2248162217886946,1.3699226379394531,-2.4339799880981445,-4.235296249389648,1.0324369668960571,0.6059447526931763,-0.25899738073349,-0.684683749678975,-0.46071617798996334,-2.523435714459813,-0.3443877100944519,0.6324280500411987,-0.693852961063385, 271, 215, 95, 242
1733261874683,6i,20.41602742373601,1.5s : 0.3s,-8.360110724831799,0.9545501620697698,6.809865602064712,1.0835947017902514,1.2306252717971802,-2.514298439025879,-4.171370506286621,0.9479355812072754,0.47862958908081055,-0.2156602144241333,-0.6534746186765115,-0.5099576635167993,-2.5623278028042256,-0.3875718116760254,0.6079488396644592,-0.6929548382759094, 271, 215, 95, 242
1733261874693,6i,20.41602742373601,1.5s : 0.3s,-8.360110724831799,0.9761581757731951,6.767193372008694,1.1322453803007742,1.0836033821105957,-2.5574839115142822,-4.132258892059326,1.0073421001434326,0.45926880836486816,-0.23730498552322388,-0.6224702019980325,-0.5575332546725253,-2.599000210719236,-0.4298580288887024,0.5830438137054443,-0.6894069910049438, 271, 215, 95, 242
1733261874703,6i,20.41602742373601,1.5s : 0.3s,-8.360110724831799,0.9979463424787699,6.735781339981939,1.1993684506467523,1.1100785732269287,-2.5960302352905273,-4.090599536895752,1.081967830657959,0.49202609062194824,-0.16043883562088013,-0.5908247393856798,-0.6030390111309665,-2.632900807295459,-0.47100597620010376,0.557046115398407,-0.6839977502822876, 271, 215, 95, 242
1733261874713,6i,20.41602742373601,1.5s : 0.3s,-8.360110724831799,1.019887737090777,6.712336625473036,1.1975016835892136,1.1411610841751099,-2.619051218032837,-4.059464454650879,1.0877418518066406,0.469180166721344,-0.1752082109451294,-0.5578221980586652,-0.6462108680485922,-2.663700048912337,-0.5108832716941833,0.5293397903442383,-0.6773460507392883, 271, 215, 95, 242
1733261874723,6i,20.41602742373601,1.5s : 0.3s,-8.360110724831799,1.041867616824283,6.680519815183372,1.180667230229086,1.1016435623168945,-2.6649744510650635,-3.9938888549804688,1.0980879068374634,0.39471590518951416,-0.1799372434616089,-0.5241080834454547,-0.6874823958815539,-2.6918191393195765,-0.5494124293327332,0.5004410147666931,-0.6691074967384338, 271, 215, 95, 242
1733261874733,6i,20.41602742373601,1.5s : 0.3s,-8.360110724831799,1.0636271566137,6.638731776059789,1.206531089009674,1.0804961919784546,-2.704655885696411,-3.91291880607605,1.146557331085205,0.3289177417755127,-0.1814846396446228,-0.4901229544260126,-0.7270995416239175,-2.7173822749089953,-0.5864530801773071,0.4707343578338623,-0.6591525077819824, 271, 215, 95, 242
1733261874743,6i,20.41602742373601,1.5s : 0.3s,-8.360110724831799,1.0851435792778408,6.577136283972915,1.2373168078104784,1.1023869514465332,-2.7006282806396484,-3.807874917984009,1.1825928688049316,0.31454959511756897,-0.18299055099487305,-0.45593580966421376,-0.7649181103083562,-2.7401787122396715,-0.6217409372329712,0.4403027296066284,-0.6477436423301697, 271, 215, 95, 242
1733261874753,6i,20.41602742373601,1.5s : 0.3s,-8.360110724831799,1.1065349590387097,6.496956093650653,1.2462821362331788,1.13545560836792,-2.6929233074188232,-3.687037706375122,1.2021331787109375,0.30374130606651306,-0.12584197521209717,-0.42158849673665777,-0.8006670546389506,-2.7601039498213193,-0.6549683809280396,0.4092103838920593,-0.6352663636207581, 271, 215, 95, 242
1733261874763,6i,20.41602742373601,1.5s : 0.3s,-8.360110724831799,1.127809346258565,6.393431916417175,1.2651739209532482,1.1238980293273926,-2.678339958190918,-3.550631046295166,1.2334809303283691,0.26921358704566956,-0.08193832635879517,-0.3874077942834976,-0.8346099001157874,-2.7771981213431807,-0.6861177086830139,0.37778958678245544,-0.6217054128646851, 271, 215, 95, 242
1733261874773,6i,20.41602742373601,1.5s : 0.3s,-8.360110724831799,1.1490555031602931,6.2644378347997804,1.3115698381288132,1.1160147190093994,-2.643873691558838,-3.3972489833831787,1.2907847166061401,0.2294674515724182,-0.037880659103393555,-0.3539089093419251,-0.8669075933288485,-2.7918703917191987,-0.7150859236717224,0.3465670943260193,-0.6070777773857117, 271, 215, 95, 242
1733261874783,6i,20.41602742373601,1.5s : 0.3s,-8.360110724831799,1.1699175831103323,6.112094026969883,1.314692912565628,1.1185874938964844,-2.5793707370758057,-3.243884563446045,1.3046002388000488,0.15076640248298645,0.06087005138397217,-0.3211727198900824,-0.8974221590738519,-2.804235247875626,-0.7417492270469666,0.31567952036857605,-0.5917385816574097, 271, 215, 95, 242
1733261874793,6i,20.41602742373601,1.5s : 0.3s,-8.360110724831799,1.1900230567605992,5.924645147001966,1.3004264471208233,1.156031608581543,-2.480466365814209,-3.0437941551208496,1.2920759916305542,0.05461969971656799,0.1366208791732788,-0.2893198145209015,-0.9259361121033469,-2.8139952820718106,-0.7659682631492615,0.2853003740310669,-0.576104462146759, 271, 215, 95, 242
1733261874803,6i,20.41602742373601,1.5s : 0.3s,-8.360110724831799,1.2093852630126958,5.711779200474448,1.2980032538801753,1.2175883054733276,-2.3933045864105225,-2.8199923038482666,1.2772529125213623,-0.0463290810585022,0.2264752984046936,-0.2586453923438339,-0.9524794445611154,-2.821002221152284,-0.7877510786056519,0.2557712495326996,-0.5603833198547363, 271, 215, 95, 242
1733261874813,6i,20.41602742373601,1.5s : 0.3s,-8.360110724831799,1.227160124805495,5.471995374845908,1.3216180585252641,1.1940627098083496,-2.2947676181793213,-2.6009185314178467,1.265394926071167,-0.177365243434906,0.3376263380050659,-0.22946835888360761,-0.9773083057784989,-2.8256109407784744,-0.807265043258667,0.2274598479270935,-0.5445964932441711, 271, 215, 95, 242
1733261874823,6i,20.41602742373601,1.5s : 0.3s,-8.360110724831799,1.2430480081720654,5.206370999659276,1.3691617245685506,1.145397424697876,-2.209899425506592,-2.3548150062561035,1.245534062385559,-0.3219680190086365,0.4685993194580078,-0.20231262368553196,-1.0006466651887056,-2.8284466914068003,-0.8246508836746216,0.20093531906604767,-0.5287494659423828, 271, 215, 95, 242
1733261874833,6i,20.41602742373601,1.5s : 0.3s,-8.360110724831799,1.2569583198067642,4.916644309707099,1.425451858834078,1.051419734954834,-2.1155121326446533,-2.1119234561920166,1.2262227535247803,-0.45980173349380493,0.5629148483276367,-0.17756066410784646,-1.022760437320024,-2.8299596032867687,-0.8401296138763428,0.17662911117076874,-0.5128201842308044, 271, 215, 95, 242
1733261874843,6i,20.41602742373601,1.5s : 0.3s,-8.360110724831799,1.268976782471027,4.597375414693153,1.5171861713014843,0.9463099241256714,-1.9805127382278442,-1.863463044166565,1.2206718921661377,-0.5838339328765869,0.686259388923645,-0.15538126086287757,-1.0435294930845644,-2.8305490344930697,-0.8537744283676147,0.15475678443908691,-0.49711138010025024, 271, 215, 95, 242
1733261874853,6i,20.41602742373601,1.5s : 0.3s,-8.360110724831799,1.2791984746619929,4.253362031098894,1.6147253153730334,0.8685557246208191,-1.817671537399292,-1.6121948957443237,1.2022159099578857,-0.6986834406852722,0.8208874464035034,-0.13577630220495704,-1.0626493105274362,-2.8302495861084904,-0.8656070828437805,0.1353595107793808,-0.48208126425743103, 271, 215, 95, 242
1733261874863,6i,20.41602742373601,1.5s : 0.3s,-8.360110724831799,1.2877779450303304,3.8714088878395434,1.6900780026395041,0.8329066634178162,-1.6066714525222778,-1.309137225151062,1.1755157709121704,-0.8074522018432617,0.9069439172744751,-0.1189047144541225,-1.079763048844775,-2.828656952348701,-0.8756195902824402,0.1186247244477272,-0.4682078957557678, 271, 215, 95, 242
1733261874873,6i,20.41602742373601,1.5s : 0.3s,-8.360110724831799,1.2949793710057427,3.4401632761650744,1.7635178370724884,0.7859796285629272,-1.301947832107544,-1.0161561965942383,1.1597886085510254,-0.9074270725250244,0.9702894687652588,-0.10485420179983092,-1.0940984477181759,-2.825679933528372,-0.8836351037025452,0.10466217249631882,-0.4563276469707489, 271, 215, 95, 242
1733261874883,6i,20.41602742373601,1.5s : 0.3s,-8.360110724831799,1.300868640746249,2.9641646294364565,1.8601684071926916,0.8347343802452087,-0.9265106916427612,-0.6919117569923401,1.113656997680664,-1.0029014348983765,1.1018998622894287,-0.09358360806731998,-1.104958382730392,-2.8211554162282133,-0.8895360231399536,0.09344706684350967,-0.44720616936683655, 271, 215, 95, 242
1733261874893,6i,20.41602742373601,1.5s : 0.3s,-8.360110724831799,1.305785908778304,2.4409303592448857,1.9359138094522734,0.899498462677002,-0.468626469373703,-0.32539260387420654,1.0879650115966797,-1.0735653638839722,1.1880874633789062,-0.0851887343571587,-1.1113531419829203,-2.814351044313162,-0.8930492997169495,0.08508573472499847,-0.4418410062789917, 271, 215, 95, 242
1733261874903,6i,20.41602742373601,1.5s : 0.3s,-8.360110724831799,1.3100781656767588,1.9166903194154634,2.00728173265171,0.9909552335739136,0.014206543564796448,0.07594384998083115,1.0675926208496094,-1.1376522779464722,1.2630016803741455,-0.07993713613069178,-1.1129238993509398,-2.805252980141319,-0.8941306471824646,0.07985202968120575,-0.44062912464141846, 271, 215, 95, 242
1733261874913,6i,20.41602742373601,1.5s : 0.3s,-8.360110724831799,1.314064232252094,1.5059752360418346,2.128385247252063,1.109861969947815,0.5258517265319824,0.47599777579307556,1.085618019104004,-1.2435171604156494,1.3435484170913696,-0.07774772396979793,-1.1093765644917735,-2.793361425981246,-0.8927163481712341,0.0776694193482399,-0.44387489557266235, 271, 215, 95, 242
1733261874923,6i,20.41602742373601,1.5s : 0.3s,-8.360110724831799,1.3184620731518444,1.3933356797092047,2.291582458695606,1.1785995960235596,1.0496482849121094,0.9368219375610352,1.1758646965026855,-1.3454917669296265,1.4346930980682373,-0.07888043754593813,-1.1004360831633022,-2.778717319592325,-0.8886333703994751,0.07879865914583206,-0.4517982602119446, 271, 215, 95, 242
1733261874933,6i,20.41602742373601,1.5s : 0.3s,-8.360110724831799,1.3243736666926402,1.7063938844307498,2.486160490359246,1.1996519565582275,1.5860490798950195,1.405306339263916,1.3344612121582031,-1.4228887557983398,1.5412964820861816,-0.08379915269397026,-1.085948862780859,-2.7614859616729,-0.8816414475440979,0.08370111137628555,-0.46443793177604675, 271, 215, 95, 242
1733261874943,6i,20.41602742373601,1.5s : 0.3s,-8.360110724831799,1.3329418523493533,2.3302992804082563,2.689743127384663,1.2526332139968872,2.0950145721435547,1.9091261625289917,1.5303130149841309,-1.4954898357391357,1.6298375129699707,-0.0925610944062692,-1.0658497655804433,-2.7415355300176474,-0.8714538812637329,0.09242898225784302,-0.48168984055519104, 271, 215, 95, 242
1733261874953,6i,20.41602742373601,1.5s : 0.3s,-8.360110724831799,1.3452049024954251,3.1153190069288015,2.871254095082895,1.323838710784912,2.6287548542022705,2.4222006797790527,1.7428123950958252,-1.5616897344589233,1.6636797189712524,-0.10495789159604133,-1.0400742186776506,-2.718250733405659,-0.8576957583427429,0.10476528853178024,-0.5033708810806274, 271, 215, 95, 242
1733261874963,6i,20.41602742373601,1.5s : 0.3s,-8.360110724831799,1.3621663553193655,4.002960351520035,3.096604679028518,1.3755155801773071,3.18572998046875,3.011695146560669,1.9921975135803223,-1.641531229019165,1.710404872894287,-0.12112105416733017,-1.0081033629619596,-2.6912425860518017,-0.8396248817443848,0.12082512676715851,-0.5295575857162476, 271, 215, 95, 242
1733261874973,6i,20.41602742373601,1.5s : 0.3s,-8.360110724831799,1.3848360962038384,4.973060881567416,3.3834069596005047,1.4081898927688599,3.752861261367798,3.672545909881592,2.2831194400787354,-1.745675802230835,1.785335898399353,-0.14134869501224737,-0.9694809277838894,-2.659737134515187,-0.8163684606552124,0.14087848365306854,-0.5600855946540833, 271, 215, 95, 242
1733261874983,6i,20.41602742373601,1.5s : 0.3s,-8.360110724831799,1.414292403488668,6.042108277086698,3.7387351213321245,1.420608401298523,4.429149150848389,4.386509418487549,2.622530698776245,-1.8807843923568726,1.88762366771698,-0.1657834739985689,-0.9232118713730308,-2.62327925321258,-0.7866085171699524,0.16502511501312256,-0.5949905514717102, 271, 215, 95, 242
1733261874993,6i,20.41602742373601,1.5s : 0.3s,-8.360110724831799,1.4515973329667027,7.2296956600721,4.104852974219761,1.3807371854782104,5.228085041046143,5.168699264526367,2.962733030319214,-1.9832172393798828,2.034423828125,-0.1941671104844747,-0.8675408597466306,-2.580734145262438,-0.7484080791473389,0.19294936954975128,-0.6345518231391907, 271, 215, 95, 242
1733261875003,6i,20.41602742373601,1.5s : 0.3s,-8.360110724831799,1.4981169504350131,8.54927229565039,4.529766569618443,1.212484359741211,6.119178771972656,6.059579372406006,3.385664224624634,-2.0895066261291504,2.165646553039551,-0.2269948310152992,-0.800747610466922,-2.5313488174989014,-0.6994611620903015,0.22505046427249908,-0.6783114671707153, 271, 215, 95, 242
1733261875013,6i,20.41602742373601,1.5s : 0.3s,-8.360110724831799,1.5563226483036907,10.047846050006681,5.168080957203971,0.9990581274032593,7.243783473968506,7.005733013153076,4.021416187286377,-2.205260753631592,2.3820364475250244,-0.2639960099317125,-0.7203410347982295,-2.4738121937244353,-0.6367877721786499,0.26094019412994385,-0.7255423069000244, 271, 215, 95, 242
1733261875023,6i,20.41602742373601,1.5s : 0.3s,-8.360110724831799,1.6291179685746986,11.730649392336822,5.919851919719406,0.8425064086914062,8.520395278930664,7.96821403503418,4.785610198974609,-2.2474067211151123,2.6630330085754395,-0.30343333342299234,-0.6228043534283293,-2.4058830672929927,-0.5566672682762146,0.29879844188690186,-0.7751393914222717, 271, 215, 95, 242
1733261875033,6i,20.41602742373601,1.5s : 0.3s,-8.360110724831799,1.719468968235577,13.55757031383952,6.785804096718686,0.8147479891777039,9.746685028076172,9.006574630737305,5.735270977020264,-2.3080339431762695,2.7976388931274414,-0.3420223734483747,-0.5058782010363635,-2.325774958763194,-0.4565083682537079,0.3353930115699768,-0.8240823149681091, 271, 215, 95, 242
1733261875043,6i,20.41602742373601,1.5s : 0.3s,-8.360110724831799,1.8302064278379868,15.423352737311436,7.7337765816773505,0.9485346674919128,10.735706329345703,10.057149887084961,6.880251884460449,-2.314666986465454,2.667536497116089,-0.3742454170401026,-0.36932640975265657,-2.2288848271035056,-0.3360011577606201,0.3655702769756317,-0.8680216670036316, 271, 215, 95, 242
1733261875053,6i,20.41602742373601,1.5s : 0.3s,-8.360110724831799,1.9653653066961578,17.05277279565867,8.979964635088958,0.6432320475578308,11.574345588684082,10.366621017456055,8.322813034057617,-2.099515438079834,2.6386706829071045,-0.3958440749489319,-0.21662796633177542,-2.1194828871288713,-0.1983168125152588,0.3855871260166168,-0.9011065363883972, 271, 215, 95, 242
1733261875063,6i,20.41602742373601,1.5s : 0.3s,-8.360110724831799,2.128058370545366,18.35142736763352,10.31064077942876,-0.6567411422729492,12.285709381103516,10.242318153381348,9.803199768066406,-1.6619491577148438,2.7284634113311768,-0.4090226577468453,-0.0536010438495211,-2.00718667275554,-0.04915594682097435,0.3977127969264984,-0.9161922335624695, 271, 215, 95, 242
1733261875073,6i,20.41602742373601,1.5s : 0.3s,-8.360110724831799,2.320920294843306,19.528297237953097,11.78720061173257,-3.411832571029663,12.02930736541748,11.37480640411377,11.449782371520996,-0.9746021032333374,2.6250205039978027,-0.4256477781099943,0.1162656327641346,-1.8885007529981297,0.10565301030874252,0.4129108488559723,-0.9046226143836975, 271, 215, 95, 242
1733261875083,6i,20.41602742373601,1.5s : 0.3s,-8.360110724831799,2.549955075625108,20.681717537788774,14.047868152268068,-5.42407751083374,11.884269714355469,12.1276273727417,13.898818016052246,0.4129658043384552,1.9987287521362305,-0.4448713045880564,0.293600191285251,-1.7515872245721147,0.26123175024986267,0.4303417205810547,-0.8640393614768982, 271, 215, 95, 242
1733261875093,6i,20.41602742373601,1.5s : 0.3s,-8.360110724831799,2.806378975974392,21.88444012072956,14.734679854160335,-8.43835735321045,11.35719108581543,12.789407730102539,14.551552772521973,2.249800682067871,0.5490894317626953,-0.4610131311342535,0.4790150145758214,-1.5939108610569475,0.4127877950668335,0.4448556900024414,-0.794801652431488, 271, 215, 95, 242
1733261875103,6i,20.41602742373601,1.5s : 0.3s,-8.360110724831799,3.0871327886818056,22.935024780094402,16.05194608908211,-11.678037643432617,9.51759147644043,13.096312522888184,15.411396026611328,4.47673225402832,-0.33572918176651,-0.475561906140682,0.667281444332355,-1.4109156099939284,0.5501822233200073,0.4578380882740021,-0.6983436346054077, 271, 215, 95, 242
1733261875113,6i,20.41602742373601,1.5s : 0.3s,-8.360110724831799,3.389531325727438,24.271017539800127,17.617646051081184,-16.292619705200195,6.211578369140625,13.828309059143066,15.894603729248047,7.532954216003418,-0.9988120198249817,-0.481689151285814,0.8481935382702539,-1.1932439145697926,0.6647372245788574,0.46327677369117737,-0.5860878229141235, 271, 215, 95, 242
1733261875123,6i,20.41602742373601,1.5s : 0.3s,-8.360110724831799,3.7072633748292154,26.580870590645166,18.696467446845375,-21.083599090576172,2.5842201709747314,15.071317672729492,15.273853302001953,10.73175048828125,-1.0472973585128784,-0.4780887133475991,1.0141651503542402,-0.9261459274303502,0.7538420557975769,0.4600830376148224,-0.4690905809402466, 271, 215, 95, 242
1733261875133,6i,20.41602742373601,1.5s : 0.3s,-8.360110724831799,4.028417101141019,29.10323915518487,18.850864335754444,-22.549022674560547,1.1537989377975464,15.438460350036621,13.030396461486816,13.62088394165039,-0.18808218836784363,-0.4435849346797935,1.1669623034846257,-0.627191304527583,0.8305650353431702,0.42918020486831665,-0.3549169898033142, 271, 215, 95, 242
1733261875143,6i,20.41602742373601,1.5s : 0.3s,-8.360110724831799,4.337069578245073,29.957655364648286,18.974312617017414,-20.644092559814453,-2.5713202953338623,13.881253242492676,9.2714262008667,16.53083610534668,0.8925542831420898,-0.3792512745714005,1.2711158672158323,-0.35094105091901956,0.8875400424003601,0.37022504210472107,-0.27423760294914246, 271, 215, 95, 242
1733261875153,6i,20.41602742373601,1.5s : 0.3s,-8.360110724831799,4.6230279793075715,29.544891110090422,19.35071295920034,-16.75931167602539,-4.258021354675293,13.831589698791504,5.371495246887207,18.447416305541992,2.2999918460845947,-0.29650179944408517,1.310855606655991,-0.12008226268835893,0.9242357015609741,0.2921764552593231,-0.245807945728302, 271, 215, 95, 242
1733261875163,6i,20.41602742373601,1.5s : 0.3s,-8.360110724831799,4.876766978983047,29.67064985679056,15.996409426270718,-17.879343032836914,-4.152308464050293,13.401681900024414,2.150949716567993,15.348353385925293,3.9606285095214844,-0.20665790734353476,1.3202188961703678,0.08458047579705776,0.9481561183929443,0.20519007742404938,-0.24268728494644165, 271, 215, 95, 242
1733261875173,6i,20.41602742373601,1.5s : 0.3s,-8.360110724831799,5.088640325688252,30.84156217241372,11.604455242792694,-21.193614959716797,-4.2064337730407715,13.136245727539062,-0.2725943326950073,10.266966819763184,5.40170955657959,-0.12788206094850482,1.3171908902067977,0.31212290377792684,0.9601096510887146,0.12753377854824066,-0.24884696304798126, 271, 215, 95, 242
1733261875183,6i,20.41602742373601,1.5s : 0.3s,-8.360110724831799,5.255897038222692,21.552379716591144,3.8405551765676442,24.805580139160156,-1.155800700187683,18.42387580871582,0.4589746594429016,3.7113277912139893,0.8747870326042175,0.018961333989439794,1.3323081361145082,0.42366958654541004,0.9715216159820557,-0.018960198387503624,-0.23619142174720764, 271, 215, 95, 242
1733261875193,6i,20.41602742373601,1.5s : 0.3s,-8.360110724831799,5.395841341968317,24.642199897072093,10.121720793551386,-38.04743194580078,-1.7058372497558594,-1.4169553518295288,6.602769374847412,-5.7288312911987305,-5.102270126342773,0.11379102865072224,1.3383424501273071,0.3949504833655255,0.9668107628822327,-0.11354561895132065,-0.2288762778043747, 271, 215, 95, 242
1733261875203,6i,20.41602742373601,1.5s : 0.3s,-8.360110724831799,5.531451731793917,31.009819625053314,16.18734255508019,-35.56468200683594,-13.159988403320312,0.567846417427063,6.685155391693115,-7.634365558624268,12.611709594726562,0.00032367323375039693,1.2420618514828032,0.7856943107538797,0.9464516639709473,-0.00032367321546189487,-0.3228455185890198, 271, 215, 95, 242
1733261875213,6i,20.41602742373601,1.5s : 0.3s,-8.360110724831799,5.732108494547339,29.721999260377316,17.105307557364455,-17.560766220092773,-13.897647857666016,-1.1442034244537354,12.312155723571777,6.978269100189209,9.6076078414917,-0.09922502374969205,1.1020894913865638,1.0326328255853134,0.8877649307250977,0.09906227886676788,-0.44951099157333374, 271, 215, 95, 242
1733261875223,6i,20.41602742373601,1.5s : 0.3s,-8.360110724831799,5.9331676746656585,26.737091978826285,13.278135629435058,-12.58749008178711,-9.845527648925781,-3.0515053272247314,3.791189193725586,11.271422386169434,5.906844139099121,-0.1858221264421282,1.002428751518166,1.1535791040021377,0.8282720446586609,0.18475456535816193,-0.5289907455444336, 271, 215, 95, 242
1733261875233,6i,20.41602742373601,1.5s : 0.3s,-8.360110724831799,6.128922124477612,24.238074056217727,14.152571615333024,-10.17938232421875,-10.716085433959961,-3.0695154666900635,1.8980014324188232,12.347131729125977,6.651406764984131,-0.27159700683029037,0.9136550711646095,1.2317379217139226,0.7627193927764893,0.26827025413513184,-0.5884642601013184, 271, 215, 95, 242
1733261875243,6i,20.41602742373601,1.5s : 0.3s,-8.360110724831799,6.3016338284609805,21.95160555463624,7.139521547544898,-6.694314002990723,-12.220964431762695,-2.873370885848999,2.32291579246521,4.08540153503418,5.374599933624268,-0.34852181758777573,0.8135687951171049,1.279215175544093,0.6830503344535828,0.3415088653564453,-0.6456112265586853, 271, 215, 95, 242
1733261875253,6i,20.41602742373601,1.5s : 0.3s,-8.360110724831799,6.427162364433874,21.484270815789777,7.388631807997575,-10.031826972961426,-11.548486709594727,-2.7406041622161865,-0.607204258441925,-2.1110053062438965,7.054561614990234,-0.42469844293598175,0.7084585187653094,1.3190318718246135,0.592860996723175,0.41204604506492615,-0.6919060349464417, 271, 215, 95, 242
1733261875263,6i,20.41602742373601,1.5s : 0.3s,-8.360110724831799,6.526878877383196,20.701346688404776,6.731996634010471,-8.472352981567383,-11.06629753112793,-4.048227787017822,-0.549726665019989,0.3821094036102295,6.698624610900879,-0.5250632099095985,0.6107497358566263,1.356479543370379,0.4962293803691864,0.501267671585083,-0.7088632583618164, 271, 215, 95, 242
1733261875273,6i,20.41602742373601,1.5s : 0.3s,-8.360110724831799,6.609246865861568,18.455576511704507,6.207528761135394,-3.951512575149536,-9.143497467041016,-3.8214643001556396,-1.4091451168060303,3.1980998516082764,5.130290508270264,-0.5963794175877845,0.5075375501697998,1.3524827986641978,0.40212613344192505,0.5616505742073059,-0.7230790257453918, 271, 215, 95, 242
1733261875283,6i,20.41602742373601,1.5s : 0.3s,-8.360110724831799,6.663610346599867,16.983642525372517,5.172068073267802,-3.931523084640503,-8.604190826416016,-5.192612648010254,-3.275282859802246,2.7600622177124023,2.8991148471832275,-0.651765742692733,0.4019062664667127,1.3198565987692703,0.31098833680152893,0.6065911650657654,-0.7316648364067078, 271, 215, 95, 242
1733261875293,6i,20.41602742373601,1.5s : 0.3s,-8.360110724831799,6.690069472509112,15.87382434134783,4.995420780951515,-3.82513427734375,-8.490518569946289,-4.0298967361450195,-3.733558177947998,0.33756935596466064,3.3016388416290283,-0.7042490867117929,0.2921033047994192,1.2795689627519964,0.21945911645889282,0.6474617719650269,-0.7298157215118408, 271, 215, 95, 242
1733261875303,6i,20.41602742373601,1.5s : 0.3s,-8.360110724831799,6.699471837002414,15.395683662006364,3.9644727488001315,-3.475172281265259,-9.592991828918457,-3.7213213443756104,-2.7660887241363525,-0.41141974925994873,2.8100767135620117,-0.7515636393254062,0.1724074837792619,1.2293483732597423,0.12534160912036896,0.682781994342804,-0.7197903394699097, 271, 215, 95, 242
1733261875313,6i,20.41602742373601,1.5s : 0.3s,-8.360110724831799,6.7059423543121985,15.348546417034614,1.8364125033111702,-3.411284923553467,-9.746979713439941,-5.208298683166504,-1.149471402168274,0.9571341872215271,1.065373420715332,-0.7907274294420286,0.0322826815266268,1.163155263036992,0.022701380774378777,0.7108650803565979,-0.7029618620872498, 271, 215, 95, 242
1733261875323,6i,20.41602742373601,1.5s : 0.3s,-8.360110724831799,6.714596809228242,15.466335897890923,1.0165426333926224,-3.0569567680358887,-9.475671768188477,-6.756083965301514,0.10093028098344803,1.0113179683685303,-0.020198285579681396,-0.8206913648613563,-0.13011090060317562,1.070035659304871,-0.08844858407974243,0.7316173315048218,-0.6759534478187561, 271, 215, 95, 242
1733261875333,6i,20.41602742373601,1.5s : 0.3s,-8.360110724831799,6.725130497300543,15.39644095147975,1.2918386037277747,-2.160646438598633,-8.887453079223633,-7.252294063568115,0.5568857192993164,0.9348872303962708,-0.6962119936943054,-0.8311800664925402,-0.30226322628846886,0.9609772863824291,-0.20063871145248413,0.7387272715568542,-0.6434485912322998, 271, 215, 95, 242
1733261875343,6i,20.41602742373601,1.5s : 0.3s,-8.360110724831799,6.739002070744611,15.052521476513167,1.848232302697021,-1.2153269052505493,-8.015334129333496,-7.35299015045166,1.3766816854476929,1.066524624824524,-0.6190600991249084,-0.8191251120645319,-0.4672365513716998,0.8517692082421229,-0.3075745701789856,0.7305486798286438,-0.6096691489219666, 271, 215, 95, 242
1733261875353,6i,20.41602742373601,1.5s : 0.3s,-8.360110724831799,6.759006195989585,14.64866230343475,1.7154752699535776,-0.34689170122146606,-7.3791022300720215,-7.534717082977295,1.558752417564392,0.696524977684021,-0.1673297882080078,-0.7876792068305818,-0.6145406357664288,0.7538966981597797,-0.4067748785018921,0.7087178826332092,-0.5764140486717224, 271, 215, 95, 242
1733261875363,6i,20.41602742373601,1.5s : 0.3s,-8.360110724831799,6.7830314576882405,14.166894776465137,1.736549606450824,0.9385772347450256,-6.995458126068115,-7.2215046882629395,1.5838706493377686,0.6606209874153137,-0.2655903100967407,-0.7390996991709381,-0.7395166626183248,0.6770826065650248,-0.49808573722839355,0.6736227869987488,-0.546024739742279, 271, 215, 95, 242
1733261875373,6i,20.41602742373601,1.5s : 0.3s,-8.360110724831799,6.810717822576381,13.830938189185773,2.0857307106317458,1.7133445739746094,-6.831061840057373,-7.182817459106445,1.8606891632080078,0.722205638885498,-0.6054151058197021,-0.678390948613827,-0.8435458930958439,0.6234947435469435,-0.5816059708595276,0.6275410652160645,-0.5176165103912354, 271, 215, 95, 242
1733261875383,6i,20.41602742373601,1.5s : 0.3s,-8.360110724831799,6.840571669276919,13.766648311233476,1.9784133465957627,1.9532164335250854,-6.584359169006348,-7.800879001617432,1.8925855159759521,0.38552355766296387,-0.4284985661506653,-0.6117675650213694,-0.9341761180959047,0.5861321166759665,-0.6582716107368469,0.5743153691291809,-0.4866625666618347, 271, 215, 95, 242
1733261875393,6i,20.41602742373601,1.5s : 0.3s,-8.360110724831799,6.872808032579866,13.680977621329552,1.9161780387605132,3.045067310333252,-6.198972225189209,-7.624449729919434,1.84575617313385,0.5005356669425964,-0.11994361877441406,-0.5404177528938368,-1.0127598233164286,0.5643873035690922,-0.7274090051651001,0.5144942402839661,-0.4540615379810333, 271, 215, 95, 242
1733261875403,6i,20.41602742373601,1.5s : 0.3s,-8.360110724831799,6.908544509235062,13.409800987524584,2.154484852698402,3.2637135982513428,-5.9789347648620605,-6.984058856964111,2.0613741874694824,0.626335620880127,-0.015656620264053345,-0.46463522470170615,-1.0795617327728797,0.5563560243172273,-0.7882723212242126,0.44809672236442566,-0.42170602083206177, 271, 215, 95, 242
1733261875413,6i,20.41602742373601,1.5s : 0.3s,-8.360110724831799,6.946271421869943,13.002793806795886,2.1318547796052987,3.0191402435302734,-5.920666217803955,-6.191565990447998,2.07989239692688,0.0554770827293396,0.4645155668258667,-0.39198424273955534,-1.1406402195478385,0.5546656501686895,-0.8399631977081299,0.3820229172706604,-0.3853835165500641, 271, 215, 95, 242
1733261875423,6i,20.41602742373601,1.5s : 0.3s,-8.360110724831799,6.985651099267675,12.58278029599323,2.206431133705121,3.4654202461242676,-5.626830577850342,-5.759301662445068,2.1185641288757324,-0.052000999450683594,0.6142640113830566,-0.324963200129382,-1.1963728463740901,0.5609976933138019,-0.8820071220397949,0.3192739188671112,-0.34659430384635925, 271, 215, 95, 242
1733261875433,6i,20.41602742373601,1.5s : 0.3s,-8.360110724831799,7.0267556374543405,12.126061732297199,2.174249968486754,3.855315685272217,-5.0985870361328125,-5.415259838104248,2.119706630706787,0.34943655133247375,0.3348146080970764,-0.2595783701145829,-1.2453756338829156,0.5771553290838602,-0.9157729744911194,0.25667306780815125,-0.30899670720100403, 271, 215, 95, 242
1733261875443,6i,20.41602742373601,1.5s : 0.3s,-8.360110724831799,7.0692442904809285,11.535006769861564,2.1200507313894907,3.8756887912750244,-4.4960246086120605,-4.880609035491943,1.9647090435028076,0.41480743885040283,0.6800501942634583,-0.19897546372212252,-1.2883357342767763,0.5992621169721084,-0.9414241313934326,0.19766511023044586,-0.27322036027908325, 271, 215, 95, 242
1733261875453,6i,20.41602742373601,1.5s : 0.3s,-8.360110724831799,7.112768768035219,10.970356266016314,2.2112333867001555,4.193556308746338,-3.864000082015991,-4.6223978996276855,1.8087278604507446,0.27824461460113525,1.2412238121032715,-0.14252551532688923,-1.3254490710563422,0.6257775791938378,-0.9602171182632446,0.14204347133636475,-0.24043036997318268, 271, 215, 95, 242
1733261875463,6i,20.41602742373601,1.5s : 0.3s,-8.360110724831799,7.156276812937848,10.421906485476558,2.047465488538123,4.377991199493408,-3.313084363937378,-4.293814659118652,1.6874327659606934,0.3258274793624878,1.112889051437378,-0.08933034910616958,-1.3575819496240686,0.658412457726052,-0.9734589457511902,0.0892115905880928,-0.21075887978076935, 271, 215, 95, 242
1733261875473,6i,20.41602742373601,1.5s : 0.3s,-8.360110724831799,7.198410090961954,9.865050244866477,1.8499725712311055,4.284929275512695,-2.930790901184082,-3.915799379348755,1.6297861337661743,0.21249474585056305,0.8491417169570923,-0.040354334238855274,-1.3864947544509125,0.69263090742364,-0.9822642803192139,0.040343381464481354,-0.1831108033657074, 271, 215, 95, 242
1733261875483,6i,20.41602742373601,1.5s : 0.3s,-8.360110724831799,7.238288922630862,9.31700641455783,1.753743152280534,4.405258655548096,-2.5218193531036377,-3.4305078983306885,1.536551833152771,-0.04866340756416321,0.8439522385597229,0.0030791667974874974,-1.4130954217337595,0.7290553559148615,-0.9875864386558533,-0.0030791619792580605,-0.1570473313331604, 271, 215, 95, 242
1733261875493,6i,20.41602742373601,1.5s : 0.3s,-8.360110724831799,7.276524030493713,8.856523720426667,1.6901143122343205,4.602417469024658,-1.9899920225143433,-3.2262086868286133,1.4924774169921875,0.05079435184597969,0.7914654016494751,0.042704927665399045,-1.4365360213907674,0.7690515304624495,-0.9900971055030823,-0.042691949754953384,-0.1337352693080902, 271, 215, 95, 242
1733261875503,6i,20.41602742373601,1.5s : 0.3s,-8.360110724831799,7.3130595853224785,8.419092027228185,1.5738353768581077,4.663655757904053,-1.5456721782684326,-2.859592914581299,1.3126580715179443,0.14564970135688782,0.8559630513191223,0.07854600450790561,-1.4567278453520145,0.8113503629547286,-0.9904381632804871,-0.07846526801586151,-0.11347035318613052, 271, 215, 95, 242
1733261875513,6i,20.41602742373601,1.5s : 0.3s,-8.360110724831799,7.34711404682183,7.999812123265889,1.500377308784912,4.620490074157715,-1.2037622928619385,-2.49912691116333,1.1545131206512451,-0.07873109728097916,0.9550041556358337,0.11008979271482662,-1.4744511325352023,0.8547621775694403,-0.9893367290496826,-0.10986755043268204,-0.09561386704444885, 271, 215, 95, 242
1733261875523,6i,20.41602742373601,1.5s : 0.3s,-8.360110724831799,7.378265642948612,7.618986985712229,1.4048903729900537,4.572890281677246,-0.9169604778289795,-2.1956636905670166,1.018064260482788,-0.21499508619308472,0.9439487457275391,0.1373652239288563,-1.490569628579923,0.8990720838899096,-0.9873940348625183,-0.13693363964557648,-0.07938575744628906, 271, 215, 95, 242
1733261875533,6i,20.41602742373601,1.5s : 0.3s,-8.360110724831799,7.406768094678495,7.264583591089713,1.2619648792152864,4.480015277862549,-0.7232347130775452,-1.8842617273330688,0.9075933694839478,-0.15464772284030914,0.8630838394165039,0.1611427680820861,-1.505248386924497,0.9431749980886824,-0.9849247932434082,-0.16044627130031586,-0.06465241312980652, 271, 215, 95, 242
1733261875543,6i,20.41602742373601,1.5s : 0.3s,-8.360110724831799,7.433043730772269,6.942105977958335,1.2318556179488622,4.386513710021973,-0.5395241975784302,-1.629478096961975,0.8170005083084106,-0.15220268070697784,0.909292459487915,0.1816343728036095,-1.518841573390262,0.9869352057319943,-0.9822227358818054,-0.18063730001449585,-0.05107710510492325, 271, 215, 95, 242
1733261875553,6i,20.41602742373601,1.5s : 0.3s,-8.360110724831799,7.457602104161645,6.622423939960782,1.264253212972103,4.234979152679443,-0.3592769503593445,-1.3665647506713867,0.7844166159629822,-0.2009703814983368,0.9708952903747559,0.19855560696760297,-1.5313985098444525,1.0302445532621511,-0.9795917868614197,-0.1972535252571106,-0.038613758981227875, 271, 215, 95, 242
1733261875563,6i,20.41602742373601,1.5s : 0.3s,-8.360110724831799,7.480255311688559,6.25390044025521,1.2373419162659542,3.931210994720459,-0.26454657316207886,-1.0826375484466553,0.6863961219787598,-0.2790646553039551,0.9909582734107971,0.21216274051389944,-1.5429241975995684,1.0716153934551438,-0.97719806432724,-0.21057464182376862,-0.02724364586174488, 271, 215, 95, 242
1733261875573,6i,20.41602742373601,1.5s : 0.3s,-8.360110724831799,7.5008887424856665,5.896337450376478,1.171286364536215,3.759284257888794,-0.18650662899017334,-0.7652997374534607,0.5878692865371704,-0.3110702633857727,0.9641352295875549,0.22224904614573154,-1.5535630734071446,1.110686810082209,-0.9752594828605652,-0.22042390704154968,-0.016808558255434036, 271, 215, 95, 242
1733261875583,6i,20.41602742373601,1.5s : 0.3s,-8.360110724831799,7.519795476415218,5.545221511576715,1.0722522009651394,3.552157163619995,-0.09507711231708527,-0.5051445364952087,0.5437272191047668,-0.27103638648986816,0.8835297226905823,0.2289755856744993,-1.5633540281326468,1.1482005861799698,-0.9738724231719971,-0.22697997093200684,-0.007247983478009701, 271, 215, 95, 242
1733261875593,6i,20.41602742373601,1.5s : 0.3s,-8.360110724831799,7.5374684136489,5.18532786979949,1.0879469478041446,3.2857608795166016,-0.020651616156101227,-0.2939990162849426,0.48676764965057373,-0.2274758666753769,0.9460129737854004,0.23301639847189876,-1.571974051412367,1.1833243448850155,-0.9729737639427185,-0.230913445353508,0.0011458956869319081, 271, 215, 95, 242
1733261875603,6i,20.41602742373601,1.5s : 0.3s,-8.360110724831799,7.55423929240825,4.841264418389052,1.0574822758628653,3.0491716861724854,0.06944534182548523,-0.19273412227630615,0.41553282737731934,-0.12203152477741241,0.9647328853607178,0.23526589614360155,-1.5792581439231514,1.2158275062149455,-0.9724176526069641,-0.23310156166553497,0.008228616788983345, 271, 215, 95, 242
