timestamp,club,max_speed,tempo,w.rotation,l.speed,t.spped,acc,rotation.x,rotation.y,rotation.z,userAcceleration.x,userAcceleration.y,userAcceleration.z,pitch,roll,yaw,gravity.x,gravity.y,gravity.z,impactIndex,minDownIndex,StartIndex,endIndex
1733261297232,6i,19.685446549021513,2.4s : 0.3s,-6.192636022735655,0.0001626511669571476,0.26824054511181145,0.022160105773112615,0.7658819556236267,0.002637860830873251,-0.053717005997896194,-0.0018489360809326172,-0.01377810537815094,-0.017257332801818848,-0.19430448253734015,1.442487266681336,0.1709680533597538,0.9731168150901794,0.19308415055274963,-0.12554943561553955, 295, 240, 29, 265
1733261297242,6i,19.685446549021513,2.4s : 0.3s,-6.192636022735655,0.00043820752297578835,0.4987488109023075,0.008732669606459367,0.7768505215644836,0.011576184071600437,-0.03283046558499336,0.0025472044944763184,-0.0054714977741241455,-0.0063114166259765625,-0.19375427691245958,1.4410374972349251,0.16212405515272094,0.9730388522148132,0.19254426658153534,-0.12697382271289825, 295, 240, 29, 265
1733261297252,6i,19.685446549021513,2.4s : 0.3s,-6.192636022735655,0.0006840597662196616,0.6571528592720438,0.010427498897320716,0.7655760645866394,0.010598004795610905,-0.024175725877285004,0.010303974151611328,-0.0015225708484649658,-0.0004925727844238281,-0.19302664403619935,1.4396707880602522,0.15327847312598175,0.9730030298233032,0.19183020293712616,-0.1283218413591385, 295, 240, 29, 265
1733261297262,6i,19.685446549021513,2.4s : 0.3s,-6.192636022735655,0.0008777825172137897,0.765035422878622,0.02071361043119828,0.7575140595436096,0.0019167657010257244,-0.018522066995501518,0.014158904552459717,-0.015015557408332825,-0.0017641186714172363,-0.1922536692600712,1.4382218185077298,0.14454454530217734,0.9729628562927246,0.1910715252161026,-0.12975113093852997, 295, 240, 29, 265
1733261297272,6i,19.685446549021513,2.4s : 0.3s,-6.192636022735655,0.0010245727779718723,0.8384789602664554,0.020689200324738276,0.7525418996810913,-0.004981087986379862,-0.004564440343528986,0.009833753108978271,-0.018111422657966614,0.001821175217628479,-0.19136593818293238,1.4367555892839179,0.13587914932786468,0.972939133644104,0.190200075507164,-0.1312001794576645, 295, 240, 29, 265
1733261297282,6i,19.685446549021513,2.4s : 0.3s,-6.192636022735655,0.0011326624607546538,0.8794166244167472,0.01527278360957249,0.7265408039093018,-0.009686405770480633,0.0065126121044158936,0.006167113780975342,-0.012772783637046814,-0.005663976073265076,-0.1903576992684037,1.4352379571228955,0.12738972431803713,0.9729284048080444,0.18921014666557312,-0.13270244002342224, 295, 240, 29, 265
1733261297292,6i,19.685446549021513,2.4s : 0.3s,-6.192636022735655,0.001184369688212041,0.8820510859175829,0.025612263771203892,0.674522340297699,-0.026515718549489975,-0.007363256067037582,0.006356239318847656,-0.020949512720108032,-0.013293012976646423,-0.18939233648307716,1.4337260740550455,0.11929832090956576,0.9729071855545044,0.18826213479042053,-0.1341981440782547, 295, 240, 29, 265
1733261297302,6i,19.685446549021513,2.4s : 0.3s,-6.192636022735655,0.0012008201398478375,0.8830607151619003,0.019259411697017594,0.6643911004066467,-0.02116258814930916,-0.009830741211771965,0.0032364726066589355,-0.01836438477039337,-0.004816591739654541,-0.18857802673614618,1.4322026055069061,0.11145949266353929,0.9728531241416931,0.18746231496334076,-0.13570131361484528, 295, 240, 29, 265
1733261297312,6i,19.685446549021513,2.4s : 0.3s,-6.192636022735655,0.0012285237569981545,0.8825455994069523,0.012764406071894895,0.6539376974105835,-0.016854126006364822,-0.0014433818869292736,0.0008015632629394531,0.009443700313568115,-0.008550092577934265,-0.18771702635025803,1.4307618296260387,0.10371849249403466,0.9728160500526428,0.18661651015281677,-0.13712531328201294, 295, 240, 29, 265
1733261297322,6i,19.685446549021513,2.4s : 0.3s,-6.192636022735655,0.0012615713239448071,0.8791082925446605,0.018250927937282634,0.6354948878288269,-0.019296731799840927,0.01127171516418457,-0.0034688711166381836,0.012780562043190002,-0.01255868375301361,-0.18675906690156036,1.4293555930898383,0.09649850602018334,0.972798764705658,0.18567529320716858,-0.1385183185338974, 295, 240, 29, 265
1733261297332,6i,19.685446549021513,2.4s : 0.3s,-6.192636022735655,0.0012761240926908635,0.8684992442124284,0.008445640763938448,0.620988667011261,-0.0223844014108181,0.014710120856761932,-0.004834353923797607,-0.006728440523147583,-0.0016388893127441406,-0.18574267005964762,1.4279612673907471,0.08920637868692322,0.9727910161018372,0.18467648327350616,-0.13990136981010437, 295, 240, 29, 265
1733261297342,6i,19.685446549021513,2.4s : 0.3s,-6.192636022735655,0.0012673262828430737,0.8403700542381978,0.016127406187661363,0.5767711400985718,-0.01991565153002739,0.025770895183086395,-0.00637054443359375,-0.013428822159767151,0.0062590837478637695,-0.18467332859356486,1.4266474958687243,0.08225807559498609,0.9728013277053833,0.18362542986869812,-0.14120757579803467, 295, 240, 29, 265
1733261297352,6i,19.685446549021513,2.4s : 0.3s,-6.192636022735655,0.0012219348470777103,0.7962897200314213,0.023101834752072704,0.5159003138542175,-0.018644258379936218,0.02899465151131153,-0.014463603496551514,-0.015622243285179138,0.008969083428382874,-0.18361395804955324,1.4254434027941356,0.07578158306590593,0.9728224277496338,0.1825839728116989,-0.1424068957567215, 295, 240, 29, 265
1733261297362,6i,19.685446549021513,2.4s : 0.3s,-6.192636022735655,0.001025941230513362,0.7546755417821644,0.036588655940967885,0.48897257447242737,-0.020069671794772148,0.027607277035713196,-0.02432572841644287,-0.027267247438430786,0.001867055892944336,-0.18260786723980516,1.4243169612835265,0.06965647177361523,0.9728426933288574,0.18159469962120056,-0.14352938532829285, 295, 240, 29, 265
1733261297372,6i,19.685446549021513,2.4s : 0.3s,-6.192636022735655,0.0007987825601389623,0.7160844417116655,0.03226020667118562,0.464982807636261,-0.011980585753917694,0.04194334149360657,-0.023921847343444824,-0.020617172122001648,-0.0065877437591552734,-0.1815711629857069,1.4232958070820478,0.0639451932151205,0.9728813171386719,0.18057513236999512,-0.14455032348632812, 295, 240, 29, 265
1733261297382,6i,19.685446549021513,2.4s : 0.3s,-6.192636022735655,0.0005988302921729703,0.6800453490636099,0.02501770824215877,0.44246938824653625,0.030299538746476173,0.049852028489112854,-0.021208584308624268,-0.008134976029396057,-0.010483503341674805,-0.18045374676778622,1.422468578019549,0.0556420014186275,0.9729604125022888,0.17947597801685333,-0.1453848034143448, 295, 240, 29, 265
1733261297392,6i,19.685446549021513,2.4s : 0.3s,-6.192636022735655,0.0004618418835645044,0.6864189626554443,0.028820160632687768,0.4355078935623169,0.2899707853794098,-0.5405899286270142,0.01568734645843506,-0.0061310529708862305,-0.02338629961013794,-0.17993682767963046,1.4216295597952588,0.04807957681874295,0.9729297757148743,0.1789674162864685,-0.14621485769748688, 295, 240, 29, 265
1733261297402,6i,19.685446549021513,2.4s : 0.3s,-6.192636022735655,0.0006460548326681857,0.7524718006907051,0.08225468873122813,0.4013882577419281,0.31679025292396545,-0.6121389865875244,-0.07125329971313477,-0.0055309683084487915,-0.040721118450164795,-0.17794690081764544,1.4202576520195087,0.04595637091018378,0.9730783700942993,0.17700926959514618,-0.1476026028394699, 295, 240, 29, 265
1733261297412,6i,19.685446549021513,2.4s : 0.3s,-6.192636022735655,0.001231630400241565,0.6787186983793504,0.049448750019919226,0.3352108299732208,0.08672082424163818,-0.15566250681877136,-0.016428351402282715,0.025821655988693237,-0.03883980214595795,-0.17705205589003253,1.4193052622199203,0.04217623333365453,0.9730934500694275,0.17612847685813904,-0.14855311810970306, 295, 240, 29, 265
1733261297422,6i,19.685446549021513,2.4s : 0.3s,-6.192636022735655,0.001825622179757784,0.5673495274884488,0.03839093471722111,0.3005857765674591,-0.022692397236824036,0.07122735679149628,-0.0016567111015319824,0.03373032808303833,-0.01825881004333496,-0.17667534425137912,1.418550408107873,0.03817904798602406,0.973046600818634,0.17575764656066895,-0.14929766952991486, 295, 240, 29, 265
1733261297432,6i,19.685446549021513,2.4s : 0.3s,-6.192636022735655,0.002408904005479589,0.4996184482520637,0.029734240556382914,0.27852708101272583,-0.04726644977927208,-0.006838679779320955,-0.014395654201507568,0.025275811553001404,-0.006166324019432068,-0.17607201973462572,1.4176340042891942,0.03434615520999998,0.9730139374732971,0.17516368627548218,-0.15020544826984406, 295, 240, 29, 265
1733261297442,6i,19.685446549021513,2.4s : 0.3s,-6.192636022735655,0.0029268746987317212,0.4529068089665157,0.03424299426744705,0.26969242095947266,-0.049388766288757324,-0.0027693361043930054,0.0032547712326049805,0.033652469515800476,0.005431428551673889,-0.17563851733896255,1.4166568237826351,0.03059028904385526,0.9729416370391846,0.1747368723154068,-0.1511678397655487, 295, 240, 29, 265
1733261297452,6i,19.685446549021513,2.4s : 0.3s,-6.192636022735655,0.003318363163374685,0.42094704581052506,0.05204077189869183,0.2621157467365265,-0.052051130682229996,-0.011616623029112816,0.004645884037017822,0.049395591020584106,0.015707746148109436,-0.17531710016750604,1.4156702333729252,0.027051142199908538,0.9728475213050842,0.17442038655281067,-0.15213634073734283, 295, 240, 29, 265
1733261297462,6i,19.685446549021513,2.4s : 0.3s,-6.192636022735655,0.0035357806608249504,0.3868964990726328,0.06097240296203123,0.22867228090763092,-0.04836345091462135,-0.011603441089391708,0.006451427936553955,0.052654996514320374,0.03005768358707428,-0.1750442139167207,1.4147298270024045,0.023559698648785574,0.9727509021759033,0.17415167391300201,-0.1530585139989853, 295, 240, 29, 265
1733261297472,6i,19.685446549021513,2.4s : 0.3s,-6.192636022735655,0.0037469098679130215,0.3505954922371301,0.05567036126232148,0.19552630186080933,-0.047703519463539124,-0.008990880101919174,0.002696096897125244,0.037137165665626526,0.04138539731502533,-0.17481143729730164,1.413883375353316,0.02142542798216731,0.9726611971855164,0.17392244935035706,-0.15388821065425873, 295, 240, 29, 265
1733261297482,6i,19.685446549021513,2.4s : 0.3s,-6.192636022735655,0.003984199900988695,0.3205706146528379,0.05358589293255424,0.17991098761558533,-0.052164800465106964,-0.025124941021203995,0.00457686185836792,0.018014654517173767,0.0502590537071228,-0.17469076043251772,1.4130310623751812,0.018623523475132853,0.9725503325462341,0.17380361258983612,-0.1547204554080963, 295, 240, 29, 265
1733261297492,6i,19.685446549021513,2.4s : 0.3s,-6.192636022735655,0.004260465786786043,0.29519620990805,0.05277175791663023,0.1700170785188675,-0.04309487342834473,-0.020316604524850845,0.007533073425292969,0.012979358434677124,0.05059295892715454,-0.174644181337205,1.4122182900046985,0.01574838429081869,0.9724323153495789,0.17375774681568146,-0.15551215410232544, 295, 240, 29, 265
1733261297502,6i,19.685446549021513,2.4s : 0.3s,-6.192636022735655,0.004586105542040691,0.2630916006404217,0.053325916174116854,0.13702306151390076,-0.026913195848464966,-0.013456068933010101,0.0060915350914001465,0.009020447731018066,0.052203238010406494,-0.1745736834595764,1.4115999441775742,0.013161340927551654,0.9723479747772217,0.17368832230567932,-0.1561153531074524, 295, 240, 29, 265
1733261297512,6i,19.685446549021513,2.4s : 0.3s,-6.192636022735655,0.004938853913372658,0.22464993204129904,0.05789661854389008,0.09990310668945312,-0.012443975545465946,-0.0054577975533902645,0.0022772550582885742,-0.006315961480140686,0.0575060099363327,-0.17446658923049135,1.411186799766281,0.011109235876486373,0.9723018407821655,0.17358285188674927,-0.1565200239419937, 295, 240, 29, 265
1733261297522,6i,19.685446549021513,2.4s : 0.3s,-6.192636022735655,0.0052839472409749325,0.17359423534626145,0.05956611360619834,0.040239252150058746,-0.006099970079958439,-0.0009730341844260693,0.0027898550033569336,-0.02723868191242218,0.052899837493896484,-0.17440757914122496,1.4109666932703422,0.009363452029792729,0.9722774624824524,0.17352473735809326,-0.15673565864562988, 295, 240, 29, 265
1733261297532,6i,19.685446549021513,2.4s : 0.3s,-6.192636022735655,0.005543220108403485,0.1131857594638834,0.06749884370008777,-0.015519351698458195,0.035480231046676636,0.02964559569954872,0.0015958547592163086,-0.047176241874694824,0.04824882745742798,-0.1743243671372939,1.410997440477901,0.008437003524694604,0.9722964763641357,0.1734427809715271,-0.15670804679393768, 295, 240, 29, 265
1733261297542,6i,19.685446549021513,2.4s : 0.3s,-6.192636022735655,0.005508817974000507,0.15157019303280297,0.08400351519371503,-0.08057864755392075,0.2439085841178894,-0.2704780399799347,0.0457269549369812,-0.05884943902492523,0.03876054286956787,-0.17491340067757852,1.4110407143585797,0.003572438500707508,0.9722022414207458,0.1740228533744812,-0.15664970874786377, 295, 240, 29, 265
1733261297552,6i,19.685446549021513,2.4s : 0.3s,-6.192636022735655,0.005673310277604605,0.17913602141930382,0.08787010552177377,-0.17219670116901398,0.10096181184053421,-0.15602043271064758,-0.04006493091583252,-0.07155042886734009,0.031567275524139404,-0.1751670711616541,1.4110714501338777,-0.00225506908968828,0.9721634984016418,0.17427265644073486,-0.1566127985715866, 295, 240, 29, 265
1733261297562,6i,19.685446549021513,2.4s : 0.3s,-6.192636022735655,0.006031809401368197,0.19562637739993632,0.07611550467419548,-0.23601098358631134,0.025627508759498596,-0.07691739499568939,-0.008021295070648193,-0.06596411764621735,0.037120938301086426,-0.17581628550685605,1.4114929931085523,-0.00657902998171126,0.9721174836158752,0.17491190135478973,-0.15618500113487244, 295, 240, 29, 265
1733261297572,6i,19.685446549021513,2.4s : 0.3s,-6.192636022735655,0.006544242935053982,0.2226281539968032,0.05444101350832787,-0.28454068303108215,-0.005377544090151787,0.02056734450161457,0.005670130252838135,-0.05155256390571594,0.01655314862728119,-0.17618089851458535,1.4119680899861144,-0.0063093857619176035,0.9721285700798035,0.17527088522911072,-0.1557130366563797, 295, 240, 29, 265
1733261297582,6i,19.685446549021513,2.4s : 0.3s,-6.192636022735655,0.007139583368140689,0.2689161511954772,0.03620872317191139,-0.30192288756370544,-0.023825259879231453,-0.0011247680522501469,0.014635622501373291,-0.03296864032745361,0.003152608871459961,-0.17680217760038267,1.4124089459529248,-0.004522104065314802,0.972089409828186,0.1758825033903122,-0.15526723861694336, 295, 240, 29, 265
1733261297592,6i,19.685446549021513,2.4s : 0.3s,-6.192636022735655,0.00773399947707104,0.2966489264742318,0.024817961677035694,-0.27544867992401123,-0.02483007125556469,-0.0024859094992280006,-0.001626133918762207,-0.024169951677322388,-0.005394473671913147,-0.17719543265804358,1.4128237728119548,-0.0023537712612904265,0.9720854163169861,0.17626962065696716,-0.15485310554504395, 295, 240, 29, 265
1733261297602,6i,19.685446549021513,2.4s : 0.3s,-6.192636022735655,0.0082667768802237,0.3330208618877715,0.01858815658842123,-0.3028772473335266,0.008076612837612629,-0.07651762664318085,-0.007643699645996094,-0.009468838572502136,-0.01405113935470581,-0.17757596200256273,1.4132888836098316,-0.0006869698515990925,0.9720908999443054,0.17664417624473572,-0.1543903946876526, 295, 240, 29, 265
1733261297612,6i,19.685446549021513,2.4s : 0.3s,-6.192636022735655,0.008813990312544238,0.3961004515810985,0.0193831452455229,-0.3688623905181885,0.05236285179853439,-0.18349680304527283,-0.00766831636428833,-0.017520010471343994,0.003154754638671875,-0.17781847200990356,1.4138218850051647,0.0010132575487871913,0.9721307158470154,0.17688286304473877,-0.15386556088924408, 295, 240, 29, 265
1733261297622,6i,19.685446549021513,2.4s : 0.3s,-6.192636022735655,0.009414340095631201,0.4940914882516951,0.04459039698434817,-0.4613693952560425,0.10348737239837646,-0.2806718051433563,-0.0033192038536071777,-0.03846193850040436,0.022315144538879395,-0.17808900165993793,1.4145252842499418,0.0030756137943990305,0.9721914529800415,0.17714911699295044,-0.1531742811203003, 295, 240, 29, 265
1733261297632,6i,19.685446549021513,2.4s : 0.3s,-6.192636022735655,0.010065292409506888,0.6049023564355809,0.039873633447660005,-0.5195783972740173,0.15050894021987915,-0.365983247756958,-0.007771313190460205,-0.027320876717567444,0.027983620762825012,-0.17827285860807357,1.4153128028965916,0.005671070771054081,0.97227942943573,0.17733007669448853,-0.1524035483598709, 295, 240, 29, 265
1733261297642,6i,19.685446549021513,2.4s : 0.3s,-6.192636022735655,0.010722299240335327,0.7107916623174813,0.023659303232184792,-0.530974805355072,0.2042115032672882,-0.4496563673019409,-0.0072287917137146,-0.01635962724685669,0.015487730503082275,-0.17890308424978288,1.4159844405136808,0.008299514902834234,0.9722710251808167,0.17795027792453766,-0.15173323452472687, 295, 240, 29, 265
1733261297652,6i,19.685446549021513,2.4s : 0.3s,-6.192636022735655,0.011361717500883767,0.8083201254969904,0.015422043594658052,-0.5149763822555542,0.2684304416179657,-0.5305850505828857,-0.0061601996421813965,-0.01032412052154541,0.00965939462184906,-0.17945294531793587,1.4167217259441967,0.010717458700885788,0.9722859263420105,0.17849132418632507,-0.15100133419036865, 295, 240, 29, 265
1733261297662,6i,19.685446549021513,2.4s : 0.3s,-6.192636022735655,0.011926315947399822,0.9020903985338361,0.006982937405556269,-0.4939972758293152,0.3254595100879669,-0.6123403906822205,0.00030678510665893555,-0.00017333030700683594,0.00697404146194458,-0.1798058291414384,1.417559041453185,0.012764583842909648,0.9723496437072754,0.17883853614330292,-0.15017753839492798, 295, 240, 29, 265
1733261297672,6i,19.685446549021513,2.4s : 0.3s,-6.192636022735655,0.0124664966696788,1.0032037191772878,0.022650708721882854,-0.49268513917922974,0.36043214797973633,-0.7110499143600464,0.010769367218017578,0.0010221600532531738,0.01990051567554474,-0.1801726589164024,1.4183310398489017,0.014871379988470502,0.9724003076553345,0.1791994422674179,-0.14941684901714325, 295, 240, 29, 265
1733261297682,6i,19.685446549021513,2.4s : 0.3s,-6.192636022735655,0.012999113985338016,1.1022064284741202,0.02583493913181465,-0.4733666777610779,0.4148651361465454,-0.7850724458694458,-0.01009225845336914,-0.02342917025089264,0.004082202911376953,-0.18055176189434716,1.4190057003598926,0.016957407290433976,0.9724336862564087,0.17957238852977753,-0.14875049889087677, 295, 240, 29, 265
1733261297692,6i,19.685446549021513,2.4s : 0.3s,-6.192636022735655,0.013500593641447301,1.2026481100632624,0.04138712769487948,-0.46143224835395813,0.46771663427352905,-0.8591442704200745,-0.03780442476272583,-0.01116974651813507,-0.012607797980308533,-0.1807777217190547,1.419702266523575,0.019590353921255455,0.9724969267845154,0.17979466915130615,-0.14806698262691498, 295, 240, 29, 265
1733261297702,6i,19.685446549021513,2.4s : 0.3s,-6.192636022735655,0.013759006561413647,1.2678104575548597,0.0554028652599593,-0.43324655294418335,0.4796116054058075,-0.8459203243255615,-0.034093618392944336,0.021393075585365295,-0.03807149827480316,-0.18093224218909262,1.4203850127035798,0.022087928571036336,0.9725701808929443,0.1799466758966446,-0.14739879965782166, 295, 240, 29, 265
1733261297712,6i,19.685446549021513,2.4s : 0.3s,-6.192636022735655,0.013916922806910481,1.3097927941865628,0.04408336918018028,-0.4653190076351166,0.46540123224258423,-0.8180037140846252,-0.028381526470184326,-2.925097942352295e-05,-0.03373175859451294,-0.1812414692131152,1.42113878757558,0.02536492303126854,0.9726260900497437,0.1802508533000946,-0.14665737748146057, 295, 240, 29, 265
1733261297722,6i,19.685446549021513,2.4s : 0.3s,-6.192636022735655,0.014042090711811778,1.3141964215510884,0.0420288181950191,-0.4189431071281433,0.44059011340141296,-0.7942824363708496,-0.03125345706939697,-0.004355266690254211,-0.027761027216911316,-0.18171477625583354,1.42184270199943,0.029339103947546758,0.972644567489624,0.1807163804769516,-0.1459600180387497, 295, 240, 29, 265
1733261297732,6i,19.685446549021513,2.4s : 0.3s,-6.192636022735655,0.014002848264023367,1.2959134558736924,0.0507662360327181,-0.34536874294281006,0.4268420934677124,-0.7599332928657532,-0.020437002182006836,0.020700499415397644,-0.0416056364774704,-0.18219492885200542,1.4224463308052104,0.03341569640058761,0.9726465344429016,0.18118861317634583,-0.14536002278327942, 295, 240, 29, 265
1733261297742,6i,19.685446549021513,2.4s : 0.3s,-6.192636022735655,0.013668047393195158,1.2524107278754664,0.06143470128395047,-0.23413385450839996,0.3953951299190521,-0.7359240651130676,-0.008413076400756836,0.04741477966308594,-0.038148149847984314,-0.18266429391233954,1.4228163654582935,0.037216848114201714,0.9726160168647766,0.18165017664432526,-0.1449875384569168, 295, 240, 29, 265
1733261297752,6i,19.685446549021513,2.4s : 0.3s,-6.192636022735655,0.013050769997523182,1.1906629195043137,0.07159906684561737,-0.11599868535995483,0.38288864493370056,-0.6916980147361755,-0.007414758205413818,0.05106109380722046,-0.04964083433151245,-0.18303729968155116,1.4229187800342875,0.04029514393220886,0.9725638628005981,0.18201696872711182,-0.14487795531749725, 295, 240, 29, 265
1733261297762,6i,19.685446549021513,2.4s : 0.3s,-6.192636022735655,0.012304755092424726,1.1225100750911763,0.07281776125490183,-0.013955810107290745,0.3654286861419678,-0.6491074562072754,-0.005273580551147461,0.05957584083080292,-0.041537150740623474,-0.1831921213249097,1.4228661678907055,0.04277055051881659,0.972528338432312,0.18216919898986816,-0.14492496848106384, 295, 240, 29, 265
1733261297772,6i,19.685446549021513,2.4s : 0.3s,-6.192636022735655,0.011550593129974834,1.0547632376636988,0.06945595220976368,0.02870190516114235,0.34795886278152466,-0.5951496958732605,-0.005621135234832764,0.06044363975524902,-0.03375053405761719,-0.18317857212386984,1.4227205300648267,0.04483026239181633,0.9725096821784973,0.18215587735176086,-0.14506696164608002, 295, 240, 29, 265
1733261297782,6i,19.685446549021513,2.4s : 0.3s,-6.192636022735655,0.010852893437103151,0.9905776022974282,0.042464775503139346,0.01785019040107727,0.31405109167099,-0.552985429763794,-0.0006641745567321777,0.03427766263484955,-0.025057092308998108,-0.18306710466856782,1.4224924238141787,0.04694418867762003,0.9724966883659363,0.18204627931118011,-0.14529180526733398, 295, 240, 29, 265
1733261297792,6i,19.685446549021513,2.4s : 0.3s,-6.192636022735655,0.010300248638518715,0.9304667941982423,0.019866794637982063,-0.0017232454847544432,0.2795189619064331,-0.5218786597251892,-0.0059462785720825195,0.0031414180994033813,-0.018693923950195312,-0.18302898974984616,1.4221480577212329,0.049427710333788906,0.9724533557891846,0.1820088028907776,-0.1456277072429657, 295, 240, 29, 265
1733261297802,6i,19.685446549021513,2.4s : 0.3s,-6.192636022735655,0.0098655019128318,0.8704242892467914,0.02683381094971557,0.035325318574905396,0.2573930621147156,-0.4838968515396118,-0.019408226013183594,-0.000926777720451355,-0.01850716769695282,-0.183085016504121,1.4217190936821162,0.05181555157109997,0.9723806977272034,0.18206389248371124,-0.1460433155298233, 295, 240, 29, 265
1733261297812,6i,19.685446549021513,2.4s : 0.3s,-6.192636022735655,0.009509570126248887,0.8090868129559208,0.052136030663292025,0.10612412542104721,0.24430415034294128,-0.4340970516204834,-0.02404153347015381,0.028110146522521973,-0.036742210388183594,-0.1829769769903292,1.421236405882647,0.053552491818006934,0.9723296165466309,0.1819576621055603,-0.1465156078338623, 295, 240, 29, 265
1733261297822,6i,19.685446549021513,2.4s : 0.3s,-6.192636022735655,0.009249254597718783,0.7521707240724546,0.054070998898019265,0.12892943620681763,0.22346416115760803,-0.3972216248512268,-0.02558833360671997,0.019512951374053955,-0.043452903628349304,-0.1827663513318737,1.42070547741865,0.05482543468311973,0.9722894430160522,0.18175053596496582,-0.14703752100467682, 295, 240, 29, 265
1733261297832,6i,19.685446549021513,2.4s : 0.3s,-6.192636022735655,0.009127448555012416,0.6961623648922455,0.041650218965032466,0.11900517344474792,0.19982033967971802,-0.35921618342399597,-0.02682363986968994,-0.011071130633354187,-0.029877468943595886,-0.18257015663995743,1.4201509536450945,0.055847267333761906,0.9722429513931274,0.18155761063098907,-0.1475820094347, 295, 240, 29, 265
1733261297842,6i,19.685446549021513,2.4s : 0.3s,-6.192636022735655,0.009114067017716472,0.6424125459498368,0.031925873529789685,0.12034567445516586,0.17928360402584076,-0.3250300884246826,-0.014079153537750244,-0.01616153120994568,-0.023661017417907715,-0.18237786575982948,1.4195850665372098,0.05675149756860068,0.9721938967704773,0.18136851489543915,-0.1481374353170395, 295, 240, 29, 265
1733261297852,6i,19.685446549021513,2.4s : 0.3s,-6.192636022735655,0.009173028813242156,0.593061739944798,0.02752977473294028,0.13172641396522522,0.165763258934021,-0.2929954528808594,-0.00427776575088501,-0.016336336731910706,-0.021741971373558044,-0.18221419582204307,1.4190439672196555,0.057332997720867765,0.9721428155899048,0.1812075525522232,-0.14866794645786285, 295, 240, 29, 265
1733261297862,6i,19.685446549021513,2.4s : 0.3s,-6.192636022735655,0.009289256646777025,0.5455072311060922,0.024545648206415447,0.15243344008922577,0.14430418610572815,-0.2570898234844208,-0.0033159255981445312,-0.01708368957042694,-0.017310142517089844,-0.18202770512149302,1.41850857707061,0.057387847916694115,0.9720966219902039,0.18102414906024933,-0.14919354021549225, 295, 240, 29, 265
1733261297872,6i,19.685446549021513,2.4s : 0.3s,-6.192636022735655,0.009442274560026682,0.5018474567021545,0.01914915722088876,0.18321584165096283,0.12059991806745529,-0.22164210677146912,-0.0004749298095703125,-0.01311977207660675,-0.01394045352935791,-0.18178289163326003,1.4178902477486375,0.05704113281289235,0.9720479846000671,0.18078337609767914,-0.1498013287782669, 295, 240, 29, 265
1733261297882,6i,19.685446549021513,2.4s : 0.3s,-6.192636022735655,0.009597263743235836,0.4649509932148538,0.012396507605229786,0.21502117812633514,0.10255558043718338,-0.18597736954689026,0.008996784687042236,0.0027093738317489624,-0.008086442947387695,-0.18143574736874477,1.4171991937257227,0.055949280373778346,0.9720062017440796,0.1804419457912445,-0.15048262476921082, 295, 240, 29, 265
1733261297892,6i,19.685446549021513,2.4s : 0.3s,-6.192636022735655,0.009738328574474492,0.4336526541746389,0.016801259754951264,0.22946590185165405,0.08407910168170929,-0.15462078154087067,0.012865543365478516,0.00923331081867218,-0.0056130290031433105,-0.18102385021499962,1.4164558059694987,0.054379963420076435,0.971967339515686,0.1800367832183838,-0.1512165665626526, 295, 240, 29, 265
1733261297902,6i,19.685446549021513,2.4s : 0.3s,-6.192636022735655,0.009880728819646446,0.4017936666175263,0.0068273714658034805,0.21993763744831085,0.06484264135360718,-0.1236388310790062,0.00500941276550293,-0.004098519682884216,-0.0021727681159973145,-0.18056958635419768,1.4157079636100682,0.05238643360311003,0.9719347357749939,0.17958992719650269,-0.15195602178573608, 295, 240, 29, 265
1733261297912,6i,19.685446549021513,2.4s : 0.3s,-6.192636022735655,0.010026145408226201,0.37141252938705116,0.020474257411149083,0.210846945643425,0.0486929677426815,-0.09834811836481094,0.001459360122680664,-0.020031660795211792,0.0039746761322021484,-0.18012277681928937,1.414953396122556,0.05017476258281702,0.9718989133834839,0.17915035784244537,-0.15270181000232697, 295, 240, 29, 265
1733261297922,6i,19.685446549021513,2.4s : 0.3s,-6.192636022735655,0.010174652333105189,0.34638782589999995,0.02318789122555918,0.21704797446727753,0.036674078553915024,-0.06804271042346954,-0.0018445253372192383,-0.0224590003490448,0.005465283989906311,-0.179627706018765,1.4142345164896093,0.047817601003808045,0.9718763828277588,0.17866328358650208,-0.15341424942016602, 295, 240, 29, 265
1733261297932,6i,19.685446549021513,2.4s : 0.3s,-6.192636022735655,0.010315155382918995,0.32325537043528957,0.014104635744621414,0.20943613350391388,0.022060783579945564,-0.04438692331314087,0.001616060733795166,-0.014011278748512268,0.00011473894119262695,-0.17907513777470319,1.4135226990522343,0.04522371727099076,0.9718642830848694,0.17811957001686096,-0.15412144362926483, 295, 240, 29, 265
1733261297942,6i,19.685446549021513,2.4s : 0.3s,-6.192636022735655,0.01044888387253166,0.3010000156129214,0.020766372096094048,0.19534309208393097,0.008857940323650837,-0.027826685458421707,0.0013386011123657227,-0.02047058939933777,-0.0032257288694381714,-0.1785373739136232,1.4128304166022505,0.0425721411256773,0.9718517661094666,0.17759038507938385,-0.15480925142765045, 295, 240, 29, 265
1733261297952,6i,19.685446549021513,2.4s : 0.3s,-6.192636022735655,0.010588569350079473,0.28651386842834725,0.03341745679505805,0.19038881361484528,-0.001832787413150072,-0.010477788746356964,-0.0033791661262512207,-0.03273122012615204,-0.005828797817230225,-0.17801815694008477,1.4121638581734752,0.039999296419610766,0.9718393683433533,0.17707939445972443,-0.1554715782403946, 295, 240, 29, 265
1733261297962,6i,19.685446549021513,2.4s : 0.3s,-6.192636022735655,0.010746221513046512,0.2691855589021305,0.035850489233952856,0.1763966977596283,-0.007986510172486305,0.004876233171671629,-0.005645096302032471,-0.03253656625747681,-0.013955727219581604,-0.17749487490314197,1.4115289840155136,0.0374378074362455,0.9718318581581116,0.17656436562538147,-0.1561032235622406, 295, 240, 29, 265
1733261297972,6i,19.685446549021513,2.4s : 0.3s,-6.192636022735655,0.010939926155692293,0.23785612424520589,0.041046995143074166,0.13115517795085907,-0.01619943045079708,0.019909510388970375,-0.007284283638000488,-0.03441061079502106,-0.021159037947654724,-0.17696492397366714,1.4109802166728256,0.0351295370095942,0.9718381762504578,0.17604270577430725,-0.1566513627767563, 295, 240, 29, 265
1733261297982,6i,19.685446549021513,2.4s : 0.3s,-6.192636022735655,0.011168083439777682,0.18072531866977432,0.04949621684971068,0.03929329663515091,-0.02920147404074669,0.023081636056303978,-0.004489123821258545,-0.04662656784057617,-0.01599019765853882,-0.17655548168979482,1.410509317662541,0.03358999051544219,0.9718354940414429,0.17563964426517487,-0.157120481133461, 295, 240, 29, 265
1733261297992,6i,19.685446549021513,2.4s : 0.3s,-6.192636022735655,0.011456431398594948,0.10687349359331029,0.06346235786896186,-0.05193062126636505,-0.04527098685503006,0.03933463990688324,-0.003915369510650635,-0.062262386083602905,-0.01164199411869049,-0.1760860593464337,1.4102250880308895,0.033036364909255045,0.9718721508979797,0.17517749965190887,-0.1574098914861679, 295, 240, 29, 265
1733261298002,6i,19.685446549021513,2.4s : 0.3s,-6.192636022735655,0.011823477324634388,0.04809412010957528,0.0651694086695386,-0.11086224764585495,-0.046731241047382355,0.04471825435757637,-0.006512165069580078,-0.06454652547836304,-0.006195932626724243,-0.1756317863010457,1.410035438467936,0.033400832980881194,0.9719204902648926,0.17473024129867554,-0.15760688483715057, 295, 240, 29, 265
1733261298012,6i,19.685446549021513,2.4s : 0.3s,-6.192636022735655,0.012248118661836916,0.06690744719494966,0.04313867815127734,-0.14898166060447693,-0.04894645884633064,0.04627620056271553,-0.006909191608428955,-0.04236340522766113,-0.0043070316314697266,-0.1752786435125986,1.4098447614846306,0.03421469954933486,0.9719514846801758,0.1743825227022171,-0.15780211985111237, 295, 240, 29, 265
1733261298022,6i,19.685446549021513,2.4s : 0.3s,-6.192636022735655,0.01269759389902696,0.10713344693636652,0.01995504647556092,-0.14638881385326385,-0.04090042784810066,0.04826498404145241,-0.003209412097930908,-0.01914326846599579,-0.0046302080154418945,-0.17487954105462133,1.409655009526609,0.03578521627813846,0.9719900488853455,0.17398951947689056,-0.15799768269062042, 295, 240, 29, 265
1733261298032,6i,19.685446549021513,2.4s : 0.3s,-6.192636022735655,0.013065956918448772,0.12877757543877047,0.005003304782098927,-0.12438791245222092,-0.028384637087583542,0.04724446311593056,-0.0020131468772888184,0.0040941983461380005,0.0020537376403808594,-0.1743389180591635,1.4095128826186358,0.03661941134863619,0.9720602631568909,0.17345711588859558,-0.15815091133117676, 295, 240, 29, 265
1733261298042,6i,19.685446549021513,2.4s : 0.3s,-6.192636022735655,0.013388573065984162,0.1301912316450925,0.0301036499651732,-0.09950041025876999,-0.01690490171313286,0.039219558238983154,-0.0022087693214416504,0.029949188232421875,0.0020969510078430176,-0.17386743027668747,1.4093720358906052,0.03715582888639516,0.9721185564994812,0.1729927510023117,-0.15830093622207642, 295, 240, 29, 265
1733261298052,6i,19.685446549021513,2.4s : 0.3s,-6.192636022735655,0.013649089557638822,0.1256034560089277,0.042164939104746404,-0.06420499831438065,-0.021029073745012283,0.02728327177464962,0.0002187490463256836,0.04203540086746216,-0.0032953470945358276,-0.17346337157493547,1.4092170547804375,0.03745355962774218,0.9721628427505493,0.17259477078914642,-0.15846282243728638, 295, 240, 29, 265
1733261298062,6i,19.685446549021513,2.4s : 0.3s,-6.192636022735655,0.01379227054093068,0.09700137932714623,0.04246067756824671,-0.01188546884804964,-0.010867739096283913,0.021829083561897278,0.00634455680847168,0.04184214770793915,-0.0034482479095458984,-0.17307093122811051,1.4090402702570275,0.037447010738888876,0.9722017645835876,0.17220820486545563,-0.1586456000804901, 295, 240, 29, 265
1733261298072,6i,19.685446549021513,2.4s : 0.3s,-6.192636022735655,0.013667017140071418,0.0662745697008444,0.053844541611831984,0.01991480588912964,-0.0026574796065688133,0.021391525864601135,0.008435487747192383,0.052169620990753174,0.010315418243408203,-0.17260900762253073,1.4089276197484082,0.0368444959790842,0.9722622632980347,0.1717531681060791,-0.1587679237127304, 295, 240, 29, 265
1733261298082,6i,19.685446549021513,2.4s : 0.3s,-6.192636022735655,0.013405071438647147,0.05719708552767455,0.051911386654405284,0.006590477656573057,0.003013189183548093,0.022015970200300217,0.001363992691040039,0.050552576780319214,0.011720433831214905,-0.17217492101106727,1.4088916604296793,0.036130273854245686,0.9723299741744995,0.17132551968097687,-0.15881486237049103, 295, 240, 29, 265
1733261298092,6i,19.685446549021513,2.4s : 0.3s,-6.192636022735655,0.013143537803746625,0.05802619969751022,0.03554499509127916,-0.052974581718444824,0.0015207537217065692,0.01825239323079586,-0.00125807523727417,0.028003424406051636,0.021855711936950684,-0.17187725623351013,1.4089435958131848,0.03589787565383939,0.9723885655403137,0.17103224992752075,-0.15877258777618408, 295, 240, 29, 265
1733261298102,6i,19.685446549021513,2.4s : 0.3s,-6.192636022735655,0.012879030269956253,0.08915841581722704,0.03585038454359752,-0.12826894223690033,-0.0037245640996843576,0.0216047465801239,0.004581034183502197,0.008930370211601257,0.03441675007343292,-0.17178393156269994,1.4090686156714722,0.03628835259711912,0.9724240899085999,0.17094029486179352,-0.15865357220172882, 295, 240, 29, 265
1733261298112,6i,19.685446549021513,2.4s : 0.3s,-6.192636022735655,0.012622743433941668,0.13215870438112626,0.03564978911336671,-0.17404389381408691,-0.008902814239263535,0.02526792511343956,0.0028311610221862793,-0.0023329555988311768,0.03546053171157837,-0.17181727415973821,1.409265348860536,0.037367238746658156,0.9724497199058533,0.17097315192222595,-0.15846136212348938, 295, 240, 29, 265
1733261298122,6i,19.685446549021513,2.4s : 0.3s,-6.192636022735655,0.01239773477112871,0.17016451125948995,0.026739097921337232,-0.19228067994117737,-0.006590480916202068,0.02467770129442215,-0.005740940570831299,-0.001894921064376831,0.026046693325042725,-0.17197666386918034,1.4095110345326467,0.03869849016449276,0.9724617004394531,0.17113018035888672,-0.15821805596351624, 295, 240, 29, 265
1733261298132,6i,19.685446549021513,2.4s : 0.3s,-6.192636022735655,0.012217947426655966,0.19079934669103976,0.02400423639333041,-0.17718347907066345,-0.009837939403951168,0.019227273762226105,-0.01291346549987793,0.002614647150039673,0.020065128803253174,-0.1722006232176689,1.4097558952360054,0.04012934799087921,0.97246253490448,0.17135083675384521,-0.1579737812280655, 295, 240, 29, 265
1733261298142,6i,19.685446549021513,2.4s : 0.3s,-6.192636022735655,0.012081233743594181,0.18781427794702168,0.015430686731348398,-0.12037132680416107,-0.012723741121590137,0.01116868294775486,-0.010449111461639404,0.003853335976600647,0.010680541396141052,-0.1724612089215537,1.409890159247605,0.04126141878594189,0.972439706325531,0.17160756886005402,-0.15783607959747314, 295, 240, 29, 265
1733261298152,6i,19.685446549021513,2.4s : 0.3s,-6.192636022735655,0.011969503239727662,0.16187406841860805,0.01629533835211147,-0.07534340023994446,-0.005985144525766373,0.005175505764782429,-0.0042951107025146484,0.015018731355667114,0.004639804363250732,-0.17279052418327898,1.4100203109519205,0.041765353391139994,0.9724043607711792,0.17193198204040527,-0.15770044922828674, 295, 240, 29, 265
1733261298162,6i,19.685446549021513,2.4s : 0.3s,-6.192636022735655,0.011874056878224418,0.13523453581063288,0.022707333456967044,-0.053753823041915894,-0.006554128602147102,0.006307914853096008,-0.0030099153518676758,0.020910978317260742,0.00832432508468628,-0.1732218660286396,1.4101733089643915,0.04200780043686647,0.9723551869392395,0.17235688865184784,-0.15753978490829468, 295, 240, 29, 265
1733261298172,6i,19.685446549021513,2.4s : 0.3s,-6.192636022735655,0.011794372357320006,0.10840583846915398,0.010990976973265685,-0.03341206535696983,-0.009555244818329811,0.0020900005474686623,-0.0001068115234375,0.007735133171081543,0.007807552814483643,-0.17357029392272416,1.4104281666411773,0.04207425756539934,0.972335934638977,0.17270009219646454,-0.15728236734867096, 295, 240, 29, 265
1733261298182,6i,19.685446549021513,2.4s : 0.3s,-6.192636022735655,0.011726295316899235,0.0815531653136267,0.006870281988581639,-0.012911983765661716,-0.008756696246564388,0.0023657376877963543,0.0032405853271484375,0.006009221076965332,-0.0007672309875488281,-0.17366491879007184,1.4107857321866684,0.04188930838987468,0.9723759889602661,0.17279329895973206,-0.15693208575248718, 295, 240, 29, 265
1733261298192,6i,19.685446549021513,2.4s : 0.3s,-6.192636022735655,0.011673434372090728,0.060565950836747824,0.011722142144925063,-0.006863412447273731,-0.007674654014408588,0.004898936487734318,6.0677528381347656e-05,0.01154358685016632,-0.0020372867584228516,-0.1736076033340453,1.4111519297245476,0.041702643706208235,0.9724431037902832,0.17273683845996857,-0.15657755732536316, 295, 240, 29, 265
1733261298202,6i,19.685446549021513,2.4s : 0.3s,-6.192636022735655,0.01164462949330362,0.058301453660753004,0.007924763851319022,-0.02586759626865387,-0.008895756676793098,0.00946435984224081,-0.004416525363922119,0.006303578615188599,-0.0018870830535888672,-0.17353649659095122,1.4114074195161204,0.04153736791151423,0.9724952578544617,0.17266680300235748,-0.15633106231689453, 295, 240, 29, 265
1733261298212,6i,19.685446549021513,2.4s : 0.3s,-6.192636022735655,0.01163221558155553,0.05650668765255539,0.006901152252456504,-0.02593923546373844,-0.010176205076277256,0.01696089282631874,-0.0027530789375305176,-0.005164995789527893,0.0036564022302627563,-0.17349935934261934,1.4115607107244086,0.04152156575762124,0.9725255370140076,0.1726302206516266,-0.15618300437927246, 295, 240, 29, 265
1733261298222,6i,19.685446549021513,2.4s : 0.3s,-6.192636022735655,0.011624440857056011,0.05524257749649827,0.010639275414672376,-0.027603844180703163,-0.011390739120543003,0.018765617161989212,0.0011026263236999512,-0.009704455733299255,0.004219233989715576,-0.17341415395495244,1.4115962925449625,0.04139809643033416,0.9725456237792969,0.17254629731178284,-0.1561507284641266, 295, 240, 29, 265
1733261298232,6i,19.685446549021513,2.4s : 0.3s,-6.192636022735655,0.01163069787358538,0.053629056798416,0.011237041091945543,-0.024136409163475037,-0.011979564093053341,0.015457437373697758,-0.0034600496292114258,-0.010682076215744019,-0.0004386305809020996,-0.1734617043697336,1.4115519441463293,0.041211216542554885,0.9725306630134583,0.1725931316614151,-0.15619255602359772, 295, 240, 29, 265
1733261298242,6i,19.685446549021513,2.4s : 0.3s,-6.192636022735655,0.011657471714178486,0.04906394989417536,0.014069909556006574,-0.0035930508747696877,-0.010200128890573978,0.015199177898466587,-0.0075754523277282715,-0.011701449751853943,-0.0019107460975646973,-0.1735671351622771,1.41154073969961,0.04115324323141035,0.9725108742713928,0.17269697785377502,-0.15620057284832, 295, 240, 29, 265
1733261298252,6i,19.685446549021513,2.4s : 0.3s,-6.192636022735655,0.011703331334904345,0.04346877415894779,0.016508861285866618,0.006422298960387707,-0.0008519010152667761,0.014118201099336147,-0.008091390132904053,-0.013672620058059692,-0.004486799240112305,-0.1735079817538943,1.411555306941102,0.040754473040373294,0.9725233316421509,0.17263871431350708,-0.1561880260705948, 295, 240, 29, 265
1733261298262,6i,19.685446549021513,2.4s : 0.3s,-6.192636022735655,0.011772234463327045,0.03893939786459141,0.020261818208986686,0.008495037443935871,-0.002622015308588743,0.01527893915772438,-0.011641442775726318,-0.01655016839504242,-0.0010535717010498047,-0.17340859482827742,1.411511084533819,0.04033984134712181,0.9725333452224731,0.1725408136844635,-0.1562337577342987, 295, 240, 29, 265
1733261298272,6i,19.685446549021513,2.4s : 0.3s,-6.192636022735655,0.011858826262526474,0.035311057140538143,0.02134750223263452,0.006882493384182453,-0.0005620601586997509,0.018359418958425522,-0.010543107986450195,-0.018561124801635742,-0.00020825862884521484,-0.17335886767755393,1.4114591488206527,0.03998502644820937,0.972533643245697,0.17249183356761932,-0.1562856137752533, 295, 240, 29, 265
1733261298282,6i,19.685446549021513,2.4s : 0.3s,-6.192636022735655,0.011957874137842694,0.033148449907191534,0.021579191930296136,-0.0003525164211168885,0.00014199072029441595,0.02030865103006363,-0.00891047716140747,-0.019646286964416504,-0.0005369633436203003,-0.17323672799025097,1.4114240455508493,0.03948264782436317,0.9725488424301147,0.1723715215921402,-0.15632309019565582, 295, 240, 29, 265
1733261298292,6i,19.685446549021513,2.4s : 0.3s,-6.192636022735655,0.012065051612847884,0.03244628007675741,0.02091110629927103,-0.010905292816460133,-0.0009134199935942888,0.019377078860998154,-0.007647037506103516,-0.01930774748325348,0.0024511367082595825,-0.17300150118038282,1.4114803673293252,0.03928184419628441,0.972597599029541,0.17213982343673706,-0.1562747359275818, 295, 240, 29, 265
1733261298302,6i,19.685446549021513,2.4s : 0.3s,-6.192636022735655,0.012175217946565774,0.03163649147782336,0.016892256861746065,-0.00968995876610279,0.002169055864214897,0.019070450216531754,-0.005465090274810791,-0.015745997428894043,0.002746760845184326,-0.1727161635372414,1.4115609921190249,0.03903742056649658,0.9726588129997253,0.17185872793197632,-0.15620411932468414, 295, 240, 29, 265
1733261298312,6i,19.685446549021513,2.4s : 0.3s,-6.192636022735655,0.012291677433081192,0.029179455815921507,0.01398359954841208,0.007638964336365461,0.005925444886088371,0.019127707928419113,-0.0073337554931640625,-0.009991124272346497,0.006475687026977539,-0.17243497559796042,1.4115942801941883,0.03868618657020511,0.9727117419242859,0.1715817153453827,-0.15617939829826355, 295, 240, 29, 265
1733261298322,6i,19.685446549021513,2.4s : 0.3s,-6.192636022735655,0.012413900636683468,0.026171245745863082,0.00833797020226434,0.028036780655384064,0.007587301544845104,0.02546939253807068,-0.0074394941329956055,0.0031551867723464966,0.002054378390312195,-0.17208567143212547,1.4116001802280354,0.03813339689477134,0.9727717638015747,0.17123758792877197,-0.1561831533908844, 295, 240, 29, 265
1733261298332,6i,19.685446549021513,2.4s : 0.3s,-6.192636022735655,0.01253792856300458,0.02410750080537162,0.009823384809349666,0.04312598705291748,0.0028865558560937643,0.02626115083694458,-0.0058193206787109375,0.00676804780960083,-0.004102185368537903,-0.17167103947406753,1.4115250685065972,0.037442197911034605,0.972830057144165,0.17082905769348145,-0.1562674641609192, 295, 240, 29, 265
1733261298342,6i,19.685446549021513,2.4s : 0.3s,-6.192636022735655,0.012659868482900188,0.03955508079641551,0.010095399216915671,0.06560838967561722,0.0020924899727106094,0.030977342277765274,-0.003949999809265137,0.004233002662658691,-0.008270204067230225,-0.17117760416847846,1.4114314752440182,0.03663612120951037,0.9728984832763672,0.17034286260604858,-0.15637187659740448, 295, 240, 29, 265
1733261298352,6i,19.685446549021513,2.4s : 0.3s,-6.192636022735655,0.01278383104677011,0.061153778895105884,0.015689896600332643,0.07934018224477768,0.0030056878458708525,0.034526534378528595,-0.0051438212394714355,0.0006921291351318359,-0.014806583523750305,-0.17059003149027627,1.4113123705695467,0.03558675981949666,0.9729785323143005,0.16976384818553925,-0.1565036177635193, 295, 240, 29, 265
1733261298362,6i,19.685446549021513,2.4s : 0.3s,-6.192636022735655,0.012908740154391344,0.08146113963895019,0.018132529547952927,0.09314907342195511,0.004614015109837055,0.030307790264487267,-0.004510939121246338,-0.0004254281520843506,-0.017557308077812195,-0.16997441221001441,1.4111925627174327,0.03435565902784843,0.9730626940727234,0.16915713250637054,-0.15663674473762512, 295, 240, 29, 265
1733261298372,6i,19.685446549021513,2.4s : 0.3s,-6.192636022735655,0.013025612844324137,0.09960832852893912,0.019950671740042003,0.10207784920930862,0.006243070587515831,0.030399136245250702,-0.0008601546287536621,0.007111966609954834,-0.01862013339996338,-0.1693711187899938,1.4111096758575326,0.03307348524547291,0.9731503129005432,0.16856250166893005,-0.15673361718654633, 295, 240, 29, 265
1733261298382,6i,19.685446549021513,2.4s : 0.3s,-6.192636022735655,0.01312541250046197,0.10303343716385188,0.018186962080677535,0.09169857949018478,0.0028038201853632927,0.028492679819464684,0.0034069418907165527,0.008569568395614624,-0.015675485134124756,-0.16880575847034662,1.4110314245627094,0.03185030405682459,0.9732319712638855,0.16800519824028015,-0.15682490170001984, 295, 240, 29, 265
1733261298392,6i,19.685446549021513,2.4s : 0.3s,-6.192636022735655,0.013209709839305606,0.10380174624483542,0.011932945222065058,0.07914896309375763,-0.0008958433754742146,0.02432003803551197,0.004059433937072754,-0.0022977441549301147,-0.010983467102050781,-0.1683599876739521,1.4109731897203424,0.03063468440701795,0.9732966423034668,0.1675657480955124,-0.15689347684383392, 295, 240, 29, 265
1733261298402,6i,19.685446549021513,2.4s : 0.3s,-6.192636022735655,0.013284534386607707,0.10408369364363264,0.011505467434079288,0.07647062838077545,-0.0038612729404121637,0.022825803607702255,0.0023580193519592285,-0.006448954343795776,-0.009231820702552795,-0.1680822098906816,1.410827183176959,0.029600995087351128,0.9733197093009949,0.16729189455509186,-0.157042995095253, 295, 240, 29, 265
1733261298412,6i,19.685446549021513,2.4s : 0.3s,-6.192636022735655,0.013357576312468296,0.10431860932318787,0.010155939016116897,0.07579098641872406,-0.0006087545771151781,0.02381303906440735,-0.0007366538047790527,-0.00258617103099823,-0.009793475270271301,-0.16783226636031745,1.4106429623375658,0.028522018198882868,0.9733321070671082,0.1670454740524292,-0.1572289764881134, 295, 240, 29, 265
1733261298422,6i,19.685446549021513,2.4s : 0.3s,-6.192636022735655,0.013440802046387963,0.10529095012506381,0.010739415091374804,0.08382800221443176,0.0022164599504321814,0.017905648797750473,-0.006039083003997803,-0.0055510252714157104,-0.006931856274604797,-0.16758938192915043,1.4104373606007428,0.02734454762793061,0.9733397364616394,0.16680599749088287,-0.1574355661869049, 295, 240, 29, 265
1733261298432,6i,19.685446549021513,2.4s : 0.3s,-6.192636022735655,0.013542166096083838,0.10669557585956353,0.014272191288842207,0.08725922554731369,0.00356961227953434,0.019479576498270035,-0.009904801845550537,-0.0082121342420578,-0.006176665425300598,-0.16731696832219517,1.4101862223276818,0.02620620259434803,0.9733449816703796,0.16653738915920258,-0.1576872617006302, 295, 240, 29, 265
1733261298442,6i,19.685446549021513,2.4s : 0.3s,-6.192636022735655,0.01365305463267462,0.10756176429173771,0.013657204468334782,0.08461283892393112,0.0021062050946056843,0.0177584420889616,-0.007574200630187988,-0.011305242776870728,0.0011585354804992676,-0.16701848180761975,1.4099009764049608,0.024938378566032256,0.9733489155769348,0.1662430614233017,-0.15797284245491028, 295, 240, 29, 265
1733261298452,6i,19.685446549021513,2.4s : 0.3s,-6.192636022735655,0.013772911795423807,0.1087902038263164,0.015734765204842738,0.08621367067098618,0.0005253527779132128,0.023600086569786072,-0.00805521011352539,-0.012936115264892578,0.0039183348417282104,-0.1667690430198864,1.4095963492280452,0.02368351365848127,0.973341703414917,0.16599708795547485,-0.1582760065793991, 295, 240, 29, 265
1733261298462,6i,19.685446549021513,2.4s : 0.3s,-6.192636022735655,0.013900044480518686,0.10992668159725592,0.011488091106388511,0.08660968393087387,0.0027923244051635265,0.022866718471050262,-0.0082741379737854,-0.0069651007652282715,0.003873273730278015,-0.1664856247885463,1.4093368764992058,0.02246691521403801,0.973347008228302,0.16571760177612305,-0.15853610634803772, 295, 240, 29, 265
1733261298472,6i,19.685446549021513,2.4s : 0.3s,-6.192636022735655,0.014040815232505489,0.10925739090944435,0.014530362100625376,0.07222595065832138,0.003683950752019882,0.026504063978791237,-0.01021653413772583,-0.010111048817634583,-0.002126157283782959,-0.1661014899229756,1.4091620839257173,0.02132936193015413,0.9733819961547852,0.16533875465393066,-0.15871645510196686, 295, 240, 29, 265
1733261298482,6i,19.685446549021513,2.4s : 0.3s,-6.192636022735655,0.014190553947252516,0.10356075124661687,0.018160597038103708,0.04792766645550728,0.005070791579782963,0.027907516807317734,-0.007975637912750244,-0.01623670756816864,-0.0016018152236938477,-0.16569075448106158,1.4090421731168752,0.02041225694328495,0.9734299182891846,0.16493366658687592,-0.15884409844875336, 295, 240, 29, 265
1733261298492,6i,19.685446549021513,2.4s : 0.3s,-6.192636022735655,0.014349830416125647,0.08552836493015921,0.022234345930305387,0.023177843540906906,0.006271344609558582,0.02842709980905056,-0.007988929748535156,-0.020744428038597107,-0.0004602670669555664,-0.16535684009440244,1.4089758289814476,0.01977914246328047,0.9734737277030945,0.1646043211221695,-0.15891756117343903, 295, 240, 29, 265
1733261298502,6i,19.685446549021513,2.4s : 0.3s,-6.192636022735655,0.014521264424389686,0.07199939798756386,0.023044280026162257,0.015213926322758198,0.0034704096615314484,0.02349252812564373,-0.008278191089630127,-0.02077747881412506,-0.005550384521484375,-0.1650500331593512,1.4089463459903087,0.019235194472687244,0.9735188484191895,0.16430167853832245,-0.15895439684391022, 295, 240, 29, 265
1733261298512,6i,19.685446549021513,2.4s : 0.3s,-6.192636022735655,0.014700256557424681,0.06702256815903998,0.025315663694185916,0.016443507745862007,0.0007795515703037381,0.02499375119805336,-0.005035221576690674,-0.02248506247997284,-0.01048576831817627,-0.16475471853212,1.408882990798546,0.018760555176669552,0.9735564589500427,0.16401037573814392,-0.15902386605739594, 295, 240, 29, 265
1733261298522,6i,19.685446549021513,2.4s : 0.3s,-6.192636022735655,0.014883992433985053,0.06548840996099405,0.026688261151427115,0.02784130536019802,-0.0026261876337230206,0.02878582663834095,-0.0035644173622131348,-0.02561253309249878,-0.006599724292755127,-0.16438293511674962,1.4088511510480881,0.01827579987049938,0.97361159324646,0.16364361345767975,-0.15906469523906708, 295, 240, 29, 265
1733261298532,6i,19.685446549021513,2.4s : 0.3s,-6.192636022735655,0.01508943750228444,0.06591223391934696,0.03164013124146716,0.04065989702939987,-0.004501852206885815,0.03341519832611084,-0.009382069110870361,-0.02795247733592987,-0.011477530002593994,-0.16393981372788352,1.4088109833918645,0.01760771289035556,0.9736766219139099,0.16320645809173584,-0.1591154783964157, 295, 240, 29, 265
1733261298542,6i,19.685446549021513,2.4s : 0.3s,-6.192636022735655,0.015323545303625629,0.06889741668270964,0.032211166834080894,0.06001508980989456,-0.0005506530869752169,0.0357765257358551,-0.01247936487197876,-0.02600163221359253,-0.014343634247779846,-0.16349358644491344,1.4087420522409195,0.016753764075151653,0.9737375378608704,0.16276618838310242,-0.15919433534145355, 295, 240, 29, 265
1733261298552,6i,19.685446549021513,2.4s : 0.3s,-6.192636022735655,0.01558945681650427,0.07108126583973708,0.035474006779358115,0.05207620561122894,-0.002734178677201271,0.044150568544864655,-0.013688981533050537,-0.0298243910074234,-0.013473033905029297,-0.16296049661445208,1.4086145256623948,0.01595334917410039,0.9738026261329651,0.1622401922941208,-0.1593324989080429, 295, 240, 29, 265
1733261298562,6i,19.685446549021513,2.4s : 0.3s,-6.192636022735655,0.015918928987550367,0.07404847902492341,0.046281029916534475,0.0506836362183094,-0.000282827764749527,0.05429960787296295,-0.01521366834640503,-0.04231695830821991,-0.010943174362182617,-0.16229118789702682,1.4085103168117492,0.015359557427715328,0.9738929867744446,0.16157971322536469,-0.15945148468017578, 295, 240, 29, 265
1733261298572,6i,19.685446549021513,2.4s : 0.3s,-6.192636022735655,0.016282947171912306,0.08829717306271884,0.04560848519600644,0.07483983784914017,-0.005244030617177486,0.05530814826488495,-0.010553181171417236,-0.04194064438343048,-0.014482632279396057,-0.16152338674041058,1.408373602140643,0.014528427489470629,0.9739934206008911,0.16082194447517395,-0.15960465371608734, 295, 240, 29, 265
1733261298582,6i,19.685446549021513,2.4s : 0.3s,-6.192636022735655,0.016645487511090885,0.10885909619107267,0.03410106192470157,0.09818630665540695,-0.008583146147429943,0.06319406628608704,0.002001821994781494,-0.026049837470054626,-0.021915316581726074,-0.16068204927669502,1.4081313945110034,0.013746211780102264,0.9740877747535706,0.15999150276184082,-0.15986239910125732, 295, 240, 29, 265
1733261298592,6i,19.685446549021513,2.4s : 0.3s,-6.192636022735655,0.016994815686948463,0.12222795723920421,0.03393759584451625,0.09791333973407745,-0.01648900657892227,0.06419754773378372,0.008244633674621582,-0.02315644919872284,-0.023400112986564636,-0.15974503694313505,1.4077695029302304,0.012538834531300709,0.9741773009300232,0.15906649827957153,-0.16023916006088257, 295, 240, 29, 265
1733261298602,6i,19.685446549021513,2.4s : 0.3s,-6.192636022735655,0.017347002176062273,0.12383525523274595,0.04553833957539326,0.07884123921394348,-0.031085126101970673,0.06315528601408005,0.007934033870697021,-0.03914438188076019,-0.021874845027923584,-0.15879903304004733,1.4073565653689841,0.01144778121010597,0.974259078502655,0.15813246369361877,-0.160665825009346, 295, 240, 29, 265
1733261298612,6i,19.685446549021513,2.4s : 0.3s,-6.192636022735655,0.01770817522583651,0.12472692591662002,0.04367185550139933,0.06800350546836853,-0.040120963007211685,0.06825550645589828,0.006365954875946045,-0.03693079948425293,-0.02242368459701538,-0.15785539605848123,1.4068015493929757,0.010493019286052415,0.9743165969848633,0.1572006344795227,-0.16123083233833313, 295, 240, 29, 265
1733261298622,6i,19.685446549021513,2.4s : 0.3s,-6.192636022735655,0.01808677948046156,0.12535841256374128,0.040642353347507654,0.058701347559690475,-0.04502766206860542,0.07520535588264465,0.0022893548011779785,-0.03244869410991669,-0.024364769458770752,-0.15688606549712766,1.4061725964055893,0.009666184219246924,0.9743648171424866,0.15624327957630157,-0.16186848282814026, 295, 240, 29, 265
1733261298632,6i,19.685446549021513,2.4s : 0.3s,-6.192636022735655,0.018489882634863196,0.12537523000735037,0.03715922210397719,0.05139416828751564,-0.04736751690506935,0.07419867813587189,-0.0027511119842529297,-0.03024698793888092,-0.02140931785106659,-0.1558775023812034,1.4055305873506683,0.008922405018239026,0.9744156002998352,0.1552470177412033,-0.16251984238624573, 295, 240, 29, 265
1733261298642,6i,19.685446549021513,2.4s : 0.3s,-6.192636022735655,0.018927546141859018,0.12672482828946005,0.03756198891435555,0.05514589697122574,-0.054480861872434616,0.08026420325040817,-0.008918046951293945,-0.028493627905845642,-0.022792205214500427,-0.15475143517353773,1.4048652063255924,0.008282955393096265,0.9744790196418762,0.15413451194763184,-0.16319692134857178, 295, 240, 29, 265
1733261298652,6i,19.685446549021513,2.4s : 0.3s,-6.192636022735655,0.01938279141613711,0.13105475551498533,0.031478469366611556,0.06355348974466324,-0.053634777665138245,0.0863439291715622,-0.005152463912963867,-0.022327691316604614,-0.021582871675491333,-0.15356100707340456,1.404156353878305,0.00750041821649246,0.9745433330535889,0.1529581993818283,-0.16391795873641968, 295, 240, 29, 265
1733261298662,6i,19.685446549021513,2.4s : 0.3s,-6.192636022735655,0.01983926798295154,0.1394029631224974,0.026315972921319968,0.07525476068258286,-0.06353352218866348,0.08372281491756439,-0.001536726951599121,-0.014745935797691345,-0.02174226939678192,-0.15245132129836145,1.4033310680520357,0.006615145939114534,0.9745745062828064,0.15186147391796112,-0.1647503823041916, 295, 240, 29, 265
1733261298672,6i,19.685446549021513,2.4s : 0.3s,-6.192636022735655,0.020303037650066004,0.14230244642659373,0.030535589691421988,0.06096077337861061,-0.07404129207134247,0.08234569430351257,-0.0043991804122924805,-0.012065589427947998,-0.027703627943992615,-0.15137597756425045,1.402414612114785,0.005713447841671941,0.9745835065841675,0.1507985144853592,-0.1656707376241684, 295, 240, 29, 265
1733261298682,6i,19.685446549021513,2.4s : 0.3s,-6.192636022735655,0.020765370501921232,0.14502780346480665,0.02559262010928187,0.05699599161744118,-0.08624669909477234,0.0771172046661377,-0.0008054971694946289,-0.015533939003944397,-0.020323142409324646,-0.1502230868276805,1.4014317043048456,0.004951303046357388,0.9745909571647644,0.1496587097644806,-0.16665777564048767, 295, 240, 29, 265
1733261298692,6i,19.685446549021513,2.4s : 0.3s,-6.192636022735655,0.021221716599511428,0.15248504137832117,0.025141742284316586,0.05917659029364586,-0.0950298011302948,0.08331064879894257,0.0009221434593200684,-0.013409271836280823,-0.021247312426567078,-0.14909289955465133,1.400326870886087,0.004194077036626046,0.9745723605155945,0.1485411524772644,-0.16776302456855774, 295, 240, 29, 265
1733261298702,6i,19.685446549021513,2.4s : 0.3s,-6.192636022735655,0.02168202761222315,0.1537450173765392,0.03343456398491593,0.015369055792689323,-0.109078548848629,0.082950159907341,0.0023533105850219727,-0.018674880266189575,-0.02763296663761139,-0.14799882503619735,1.3991259220516876,0.003704720048869316,0.9745298624038696,0.14745913445949554,-0.16896100342273712, 295, 240, 29, 265
1733261298712,6i,19.685446549021513,2.4s : 0.3s,-6.192636022735655,0.022166728774414012,0.15762793506134656,0.039590396708505435,-0.032834429293870926,-0.12513847649097443,0.0844801515340805,-0.002441227436065674,-0.03649987280368805,-0.015139326453208923,-0.1470142483291118,1.3978550925027893,0.003686660595246163,0.9744566679000854,0.14648523926734924,-0.17022418975830078, 295, 240, 29, 265
1733261298722,6i,19.685446549021513,2.4s : 0.3s,-6.192636022735655,0.022668417528451355,0.1705735210977501,0.03134261267569004,-0.03801600635051727,-0.1271800994873047,0.09479939192533493,-0.00868767499923706,-0.029367506504058838,-0.006665825843811035,-0.14603598038654383,1.3965287010665912,0.004021980365308198,0.9743708372116089,0.14551745355129242,-0.17154134809970856, 295, 240, 29, 265
1733261298732,6i,19.685446549021513,2.4s : 0.3s,-6.192636022735655,0.023152970942619405,0.186246211292887,0.013481101997840889,-0.04419001191854477,-0.13169682025909424,0.10222002863883972,-0.005782425403594971,-0.005198180675506592,-0.011012837290763855,-0.14501873451406486,1.395206471402786,0.004425525769851411,0.9742883443832397,0.14451096951961517,-0.17285528779029846, 295, 240, 29, 265
1733261298742,6i,19.685446549021513,2.4s : 0.3s,-6.192636022735655,0.02361796020780697,0.20487621491185526,0.015546041265732398,-0.08215323835611343,-0.14584028720855713,0.0997186228632927,-0.00300520658493042,-0.0038722753524780273,-0.014753088355064392,-0.14407977981872067,1.3938230998004368,0.004968489058269916,0.9741814136505127,0.1435818076133728,-0.17422673106193542, 295, 240, 29, 265
1733261298752,6i,19.685446549021513,2.4s : 0.3s,-6.192636022735655,0.024064660521665296,0.22294809205209132,0.010912709626683408,-0.08674399554729462,-0.14989016950130463,0.10370191186666489,-0.0049890875816345215,-0.008397608995437622,-0.0048658400774002075,-0.14319438804525855,1.3923270970873813,0.005815481787284787,0.9740445017814636,0.1427055299282074,-0.17570644617080688, 295, 240, 29, 265
1733261298762,6i,19.685446549021513,2.4s : 0.3s,-6.192636022735655,0.02448250833795122,0.23308857836679792,0.009372573216244523,-0.08028236776590347,-0.15013720095157623,0.1041998565196991,-0.004318296909332275,0.0017271339893341064,-0.008137226104736328,-0.14224575233060543,1.390885308691705,0.006730158743270205,0.9739229679107666,0.14176654815673828,-0.17713476717472076, 295, 240, 29, 265
1733261298772,6i,19.685446549021513,2.4s : 0.3s,-6.192636022735655,0.024865347041088736,0.24284821644184848,0.018002173004117394,-0.06966754049062729,-0.16520191729068756,0.10203470289707184,9.864568710327148e-05,0.008306324481964111,-0.015971019864082336,-0.14131831690233043,1.3893488542051164,0.007454734490033182,0.9737785458564758,0.14084841310977936,-0.17865459620952606, 295, 240, 29, 265
1733261298782,6i,19.685446549021513,2.4s : 0.3s,-6.192636022735655,0.025220055472910712,0.25119689758029284,0.01605298452474906,-0.05611378327012062,-0.17612971365451813,0.1031482070684433,0.002454698085784912,0.002748459577560425,-0.01562429964542389,-0.140335657706175,1.3876237027105132,0.008152974713710357,0.9736045002937317,0.13987548649311066,-0.1803593635559082, 295, 240, 29, 265
1733261298792,6i,19.685446549021513,2.4s : 0.3s,-6.192636022735655,0.02553754800392352,0.25119089891070573,0.01719046766524839,0.007288624998182058,-0.1695074886083603,0.10208906978368759,-0.0009251236915588379,0.012565746903419495,-0.011694371700286865,-0.1391432173017919,1.3859221978761544,0.008399488014656625,0.9734594821929932,0.1386946588754654,-0.18204623460769653, 295, 240, 29, 265
1733261298802,6i,19.685446549021513,2.4s : 0.3s,-6.192636022735655,0.025714240757120036,0.24734373177410923,0.05028282019880163,0.09016260504722595,-0.1653544306755066,0.09823224693536758,0.0002638101577758789,0.04309174418449402,-0.025911271572113037,-0.13790221682045398,1.3842572927948333,0.008034968293712941,0.973323404788971,0.13746555149555206,-0.18369847536087036, 295, 240, 29, 265
1733261298812,6i,19.685446549021513,2.4s : 0.3s,-6.192636022735655,0.025704166017918608,0.25039505312371674,0.06156028049054662,0.16933013498783112,-0.16004009544849396,0.10085492581129074,0.009698808193206787,0.050349920988082886,-0.03406591713428497,-0.13672119527444598,1.3824605007213862,0.00683807074873619,0.9731506109237671,0.1362956464290619,-0.18547730147838593, 295, 240, 29, 265
1733261298822,6i,19.685446549021513,2.4s : 0.3s,-6.192636022735655,0.025686025882606347,0.27602081835985237,0.04006466524819384,0.21369825303554535,-0.15970857441425323,0.11070193350315094,0.01046985387802124,0.027808144688606262,-0.026875019073486328,-0.13533970826290184,1.380610901980084,0.005080321522111281,0.9729897379875183,0.1349269151687622,-0.18731233477592468, 295, 240, 29, 265
1733261298832,6i,19.685446549021513,2.4s : 0.3s,-6.192636022735655,0.02568878422372098,0.31429235488338453,0.025492122300175304,0.26118162274360657,-0.15645764768123627,0.11470945924520493,0.0015601515769958496,0.013505011796951294,-0.021564528346061707,-0.13380557261030962,1.3787999444188186,0.002865112196763059,0.9728509783744812,0.1334066540002823,-0.1891133338212967, 295, 240, 29, 265
1733261298842,6i,19.685446549021513,2.4s : 0.3s,-6.192636022735655,0.025720381654244426,0.36730484609987146,0.03030987744932492,0.3331460952758789,-0.15230010449886322,0.11952931433916092,-0.005103468894958496,0.0170794278383255,-0.024514004588127136,-0.13216983800933735,1.376933705129012,-5.247046088018009e-05,0.9727091789245605,0.13178536295890808,-0.19097036123275757, 295, 240, 29, 265
1733261298852,6i,19.685446549021513,2.4s : 0.3s,-6.192636022735655,0.025755316341714338,0.44714852467592126,0.0341500821907679,0.4552325904369354,-0.1473410278558731,0.1147361546754837,0.001906752586364746,0.026215538382530212,-0.021802246570587158,-0.13038837939839323,1.3749137446791084,-0.0038821690184200346,0.9725502133369446,0.13001923263072968,-0.19298020005226135, 295, 240, 29, 265
1733261298862,6i,19.685446549021513,2.4s : 0.3s,-6.192636022735655,0.025783288074215246,0.5528115809176848,0.040666988232276054,0.589345395565033,-0.12676464021205902,0.11453721672296524,-0.0005138516426086426,0.03632141649723053,-0.018283724784851074,-0.12833731482417837,1.372917935376175,-0.009025383595678846,0.9724225401878357,0.12798531353473663,-0.19497285783290863, 295, 240, 29, 265
1733261298872,6i,19.685446549021513,2.4s : 0.3s,-6.192636022735655,0.025812876576968742,0.6608009082111368,0.038244259922588654,0.6747819781303406,-0.10708122700452805,0.1092686876654625,-0.008345365524291992,0.03524291515350342,-0.01228475570678711,-0.1259941785764135,1.3709830813544026,-0.01526948595306975,0.9723348021507263,0.12566109001636505,-0.1969129741191864, 295, 240, 29, 265
1733261298882,6i,19.685446549021513,2.4s : 0.3s,-6.192636022735655,0.02583609104055317,0.7677139495176062,0.033173706471578454,0.747330904006958,-0.1053495928645134,0.1164124459028244,-0.009972572326660156,0.031639039516448975,-0.00011739134788513184,-0.12347493531892637,1.369095033977765,-0.022332070772857232,0.9722683429718018,0.1231614202260971,-0.19881123304367065, 295, 240, 29, 265
1733261298892,6i,19.685446549021513,2.4s : 0.3s,-6.192636022735655,0.025832437488020898,0.875833132099729,0.024756926012450515,0.8290901780128479,-0.09971780329942703,0.1226692721247673,-0.0007076859474182129,0.020103074610233307,0.014431595802307129,-0.12072346566993859,1.367132294556095,-0.030138481176108872,0.9722044467926025,0.12043043971061707,-0.20078693330287933, 295, 240, 29, 265
1733261298902,6i,19.685446549021513,2.4s : 0.3s,-6.192636022735655,0.025781099542387425,0.9996627123118655,0.033648266207929524,0.9534711241722107,-0.07537416368722916,0.12116975337266922,0.0030508041381835938,0.01374123990535736,0.030562669038772583,-0.11772561485336346,1.3652266240702815,-0.03894491624081465,0.9721689820289612,0.11745387315750122,-0.2027120292186737, 295, 240, 29, 265
1733261298912,6i,19.685446549021513,2.4s : 0.3s,-6.192636022735655,0.02561449784892583,1.1459495218705402,0.05485777012815713,1.106522560119629,-0.036972709000110626,0.1154298409819603,-0.011023283004760742,0.04676385968923569,0.02647647261619568,-0.1144662466903072,1.3635136461469495,-0.049223900937927785,0.9721899032592773,0.11421644687652588,-0.20445476472377777, 295, 240, 29, 265
1733261298922,6i,19.685446549021513,2.4s : 0.3s,-6.192636022735655,0.025357279848276605,1.306606203511473,0.0699007846049947,1.2525115013122559,-0.02104998007416725,0.10045644640922546,-0.016317367553710938,0.06704208999872208,0.011190235614776611,-0.11096572562865943,1.3619305116257594,-0.06104622541462097,0.9722501039505005,0.11073813587427139,-0.20607523620128632, 295, 240, 29, 265
1733261298932,6i,19.685446549021513,2.4s : 0.3s,-6.192636022735655,0.025088368680000004,1.462985660240136,0.05997092234434898,1.36142098903656,-0.014407258480787277,0.08822827786207199,-0.005994856357574463,0.05740167200565338,0.01629789173603058,-0.10732454511602203,1.3603874243901328,-0.07402892816530966,0.9723188281059265,0.1071186289191246,-0.2076580822467804, 295, 240, 29, 265
1733261298942,6i,19.685446549021513,2.4s : 0.3s,-6.192636022735655,0.02469782471866133,1.5969463301064712,0.07402946312501871,1.4213006496429443,-0.009442370384931564,0.08702709525823593,0.0019319653511047363,0.06905858218669891,0.026599645614624023,-0.1035507463191211,1.358854558490573,-0.0880167986719574,0.9723876714706421,0.10336578637361526,-0.20923183858394623, 295, 240, 29, 265
1733261298952,6i,19.685446549021513,2.4s : 0.3s,-6.192636022735655,0.024302795051086148,1.67616277288022,0.07104979625066571,1.38459050655365,-0.015599864535033703,0.0812072902917862,0.005460500717163086,0.0698433518409729,0.011839032173156738,-0.09974030294536441,1.357327757527624,-0.1021662824283182,0.9724448919296265,0.09957501292228699,-0.21079812943935394, 295, 240, 29, 265
1733261298962,6i,19.685446549021513,2.4s : 0.3s,-6.192636022735655,0.023938651000696674,1.690084424768017,0.037414039485601354,1.284285545349121,-0.019086653366684914,0.07349370419979095,0.010703742504119873,0.03445521742105484,0.009903445839881897,-0.09615559935285836,1.3558800083948321,-0.11553555767541111,0.9724811911582947,0.09600749611854553,-0.2122805267572403, 295, 240, 29, 265
1733261298972,6i,19.685446549021513,2.4s : 0.3s,-6.192636022735655,0.023586971183385378,1.6437201419367409,0.035442575997590084,1.1425284147262573,-0.030524929985404015,0.0554148405790329,0.009506046772003174,0.02134302258491516,0.026651203632354736,-0.09291111279966478,1.35451045958567,-0.12772620340929358,0.9724887013435364,0.09277749806642532,-0.21367792785167694, 295, 240, 29, 265
1733261298982,6i,19.685446549021513,2.4s : 0.3s,-6.192636022735655,0.023241046538642406,1.5688638052009973,0.05811421035953005,1.0382498502731323,-0.04370296373963356,0.025796562433242798,0.0071961283683776855,0.051889568567276,0.02515849471092224,-0.09016988120245795,1.3531824230911587,-0.13872415852030426,0.9724487066268921,0.09004773944616318,-0.21502332389354706, 295, 240, 29, 265
1733261298992,6i,19.685446549021513,2.4s : 0.3s,-6.192636022735655,0.02279580878183534,1.5051769233316887,0.09563297635276713,1.011809229850769,-0.040716227144002914,-0.02148546651005745,0.00689321756362915,0.09026812016963959,0.030819088220596313,-0.08793052428019366,1.3518462750567626,-0.14914046165380992,0.97235506772995,0.08781725913286209,-0.2163657546043396, 295, 240, 29, 265
1733261299002,6i,19.685446549021513,2.4s : 0.3s,-6.192636022735655,0.022343127101411644,1.4865512713831635,0.15440368986369377,1.075924038887024,-0.039957355707883835,-0.08756545186042786,0.0022373199462890625,0.1503908932209015,0.03490090370178223,-0.08618125099545891,1.3505384446340274,-0.1597725776571385,0.9722195863723755,0.08607461303472519,-0.21767045557498932, 295, 240, 29, 265
1733261299012,6i,19.685446549021513,2.4s : 0.3s,-6.192636022735655,0.022223515761204647,1.5285015031618479,0.2230282481588629,1.2083903551101685,-0.033771365880966187,-0.1484980434179306,-0.019492506980895996,0.21951159834861755,0.03429722785949707,-0.08483520371642726,1.3491919095078944,-0.17175113385676033,0.9720378518104553,0.08473347872495651,-0.21900467574596405, 295, 240, 29, 265
1733261299022,6i,19.685446549021513,2.4s : 0.3s,-6.192636022735655,0.02298521419975864,1.5813100749568416,0.2679862368969734,1.2580734491348267,-0.022236861288547516,-0.2253095954656601,-0.06004440784454346,0.25923874974250793,0.031726375222206116,-0.08392311923007927,1.3478510976273976,-0.18478451117849412,0.9718181490898132,0.08382464200258255,-0.22032475471496582, 295, 240, 29, 265
1733261299032,6i,19.685446549021513,2.4s : 0.3s,-6.192636022735655,0.024998891394866482,1.657789840984919,0.3157016457346087,1.3442784547805786,0.006007025949656963,-0.29718005657196045,-0.09984821081161499,0.2941189706325531,0.05649685859680176,-0.08361831147742894,1.3466735269758507,-0.19855487793500073,0.9715829491615295,0.08352090418338776,-0.22147467732429504, 295, 240, 29, 265
1733261299042,6i,19.685446549021513,2.4s : 0.3s,-6.192636022735655,0.028525650542811302,1.7494665949096164,0.36271039537464955,1.4231847524642944,0.045119188725948334,-0.3726155757904053,-0.13166552782058716,0.33186760544776917,0.06392896175384521,-0.08377300716498196,1.3457113507689247,-0.21344274740022595,0.9713568687438965,0.08367505669593811,-0.2224065214395523, 295, 240, 29, 265
1733261299052,6i,19.685446549021513,2.4s : 0.3s,-6.192636022735655,0.033724309530360055,1.853370378459354,0.4117975724062913,1.4980241060256958,0.07547762244939804,-0.46988460421562195,-0.162031888961792,0.3768642544746399,0.03600335121154785,-0.08461673211254482,1.3450686940830512,-0.22920592793672756,0.9711446166038513,0.08451579511165619,-0.22301486134529114, 295, 240, 29, 265
1733261299062,6i,19.685446549021513,2.4s : 0.3s,-6.192636022735655,0.0406311368574308,1.9803162311657625,0.48105617116007826,1.6110438108444214,0.1136777400970459,-0.5439721345901489,-0.19720536470413208,0.4384025037288666,0.018119841814041138,-0.08608740993725399,1.344600014038113,-0.24618194058267895,0.970917820930481,0.08598111569881439,-0.22344186902046204, 295, 240, 29, 265
1733261299072,6i,19.685446549021513,2.4s : 0.3s,-6.192636022735655,0.04909210578321989,2.1073425196786526,0.5360283015782111,1.679347038269043,0.1324508935213089,-0.6293736100196838,-0.21320122480392456,0.4917794466018677,0.004955172538757324,-0.08809223306674643,1.3442886884804215,-0.2643152062377931,0.9706781506538391,0.08797834068536758,-0.22370494902133942, 295, 240, 29, 265
1733261299082,6i,19.685446549021513,2.4s : 0.3s,-6.192636022735655,0.05888762285362951,2.214871315316642,0.5773736613865685,1.7022883892059326,0.15506801009178162,-0.6905133128166199,-0.22180163860321045,0.5330511927604675,0.004561126232147217,-0.09074587650936794,1.344136732668236,-0.28297744159512334,0.9704132080078125,0.09062138199806213,-0.2237991839647293, 295, 240, 29, 265
1733261299092,6i,19.685446549021513,2.4s : 0.3s,-6.192636022735655,0.06949722812430272,2.2818050413254776,0.5625703370850687,1.6555213928222656,0.15088072419166565,-0.7489683628082275,-0.20646131038665771,0.5231005549430847,0.014997363090515137,-0.0939658376932595,1.3439743670925108,-0.30164908896090775,0.9700875878334045,0.09382762014865875,-0.22388997673988342, 295, 240, 29, 265
1733261299102,6i,19.685446549021513,2.4s : 0.3s,-6.192636022735655,0.08047569213638833,2.3197388771967575,0.5311220297120757,1.5979927778244019,0.14812861382961273,-0.8226101398468018,-0.19989818334579468,0.49181273579597473,0.015860632061958313,-0.09797412288329704,1.3437975590660969,-0.3198899762279565,0.9696736931800842,0.09781745821237564,-0.2239750325679779, 295, 240, 29, 265
1733261299112,6i,19.685446549021513,2.4s : 0.3s,-6.192636022735655,0.0918302535450912,2.3846325948365212,0.5466783021604836,1.655411958694458,0.1421426236629486,-0.917036235332489,-0.21958541870117188,0.5005843639373779,0.00739625096321106,-0.10279187472734333,1.3434606626157133,-0.3383740164123743,0.969127893447876,0.10261095315217972,-0.22419290244579315, 295, 240, 29, 265
1733261299122,6i,19.685446549021513,2.4s : 0.3s,-6.192636022735655,0.10378405416282693,2.4825817430732777,0.5967818156333411,1.7403463125228882,0.1389472782611847,-1.0310486555099487,-0.23168492317199707,0.5486623644828796,-0.03795051574707031,-0.1084410401080448,1.3428469512547532,-0.3572517013878838,0.9684098958969116,0.10822863131761551,-0.22465303540229797, 295, 240, 29, 265
1733261299132,6i,19.685446549021513,2.4s : 0.3s,-6.192636022735655,0.11646364232487542,2.593607780058138,0.643089084559439,1.7887028455734253,0.1434141993522644,-1.1549458503723145,-0.2540246248245239,0.58798748254776,-0.05749592185020447,-0.11508630188541663,1.342057686385593,-0.37759539768746025,0.9675103425979614,0.11483241617679596,-0.22524923086166382, 295, 240, 29, 265
1733261299142,6i,19.685446549021513,2.4s : 0.3s,-6.192636022735655,0.1297354087537911,2.7154116352671265,0.6547282500443807,1.8319333791732788,0.14387869834899902,-1.2888299226760864,-0.27481263875961304,0.5921736359596252,-0.04977428913116455,-0.12287233689166294,1.3410665953638206,-0.3986701754423656,0.9663869142532349,0.12256339192390442,-0.22599759697914124, 295, 240, 29, 265
1733261299152,6i,19.685446549021513,2.4s : 0.3s,-6.192636022735655,0.14346960919408236,2.8326182340885486,0.6623826068625353,1.8356897830963135,0.14621615409851074,-1.4203513860702515,-0.2779204845428467,0.5983882546424866,-0.05867213010787964,-0.13188271661749684,1.3398341537789344,-0.42031066195705974,0.9649933576583862,0.1315007358789444,-0.22692640125751495, 295, 240, 29, 265
1733261299162,6i,19.685446549021513,2.4s : 0.3s,-6.192636022735655,0.1576293805248383,2.9544059281598716,0.6779120174788812,1.859210729598999,0.15301573276519775,-1.5477927923202515,-0.27821213006973267,0.6172740459442139,-0.03369668126106262,-0.14209964911766293,1.3383657081406046,-0.44225995907711,0.9633013010025024,0.1416219174861908,-0.2280218005180359, 295, 240, 29, 265
1733261299172,6i,19.685446549021513,2.4s : 0.3s,-6.192636022735655,0.17217495175787073,3.062786318379688,0.6919720777045394,1.8210707902908325,0.1553763598203659,-1.6829370260238647,-0.27145588397979736,0.6360675692558289,-0.023560702800750732,-0.15353654437202646,1.3366723320277027,-0.4645423250704271,0.9612753391265869,0.1529340296983719,-0.22926193475723267, 295, 240, 29, 265
1733261299182,6i,19.685446549021513,2.4s : 0.3s,-6.192636022735655,0.18697705706925188,3.155788487333095,0.6914578368768047,1.751560091972351,0.13427573442459106,-1.8228161334991455,-0.25936639308929443,0.6409621834754944,-0.0032393932342529297,-0.1664460437602258,1.3346668789481702,-0.4865443584446569,0.9588141441345215,0.16567856073379517,-0.23070815205574036, 295, 240, 29, 265
1733261299192,6i,19.685446549021513,2.4s : 0.3s,-6.192636022735655,0.2019251101237638,3.2481027459118588,0.6952863464694814,1.7123860120773315,0.12367848306894302,-1.951395869255066,-0.24308598041534424,0.6514076590538025,-0.0006094574928283691,-0.18070531204130344,1.3322234277012657,-0.5084340928260731,0.9558547139167786,0.17972344160079956,-0.23246832191944122, 295, 240, 29, 265
1733261299202,6i,19.685446549021513,2.4s : 0.3s,-6.192636022735655,0.21715028973580108,3.3524603009271248,0.7155604517102194,1.6963560581207275,0.12453091889619827,-2.0923354625701904,-0.22994279861450195,0.6775606870651245,-0.00803646445274353,-0.19628659506798934,1.3293807851962853,-0.5304792518510284,0.9523552060127258,0.19502858817577362,-0.23448655009269714, 295, 240, 29, 265
1733261299212,6i,19.685446549021513,2.4s : 0.3s,-6.192636022735655,0.2327478293086715,3.47507853702742,0.7421317884761871,1.6924225091934204,0.12014895677566528,-2.250351667404175,-0.2361769676208496,0.7035481333732605,-0.00023549795150756836,-0.2132876662582711,1.326108803705505,-0.5528655520496257,0.9482284188270569,0.21167421340942383,-0.23676380515098572, 295, 240, 29, 265
1733261299222,6i,19.685446549021513,2.4s : 0.3s,-6.192636022735655,0.248752742877147,3.606524615288733,0.7669135067878903,1.6837067604064941,0.10432236641645432,-2.3954713344573975,-0.2245844602584839,0.7331264019012451,0.015614926815032959,-0.23171014514873237,1.3222398064871448,-0.5757756942592033,0.9433650970458984,0.22964230179786682,-0.23943068087100983, 295, 240, 29, 265
1733261299232,6i,19.685446549021513,2.4s : 0.3s,-6.192636022735655,0.2651247203053917,3.7602118670438363,0.7862617849938096,1.7365801334381104,0.08959534764289856,-2.5397987365722656,-0.18997174501419067,0.7621700763702393,0.03485836088657379,-0.25137922262218987,1.317637613445069,-0.5993824236622735,0.937698245048523,0.2487400621175766,-0.2425912618637085, 295, 240, 29, 265
1733261299242,6i,19.685446549021513,2.4s : 0.3s,-6.192636022735655,0.28184003610844227,3.934400382263939,0.8051649022676763,1.8112108707427979,0.07642114162445068,-2.6849420070648193,-0.15732133388519287,0.7887845635414124,0.03687044978141785,-0.27216509506643205,1.312100110629004,-0.6241728796573812,0.9311403632164001,0.2688174545764923,-0.24640391767024994, 295, 240, 29, 265
1733261299252,6i,19.685446549021513,2.4s : 0.3s,-6.192636022735655,0.2987953891160069,4.1094456164223905,0.8113473851906033,1.8516889810562134,0.07296142727136612,-2.814819812774658,-0.12096965312957764,0.8015077710151672,0.03515985608100891,-0.29398696682129694,1.3055624514867468,-0.6502159410511782,0.9236277937889099,0.2897704243659973,-0.2508884072303772, 295, 240, 29, 265
1733261299262,6i,19.685446549021513,2.4s : 0.3s,-6.192636022735655,0.31573681140656634,4.2648270750326605,0.7792917800424954,1.8064579963684082,0.05852793902158737,-2.942901134490967,-0.08013391494750977,0.7712557315826416,0.07770991325378418,-0.3168760241600086,1.2982533880467997,-0.6768352503569964,0.915140688419342,0.31159964203834534,-0.25577980279922485, 295, 240, 29, 265
1733261299272,6i,19.685446549021513,2.4s : 0.3s,-6.192636022735655,0.3322106144580624,4.390452369708268,0.7338944032187253,1.6867073774337769,0.019425541162490845,-3.067594051361084,-0.04544639587402344,0.7221585512161255,0.12256690859794617,-0.34102340240630563,1.2901348539398558,-0.7032271150480813,0.9055386185646057,0.33445173501968384,-0.26104018092155457, 295, 240, 29, 265
1733261299282,6i,19.685446549021513,2.4s : 0.3s,-6.192636022735655,0.34831271674329456,4.527172261379739,0.7246678879242412,1.7049674987792969,-0.031579721719026566,-3.1919569969177246,0.006723463535308838,0.7162350416183472,0.11002594232559204,-0.36633650664460427,1.2808480573825558,-0.7299737635936304,0.8946743607521057,0.3581974506378174,-0.2669318616390228, 295, 240, 29, 265
1733261299292,6i,19.685446549021513,2.4s : 0.3s,-6.192636022735655,0.3643258789615372,4.671746637901211,0.747200004642469,1.7383835315704346,-0.07006558775901794,-3.3079214096069336,0.08542436361312866,0.7395979166030884,0.0632885992527008,-0.39242126848867276,1.270007328187764,-0.7579053524324976,0.8825016617774963,0.38242673873901367,-0.2737528681755066, 295, 240, 29, 265
1733261299302,6i,19.685446549021513,2.4s : 0.3s,-6.192636022735655,0.38020731046044104,4.8213576917216034,0.7500770867179536,1.7446269989013672,-0.10220280289649963,-3.4385182857513428,0.14899230003356934,0.7331814169883728,0.053497105836868286,-0.4193189367251016,1.2576080106116427,-0.787110245520656,0.8689367175102234,0.40713849663734436,-0.28140220046043396, 295, 240, 29, 265
1733261299312,6i,19.685446549021513,2.4s : 0.3s,-6.192636022735655,0.39592018682417623,4.958135921956072,0.7338695317351355,1.6635839939117432,-0.13433463871479034,-3.568387269973755,0.17384368181228638,0.7115260362625122,0.04553639888763428,-0.44718108554824704,1.243818452789962,-0.8171643778063541,0.8538969159126282,0.43242552876472473,-0.28960055112838745, 295, 240, 29, 265
1733261299322,6i,19.685446549021513,2.4s : 0.3s,-6.192636022735655,0.4114209754386821,5.073482600647561,0.7278320809633935,1.5168646574020386,-0.1922212392091751,-3.6897361278533936,0.21991372108459473,0.6919907927513123,0.05026167631149292,-0.47626275898801124,1.2287974961163868,-0.8472203038952967,0.837245762348175,0.45846104621887207,-0.2980489432811737, 295, 240, 29, 265
1733261299332,6i,19.685446549021513,2.4s : 0.3s,-6.192636022735655,0.42665598786180814,5.1889444212520575,0.7542933179634644,1.4745135307312012,-0.2568684220314026,-3.793839693069458,0.30092042684555054,0.6896685361862183,0.05256059765815735,-0.5063097692535836,1.2121867251450151,-0.8776605899956242,0.8189070224761963,0.4849533140659332,-0.3069396913051605, 295, 240, 29, 265
1733261299342,6i,19.685446549021513,2.4s : 0.3s,-6.192636022735655,0.4411239403442863,5.315230509220074,0.8045061005875175,1.47764253616333,-0.32494980096817017,-3.9054038524627686,0.38446760177612305,0.705864429473877,0.03420725464820862,-0.5369261933689516,1.1934195847076532,-0.909496516255652,0.798820972442627,0.5114971399307251,-0.3166319727897644, 295, 240, 29, 265
1733261299352,6i,19.685446549021513,2.4s : 0.3s,-6.192636022735655,0.4552148096325607,5.4399135160134975,0.8540746009041629,1.4673779010772705,-0.3774585723876953,-3.9989609718322754,0.44277435541152954,0.7301045656204224,0.018482893705368042,-0.5679632553845525,1.1722267234897568,-0.9431317091284753,0.7769216299057007,0.5379161834716797,-0.3271680474281311, 295, 240, 29, 265
1733261299362,6i,19.685446549021513,2.4s : 0.3s,-6.192636022735655,0.46912703802982636,5.544011856822369,0.8822525161916543,1.3743551969528198,-0.43691888451576233,-4.072046756744385,0.4879719018936157,0.7347752451896667,0.01892787218093872,-0.599341505423432,1.1489321017406198,-0.9780091496747494,0.7533153295516968,0.5640988945960999,-0.3380957841873169, 295, 240, 29, 265
1733261299372,6i,19.685446549021513,2.4s : 0.3s,-6.192636022735655,0.48290626833523914,5.641931963942752,0.9040685425952707,1.3076081275939941,-0.5153332948684692,-4.151339530944824,0.5403982996940613,0.7237614989280701,0.038456469774246216,-0.6310086020184403,1.1232993220117682,-1.0141206027896172,0.727927565574646,0.589959442615509,-0.3493846654891968, 295, 240, 29, 265
1733261299382,6i,19.685446549021513,2.4s : 0.3s,-6.192636022735655,0.496642826403057,5.738818494412031,0.9536204944599155,1.2792657613754272,-0.6011087894439697,-4.221920967102051,0.6189692616462708,0.7250363230705261,0.024319350719451904,-0.6629161363651733,1.094626590895091,-1.0521467557448572,0.7005192637443542,0.6154179573059082,-0.3612942695617676, 295, 240, 29, 265
1733261299392,6i,19.685446549021513,2.4s : 0.3s,-6.192636022735655,0.5104127426276992,5.829147423444643,1.0057133999839327,1.2646383047103882,-0.6471977233886719,-4.275993824005127,0.6993815898895264,0.722632884979248,0.011249363422393799,-0.6943891750713505,1.063087557829546,-1.0923784292833558,0.6715137958526611,0.639916181564331,-0.37359970808029175, 295, 240, 29, 265
1733261299402,6i,19.685446549021513,2.4s : 0.3s,-6.192636022735655,0.5243720714674569,5.931936361016051,1.0409771501315692,1.3158224821090698,-0.6808328628540039,-4.355992317199707,0.7469450235366821,0.7250404953956604,0.004779011011123657,-0.72533660504324,1.028263439676931,-1.1355537538375742,0.6408265233039856,0.6633873581886292,-0.3863401412963867, 295, 240, 29, 265
1733261299412,6i,19.685446549021513,2.4s : 0.3s,-6.192636022735655,0.5385033237951864,6.0112809959119025,1.0448020876004114,1.2748377323150635,-0.7441545724868774,-4.377761363983154,0.7723435759544373,0.703622579574585,-0.0034739673137664795,-0.7553629921270845,0.9898648747049782,-1.1819614509697356,0.6085920333862305,0.6855529546737671,-0.3995409905910492, 295, 240, 29, 265
1733261299422,6i,19.685446549021513,2.4s : 0.3s,-6.192636022735655,0.5526373314148756,6.089070106436799,1.0542431948732183,1.2486450672149658,-0.7882354855537415,-4.435562610626221,0.8212298154830933,0.6610549688339233,-0.004078269004821777,-0.784582051019765,0.9478784113103212,-1.2312344411820686,0.5747662782669067,0.706529438495636,-0.4128679931163788, 295, 240, 29, 265
1733261299432,6i,19.685446549021513,2.4s : 0.3s,-6.192636022735655,0.5666733342489485,6.156980618056833,1.0265653835265547,1.186833143234253,-0.8370999693870544,-4.479382514953613,0.8276662230491638,0.6072919964790344,0.0012413263320922852,-0.8128510639329106,0.9021828037568425,-1.2836586321303394,0.5394144654273987,0.7262500524520874,-0.42613738775253296, 295, 240, 29, 265
1733261299442,6i,19.685446549021513,2.4s : 0.3s,-6.192636022735655,0.5810110819682065,6.219173013643415,1.0167352650697818,1.140500783920288,-0.8751547932624817,-4.522223949432373,0.8341712355613708,0.5812801718711853,0.0047234296798706055,-0.8401212015610496,0.8527082147069114,-1.339240400350717,0.5025749802589417,0.7447240352630615,-0.4390951991081238, 295, 240, 29, 265
1733261299452,6i,19.685446549021513,2.4s : 0.3s,-6.192636022735655,0.5955203342974776,6.287383895542766,1.056803246934299,1.2225315570831299,-0.9123982787132263,-4.555708408355713,0.8576737642288208,0.617415726184845,-0.005161195993423462,-0.865492186113324,0.7986094845890993,-1.3992084962693443,0.4644087255001068,0.7614144086837769,-0.4522971212863922, 295, 240, 29, 265
1733261299462,6i,19.685446549021513,2.4s : 0.3s,-6.192636022735655,0.6105638704764034,6.360390419138848,1.100147679294125,1.2962098121643066,-0.9721143841743469,-4.589576244354248,0.8829085230827332,0.6532832980155945,-0.06339076161384583,-0.8882385519045085,0.7391308170941403,-1.464310966637279,0.42492222785949707,0.7759618759155273,-0.46618062257766724, 295, 240, 29, 265
1733261299472,6i,19.685446549021513,2.4s : 0.3s,-6.192636022735655,0.625975134666443,6.418962504127694,1.1179429793733775,1.2925323247909546,-1.0301856994628906,-4.597900390625,0.9229691028594971,0.6247102618217468,-0.08753073215484619,-0.9081644667386287,0.6746214985569866,-1.534001763057392,0.38425129652023315,0.7883758544921875,-0.4804317355155945, 295, 240, 29, 265
1733261299482,6i,19.685446549021513,2.4s : 0.3s,-6.192636022735655,0.6414623545034513,6.456391447189558,1.1130508207567356,1.1872729063034058,-1.0816998481750488,-4.605885982513428,0.9531434774398804,0.5685251951217651,-0.0847274661064148,-0.925728850301444,0.6062181286800147,-1.6068799650327779,0.34257179498672485,0.7990592122077942,-0.49411454796791077, 295, 240, 29, 265
1733261299492,6i,19.685446549021513,2.4s : 0.3s,-6.192636022735655,0.6571058200049984,6.483281675427558,1.1187938998797766,1.1522496938705444,-1.1428412199020386,-4.602260112762451,0.9671818017959595,0.5558275580406189,-0.08552706241607666,-0.9408068368074026,0.5342771318640881,-1.682551547178066,0.29999950528144836,0.8080337047576904,-0.507032573223114, 295, 240, 29, 265
1733261299502,6i,19.685446549021513,2.4s : 0.3s,-6.192636022735655,0.6732636690316762,6.50837664782529,1.1693005048553402,1.1698566675186157,-1.1990642547607422,-4.599577903747559,1.006237506866455,0.5854899883270264,-0.10932165384292603,-0.9525843621241796,0.45866657011900464,-1.7612370466567537,0.25661036372184753,0.8149160742759705,-0.5196760296821594, 295, 240, 29, 265
1733261299512,6i,19.685446549021513,2.4s : 0.3s,-6.192636022735655,0.6902433901010723,6.537683184570475,1.210718393875887,1.2220783233642578,-1.23997962474823,-4.605642795562744,1.0263261795043945,0.6257575154304504,-0.14464139938354492,-0.9603413315234677,0.37994226594169467,-1.8426437677593286,0.2125958949327469,0.8193872570991516,-0.5323604345321655, 295, 240, 29, 265
1733261299522,6i,19.685446549021513,2.4s : 0.3s,-6.192636022735655,0.7079469725469926,6.568759539696846,1.1987638831826053,1.227002739906311,-1.2719053030014038,-4.623230934143066,1.0074087381362915,0.6275049448013306,-0.16852307319641113,-0.964171192535577,0.2990543321234533,-1.9258719454832358,0.16796040534973145,0.821576714515686,-0.5447946190834045, 295, 240, 29, 265
1733261299532,6i,19.685446549021513,2.4s : 0.3s,-6.192636022735655,0.7261501437037187,6.595350177991909,1.1767667308782088,1.2478084564208984,-1.3158541917800903,-4.618310928344727,0.9896700382232666,0.6114848852157593,-0.17725515365600586,-0.9639540735050806,0.21709313583660722,-2.0098727792374,0.12283294647932053,0.8214529156684875,-0.5568907856941223, 295, 240, 29, 265
1733261299542,6i,19.685446549021513,2.4s : 0.3s,-6.192636022735655,0.7447899357595575,6.614091472009524,1.1920686395413438,1.2075647115707397,-1.3903234004974365,-4.6083149909973145,1.017844796180725,0.5959777235984802,-0.17271411418914795,-0.9599327774879933,0.13535693535255458,-2.0930186624793605,0.07740052789449692,0.8191530108451843,-0.568328857421875, 295, 240, 29, 265
1733261299552,6i,19.685446549021513,2.4s : 0.3s,-6.192636022735655,0.7639391754243459,6.639919021575294,1.2225601087648221,1.199183464050293,-1.4837689399719238,-4.61651086807251,1.0531312227249146,0.5997000932693481,-0.16102063655853271,-0.9523402283946774,0.05429468887119016,-2.174617654297045,0.03146340698003769,0.8147745728492737,-0.5789237022399902, 295, 240, 29, 265
1733261299562,6i,19.685446549021513,2.4s : 0.3s,-6.192636022735655,0.7838262782708687,6.684109984591112,1.253982893659538,1.2901687622070312,-1.5408105850219727,-4.643426895141602,1.0595940351486206,0.6360517740249634,-0.21253639459609985,-0.9406366241443578,-0.02539360136377949,-2.2541490885653728,-0.014962179586291313,0.8079333901405334,-0.5890839695930481, 295, 240, 29, 265
1733261299572,6i,19.685446549021513,2.4s : 0.3s,-6.192636022735655,0.804469516376877,6.743370574312541,1.2676183451503675,1.322451114654541,-1.5970748662948608,-4.691716194152832,1.052099347114563,0.6563677191734314,-0.2629156708717346,-0.9244901623173372,-0.1027023734671766,-2.3308662751540923,-0.061742980033159256,0.7983137965202332,-0.5990684032440186, 295, 240, 29, 265
1733261299582,6i,19.685446549021513,2.4s : 0.3s,-6.192636022735655,0.8259035277103028,6.824286615124623,1.2832159652586164,1.362276315689087,-1.678968906402588,-4.759409427642822,1.0486867427825928,0.6814331412315369,-0.28731203079223633,-0.9046405093683786,-0.17752072049340592,-2.404597240255341,-0.10912689566612244,0.7862030267715454,-0.6082566380500793, 295, 240, 29, 265
1733261299592,6i,19.685446549021513,2.4s : 0.3s,-6.192636022735655,0.8481948362329537,6.897005385444024,1.3146803787390358,1.399398684501648,-1.753916621208191,-4.766100883483887,1.0766372680664062,0.7046804428100586,-0.26955920457839966,-0.8810528249348424,-0.24888612096939713,-2.4741845365947874,-0.1567460298538208,0.771409273147583,-0.6167321801185608, 295, 240, 29, 265
1733261299602,6i,19.685446549021513,2.4s : 0.3s,-6.192636022735655,0.8711196753435172,6.952778493916181,1.3331375505816878,1.4366971254348755,-1.8153810501098633,-4.745656967163086,1.1269960403442383,0.676905632019043,-0.2212112545967102,-0.8542042427078526,-0.3160186227254252,-2.5387437054976214,-0.20412932336330414,0.7540484666824341,-0.6242933869361877, 295, 240, 29, 265
1733261299612,6i,19.685446549021513,2.4s : 0.3s,-6.192636022735655,0.8947344104587436,6.992762721220903,1.3484080994207857,1.7007410526275635,-1.7135177850723267,-4.7034912109375,1.1350871324539185,0.6983474493026733,-0.20516443252563477,-0.8234672934506185,-0.37755787949421254,-2.5974617241514704,-0.2505657970905304,0.7335069179534912,-0.6318105459213257, 295, 240, 29, 265
1733261299622,6i,19.685446549021513,2.4s : 0.3s,-6.192636022735655,0.919942606565244,7.112004782530937,1.463841982589823,1.9320204257965088,-1.9176764488220215,-4.800925254821777,1.1224015951156616,0.8621826767921448,-0.3737499713897705,-0.7882735281423517,-0.43393580484165545,-2.6501408604288264,-0.29644355177879333,0.7091370224952698,-0.6397234201431274, 295, 240, 29, 265
1733261299632,6i,19.685446549021513,2.4s : 0.3s,-6.192636022735655,0.9460319424489966,7.213870279666,1.4458639567872538,1.7992993593215942,-2.039146661758423,-4.8453779220581055,1.09829580783844,0.8179910778999329,-0.4638528823852539,-0.7496302555586191,-0.48730169457972383,-2.698677318241178,-0.3427264988422394,0.6813681721687317,-0.6467427015304565, 295, 240, 29, 265
1733261299642,6i,19.685446549021513,2.4s : 0.3s,-6.192636022735655,0.9710824718470052,7.264832470861654,1.2881172637800817,1.5162534713745117,-2.2139368057250977,-4.813493251800537,1.1698120832443237,0.5171812772750854,-0.1526738405227661,-0.7116598700046992,-0.5390545464684293,-2.7442688504066837,-0.38873010873794556,0.6530916690826416,-0.6498925685882568, 295, 240, 29, 265
1733261299652,6i,19.685446549021513,2.4s : 0.3s,-6.192636022735655,0.9961398512339978,7.291012388817968,1.3278248389490348,1.328159213066101,-2.4168195724487305,-4.7550835609436035,1.219372272491455,0.5137729048728943,-0.11084884405136108,-0.6740643428508072,-0.5895440239691029,-2.787016976195508,-0.43438398838043213,0.6241665482521057,-0.6494048833847046, 295, 240, 29, 265
1733261299662,6i,19.685446549021513,2.4s : 0.3s,-6.192636022735655,1.021239692407354,7.283474942141398,1.3824648994087183,1.2682523727416992,-2.4546496868133545,-4.649625301361084,1.224439024925232,0.5787282586097717,-0.2775461673736572,-0.6363841032612257,-0.6378555908833072,-2.8261554506424225,-0.47890999913215637,0.5942912697792053,-0.6461139917373657, 295, 240, 29, 265
1733261299672,6i,19.685446549021513,2.4s : 0.3s,-6.192636022735655,1.0464144572189489,7.239565688893989,1.3440692037644393,1.2419061660766602,-2.441788911819458,-4.571350574493408,1.2292611598968506,0.5088530778884888,-0.19106954336166382,-0.598196699880311,-0.682640052021692,-2.8612793498222038,-0.5212992429733276,0.5631532073020935,-0.6411752104759216, 295, 240, 29, 265
1733261299682,6i,19.685446549021513,2.4s : 0.3s,-6.192636022735655,1.0704623022397999,7.198382259219385,1.1934533889563925,1.2363905906677246,-2.4826064109802246,-4.516040325164795,1.0997605323791504,0.436542272567749,-0.15584802627563477,-0.5593329395544424,-0.7246742098388119,-2.893128739934891,-0.5618730783462524,0.5306209325790405,-0.6346181631088257, 295, 240, 29, 265
1733261299692,6i,19.685446549021513,2.4s : 0.3s,-6.192636022735655,1.0936495981784242,7.145842828506004,1.195469078969859,1.297869086265564,-2.49761700630188,-4.417352676391602,1.097611665725708,0.40553849935531616,-0.24481314420700073,-0.5197379447760102,-0.764129060958975,-2.921401014141588,-0.6005415320396423,0.4966526925563812,-0.6266466379165649, 295, 240, 29, 265
1733261299702,6i,19.685446549021513,2.4s : 0.3s,-6.192636022735655,1.1168906980961786,7.084123955416064,1.2671646818504418,1.2993649244308472,-2.5159406661987305,-4.331611156463623,1.1862521171569824,0.3926309645175934,-0.21060192584991455,-0.4796969122314682,-0.8011032971575692,-2.9462887209748305,-0.6370731592178345,0.4615103304386139,-0.6173703670501709, 295, 240, 29, 265
1733261299712,6i,19.685446549021513,2.4s : 0.3s,-6.192636022735655,1.1401549380538245,7.024214701345354,1.2626345241282997,1.3348424434661865,-2.530027389526367,-4.26181697845459,1.198115587234497,0.3673398196697235,-0.1543581485748291,-0.4393028113366268,-0.8361310951453728,-2.968283444792269,-0.6715959310531616,0.42530858516693115,-0.6066890954971313, 295, 240, 29, 265
1733261299722,6i,19.685446549021513,2.4s : 0.3s,-6.192636022735655,1.16336608187713,6.958187277909837,1.2730867586699122,1.3161640167236328,-2.560241460800171,-4.177155494689941,1.2332900762557983,0.3005997836589813,-0.09687751531600952,-0.39882361970642877,-0.8695396633277869,-2.9877869548153195,-0.7040696144104004,0.3883345425128937,-0.5945437550544739, 295, 240, 29, 265
1733261299732,6i,19.685446549021513,2.4s : 0.3s,-6.192636022735655,1.1860992900578025,6.884413983762045,1.3078108620333495,1.3806394338607788,-2.5785510540008545,-4.062153339385986,1.2752760648727417,0.28150618076324463,-0.06924217939376831,-0.3583957036671215,-0.9015019853249349,-3.0046537555914874,-0.7344284653663635,0.35077232122421265,-0.5810109376907349, 295, 240, 29, 265
1733261299742,6i,19.685446549021513,2.4s : 0.3s,-6.192636022735655,1.2087626591565352,6.801056041521241,1.3567675718659769,1.4419206380844116,-2.596297025680542,-3.933124303817749,1.327225923538208,0.2771582305431366,-0.049728333950042725,-0.3180511415010239,-0.9320159387914783,-3.0185565497299143,-0.7625593543052673,0.3127160370349884,-0.5663145780563354, 295, 240, 29, 265
1733261299752,6i,19.685446549021513,2.4s : 0.3s,-6.192636022735655,1.2313966079905627,6.6941898000791635,1.3891309262912421,1.4892401695251465,-2.587252140045166,-3.7706458568573,1.3686881065368652,0.2373722493648529,0.005657970905303955,-0.27824329932732567,-0.961236067781841,-3.0296642325739547,-0.7883660793304443,0.2746669352054596,-0.5504880547523499, 295, 240, 29, 265
1733261299762,6i,19.685446549021513,2.4s : 0.3s,-6.192636022735655,1.2536992616908367,6.552383169869488,1.3806484471979328,1.5168590545654297,-2.5282835960388184,-3.5867667198181152,1.3672353029251099,0.16865447163581848,0.09172475337982178,-0.2392928818055246,-0.9890427020304573,-3.0381755456843615,-0.8116934299468994,0.2370157092809677,-0.5338326692581177, 295, 240, 29, 265
1733261299772,6i,19.685446549021513,2.4s : 0.3s,-6.192636022735655,1.2751912017392706,6.358904365617184,1.3749041693086326,1.4938095808029175,-2.4542582035064697,-3.344733715057373,1.3554376363754272,0.0602661669254303,0.22252702713012695,-0.20193725263943393,-1.0152558369214353,-3.0442083283582035,-0.8323512673377991,0.2005675882101059,-0.5166857242584229, 295, 240, 29, 265
1733261299782,6i,19.685446549021513,2.4s : 0.3s,-6.192636022735655,1.2953020154554338,6.129075930817032,1.4016866311906195,1.3846147060394287,-2.411163330078125,-3.1131558418273926,1.3490160703659058,-0.10049287974834442,0.367127001285553,-0.1668791693974457,-1.0403902350515948,-3.0486524208674317,-0.8506185412406921,0.16610568761825562,-0.49885597825050354, 295, 240, 29, 265
1733261299792,6i,19.685446549021513,2.4s : 0.3s,-6.192636022735655,1.3136734607251783,5.854940992825135,1.4582410309789595,1.2813109159469604,-2.3304874897003174,-2.8436217308044434,1.347238302230835,-0.26890236139297485,0.488986074924469,-0.13438829705568656,-1.0646302480252698,-3.0518951731345307,-0.866723895072937,0.13398414850234985,-0.48045623302459717, 295, 240, 29, 265
1733261299802,6i,19.685446549021513,2.4s : 0.3s,-6.192636022735655,1.330294428467538,5.530514249282182,1.5180291734266422,1.1484168767929077,-2.1940722465515137,-2.5626142024993896,1.3373444080352783,-0.3955325484275818,0.5995635986328125,-0.10483087665707132,-1.0875249800299973,-3.054061072056155,-0.8806185722351074,0.1046389788389206,-0.4621274471282959, 295, 240, 29, 265
1733261299812,6i,19.685446549021513,2.4s : 0.3s,-6.192636022735655,1.3449592743564056,5.168667528367095,1.543842235671941,1.0193324089050293,-2.043246269226074,-2.2827866077423096,1.276867151260376,-0.5278312563896179,0.6888056993484497,-0.07835697899014275,-1.1088439953187412,-3.0554440537867764,-0.8924374580383301,0.07827682048082352,-0.444329172372818, 295, 240, 29, 265
1733261299822,6i,19.685446549021513,2.4s : 0.3s,-6.192636022735655,1.3576002692271982,4.772994837801544,1.6152242112801882,0.9034921526908875,-1.851786732673645,-2.0034730434417725,1.2525392770767212,-0.68617182970047,0.7544950842857361,-0.05486696505794691,-1.1283929733992515,-3.056162043453659,-0.902365505695343,0.05483943969011307,-0.427468478679657, 295, 240, 29, 265
1733261299832,6i,19.685446549021513,2.4s : 0.3s,-6.192636022735655,1.3685104699651705,4.3449524942868205,1.6992545976428521,0.8408130407333374,-1.6106427907943726,-1.7131361961364746,1.2351579666137695,-0.7889471054077148,0.8598915338516235,-0.0343762317706439,-1.1457134508391462,-3.056140852985775,-0.9104664325714111,0.03436946123838425,-0.4121526777744293, 295, 240, 29, 265
1733261299842,6i,19.685446549021513,2.4s : 0.3s,-6.192636022735655,1.3780379508843863,3.8795989768307133,1.7690081571196794,0.8203932642936707,-1.322824478149414,-1.3923321962356567,1.2022521495819092,-0.8561238050460815,0.9752085208892822,-0.016784365222495476,-1.1603691631530528,-3.0548333568062436,-0.9168214201927185,0.01678357645869255,-0.3989448845386505, 295, 240, 29, 265
1733261299852,6i,19.685446549021513,2.4s : 0.3s,-6.192636022735655,1.3864011996720902,3.3712014976688627,1.8460695631732893,0.786145031452179,-0.9753751754760742,-1.064507246017456,1.1681181192398071,-0.9365369081497192,1.079986810684204,-0.0023785918890042515,-1.171671651817174,-3.0523134509668575,-0.9213990569114685,0.0023785897064954042,-0.38861092925071716, 295, 240, 29, 265
1733261299862,6i,19.685446549021513,2.4s : 0.3s,-6.192636022735655,1.3936464243664424,2.8247032319264083,1.9290803083994605,0.7797753810882568,-0.6007698178291321,-0.699928343296051,1.1189086437225342,-1.034544825553894,1.182840347290039,0.00879032678964866,-1.179566113644405,-3.0485191150004454,-0.9244049787521362,-0.008790213614702225,-0.3813112676143646, 295, 240, 29, 265
1733261299872,6i,19.685446549021513,2.4s : 0.3s,-6.192636022735655,1.4001270228568303,2.246999390808159,1.981511481625753,0.7701408863067627,-0.19905699789524078,-0.29525327682495117,1.092781662940979,-1.097313642501831,1.236171007156372,0.01636504683844193,-1.1836491513275473,-3.0432508458250203,-0.9258660674095154,-0.016364315524697304,-0.3774977922439575, 295, 240, 29, 265
1733261299882,6i,19.685446549021513,2.4s : 0.3s,-6.192636022735655,1.406213958439191,1.676535251811217,2.059105960145318,0.7938934564590454,0.2432178556919098,0.1355912983417511,1.0941596031188965,-1.1719590425491333,1.2919923067092896,0.020058939415423624,-1.1835838502106433,-3.036293266230808,-0.9257789850234985,-0.020057594403624535,-0.3775327801704407, 295, 240, 29, 265
1733261299892,6i,19.685446549021513,2.4s : 0.3s,-6.192636022735655,1.4123168698706388,1.1924884301600442,2.2020158492190043,0.7333762645721436,0.6873832941055298,0.6089657545089722,1.1294175386428833,-1.2700382471084595,1.4001045227050781,0.019605394114828607,-1.1790467321897689,-3.0277507521065172,-0.9240648746490479,-0.019604139029979706,-0.38173267245292664, 295, 240, 29, 265
1733261299902,6i,19.685446549021513,2.4s : 0.3s,-6.192636022735655,1.4191047599229138,1.1086398681921419,2.363719928927981,0.7717621922492981,1.2045063972473145,1.0397332906723022,1.2091467380523682,-1.3579092025756836,1.5103703737258911,0.014741517428298897,-1.1697610535384582,-3.0176300726814165,-0.9205573201179504,-0.014740983955562115,-0.3903292715549469, 295, 240, 29, 265
1733261299912,6i,19.685446549021513,2.4s : 0.3s,-6.192636022735655,1.4270983301927842,1.5572018760847854,2.47931932739509,0.792396068572998,1.7233418226242065,1.5354948043823242,1.271459698677063,-1.4302314519882202,1.5763415098190308,0.005986812524630633,-1.1552440435766205,-3.0053931838341454,-0.9148771166801453,-0.005986776668578386,-0.4036880433559418, 295, 240, 29, 265
1733261299922,6i,19.685446549021513,2.4s : 0.3s,-6.192636022735655,1.4374426988037525,2.2666334520351605,2.5459898156879417,0.8013720512390137,2.208275079727173,2.0199265480041504,1.3995208740234375,-1.4010995626449585,1.6001017093658447,-0.006904018289797645,-1.1355715046407011,-2.990954079168707,-0.9067537188529968,0.006903963629156351,-0.4216042459011078, 295, 240, 29, 265
1733261299932,6i,19.685446549021513,2.4s : 0.3s,-6.192636022735655,1.4510311705559285,3.086451708911023,2.69164462216726,0.792919933795929,2.7108421325683594,2.545694351196289,1.597848892211914,-1.4557538032531738,1.603935956954956,-0.0240087113975714,-1.1107225741661035,-2.973855273823761,-0.8957615494728088,0.024006405845284462,-0.44388625025749207, 295, 240, 29, 265
1733261299942,6i,19.685446549021513,2.4s : 0.3s,-6.192636022735655,1.4682078752587362,3.963331251253663,2.827427737660531,0.7561615705490112,3.2001404762268066,3.1024394035339355,1.7534115314483643,-1.536351203918457,1.5998501777648926,-0.04553749318121875,-1.0804708003227355,-2.954047237042371,-0.8812651634216309,0.045521754771471024,-0.47042495012283325, 295, 240, 29, 265
1733261299952,6i,19.685446549021513,2.4s : 0.3s,-6.192636022735655,1.4897471438835324,4.897218247397496,3.05131987276822,0.7280455231666565,3.714794874191284,3.7088232040405273,1.9856441020965576,-1.6275919675827026,1.6488525867462158,-0.0716841082594885,-1.0445752754831623,-2.9309926345698236,-0.8624905347824097,0.07162272930145264,-0.5009793043136597, 295, 240, 29, 265
1733261299962,6i,19.685446549021513,2.4s : 0.3s,-6.192636022735655,1.5167754514098075,5.897541017020265,3.3234300833351464,0.776029109954834,4.275869846343994,4.3480610847473145,2.3100857734680176,-1.719961404800415,1.6584402322769165,-0.10217340689844956,-1.002296295058946,-2.9035725027661132,-0.8383146524429321,0.10199572890996933,-0.5355609655380249, 295, 240, 29, 265
1733261299972,6i,19.685446549021513,2.4s : 0.3s,-6.192636022735655,1.5505100551442843,6.988741563709401,3.667370460514528,0.8497992157936096,4.918731689453125,5.065749645233154,2.6840524673461914,-1.8204905986785889,1.7120988368988037,-0.13661953663726015,-0.9523814465871419,-2.870268491904037,-0.8072062730789185,0.13619492948055267,-0.5743423700332642, 295, 240, 29, 265
1733261299982,6i,19.685446549021513,2.4s : 0.3s,-6.192636022735655,1.5923507415271376,8.168053474890126,4.06666112800322,0.817564070224762,5.619388580322266,5.8368682861328125,3.121880054473877,-1.9072567224502563,1.7759418487548828,-0.1749787180761359,-0.8935279283058835,-2.830230388288975,-0.7673879265785217,0.17408718168735504,-0.6170976161956787, 295, 240, 29, 265
1733261299992,6i,19.685446549021513,2.4s : 0.3s,-6.192636022735655,1.64394973480414,9.450464262297741,4.585344499558529,0.6330980658531189,6.390355587005615,6.703089714050293,3.6532833576202393,-2.0265445709228516,1.889979362487793,-0.21758851425238518,-0.8242481567539612,-2.7827624415316694,-0.7167295217514038,0.21587562561035156,-0.6630963087081909, 295, 240, 29, 265
1733261300002,6i,19.685446549021513,2.4s : 0.3s,-6.192636022735655,1.7074913234621327,10.850318273923055,5.243318634797674,0.22748982906341553,7.263476371765137,7.636283874511719,4.319758892059326,-2.150984525680542,2.050692319869995,-0.26502276354255194,-0.7427961798959498,-2.727344474764552,-0.652736485004425,0.26193124055862427,-0.7108637094497681, 295, 240, 29, 265
1733261300012,6i,19.685446549021513,2.4s : 0.3s,-6.192636022735655,1.7858373962761045,12.466728111769578,6.055393448011321,-0.17409275472164154,8.337797164916992,8.804780006408691,5.150626182556152,-2.2305216789245605,2.2723584175109863,-0.3174298864020468,-0.6459391295051037,-2.661318533577552,-0.5718757510185242,0.31212589144706726,-0.7586406469345093, 295, 240, 29, 265
1733261300022,6i,19.685446549021513,2.4s : 0.3s,-6.192636022735655,1.88191870056818,14.281321696555882,7.03106848011752,-0.4241076409816742,9.489496231079102,10.03233814239502,6.16741418838501,-2.3804776668548584,2.394212245941162,-0.3722293425183107,-0.5291433235475445,-2.579924285307915,-0.47022515535354614,0.3636929988861084,-0.8041242361068726, 295, 240, 29, 265
1733261300032,6i,19.685446549021513,2.4s : 0.3s,-6.192636022735655,1.9990221651229465,16.142610983513936,8.167718217709432,-0.5999183654785156,10.333833694458008,11.235574722290039,7.439416885375977,-2.4891319274902344,2.27396559715271,-0.42411086971655587,-0.3903991201905297,-2.478994714224172,-0.34684205055236816,0.4115105867385864,-0.8428283929824829, 295, 240, 29, 265
1733261300042,6i,19.685446549021513,2.4s : 0.3s,-6.192636022735655,2.142402798548643,17.897828995603252,9.611167108791198,-0.8946188688278198,10.967180252075195,12.160765647888184,9.110793113708496,-2.1601877212524414,2.1683106422424316,-0.46724175748922037,-0.23106492788632849,-2.3572226768630173,-0.20446716248989105,0.4504254162311554,-0.8690857887268066, 295, 240, 29, 265
1733261300052,6i,19.685446549021513,2.4s : 0.3s,-6.192636022735655,2.3156283073764135,19.416156644048854,11.056976529604128,-1.9188295602798462,11.1458740234375,12.898032188415527,10.758132934570312,-1.4499503374099731,2.101654052734375,-0.49849348373440283,-0.05609179478497268,-2.2195721456091126,-0.049239810556173325,0.4781028926372528,-0.8769224882125854, 295, 240, 29, 265
1733261300062,6i,19.685446549021513,2.4s : 0.3s,-6.192636022735655,2.51976645346851,20.6973151620493,12.438462181599391,-3.6979928016662598,10.977567672729492,13.516322135925293,12.280632019042969,-0.5667426586151123,1.8921473026275635,-0.5213812114646262,0.12919407745641207,-2.066946411276296,0.11171694099903107,0.498078316450119,-0.8599054217338562, 295, 240, 29, 265
1733261300072,6i,19.685446549021513,2.4s : 0.3s,-6.192636022735655,2.7550343354018034,21.775359624776094,13.897384710957265,-6.061163425445557,10.353500366210938,14.012022018432617,13.807064056396484,0.6663875579833984,1.4346468448638916,-0.5371954380284263,0.3219567930112199,-1.8980812511902216,0.27185431122779846,0.5117284655570984,-0.8150026202201843, 295, 240, 29, 265
1733261300082,6i,19.685446549021513,2.4s : 0.3s,-6.192636022735655,3.0181229846005544,22.082386390185995,15.061533440940375,-9.163681030273438,8.831831932067871,12.412588119506836,14.87571907043457,2.2850327491760254,0.584291934967041,-0.5534809180489606,0.5087729832793659,-1.7221179809433915,0.4143810570240021,0.5256516337394714,-0.7429527044296265, 295, 240, 29, 265
1733261300092,6i,19.685446549021513,2.4s : 0.3s,-6.192636022735655,3.3028530803318437,23.271790768973446,15.823626024631569,-14.08935832977295,7.097193717956543,13.702693939208984,15.231733322143555,4.282512187957764,-0.20378893613815308,-0.5748821898156687,0.6989832650506173,-1.5191709713973456,0.540010929107666,0.543735921382904,-0.6424480676651001, 295, 240, 29, 265
1733261300102,6i,19.685446549021513,2.4s : 0.3s,-6.192636022735655,3.6143823499594054,25.143289334615147,18.358740828629898,-18.437837600708008,3.0379350185394287,15.15668773651123,16.630062103271484,7.770391941070557,-0.32466650009155273,-0.5844630868509785,0.8941483896375563,-1.256335062879222,0.6502565145492554,0.5517516732215881,-0.52224200963974, 295, 240, 29, 265
1733261300112,6i,19.685446549021513,2.4s : 0.3s,-6.192636022735655,3.9470670159791688,27.17759075402986,20.33486003254062,-19.570690155029297,1.2382947206497192,15.635165214538574,16.069921493530273,12.458858489990234,0.20248669385910034,-0.5617737852390349,1.0731501001008537,-0.9641021908718315,0.7436614036560059,0.5326882004737854,-0.4039941728115082, 295, 240, 29, 265
1733261300122,6i,19.685446549021513,2.4s : 0.3s,-6.192636022735655,4.274018997807284,27.975221922859596,19.892932183802582,-18.408863067626953,-1.5343880653381348,14.173470497131348,11.663723945617676,16.099544525146484,0.7006858587265015,-0.5033693114140676,1.2132315447835458,-0.6897525273148122,0.8205594420433044,0.482379674911499,-0.30658164620399475, 295, 240, 29, 265
1733261300132,6i,19.685446549021513,2.4s : 0.3s,-6.192636022735655,4.576770699269534,28.004593002830486,19.234702611311345,-16.632545471191406,-4.775742053985596,13.640158653259277,6.99077844619751,17.814748764038086,1.933268666267395,-0.42734325635502335,1.286743395641452,-0.455704805989144,0.8736014366149902,0.4144544303417206,-0.2550457715988159, 295, 240, 29, 265
1733261300142,6i,19.685446549021513,2.4s : 0.3s,-6.192636022735655,4.849768324640508,28.009579476562294,16.83573599624243,-15.43970775604248,-5.540674686431885,13.991044998168945,3.8816425800323486,15.856012344360352,4.118462085723877,-0.33589174764248525,1.3098932210492376,-0.25074509368045206,0.9121655225753784,0.329611212015152,-0.24353796243667603, 295, 240, 29, 265
1733261300152,6i,19.685446549021513,2.4s : 0.3s,-6.192636022735655,5.087831762293452,28.696903839330233,14.086427245173383,-17.829296112060547,-4.914295196533203,13.427173614501953,1.342790126800537,12.718847274780273,5.903835296630859,-0.24437767671188057,1.3151342306075666,-0.04997334667413543,0.9387500286102295,0.2419525384902954,-0.24537234008312225, 295, 240, 29, 265
1733261300162,6i,19.685446549021513,2.4s : 0.3s,-6.192636022735655,5.2855107902001155,29.714069108220293,10.750264781510221,-19.420034408569336,-4.767690181732178,13.39298152923584,-0.4503324031829834,8.532596588134766,6.52381706237793,-0.16635101430435928,1.3181154746040078,0.18204272271167965,0.9548797011375427,0.16558484733104706,-0.24654948711395264, 295, 240, 29, 265
1733261300172,6i,19.685446549021513,2.4s : 0.3s,-6.192636022735655,5.445905426510731,22.32437792239384,3.1325103417104683,20.85263442993164,-4.6369948387146,18.78413963317871,1.5517866611480713,2.617514133453369,0.7437734603881836,0.0007385402985583348,1.3162414510239482,0.26276680179821854,0.9677753448486328,-0.0007385402568615973,-0.251814603805542, 295, 240, 29, 265
1733261300182,6i,19.685446549021513,2.4s : 0.3s,-6.192636022735655,5.594736068711696,24.112516813153555,12.398931673158422,-34.5446662902832,-3.466857433319092,-1.5476728677749634,9.145194053649902,-4.724956035614014,-6.911853790283203,0.07807142524349266,1.3028848052959985,0.2837800713424076,0.9613885879516602,-0.07799214124679565,-0.26391172409057617, 295, 240, 29, 265
1733261300192,6i,19.685446549021513,2.4s : 0.3s,-6.192636022735655,5.7239743093660636,31.794557435773115,16.64692561293895,-38.15453338623047,-16.54425048828125,-1.757909893989563,6.333314895629883,-11.52445125579834,10.207657814025879,-0.06643146262027845,1.2201703516094022,0.6644182436596352,0.9370864629745483,0.06638260930776596,-0.3427281677722931, 295, 240, 29, 265
1733261300202,6i,19.685446549021513,2.4s : 0.3s,-6.192636022735655,5.9263490266403265,28.666947424364245,20.258448801634774,-11.724583625793457,-13.565645217895508,1.4541748762130737,12.076058387756348,6.350710391998291,14.974713325500488,-0.16414019002267297,1.0729366713180442,0.8840634513713764,0.8667976260185242,0.16340413689613342,-0.47112759947776794, 295, 240, 29, 265
1733261300212,6i,19.685446549021513,2.4s : 0.3s,-6.192636022735655,6.1534739437286525,25.941231322509623,17.445494332085826,-11.923205375671387,-10.241105079650879,-2.648479461669922,6.489683151245117,15.406946182250977,4.985508441925049,-0.2376646306612033,0.9810888053700909,0.9862874216008276,0.8077414631843567,0.23543354868888855,-0.5404857993125916, 295, 240, 29, 265
1733261300222,6i,19.685446549021513,2.4s : 0.3s,-6.192636022735655,6.363901214248262,23.420650609870798,12.83912536353156,-7.215876579284668,-13.075761795043945,-1.2327758073806763,1.9778482913970947,10.138039588928223,7.625707149505615,-0.3188753243426934,0.8847026240590319,1.0433285251609847,0.7347220182418823,0.31349876523017883,-0.6015830636024475, 295, 240, 29, 265
1733261300232,6i,19.685446549021513,2.4s : 0.3s,-6.192636022735655,6.55284572861944,22.161820277268344,7.268383671020462,-7.6413373947143555,-13.280107498168945,-2.3009843826293945,4.1623005867004395,1.8642349243164062,5.659441947937012,-0.3786834715911776,0.7687605916953585,1.090617585318227,0.6459883451461792,0.36969754099845886,-0.6678494811058044, 295, 240, 29, 265
1733261300242,6i,19.685446549021513,2.4s : 0.3s,-6.192636022735655,6.702382595780278,22.048340054949822,6.762108242495608,-8.748177528381348,-13.973194122314453,-4.4199137687683105,1.1774461269378662,-1.3410123586654663,6.522377967834473,-0.4658665099056151,0.644242060248409,1.1198129157460268,0.5365890860557556,0.4491971433162689,-0.7143487930297852, 295, 240, 29, 265
1733261300252,6i,19.685446549021513,2.4s : 0.3s,-6.192636022735655,6.830434977945369,20.89120844882415,6.394856377095482,-5.038315773010254,-12.998322486877441,-3.6934685707092285,0.814008891582489,2.011812686920166,6.015329360961914,-0.5475321544981769,0.5112487478836024,1.1261150326320075,0.4177417457103729,0.5205817222595215,-0.7446386218070984, 295, 240, 29, 265
1733261300262,6i,19.685446549021513,2.4s : 0.3s,-6.192636022735655,6.945954460438355,19.55688450261367,6.436534847486453,-4.070390224456787,-11.31304931640625,-4.835428714752197,0.7865532040596008,3.1834845542907715,5.538568496704102,-0.6036420072694614,0.37857917553695036,1.1042865888557076,0.3042824864387512,0.5676445960998535,-0.764978289604187, 295, 240, 29, 265
1733261300272,6i,19.685446549021513,2.4s : 0.3s,-6.192636022735655,7.034810948960215,18.22845181795848,5.779705486908479,-3.113156318664551,-10.136356353759766,-5.3892316818237305,-1.5654364824295044,1.471962571144104,5.365419864654541,-0.6541843990081284,0.24401172989157485,1.060225871587819,0.19171833992004395,0.6085122227668762,-0.7700369954109192, 295, 240, 29, 265
1733261300282,6i,19.685446549021513,2.4s : 0.3s,-6.192636022735655,7.100807207471138,16.968514422205747,5.238371394229947,-1.7643221616744995,-9.331602096557617,-5.779344081878662,-1.8609484434127808,0.7355974912643433,4.8411054611206055,-0.6868342439410965,0.10841147868912569,0.9978988838983228,0.08366585522890091,0.634092390537262,-0.7687176465988159, 295, 240, 29, 265
1733261300292,6i,19.685446549021513,2.4s : 0.3s,-6.192636022735655,7.1481879388674585,16.31541016253462,3.966297874818422,-1.2044328451156616,-9.354394912719727,-6.8435797691345215,-1.662928581237793,0.28396618366241455,3.5896449089050293,-0.7037274161229746,-0.034655895570452636,0.9217350396713166,-0.026417601853609085,0.6470640897750854,-0.7619778513908386, 295, 240, 29, 265
1733261300302,6i,19.685446549021513,2.4s : 0.3s,-6.192636022735655,7.1809376373908655,15.997340866047967,2.589950422587914,-0.9553367495536804,-9.520933151245117,-6.75440788269043,-1.3418222665786743,0.24217385053634644,2.2019782066345215,-0.7079960240683582,-0.1818224702509066,0.8433818633493537,-0.1373646855354309,0.6503127217292786,-0.7471441626548767, 295, 240, 29, 265
1733261300312,6i,19.685446549021513,2.4s : 0.3s,-6.192636022735655,7.203793103118967,15.671807818423707,1.8381637304243934,-0.4276473820209503,-9.507392883300781,-6.117152214050293,-0.8684341907501221,-0.029607713222503662,1.6198121309280396,-0.7001380475495583,-0.32836850927596484,0.7658472233485443,-0.24663226306438446,0.6443232893943787,-0.723892331123352, 295, 240, 29, 265
1733261300322,6i,19.685446549021513,2.4s : 0.3s,-6.192636022735655,7.22134758548674,15.246076155582633,1.129258106340494,0.2529134154319763,-9.198022842407227,-5.649930000305176,-0.3619531989097595,0.11031651496887207,1.0639755725860596,-0.678660835285436,-0.46704335771147026,0.6956900974906276,-0.3504796028137207,0.6277511715888977,-0.6950486302375793, 295, 240, 29, 265
