timestamp,club,max_speed,tempo,w.rotation,l.speed,t.spped,acc,rotation.x,rotation.y,rotation.z,userAcceleration.x,userAcceleration.y,userAcceleration.z,pitch,roll,yaw,gravity.x,gravity.y,gravity.z,impactIndex,minDownIndex,StartIndex,endIndex
1731319878126,9i,5.224798358498481,1.5s : 0.3s,-11.185606523098741,0.0004030112769995658,0.06889355843398726,0.02474062046997665,-0.0027323272079229355,0.005333490204066038,-0.0007839372847229242,-0.016744256019592285,-0.012626111507415771,0.013126671314239502,-0.3248911681712849,2.0361077908344942,2.940075148463653,0.8469290137290955,0.319205641746521,0.42522743344306946, 182, 118, 0, 148
1731319878136,9i,5.224798358498481,1.5s : 0.3s,-11.185606523098741,0.0011221636862958305,0.0480987584024593,0.027590803633813873,0.00789102166891098,-0.006209981627762318,0.002475239336490631,-0.018488407135009766,-0.006779462099075317,0.0193253755569458,-0.32484022532131973,2.0361669133212605,2.9400926666010343,0.8469185829162598,0.31915736198425293,0.42528489232063293, 182, 118, 0, 148
1731319878146,9i,5.224798358498481,1.5s : 0.3s,-11.185606523098741,0.0017461566606783343,0.03758859210153086,0.013301750946749593,0.002002640161663294,-0.0025594087783247232,-0.021144269034266472,-0.00949937105178833,0.0078849196434021,0.004952430725097656,-0.3250166317818366,2.036231774539715,2.9401185459058254,0.8468406796455383,0.3193245530128479,0.4253145456314087, 182, 118, 0, 148
1731319878156,9i,5.224798358498481,1.5s : 0.3s,-11.185606523098741,0.002286267220190377,0.035909615471619645,0.014912040535432235,-0.016670113429427147,-0.011227997951209545,-0.028882084414362907,-0.009653806686401367,0.0026504099369049072,-0.011052072048187256,-0.3252911592167754,2.0363300738402326,2.940336691975798,0.8467205166816711,0.3195846974849701,0.42535844445228577, 182, 118, 0, 148
1731319878166,9i,5.224798358498481,1.5s : 0.3s,-11.185606523098741,0.00275916082839265,0.03475676713125099,0.019844288157346016,-0.027951862663030624,-0.009521267376840115,-0.030878422781825066,-0.016104280948638916,-0.005815297365188599,-0.010031461715698242,-0.3253846558919899,2.036456129356016,2.940730829353547,0.8466401696205139,0.3196732699871063,0.42545172572135925, 182, 118, 0, 148
1731319878176,9i,5.224798358498481,1.5s : 0.3s,-11.185606523098741,0.0031654713975618805,0.03431220318490434,0.01932814897187976,-0.03281186521053314,-0.0035011915024369955,-0.04118512198328972,-0.009869515895843506,0.0008504986763000488,-0.016596585512161255,-0.32540316554118515,2.0367521469352874,2.9412430136456034,0.8465088605880737,0.3196908235549927,0.4256996512413025, 182, 118, 0, 148
1731319878186,9i,5.224798358498481,1.5s : 0.3s,-11.185606523098741,0.0035128535331918924,0.03451810686981684,0.021937825072684183,-0.03942636027932167,0.0052517312578856945,-0.05104361101984978,-0.010431945323944092,0.00026792287826538086,-0.019296914339065552,-0.3255994548106392,2.037091415575443,2.941879295252483,0.8463085293769836,0.3198767900466919,0.4259587228298187, 182, 118, 0, 148
1731319878196,9i,5.224798358498481,1.5s : 0.3s,-11.185606523098741,0.0038068324884666434,0.03451386520945915,0.02734030730459289,-0.033680856227874756,0.006034433841705322,-0.047727975994348526,-0.020354509353637695,-0.003718435764312744,-0.01787063479423523,-0.32582878815704275,2.03746447974411,2.942500475468095,0.8460837006568909,0.3200940787792206,0.4262412190437317, 182, 118, 0, 148
1731319878206,9i,5.224798358498481,1.5s : 0.3s,-11.185606523098741,0.004038112764052481,0.03158629853403566,0.022798043988979416,0.02598440647125244,0.008774560876190662,-0.019799508154392242,-0.017423033714294434,0.00806322693824768,-0.012295246124267578,-0.3259879342146521,2.0378272551937866,2.942816344778364,0.8458837270736694,0.32024484872817993,0.4265252947807312, 182, 118, 0, 148
1731319878216,9i,5.224798358498481,1.5s : 0.3s,-11.185606523098741,0.0041481685192776546,0.027283056843205714,0.03496711993289586,0.07402463257312775,-0.0018357392400503159,-0.020723622292280197,-0.010590851306915283,0.031512558460235596,-0.010839372873306274,-0.32634590803991137,2.03804322877799,2.942489760167708,0.845689058303833,0.32058393955230713,0.42665624618530273, 182, 118, 0, 148
1731319878226,9i,5.224798358498481,1.5s : 0.3s,-11.185606523098741,0.004074171251373229,0.02669797178271807,0.03857260583476915,0.06059418246150017,-0.004171242006123066,-0.021521039307117462,-0.008194684982299805,0.0339542031288147,-0.016364753246307373,-0.3269418022608268,2.0379305435517514,2.941958214285724,0.8455665707588196,0.3211483359336853,0.4264749586582184, 182, 118, 0, 148
1731319878236,9i,5.224798358498481,1.5s : 0.3s,-11.185606523098741,0.003966085582318612,0.02659947191593758,0.02456837164412865,0.04627116769552231,-0.015500596724450588,-0.02006295882165432,-0.008505702018737793,0.01878717541694641,-0.013352900743484497,-0.3274250739674556,2.0376273897616484,2.941515987959496,0.8455572128295898,0.32160598039627075,0.42614874243736267, 182, 118, 0, 148
1731319878246,9i,5.224798358498481,1.5s : 0.3s,-11.185606523098741,0.0038792665328746755,0.053445185430264726,0.011004179323401978,0.033245448023080826,0.09349841624498367,-0.16497284173965454,0.0035559535026550293,-4.023313522338867e-06,-0.010413795709609985,-0.32809378034367104,2.037658613722392,2.941369925397837,0.8453514575958252,0.32223907113075256,0.42607811093330383, 182, 118, 0, 148
1731319878256,9i,5.224798358498481,1.5s : 0.3s,-11.185606523098741,0.003813524201984338,0.21504860455158897,0.007218543445731706,-0.05132696032524109,0.5334052443504333,-0.7230643630027771,0.0014710426330566406,-0.0013499259948730469,-0.006936937570571899,-0.3282583854052478,2.037202021931351,2.9411129939325074,0.8454987406730652,0.3223949074745178,0.425668329000473, 182, 118, 0, 148
1731319878266,9i,5.224798358498481,1.5s : 0.3s,-11.185606523098741,0.0037824193074419174,0.37494099524583974,0.029866368645505896,-0.08464057743549347,0.792677640914917,-0.7945446372032166,0.02822965383529663,0.006520509719848633,-0.007250487804412842,-0.3282132387345145,2.036861434454087,2.9408924086990016,0.8456565141677856,0.32235217094421387,0.42538681626319885, 182, 118, 0, 148
1731319878276,9i,5.224798358498481,1.5s : 0.3s,-11.185606523098741,0.003655304981466664,0.3264496894049366,0.05441659993855226,-0.05816875398159027,0.2966151237487793,-0.1552186757326126,-0.048645973205566406,0.00018957257270812988,-0.024386465549468994,-0.32863081452965165,2.036897336910155,2.9414664745417656,0.8455210328102112,0.3227474093437195,0.4253567159175873, 182, 118, 0, 148
1731319878286,9i,5.224798358498481,1.5s : 0.3s,-11.185606523098741,0.003583048718900399,0.24794431040653023,0.021600633526330553,-0.06421752274036407,0.08639097213745117,-0.04156532511115074,-0.009202361106872559,0.0007506012916564941,-0.019527941942214966,-0.328973095468149,2.037309709260699,2.942173636961134,0.8452466130256653,0.32307136058807373,0.4256555140018463, 182, 118, 0, 148
1731319878296,9i,5.224798358498481,1.5s : 0.3s,-11.185606523098741,0.003573487790449768,0.18145693908070298,0.020223241960687994,-0.0579439140856266,0.009673022665083408,-0.0342850387096405,0.007573723793029785,0.0028817355632781982,-0.018528729677200317,-0.328978502318331,2.037572669056171,2.9427059201207078,0.8451331257820129,0.3230764865875244,0.42587700486183167, 182, 118, 0, 148
1731319878306,9i,5.224798358498481,1.5s : 0.3s,-11.185606523098741,0.003590676113195335,0.13050661330666233,0.029171910376303317,-0.03470650315284729,0.004181762225925922,-0.010621254332363605,-0.021240711212158203,0.010755985975265503,-0.016856491565704346,-0.328993937298718,2.037799347132069,2.9432410153032964,0.8450323343276978,0.3230910897254944,0.42606642842292786, 182, 118, 0, 148
1731319878316,9i,5.224798358498481,1.5s : 0.3s,-11.185606523098741,0.0036180464080687483,0.09721031854459548,0.020968213715714123,-0.02742861956357956,0.008970391936600208,-0.023265143856406212,0.00534588098526001,0.019751012325286865,-0.004580944776535034,-0.3290180297522408,2.038011399171264,2.943619719242789,0.8449347019195557,0.32311388850212097,0.426241934299469, 182, 118, 0, 148
1731319878326,9i,5.224798358498481,1.5s : 0.3s,-11.185606523098741,0.003668375986892322,0.07342990088904536,0.017366869001866427,-0.034328870475292206,0.006433642003685236,-0.017165306955575943,-0.011928319931030273,0.01029154658317566,-0.0073080360889434814,-0.3290815001527687,2.038215996676711,2.944006993088774,0.844829261302948,0.3231739401817322,0.4264056086540222, 182, 118, 0, 148
1731319878336,9i,5.224798358498481,1.5s : 0.3s,-11.185606523098741,0.0037322932271467487,0.057305831222189144,0.007732927520697397,-0.04901886731386185,-0.0008887194562703371,-0.013790283352136612,-0.0022068023681640625,0.00715908408164978,0.0019172132015228271,-0.3290540550188419,2.0384173921894084,2.944485779624282,0.8447514772415161,0.3231479823589325,0.4265798330307007, 182, 118, 0, 148
1731319878346,9i,5.224798358498481,1.5s : 0.3s,-11.185606523098741,0.0038092052649841774,0.05466294241478979,0.007115687137444582,-0.06606196612119675,-0.004717634990811348,-0.02238520234823227,0.0058817267417907715,0.003993004560470581,0.000306934118270874,-0.3289812220803762,2.038577043421335,2.945079208517486,0.8447041511535645,0.32307904958724976,0.42672520875930786, 182, 118, 0, 148
1731319878356,9i,5.224798358498481,1.5s : 0.3s,-11.185606523098741,0.003914015504098424,0.050848960905100334,0.007926696444768155,-0.05891190841794014,-0.007528867572546005,-0.005583319813013077,0.002981722354888916,-0.005226343870162964,-0.005160152912139893,-0.3288233041085623,2.0387176010804597,2.9457722658906715,0.8446898460388184,0.32292959094047546,0.4268670380115509, 182, 118, 0, 148
1731319878366,9i,5.224798358498481,1.5s : 0.3s,-11.185606523098741,0.004030921322807459,0.04697317255610619,0.005067938420988601,-0.05195413529872894,-0.01542691607028246,-0.00041478988714516163,0.0006208419799804688,0.0003337562084197998,-0.005018681287765503,-0.32860735132474483,2.0387658302563296,2.9462908122376428,0.8447310924530029,0.32272520661354065,0.4269390106201172, 182, 118, 0, 148
1731319878376,9i,5.224798358498481,1.5s : 0.3s,-11.185606523098741,0.004137114158213968,0.043920516304177114,0.012009427198821511,-0.04501580074429512,-0.01302421186119318,-0.010781411081552505,0.004864811897277832,0.010645061731338501,-0.002691209316253662,-0.3284339707766924,2.038780538093278,2.946782529074524,0.8447751998901367,0.322561115026474,0.42697688937187195, 182, 118, 0, 148
1731319878386,9i,5.224798358498481,1.5s : 0.3s,-11.185606523098741,0.004230178323497783,0.042605586001519556,0.005956887836835124,-0.04984670877456665,-0.0005738448817282915,-0.01755472645163536,0.0014050602912902832,0.004848480224609375,0.003162682056427002,-0.32835145035079455,2.0388811768088666,2.9472845635071105,0.8447557091712952,0.32248300313949585,0.42707377672195435, 182, 118, 0, 148
1731319878396,9i,5.224798358498481,1.5s : 0.3s,-11.185606523098741,0.004329095197524599,0.07164272246265509,0.010658962796396236,-0.06264159828424454,0.11024081707000732,-0.17995935678482056,-0.009207189083099365,-0.005257517099380493,0.0010952949523925781,-0.3286305125501469,2.039425819267269,2.9480693854632105,0.8444427847862244,0.322747141122818,0.42749321460723877, 182, 118, 0, 148
1731319878406,9i,5.224798358498481,1.5s : 0.3s,-11.185606523098741,0.0044427117709979974,0.2716782283280599,0.017173832170720892,-0.13631463050842285,0.6853818893432617,-0.870177149772644,-0.013315916061401367,-0.010825812816619873,-0.0006547272205352783,-0.3284518870990045,2.0397147462823773,2.948693994518109,0.8443704843521118,0.3225780725479126,0.4277631640434265, 182, 118, 0, 148
1731319878415,9i,5.224798358498481,1.5s : 0.3s,-11.185606523098741,0.004546149403025404,0.49183172994550217,0.027521620419115995,-0.1608031988143921,1.0831646919250488,-1.036224603652954,0.02310621738433838,-0.0145987868309021,0.0032276511192321777,-0.3276985981727544,2.039613155953124,2.948740422687296,0.8446304798126221,0.3218649625778198,0.42778703570365906, 182, 118, 0, 148
1731319878425,9i,5.224798358498481,1.5s : 0.3s,-11.185606523098741,0.004774757659730938,0.43203090613191475,0.04720988818599025,-0.07263924181461334,0.39541786909103394,-0.21299992501735687,-0.040451228618621826,-0.024249792098999023,-0.002102196216583252,-0.32801269949249673,2.039997815900907,2.9491986217423074,0.8443756699562073,0.32216233015060425,0.4280661642551422, 182, 118, 0, 148
1731319878435,9i,5.224798358498481,1.5s : 0.3s,-11.185606523098741,0.00499323736534158,0.3099922341623564,0.025522019902548303,-2.575642429292202e-05,0.06673107296228409,0.01705671288073063,-0.01896536350250244,-0.009896636009216309,0.013919234275817871,-0.32838916547479324,2.0404970197175536,2.9494065420100535,0.8440538644790649,0.3225186765193939,0.42843279242515564, 182, 118, 0, 148
1731319878445,9i,5.224798358498481,1.5s : 0.3s,-11.185606523098741,0.0051834296686248385,0.22215542736114116,0.01681110743784355,-0.007825888693332672,0.01786055602133274,-0.01720418967306614,0.01640498638153076,0.002861201763153076,0.002302885055541992,-0.3284037130350242,2.040595113221379,2.9493502907210196,0.8440075516700745,0.3225324749946594,0.42851343750953674, 182, 118, 0, 148
1731319878455,9i,5.224798358498481,1.5s : 0.3s,-11.185606523098741,0.005401668959862723,0.15623008226801108,0.017654367372394345,-0.0004276273539289832,-0.001378385815769434,-0.0069451602175831795,-0.005341649055480957,-0.01071658730506897,-0.012972980737686157,-0.32849771671320593,2.0406677980781214,2.9494040799882297,0.8439493775367737,0.3226214349269867,0.4285610318183899, 182, 118, 0, 148
1731319878465,9i,5.224798358498481,1.5s : 0.3s,-11.185606523098741,0.005624629126325431,0.10669959978796044,0.014446567056309739,-0.0037605068646371365,-0.019513269886374474,-0.0007077374029904604,0.003906548023223877,-0.012466192245483398,-0.006167352199554443,-0.32866959904028936,2.04073342189276,2.9494878995307077,0.8438716530799866,0.3227841258049011,0.428591251373291, 182, 118, 0, 148
1731319878475,9i,5.224798358498481,1.5s : 0.3s,-11.185606523098741,0.005871266910131213,0.06216363293436364,0.01945137637534054,-0.010544376447796822,-0.050691697746515274,0.04150683060288429,-0.007190346717834473,-0.006312280893325806,-0.01693546772003174,-0.3287292405633858,2.04072023959134,2.9496363319350785,0.8438602685928345,0.3228405714035034,0.4285714626312256, 182, 118, 0, 148
1731319878485,9i,5.224798358498481,1.5s : 0.3s,-11.185606523098741,0.006126374020982728,0.012365921248790948,0.019542084541686953,-0.008276563137769699,-0.13127867877483368,0.13186781108379364,-0.003454446792602539,0.0031617581844329834,-0.018972694873809814,-0.32879551199836315,2.040741037512013,2.9499730497083463,0.8438323140144348,0.3229033052921295,0.4285793602466583, 182, 118, 0, 148
1731319878495,9i,5.224798358498481,1.5s : 0.3s,-11.185606523098741,0.00638980494569266,0.06641404983960811,0.01802356373721803,-0.001611202722415328,-0.23971115052700043,0.24749694764614105,-0.0044269561767578125,0.00016438961029052734,-0.01747065782546997,-0.3288992817104473,2.0408234178557585,2.9504296285591742,0.8437672257423401,0.323001503944397,0.42863374948501587, 182, 118, 0, 148
1731319878505,9i,5.224798358498481,1.5s : 0.3s,-11.185606523098741,0.006670821798017884,0.14678335955815563,0.02047569448402375,0.021148238331079483,-0.35306480526924133,0.353981077671051,-0.00808727741241455,-0.004846751689910889,-0.018175780773162842,-0.32906711325344384,2.0408925784021172,2.9508620979613065,0.8436891436576843,0.3231603503227234,0.42866748571395874, 182, 118, 0, 148
1731319878515,9i,5.224798358498481,1.5s : 0.3s,-11.185606523098741,0.006952232123992374,0.22082232233080687,0.014568740403792324,0.03173483535647392,-0.4188840389251709,0.41014474630355835,-0.007611632347106934,9.864568710327148e-06,-0.01242220401763916,-0.32922377848290135,2.0409004216490425,2.951176749438807,0.8436406254768372,0.3233085870742798,0.4286511540412903, 182, 118, 0, 148
1731319878525,9i,5.224798358498481,1.5s : 0.3s,-11.185606523098741,0.00721826662129995,0.26489582100349846,0.015325163040293029,0.026975499466061592,-0.408040314912796,0.3655928671360016,-0.002007126808166504,0.008800119161605835,-0.012385070323944092,-0.3293515520391382,2.040860553149991,2.9513839265571855,0.8436209559440613,0.32342949509620667,0.4285988509654999, 182, 118, 0, 148
1731319878535,9i,5.224798358498481,1.5s : 0.3s,-11.185606523098741,0.007474206504376742,0.26083015711400576,0.015965527330511892,0.00789475068449974,-0.29021912813186646,0.22174380719661713,-0.00024437904357910156,0.006951272487640381,-0.014370739459991455,-0.32943485341470835,2.0408231655444276,2.951539849364904,0.8436129689216614,0.3235083222389221,0.42855510115623474, 182, 118, 0, 148
1731319878545,9i,5.224798358498481,1.5s : 0.3s,-11.185606523098741,0.007727661370927256,0.19172385243964582,0.013798721759661453,-0.020404931157827377,-0.08182520419359207,-0.025720510631799698,-0.0041547417640686035,0.002914130687713623,-0.012831628322601318,-0.32944410923027584,2.0407004816776593,2.9515913250923624,0.843662679195404,0.3235170841217041,0.4284501373767853, 182, 118, 0, 148
1731319878555,9i,5.224798358498481,1.5s : 0.3s,-11.185606523098741,0.007978270312508093,0.06577500818717602,0.017737900986384666,-0.062429606914520264,0.2124096304178238,-0.3342842161655426,-0.0031884312629699707,0.0074950456619262695,-0.015757262706756592,-0.32942456028666967,2.0405115130455305,2.9516075143880576,0.8437494039535522,0.32349857687950134,0.4282936453819275, 182, 118, 0, 148
1731319878565,9i,5.224798358498481,1.5s : 0.3s,-11.185606523098741,0.008234778170511887,0.12251266185764981,0.020889362497982806,-0.08523592352867126,0.4786422848701477,-0.5894854068756104,-0.004806101322174072,0.007156729698181152,-0.01902756094932556,-0.3293789011251047,2.040292395629918,2.9515640414387914,0.8438562154769897,0.3234553933143616,0.4281153380870819, 182, 118, 0, 148
1731319878575,9i,5.224798358498481,1.5s : 0.3s,-11.185606523098741,0.008508709634941785,0.27879532836178345,0.0227037345124273,-0.10663389414548874,0.6496651768684387,-0.7150654196739197,-0.011889219284057617,0.00372883677482605,-0.018978983163833618,-0.3292926570251536,2.0401293941570477,2.951529033073863,0.8439509272575378,0.3233737647533417,0.4279904365539551, 182, 118, 0, 148
1731319878585,9i,5.224798358498481,1.5s : 0.3s,-11.185606523098741,0.008792753809590857,0.4031018762357341,0.020576068835067872,-0.1318281888961792,0.7169170379638672,-0.7368391156196594,-0.015077412128448486,0.004131674766540527,-0.013378173112869263,-0.3290443281932133,2.040049277079584,2.951677917446201,0.8440567851066589,0.3231387734413147,0.4279591143131256, 182, 118, 0, 148
1731319878595,9i,5.224798358498481,1.5s : 0.3s,-11.185606523098741,0.009072380626251242,0.46806810477050553,0.012951490208811393,-0.13754120469093323,0.6604230999946594,-0.6339852213859558,-0.010498225688934326,0.002377629280090332,-0.007202446460723877,-0.3287050031777176,2.04003161666084,2.952056654748661,0.8441620469093323,0.3228176236152649,0.4279937446117401, 182, 118, 0, 148
1731319878605,9i,5.224798358498481,1.5s : 0.3s,-11.185606523098741,0.009348486833691027,0.46653085022581514,0.012523132526092114,-0.11056259274482727,0.5101690292358398,-0.43383121490478516,-0.011497557163238525,-0.0020909011363983154,-0.004501461982727051,-0.3282189927355644,2.040055775802351,2.952524729174942,0.8442917466163635,0.3223575949668884,0.4280851185321808, 182, 118, 0, 148
1731319878615,9i,5.224798358498481,1.5s : 0.3s,-11.185606523098741,0.009623498783833813,0.39434029690050404,0.018108533830590093,-0.06584358215332031,0.2872166633605957,-0.1803605854511261,-0.015203356742858887,0.006337076425552368,-0.0075245201587677,-0.32771391215778883,2.0400431407090043,2.952894562812697,0.8444421291351318,0.32187944650650024,0.42814797163009644, 182, 118, 0, 148
1731319878625,9i,5.224798358498481,1.5s : 0.3s,-11.185606523098741,0.009901842204906334,0.2705409251967736,0.023876802802093818,-0.026205429807305336,0.038620252162218094,0.09091761708259583,-0.013953208923339844,0.013572514057159424,-0.013827383518218994,-0.32724368661477116,2.0399993654477737,2.9532044074818664,0.8445959687232971,0.3214341998100281,0.4281795024871826, 182, 118, 0, 148
1731319878635,9i,5.224798358498481,1.5s : 0.3s,-11.185606523098741,0.010176608291259312,0.14024072566618426,0.013699974447494965,-0.0010990104638040066,-0.1882573664188385,0.3145962357521057,-0.008586108684539795,0.005440860986709595,-0.009185045957565308,-0.3267910997073723,2.0400076123954793,2.953484184552774,0.8447217345237732,0.32100561261177063,0.4282520115375519, 182, 118, 0, 148
1731319878645,9i,5.224798358498481,1.5s : 0.3s,-11.185606523098741,0.010451106571143664,0.05443154584576711,0.01122576296322338,0.005697975866496563,-0.366057813167572,0.48335254192352295,-0.0046225786209106445,-0.003475666046142578,-0.009621292352676392,-0.32636180038357665,2.0401432401509085,2.9538550569391244,0.8447866439819336,0.3205989897251129,0.4284289479255676, 182, 118, 0, 148
1731319878655,9i,5.224798358498481,1.5s : 0.3s,-11.185606523098741,0.010729698135249996,0.17306430363413292,0.014624082974066869,-0.006652167532593012,-0.47632360458374023,0.5591426491737366,-0.004362285137176514,-0.009652584791183472,-0.010082751512527466,-0.3259077617597768,2.0403767605920486,2.9543601959704215,0.8448163270950317,0.3201688826084137,0.4286920428276062, 182, 118, 0, 148
1731319878665,9i,5.224798358498481,1.5s : 0.3s,-11.185606523098741,0.01100186822940214,0.2706114305500038,0.016180772866439645,-0.01069557759910822,-0.5012713670730591,0.556601881980896,-0.0012568235397338867,-0.015472501516342163,-0.004565030336380005,-0.3253830743042967,2.0406730908516493,2.955027512036275,0.8448390960693359,0.31967177987098694,0.429018497467041, 182, 118, 0, 148
1731319878675,9i,5.224798358498481,1.5s : 0.3s,-11.185606523098741,0.011263082500699156,0.31836534714301795,0.019957320946785966,0.003836759366095066,-0.44713810086250305,0.4629710018634796,0.0013890862464904785,-0.019795358180999756,-0.002123415470123291,-0.3249047958133563,2.040898031762554,2.9554912800298823,0.8448786735534668,0.31921857595443726,0.4292776584625244, 182, 118, 0, 148
1731319878685,9i,5.224798358498481,1.5s : 0.3s,-11.185606523098741,0.011511717038921971,0.3171875238092621,0.014549675071547122,0.01124667190015316,-0.3303619623184204,0.31938132643699646,0.002614915370941162,-0.01373589038848877,-0.004022508859634399,-0.32450041556774945,2.041035813507949,2.9556969966383195,0.8449344635009766,0.3188353180885315,0.42945247888565063, 182, 118, 0, 148
1731319878695,9i,5.224798358498481,1.5s : 0.3s,-11.185606523098741,0.011759228116348788,0.2684844028495089,0.011792112303045315,-0.0022680715192109346,-0.18471208214759827,0.14448274672031403,-0.0013766884803771973,-0.004197627305984497,-0.010933369398117065,-0.3241768120428053,2.0410511603687755,2.95569918064873,0.8450196981430054,0.31852859258651733,0.4295121133327484, 182, 118, 0, 148
1731319878705,9i,5.224798358498481,1.5s : 0.3s,-11.185606523098741,0.011994736867325129,0.18715019219539722,0.006212400636062024,-0.020541684702038765,-0.025509199127554893,-0.030880186706781387,-0.0010899901390075684,-0.0014762580394744873,-0.005935192108154297,-0.32381717229872803,2.0409615445353393,2.955618375440357,0.8451604247093201,0.3181876540184021,0.42948833107948303, 182, 118, 0, 148
1731319878715,9i,5.224798358498481,1.5s : 0.3s,-11.185606523098741,0.012208417176618823,0.08914872080347258,0.006478139175343596,-0.0374801866710186,0.12725397944450378,-0.1748104691505432,0.002133309841156006,-0.006116598844528198,4.9948692321777344e-05,-0.32344877760887286,2.040858248110604,2.9555465378805463,0.845309317111969,0.3178383708000183,0.42945414781570435, 182, 118, 0, 148
1731319878725,9i,5.224798358498481,1.5s : 0.3s,-11.185606523098741,0.012407356551548508,0.02196746941584207,0.01555812433652582,-0.04108957201242447,0.23769252002239227,-0.2642584443092346,-0.0022327303886413574,-0.014915168285369873,0.003822028636932373,-0.32310478363105904,2.0407959776865616,2.955435292117413,0.8454335331916809,0.3175122141838074,0.42945101857185364, 182, 118, 0, 148
1731319878735,9i,5.224798358498481,1.5s : 0.3s,-11.185606523098741,0.012593358345789906,0.09430561049382925,0.01655114444071264,-0.035520900040864944,0.2964002788066864,-0.3011876940727234,-0.009125590324401855,-0.011789888143539429,0.00718766450881958,-0.32278591893124814,2.040731493120353,2.9552455879127586,0.8455514311790466,0.3172098398208618,0.4294423460960388, 182, 118, 0, 148
1731319878745,9i,5.224798358498481,1.5s : 0.3s,-11.185606523098741,0.012769871603617748,0.1485148928783639,0.01335187398051473,-0.0366903617978096,0.3021860122680664,-0.2780051827430725,-0.01111292839050293,-0.0055442750453948975,0.004902690649032593,-0.3225233629339933,2.0406824032292974,2.955070548361362,0.8456465005874634,0.31696081161499023,0.42943841218948364, 182, 118, 0, 148
1731319878755,9i,5.224798358498481,1.5s : 0.3s,-11.185606523098741,0.012941440870810348,0.1715999692271095,0.014165934180315304,-0.034065816551446915,0.25616952776908875,-0.21630987524986267,-0.01387101411819458,-0.0006777942180633545,0.002794504165649414,-0.3222510577188458,2.0406571666799707,2.9549378969926816,0.8457343578338623,0.31670254468917847,0.4294561743736267, 182, 118, 0, 148
1731319878765,9i,5.224798358498481,1.5s : 0.3s,-11.185606523098741,0.013109701432975492,0.16519977343005254,0.013447909834456826,-0.032497212290763855,0.1805741935968399,-0.12203250080347061,-0.013142883777618408,0.0028388500213623047,0.0002276301383972168,-0.3220183530986441,2.0406578968611933,2.9548976972254937,0.8457998633384705,0.3164817988872528,0.42949017882347107, 182, 118, 0, 148
1731319878775,9i,5.224798358498481,1.5s : 0.3s,-11.185606523098741,0.013268461806777465,0.13400262562933035,0.008845148484942845,-0.021725259721279144,0.09451441466808319,-0.025161614641547203,-0.007227301597595215,-0.004103600978851318,0.0030270814895629883,-0.3217767571858849,2.040698759744056,2.9549517004650987,0.8458502888679504,0.31625261902809143,0.42955929040908813, 182, 118, 0, 148
1731319878785,9i,5.224798358498481,1.5s : 0.3s,-11.185606523098741,0.013421730494437198,0.08957666785962383,0.006516553783443842,-0.011976691894233227,0.012918438762426376,0.060966379940509796,-0.00533825159072876,-0.0037338435649871826,-0.00016418099403381348,-0.3215479398001018,2.040770765535831,2.95504604286809,0.8458840847015381,0.31603553891181946,0.4296530485153198, 182, 118, 0, 148
1731319878795,9i,5.224798358498481,1.5s : 0.3s,-11.185606523098741,0.013571467683774745,0.07424936626327927,0.008119267413267836,0.007668382488191128,-0.046069782227277756,0.11557210236787796,-0.007813811302185059,0.001546025276184082,-0.0015737414360046387,-0.3213544860524668,2.0408891275607592,2.9550744903070734,0.8458874225616455,0.31585198640823364,0.4297807216644287, 182, 118, 0, 148
1731319878805,9i,5.224798358498481,1.5s : 0.3s,-11.185606523098741,0.01372693056051156,0.031138699025385658,0.011459966844992061,0.004816136322915554,-0.0826214924454689,0.14214178919792175,-0.007423341274261475,0.003429323434829712,-0.008028984069824219,-0.32120297038096945,2.041044854517868,2.955084098108712,0.8458632826805115,0.3157082200050354,0.42993420362472534, 182, 118, 0, 148
1731319878815,9i,5.224798358498481,1.5s : 0.3s,-11.185606523098741,0.013895777976675561,0.033964718878665534,0.01523042841118353,-0.002957097953185439,-0.08713794499635696,0.1431969404220581,-0.010449349880218506,0.0031557083129882812,-0.010621607303619385,-0.32099284660995064,2.0412421763766613,2.955123814097956,0.8458376526832581,0.3155088424682617,0.430131196975708, 182, 118, 0, 148
1731319878825,9i,5.224798358498481,1.5s : 0.3s,-11.185606523098741,0.014074187304789846,0.04633412223661151,0.016573876381723387,0.0005528152105398476,-0.07895511388778687,0.10312122106552124,-0.010835826396942139,0.006811290979385376,-0.010530173778533936,-0.32082279037819195,2.0414481235854103,2.95520058204666,0.8457966446876526,0.31534746289253235,0.4303296208381653, 182, 118, 0, 148
1731319878835,9i,5.224798358498481,1.5s : 0.3s,-11.185606523098741,0.014260417447345424,0.047275717483909484,0.016464230630390563,-0.0011643909383565187,-0.05511049926280975,0.06925726681947708,-0.007797300815582275,0.007279247045516968,-0.012541353702545166,-0.32069956083930046,2.041604137602564,2.9552710395120765,0.8457643389701843,0.31523051857948303,0.4304792881011963, 182, 118, 0, 148
1731319878845,9i,5.224798358498481,1.5s : 0.3s,-11.185606523098741,0.014445581214715482,0.0459965850687589,0.015148253508657046,0.0001335671404376626,-0.03203482925891876,0.04303348436951637,-0.005221843719482422,0.009495168924331665,-0.01058506965637207,-0.32064770163095596,2.041772143156105,2.9552847730921803,0.8457064032554626,0.31518131494522095,0.4306287467479706, 182, 118, 0, 148
1731319878855,9i,5.224798358498481,1.5s : 0.3s,-11.185606523098741,0.01460720916139506,0.039636745330816,0.016353014058123647,-0.01348583772778511,-0.013824403285980225,0.026847857981920242,-0.001332104206085205,0.016059786081314087,-0.0027802586555480957,-0.3204352019146802,2.0419076692984572,2.955288838249049,0.8457077741622925,0.3149796426296234,0.4307737648487091, 182, 118, 0, 148
1731319878865,9i,5.224798358498481,1.5s : 0.3s,-11.185606523098741,0.014757872086152677,0.030869603699009117,0.015566926304205832,-0.0042752958834171295,0.004600055515766144,0.01771760918200016,-0.0016714930534362793,0.01365002989768982,-0.007294654846191406,-0.320208918351958,2.042011097499309,2.955309647794797,0.8457266092300415,0.3147648572921753,0.43089354038238525, 182, 118, 0, 148
1731319878875,9i,5.224798358498481,1.5s : 0.3s,-11.185606523098741,0.014923229356974528,0.028368252423438853,0.01966981741374598,0.0038220451679080725,0.00372094614431262,0.021605556830763817,-0.008776307106018066,0.009924709796905518,-0.014538854360580444,-0.3200986255892055,2.042096381739028,2.955245509575299,0.8457207083702087,0.3146601915359497,0.4309813678264618, 182, 118, 0, 148
1731319878885,9i,5.224798358498481,1.5s : 0.3s,-11.185606523098741,0.015111717593575788,0.02663933376054227,0.0234355751046051,-5.8846198953688145e-05,-0.0018906006589531898,0.020542090758681297,-0.01260673999786377,0.009923964738845825,-0.01708248257637024,-0.3200190455448026,2.042005335710656,2.9551103763497757,0.8457822799682617,0.3145846426486969,0.4309157729148865, 182, 118, 0, 148
1731319878895,9i,5.224798358498481,1.5s : 0.3s,-11.185606523098741,0.015307833877538665,0.02537028286402314,0.018477938952358712,-0.002988856052979827,-0.0033188536763191223,0.020423846319317818,-0.010013282299041748,0.010804235935211182,-0.011155128479003906,-0.31994368304159987,2.0418760945339196,2.954996190597738,0.845859169960022,0.31451308727264404,0.43081724643707275, 182, 118, 0, 148
1731319878905,9i,5.224798358498481,1.5s : 0.3s,-11.185606523098741,0.015508795948156412,0.023594634451631364,0.013773939094313537,0.007867853157222271,0.002305653877556324,0.01501539908349514,-0.006215095520019531,0.005920618772506714,-0.01077219843864441,-0.31994447503880713,2.0417663436591273,2.954860766025839,0.8459060788154602,0.3145138621330261,0.43072420358657837, 182, 118, 0, 148
1731319878915,9i,5.224798358498481,1.5s : 0.3s,-11.185606523098741,0.01572640177709364,0.022436933155767655,0.015711750867649008,0.013137449510395527,0.006227691192179918,0.020767027512192726,-0.01047295331954956,-0.0037976205348968506,-0.011079460382461548,-0.3200072693338681,2.0416530890928386,2.9546354799119894,0.8459376096725464,0.3145734667778015,0.43061962723731995, 182, 118, 0, 148
1731319878925,9i,5.224798358498481,1.5s : 0.3s,-11.185606523098741,0.01596756289580409,0.021457259585625738,0.019866252267221704,0.02336505427956581,0.010156651958823204,0.02126663736999035,-0.013088583946228027,-0.007063388824462891,-0.013170629739761353,-0.3200557521931127,2.0415358554363454,2.954337104453066,0.8459742069244385,0.3146194815635681,0.4305134117603302, 182, 118, 0, 148
1731319878935,9i,5.224798358498481,1.5s : 0.3s,-11.185606523098741,0.016234357248733063,0.019841773580562078,0.02220727279049627,0.020083507522940636,0.016703501343727112,0.008957773447036743,-0.01124340295791626,-0.009204268455505371,-0.016793757677078247,-0.3202374576893895,2.0415565319150546,2.9540435611997573,0.845914363861084,0.3147919476032257,0.4305049479007721, 182, 118, 0, 148
1731319878945,9i,5.224798358498481,1.5s : 0.3s,-11.185606523098741,0.01653558887463545,0.01887170968019909,0.028809879082348853,0.04298156499862671,0.025818435475230217,0.010576142929494381,-0.010731875896453857,-0.014577358961105347,-0.022412866353988647,-0.32044853951941016,2.0416148083785015,2.953675854617276,0.8458299040794373,0.3149923086166382,0.4305240511894226, 182, 118, 0, 148
1731319878955,9i,5.224798358498481,1.5s : 0.3s,-11.185606523098741,0.016858507472597237,0.017375848175331658,0.02313732302868113,0.04478505626320839,0.03294079378247261,-0.008337094448506832,-0.013226151466369629,-0.0076548755168914795,-0.017372608184814453,-0.3208237096122933,2.041672453397765,2.9532048395769963,0.8456998467445374,0.315348356962204,0.4305192232131958, 182, 118, 0, 148
1731319878965,9i,5.224798358498481,1.5s : 0.3s,-11.185606523098741,0.01717771325279506,0.024443339670398755,0.01352456648903712,0.06611098349094391,0.04610781744122505,-0.013976005837321281,-0.008657336235046387,0.0014686882495880127,-0.010286271572113037,-0.3213234625171035,2.0418219142899288,2.9527369761552085,0.8454951643943787,0.315822571516037,0.4305741488933563, 182, 118, 0, 148
1731319878974,9i,5.224798358498481,1.5s : 0.3s,-11.185606523098741,0.017461381441102382,0.043958331210958046,0.02401475383477732,0.11832331866025925,0.06852205097675323,-0.030237801373004913,-0.005376160144805908,0.023395121097564697,-0.0006881952285766602,-0.3220959385656791,2.0420970518696007,2.9519549115240817,0.8451588749885559,0.3165554106235504,0.4306957721710205, 182, 118, 0, 148
1731319878984,9i,5.224798358498481,1.5s : 0.3s,-11.185606523098741,0.01765824133842565,0.07009972322385845,0.04363965387487166,0.16191621124744415,0.1040383130311966,-0.04134258255362511,-0.005752682685852051,0.04324701428413391,0.0010108351707458496,-0.3231414648023392,2.042485757242782,2.9507800193342586,0.8446959853172302,0.3175469934940338,0.4308735728263855, 182, 118, 0, 148
1731319878994,9i,5.224798358498481,1.5s : 0.3s,-11.185606523098741,0.017698670282942162,0.10920603908917223,0.06279507543950426,0.2314196527004242,0.16706494987010956,-0.09764101356267929,-0.007095754146575928,0.06168296933174133,0.009385257959365845,-0.3245543379474196,2.043255135832522,2.9492045902020223,0.8439638614654541,0.3188864290714264,0.4313187301158905, 182, 118, 0, 148
1731319879004,9i,5.224798358498481,1.5s : 0.3s,-11.185606523098741,0.017555982852690437,0.16449904167405813,0.07439089269798563,0.2974909245967865,0.26511454582214355,-0.1951465904712677,-0.0038164854049682617,0.0698830783367157,0.025214970111846924,-0.327012162719901,2.0447401900723006,2.94739741066359,0.8426227569580078,0.3212149739265442,0.4322126805782318, 182, 118, 0, 148
1731319879014,9i,5.224798358498481,1.5s : 0.3s,-11.185606523098741,0.017063624658966926,0.2454493641436622,0.10701736564800565,0.42733681201934814,0.3843091130256653,-0.3044416606426239,0.0009285211563110352,0.0785241425037384,0.07270359992980957,-0.33078004712695314,2.0471385148073162,2.945238532560172,0.8405020833015442,0.3247808814048767,0.43367424607276917, 182, 118, 0, 148
1731319879024,9i,5.224798358498481,1.5s : 0.3s,-11.185606523098741,0.016062013760027003,0.3558251615938021,0.185247465937686,0.6252482533454895,0.517701268196106,-0.42137736082077026,0.011869966983795166,0.1284002959728241,0.13300034403800964,-0.33632417327340763,2.0505236271549028,2.9420670111100318,0.8374188542366028,0.33001944422721863,0.4356791377067566, 182, 118, 0, 148
1731319879034,9i,5.224798358498481,1.5s : 0.3s,-11.185606523098741,0.014965791340480037,0.4940309574928532,0.2446788811630124,0.8744543194770813,0.6461154222488403,-0.5481331944465637,0.03385043144226074,0.20705917477607727,0.12589043378829956,-0.3440453586799433,2.054746589604025,2.9374096287841103,0.8332914113998413,0.33729812502861023,0.43801307678222656, 182, 118, 0, 148
1731319879044,9i,5.224798358498481,1.5s : 0.3s,-11.185606523098741,0.014689569883151562,0.659676327947622,0.3041402993806945,1.1720882654190063,0.78014075756073,-0.67420893907547,0.03483843803405762,0.281343013048172,0.11015313863754272,-0.3541575011592453,2.0596570628630326,2.9309080541653794,0.8280766606330872,0.3468002676963806,0.4404752254486084, 182, 118, 0, 148
1731319879054,9i,5.224798358498481,1.5s : 0.3s,-11.185606523098741,0.01619176253106563,0.8393890547645573,0.34355616175595777,1.46104097366333,0.8733223676681519,-0.7962256669998169,0.019864022731781006,0.3206278085708618,0.1217951774597168,-0.36690051976404486,2.064837087171518,2.9222533184513657,0.8218259811401367,0.3587239682674408,0.44262707233428955, 182, 118, 0, 148
1731319879064,9i,5.224798358498481,1.5s : 0.3s,-11.185606523098741,0.019965143947801398,1.0551853402392095,0.38155850687947035,1.908423900604248,0.8747811317443848,-1.024116039276123,0.004005849361419678,0.3658270239830017,0.10835790634155273,-0.3826716758716837,2.0695892670144387,2.9110287611197334,0.8146434426307678,0.3734002411365509,0.4437657594680786, 182, 118, 0, 148
1731319879074,9i,5.224798358498481,1.5s : 0.3s,-11.185606523098741,0.025656250175256346,1.2287189469291304,0.42135583877156535,1.7994004487991333,1.0899789333343506,-1.2347371578216553,-0.0011815428733825684,0.4019732177257538,0.12632054090499878,-0.4023596622147363,2.0740303694749103,2.8980423160974516,0.8060674667358398,0.3915906548500061,0.44374755024909973, 182, 118, 0, 148
1731319879084,9i,5.224798358498481,1.5s : 0.3s,-11.185606523098741,0.03274489041747128,1.4164188433062064,0.4356490675175357,2.1339175701141357,1.1786855459213257,-1.3019464015960693,-0.0461387038230896,0.40795981884002686,0.14570558071136475,-0.42242365009177124,2.0810283752325898,2.886603176239603,0.7959250807762146,0.40997225046157837,0.4454501271247864, 182, 118, 0, 148
1731319879094,9i,5.224798358498481,1.5s : 0.3s,-11.185606523098741,0.041774944295467055,1.6388971979507307,0.6023390469924038,2.4970672130584717,1.2796909809112549,-1.5754258632659912,-0.05548691749572754,0.5644540786743164,0.20279330015182495,-0.4464448838984376,2.087131756398673,2.872151126493315,0.7843990921974182,0.43176159262657166,0.4453081488609314, 182, 118, 0, 148
1731319879104,9i,5.224798358498481,1.5s : 0.3s,-11.185606523098741,0.05280472446409606,1.8658265426720422,0.6956164428550582,2.804180383682251,1.418282151222229,-1.6946758031845093,-0.06244683265686035,0.6645655035972595,0.19579407572746277,-0.4736946150334856,2.0932578231232686,2.855562525431799,0.7711717486381531,0.4561771750450134,0.4440675973892212, 182, 118, 0, 148
1731319879114,9i,5.224798358498481,1.5s : 0.3s,-11.185606523098741,0.06604420851981435,2.0931075162956256,0.8138032239034872,3.0762856006622314,1.5006238222122192,-1.8911569118499756,-0.13296085596084595,0.7864701747894287,0.1614365577697754,-0.5038860598668738,2.099083786744267,2.8369819782167056,0.7563283443450928,0.48283225297927856,0.4414074718952179, 182, 118, 0, 148
1731319879124,9i,5.224798358498481,1.5s : 0.3s,-11.185606523098741,0.08106396589998689,2.320192702174372,0.8557090183726479,3.330048084259033,1.5611364841461182,-2.1282906532287598,-0.18000566959381104,0.8158945441246033,0.18480253219604492,-0.5374244330680762,2.1043318479929227,2.816872159576672,0.739637017250061,0.511925220489502,0.4368859529495239, 182, 118, 0, 148
1731319879134,9i,5.224798358498481,1.5s : 0.3s,-11.185606523098741,0.09740192876297818,2.534895136510713,0.876290848174031,3.544081449508667,1.6288156509399414,-2.2952721118927,-0.2595928907394409,0.8056226372718811,0.22686856985092163,-0.5740540030329615,2.1088802972158947,2.7953395505454357,0.7210492491722107,0.5430406928062439,0.4303424656391144, 182, 118, 0, 148
1731319879144,9i,5.224798358498481,1.5s : 0.3s,-11.185606523098741,0.11505869554257861,2.7371686139021856,0.9441494837892188,3.7525997161865234,1.7417479753494263,-2.3992159366607666,-0.34815865755081177,0.8563289046287537,0.1921057105064392,-0.612929198892626,2.1127383593243216,2.7721857606385063,0.7007588744163513,0.5752658843994141,0.4219076633453369, 182, 118, 0, 148
1731319879154,9i,5.224798358498481,1.5s : 0.3s,-11.185606523098741,0.13429893229704945,2.9382748716789333,1.0532453319680048,3.9905169010162354,1.8303226232528687,-2.5518341064453125,-0.4387909770011902,0.9468486309051514,0.14235827326774597,-0.6540278739769162,2.1156939777113504,2.7469204612165226,0.6787048578262329,0.6083880066871643,0.41136759519577026, 182, 118, 0, 148
1731319879164,9i,5.224798358498481,1.5s : 0.3s,-11.185606523098741,0.1551816739678289,3.1415177887998245,1.142845186984278,4.174171447753906,1.8923665285110474,-2.8368000984191895,-0.5399938225746155,0.9918855428695679,0.17511385679244995,-0.6981926089417567,2.117489786418467,2.7199661898136562,0.6543585062026978,0.6428342461585999,0.39821964502334595, 182, 118, 0, 148
1731319879174,9i,5.224798358498481,1.5s : 0.3s,-11.185606523098741,0.17735541509344802,3.3516417773648395,1.1736395326656228,4.328850269317627,1.986440658569336,-3.1873819828033447,-0.618828535079956,0.9734621047973633,0.21645444631576538,-0.7460511514581145,2.118714930918416,2.6925783351150643,0.626869797706604,0.6787441372871399,0.38254421949386597, 182, 118, 0, 148
1731319879184,9i,5.224798358498481,1.5s : 0.3s,-11.185606523098741,0.20059311441526625,3.565503414863364,1.191097839617506,4.456500053405762,2.0546607971191406,-3.569483518600464,-0.6415936946868896,0.9783287644386292,0.22348248958587646,-0.7980218765770202,2.119558805194084,2.6647542102518726,0.5956190228462219,0.7159765362739563,0.36416372656822205, 182, 118, 0, 148
1731319879194,9i,5.224798358498481,1.5s : 0.3s,-11.185606523098741,0.22487341926506138,3.743713886923557,1.213139117062883,4.448633670806885,1.9867604970932007,-3.8596765995025635,-0.5962196588516235,1.019026756286621,0.2789500057697296,-0.8530838741753122,2.119750957512916,2.637429008888355,0.5610330104827881,0.7533121109008789,0.3431658148765564, 182, 118, 0, 148
1731319879204,9i,5.224798358498481,1.5s : 0.3s,-11.185606523098741,0.2500309837996644,3.8940018946029373,1.2149240278165032,4.485415935516357,1.898577094078064,-4.061543941497803,-0.48367732763290405,1.0788602828979492,0.2795659601688385,-0.910047125822588,2.117995117195851,2.6099968224598324,0.5240979790687561,0.7895326614379883,0.3193106949329376, 182, 118, 0, 148
1731319879214,9i,5.224798358498481,1.5s : 0.3s,-11.185606523098741,0.2755815195663706,4.024066759008832,1.1823469697975022,4.441835403442383,1.7868598699569702,-4.3557844161987305,-0.3335605561733246,1.112272024154663,0.22255933284759521,-0.9691751000389404,2.1138788948620806,2.582119937711541,0.48454633355140686,0.8244191408157349,0.2924855351448059, 182, 118, 0, 148
1731319879224,9i,5.224798358498481,1.5s : 0.3s,-11.185606523098741,0.3008756837910002,4.13414382258601,1.1114726195610174,4.338923454284668,1.6968375444412231,-4.637068748474121,-0.21879345178604126,1.0732998847961426,0.18848916888237,-1.030274696616627,2.1086742576329924,2.5552328912745246,0.44192275404930115,0.8574403524398804,0.26362845301628113, 182, 118, 0, 148
1731319879234,9i,5.224798358498481,1.5s : 0.3s,-11.185606523098741,0.3259682864360453,4.221432133050541,1.1048173911510855,4.171800136566162,1.5938969850540161,-4.9016828536987305,-0.15289458632469177,1.0693786144256592,0.23167669773101807,-1.0928854602092215,2.103305643633516,2.5302240295938234,0.39624184370040894,0.8879576921463013,0.23350243270397186, 182, 118, 0, 148
1731319879244,9i,5.224798358498481,1.5s : 0.3s,-11.185606523098741,0.3507730012138449,4.28500145578855,1.0943923559637958,3.9583117961883545,1.4502949714660645,-5.145051956176758,-0.09814277291297913,1.0395259857177734,0.327793151140213,-1.1567267680707722,2.098337143943646,2.5078499908199543,0.3476393520832062,0.9154910445213318,0.2025410681962967, 182, 118, 0, 148
1731319879254,9i,5.224798358498481,1.5s : 0.3s,-11.185606523098741,0.37461033119080567,4.3479135350592415,1.0197031841868753,3.9244556427001953,1.3366296291351318,-5.304726600646973,-0.024137824773788452,0.9600449800491333,0.34282004833221436,-1.221453372553181,2.093010685265194,2.487216540094931,0.2966598868370056,0.9395977854728699,0.17072950303554535, 182, 118, 0, 148
1731319879264,9i,5.224798358498481,1.5s : 0.3s,-11.185606523098741,0.39826176325812357,4.447796090211266,1.0548168406067981,4.102989196777344,1.3194807767868042,-5.507511138916016,0.020334765315055847,0.996986985206604,0.3438633680343628,-1.2881974157896356,2.0811223398816963,2.460965033682729,0.24332194030284882,0.9603339433670044,0.1362084150314331, 182, 118, 0, 148
1731319879274,9i,5.224798358498481,1.5s : 0.3s,-11.185606523098741,0.4224326661680893,4.568639490603861,1.1977971665959528,4.345829486846924,1.3715261220932007,-5.617305278778076,-0.01269601285457611,1.1170401573181152,0.4321783781051636,-1.3571975188586307,2.052550414303204,2.4177107965178166,0.18785180151462555,0.9772743582725525,0.09821688383817673, 182, 118, 0, 148
1731319879284,9i,5.224798358498481,1.5s : 0.3s,-11.185606523098741,0.44776684631888164,4.680722076913708,1.3057395549592448,4.515901565551758,1.2950714826583862,-5.676587104797363,-0.04596900939941406,1.2194936275482178,0.4644113779067993,-1.4271761393891012,1.978632799030862,2.329065647903671,0.1313878446817398,0.9897043108940125,0.05676761642098427, 182, 118, 0, 148
1731319879294,9i,5.224798358498481,1.5s : 0.3s,-11.185606523098741,0.47413261441086696,4.773655546683349,1.3558354255715077,4.524783134460449,1.1475597620010376,-5.797116756439209,0.007305137813091278,1.245980978012085,0.5345724821090698,-1.4955140140925214,1.7462257779775163,2.0833023830318935,0.07405485212802887,0.9971676468849182,0.013126335106790066, 182, 118, 0, 148
1731319879304,9i,5.224798358498481,1.5s : 0.3s,-11.185606523098741,0.5009022499434991,4.830493608191891,1.3493714536774053,4.412233352661133,1.0460680723190308,-5.851508140563965,0.10312318801879883,1.1882760524749756,0.6310063004493713,-1.5359091102251403,0.477699571310017,0.8027191907213101,0.016032826155424118,0.999391496181488,-0.030969910323619843, 182, 118, 0, 148
1731319879314,9i,5.224798358498481,1.5s : 0.3s,-11.185606523098741,0.5275418250825743,4.853122818702543,1.3252813219603619,4.3257975578308105,0.9000674486160278,-5.834381103515625,0.2065514773130417,1.1273951530456543,0.6653474569320679,-1.4851919648176448,-0.5096260458113449,-0.19553152291332127,-0.041710637509822845,0.9963381886482239,-0.07463417202234268, 182, 118, 0, 148
1731319879324,9i,5.224798358498481,1.5s : 0.3s,-11.185606523098741,0.5537763668373213,4.851634586408047,1.3287931158123483,4.192439079284668,0.699536919593811,-5.8431620597839355,0.3241667151451111,1.0780783891677856,0.7059419751167297,-1.4166610384051594,-0.6991968013390523,-0.3942139234129066,-0.09880952537059784,0.9881446361541748,-0.11750221252441406, 182, 118, 0, 148
1731319879334,9i,5.224798358498481,1.5s : 0.3s,-11.185606523098741,0.5795730182270886,4.81888142809707,1.3079898101410494,4.014871597290039,0.5176931023597717,-5.818769931793213,0.4218702018260956,0.9999210238456726,0.7300827503204346,-1.3471724842532673,-0.7748383440483437,-0.47716622230819417,-0.15514642000198364,0.9751002192497253,-0.1584581583738327, 182, 118, 0, 148
1731319879344,9i,5.224798358498481,1.5s : 0.3s,-11.185606523098741,0.6052170315094891,4.773688826376579,1.28100155402757,3.837261199951172,0.3546026349067688,-5.818285942077637,0.48239171504974365,0.9408267736434937,0.7232621908187866,-1.2781660863986066,-0.8181047092303034,-0.5261508037870016,-0.21054095029830933,0.9574884176254272,-0.19720038771629333, 182, 118, 0, 148
1731319879354,9i,5.224798358498481,1.5s : 0.3s,-11.185606523098741,0.6305050479998325,4.720477022944288,1.2500326303582543,3.685091257095337,0.21371981501579285,-5.794269561767578,0.5264486074447632,0.8857826590538025,0.7076881527900696,-1.2100351140622543,-0.8484764194079579,-0.5609746296468016,-0.26483654975891113,0.9356284141540527,-0.2333688586950302, 182, 118, 0, 148
1731319879364,9i,5.224798358498481,1.5s : 0.3s,-11.185606523098741,0.6553549844297033,4.661747816167449,1.2400239810129305,3.5889892578125,0.08286876231431961,-5.727747440338135,0.5795677304267883,0.8671693801879883,0.6706548929214478,-1.142711371930692,-0.8711560937069706,-0.5869347774551265,-0.3176046907901764,0.9097623825073242,-0.2673194706439972, 182, 118, 0, 148
1731319879374,9i,5.224798358498481,1.5s : 0.3s,-11.185606523098741,0.6799721185847589,4.592995077173054,1.2561341581974659,3.539656162261963,-0.030704405158758163,-5.591445446014404,0.6540459394454956,0.862804114818573,0.6369191408157349,-1.0765239292223958,-0.8883467434236503,-0.606093555644482,-0.36814185976982117,0.8803141117095947,-0.2991965711116791, 182, 118, 0, 148
1731319879384,9i,5.224798358498481,1.5s : 0.3s,-11.185606523098741,0.7034705527180659,4.51660076599972,1.3051698345127734,3.526953935623169,-0.14235042035579681,-5.427933692932129,0.7418583631515503,0.849567711353302,0.6567717790603638,-1.0115155147199244,-0.901003197222533,-0.6194329078649006,-0.41594573855400085,0.8476369380950928,-0.32939469814300537, 182, 118, 0, 148
1731319879394,9i,5.224798358498481,1.5s : 0.3s,-11.185606523098741,0.7262981902421022,4.417658114328433,1.36400839007277,3.3836171627044678,-0.23114261031150818,-5.246850490570068,0.8257714509963989,0.8338267803192139,0.6952361464500427,-0.9482269028089618,-0.9113806926503414,-0.6293517762931327,-0.4608725905418396,0.8123828172683716,-0.35725414752960205, 182, 118, 0, 148
1731319879404,9i,5.224798358498481,1.5s : 0.3s,-11.185606523098741,0.7486641749331667,4.302591390948489,1.4048626283243113,3.2105021476745605,-0.3138142228126526,-5.08214807510376,0.8945603966712952,0.7918941378593445,0.739124059677124,-0.8873193341085985,-0.9209389311417762,-0.637594039780724,-0.5027754902839661,0.7753817439079285,-0.3820990324020386, 182, 118, 0, 148
1731319879414,9i,5.224798358498481,1.5s : 0.3s,-11.185606523098741,0.7703812900985505,4.162769210837216,1.4204131158961952,2.872483730316162,-0.36904260516166687,-4.941891193389893,0.9645700454711914,0.6925386786460876,0.7794666290283203,-0.8289991410500314,-0.9310471425468047,-0.6460697262582515,-0.5420081615447998,0.7372555732727051,-0.4033375680446625, 182, 118, 0, 148
1731319879424,9i,5.224798358498481,1.5s : 0.3s,-11.185606523098741,0.7910021059498283,3.991299210383045,1.4165570751546028,2.528042793273926,-0.38986414670944214,-4.716250896453857,1.0531307458877563,0.5590671896934509,0.7648486495018005,-0.7741967329763348,-0.9419972803311603,-0.6557461827755002,-0.5782312154769897,0.6991419792175293,-0.42053425312042236, 182, 118, 0, 148
1731319879434,9i,5.224798358498481,1.5s : 0.3s,-11.185606523098741,0.8104966847961809,3.7970037388169344,1.449169130908012,2.1269092559814453,-0.4522854685783386,-4.509782314300537,1.1669217348098755,0.4799154996871948,0.7127874493598938,-0.7232890665003019,-0.9533652522400189,-0.6660639313186395,-0.6112269163131714,0.6618538498878479,-0.4339942932128906, 182, 118, 0, 148
1731319879444,9i,5.224798358498481,1.5s : 0.3s,-11.185606523098741,0.8288300740129211,3.6062945405514037,1.4904806820403462,1.934985876083374,-0.5097135901451111,-4.286789894104004,1.2769056558609009,0.39038383960723877,0.6623028516769409,-0.6757923954003416,-0.9658014700697803,-0.6773860392410924,-0.641727864742279,0.6255157589912415,-0.44375139474868774, 182, 118, 0, 148
1731319879454,9i,5.224798358498481,1.5s : 0.3s,-11.185606523098741,0.8460024404668638,3.3965231686023776,1.4859154827138812,1.7413992881774902,-0.43141642212867737,-3.95524525642395,1.333076000213623,0.31470197439193726,0.5760346055030823,-0.6313886617670538,-0.9765855013798166,-0.6870300835812471,-0.6688453555107117,0.5902662873268127,-0.4519197642803192, 182, 118, 0, 148
1731319879464,9i,5.224798358498481,1.5s : 0.3s,-11.185606523098741,0.8620851554293232,3.1698000625885356,1.4644084480476363,1.5252161026000977,-0.47813311219215393,-3.607609987258911,1.3710668087005615,0.27613067626953125,0.43407344818115234,-0.5909886929807248,-0.9862699959636801,-0.6958350426412478,-0.6925234794616699,0.5571823120117188,-0.4582129716873169, 182, 118, 0, 148
1731319879474,9i,5.224798358498481,1.5s : 0.3s,-11.185606523098741,0.8776155229405508,2.9406072077470973,1.5158062835434092,1.3383445739746094,-0.5589393377304077,-3.292323112487793,1.4298737049102783,0.2511169910430908,0.43597033619880676,-0.5543723761475015,-0.9957559002320999,-0.7034887339446149,-0.7134885191917419,0.5264098048210144,-0.4624139666557312, 182, 118, 0, 148
1731319879484,9i,5.224798358498481,1.5s : 0.3s,-11.185606523098741,0.8925724723293607,2.72672137161642,1.5477518030959034,1.132813572883606,-0.5647120475769043,-3.084394693374634,1.463984727859497,0.13738033175468445,0.48312628269195557,-0.5209691837642353,-1.0054594535046728,-0.7110678629432722,-0.732386589050293,0.49772098660469055,-0.4646327793598175, 182, 118, 0, 148
1731319879494,9i,5.224798358498481,1.5s : 0.3s,-11.185606523098741,0.9068494998610789,2.519357538019791,1.5298876141217137,0.9979040026664734,-0.47359544038772583,-2.833872079849243,1.441563367843628,0.022202759981155396,0.511818528175354,-0.49038020993073245,-1.0142597676876124,-0.7184278561117752,-0.7490277886390686,0.470961332321167,-0.46599653363227844, 182, 118, 0, 148
1731319879504,9i,5.224798358498481,1.5s : 0.3s,-11.185606523098741,0.9213342138360842,2.3311431570269088,1.5010391837527859,1.0265541076660156,-0.49125516414642334,-2.5822720527648926,1.4005444049835205,-0.05399921536445618,0.537287712097168,-0.46204978165551647,-1.0219593592403144,-0.7243920842616318,-0.7636728882789612,0.4457838833332062,-0.4669906497001648, 182, 118, 0, 148
1731319879514,9i,5.224798358498481,1.5s : 0.3s,-11.185606523098741,0.9362285264354661,2.1061891250165363,1.492900332714745,0.8354228138923645,-0.3254382312297821,-2.179812431335449,1.3811249732971191,-0.11052805185317993,0.5559035539627075,-0.436666675307208,-1.028183948894577,-0.7287195091193505,-0.7760069966316223,0.4229212701320648,-0.46792155504226685, 182, 118, 0, 148
1731319879523,9i,5.224798358498481,1.5s : 0.3s,-11.185606523098741,0.9514548527426252,1.889948769739949,1.4653756424369808,0.5853588581085205,-0.42047256231307983,-1.945558786392212,1.3665194511413574,-0.13910740613937378,0.5104894638061523,-0.4155351144641173,-1.0339160520279043,-0.7336116958063955,-0.786181628704071,0.40367957949638367,-0.4679328203201294, 182, 118, 0, 148
1731319879533,9i,5.224798358498481,1.5s : 0.3s,-11.185606523098741,0.966233610491812,1.6779239413891924,1.504581268110562,0.555210292339325,-0.40164029598236084,-1.629802942276001,1.387516975402832,-0.2050987184047699,0.5445144176483154,-0.3970931566096226,-1.040017459420609,-0.7376447520689121,-0.7953078150749207,0.3867393136024475,-0.46681687235832214, 182, 118, 0, 148
1731319879543,9i,5.224798358498481,1.5s : 0.3s,-11.185606523098741,0.9794720426563817,1.449314259613257,1.5145622127906164,0.08891969919204712,-0.24371246993541718,-1.3883986473083496,1.3629664182662964,-0.38509321212768555,0.5365859270095825,-0.38254524987205846,-1.0449311019801908,-0.7423832841923111,-0.8023735284805298,0.37328293919563293,-0.46567848324775696, 182, 118, 0, 148
1731319879553,9i,5.224798358498481,1.5s : 0.3s,-11.185606523098741,0.9928134584588652,1.2371164100039356,1.4675547407669667,-0.12858067452907562,-0.24705153703689575,-1.1511867046356201,1.319200038909912,-0.45734748244285583,0.4519529342651367,-0.371635449924589,-1.0501428418573575,-0.7492796913569096,-0.808274507522583,0.36313971877098083,-0.46348872780799866, 182, 118, 0, 148
1731319879563,9i,5.224798358498481,1.5s : 0.3s,-11.185606523098741,1.006253516198754,1.044231132796927,1.4517672724207313,-0.2933284044265747,-0.1390472948551178,-0.9393863677978516,1.2685543298721313,-0.5003340840339661,0.4980601668357849,-0.3636261043224302,-1.054863306793939,-0.7565304168379872,-0.812957227230072,0.35566556453704834,-0.46108826994895935, 182, 118, 0, 148
1731319879573,9i,5.224798358498481,1.5s : 0.3s,-11.185606523098741,1.0176787451882685,0.8544967320565203,1.4164213738714502,-0.38251978158950806,0.03883614391088486,-0.6560153961181641,1.1971120834350586,-0.5929259061813354,0.47075581550598145,-0.35845732176934186,-1.0577729689705213,-0.7634409165214444,-0.8158862590789795,0.3508300185203552,-0.45961707830429077, 182, 118, 0, 148
1731319879583,9i,5.224798358498481,1.5s : 0.3s,-11.185606523098741,1.0276183564501986,0.6873243905204272,1.3327490146545873,-0.3682990074157715,0.1061762124300003,-0.4438714385032654,1.1107170581817627,-0.5927505493164062,0.43723487854003906,-0.3553876562615947,-1.059459539005219,-0.7697940280120271,-0.8175956010818481,0.34795382618904114,-0.4587652087211609, 182, 118, 0, 148
1731319879593,9i,5.224798358498481,1.5s : 0.3s,-11.185606523098741,1.0365329973338673,0.5133898774438621,1.2703954638441464,-0.46182629466056824,0.2713968753814697,-0.08674072474241257,1.047420620918274,-0.5854736566543579,0.4171753525733948,-0.35525912824157224,-1.0590686650644001,-0.7743994337454789,-0.8174552321434021,0.3478333353996277,-0.4591066539287567, 182, 118, 0, 148
1731319879603,9i,5.224798358498481,1.5s : 0.3s,-11.185606523098741,1.0445294079657375,0.39493812195111305,1.2333473815587532,-0.48010507225990295,0.21569116413593292,0.026593592017889023,0.9935077428817749,-0.6166452765464783,0.39222025871276855,-0.35717804352305704,-1.0584704575686792,-0.7788841148256866,-0.8165971636772156,0.34963178634643555,-0.4592675268650055, 182, 118, 0, 148
1731319879613,9i,5.224798358498481,1.5s : 0.3s,-11.185606523098741,1.0517523065658987,0.33962306827221783,1.2120955133033782,-0.6613395810127258,0.5479117035865784,0.44640153646469116,0.9357990026473999,-0.6543775200843811,0.40650439262390137,-0.3618045227987595,-1.056177630653418,-0.7827158263040764,-0.8141252398490906,0.3539625108242035,-0.4603375494480133, 182, 118, 0, 148
1731319879623,9i,5.224798358498481,1.5s : 0.3s,-11.185606523098741,1.0579187141236466,0.4453005546971555,1.1559569862511097,-0.9945436120033264,0.5763006806373596,0.5790533423423767,0.8347859978675842,-0.7072622776031494,0.3730267584323883,-0.37044699114604096,-1.0524161687454645,-0.7877874642574025,-0.8097003102302551,0.3620321452617645,-0.46186354756355286, 182, 118, 0, 148
1731319879633,9i,5.224798358498481,1.5s : 0.3s,-11.185606523098741,1.0635335621742912,0.5936602805349479,1.1122117667235147,-1.110710620880127,0.6081448793411255,0.8379203677177429,0.8039378523826599,-0.6752550601959229,0.3670552372932434,-0.3818553526740745,-1.0488397982461843,-0.7936602919843313,-0.8044106364250183,0.37264284491539,-0.46266698837280273, 182, 118, 0, 148
1731319879643,9i,5.224798358498481,1.5s : 0.3s,-11.185606523098741,1.0685982678124017,0.7920066657329894,1.0697925072885377,-1.2297312021255493,0.8221373558044434,1.280433177947998,0.7358336448669434,-0.6872073411941528,0.3615949749946594,-0.3971506633957084,-1.04318171215814,-0.7982889318558528,-0.7967617511749268,0.3867923617362976,-0.46428677439689636, 182, 118, 0, 148
1731319879653,9i,5.224798358498481,1.5s : 0.3s,-11.185606523098741,1.073131501383886,0.9682425459645416,1.0149025294862033,-1.197003960609436,0.831054151058197,1.5303690433502197,0.7164748311042786,-0.665299654006958,0.2721531391143799,-0.4153105560565338,-1.036352624893013,-0.8017721248075469,-0.7873973846435547,0.4034740924835205,-0.4660619795322418, 182, 118, 0, 148
1731319879663,9i,5.224798358498481,1.5s : 0.3s,-11.185606523098741,1.0776619599821002,1.1458506173687855,0.9769750768005296,-1.1053664684295654,0.9060631394386292,1.91538405418396,0.7168556451797485,-0.6064208745956421,0.26991111040115356,-0.43578842894983316,-1.0281714217039535,-0.8025402909655446,-0.7763189673423767,0.42212527990341187,-0.4681229293346405, 182, 118, 0, 148
1731319879673,9i,5.224798358498481,1.5s : 0.3s,-11.185606523098741,1.0824555403552893,1.325210921918648,0.975486126469596,-1.1540316343307495,0.9341485500335693,2.178398370742798,0.72342848777771,-0.5888248085975647,0.28549912571907043,-0.4589553825559399,-1.0186290128694715,-0.8011527048494308,-0.7632842063903809,0.4430118203163147,-0.4702526926994324, 182, 118, 0, 148
1731319879683,9i,5.224798358498481,1.5s : 0.3s,-11.185606523098741,1.0878952175864036,1.502977565489587,0.9928139564535604,-1.19022536277771,0.9594941139221191,2.444640874862671,0.7637562155723572,-0.557261049747467,0.3030117452144623,-0.4846417983166718,-1.008367632253619,-0.7986243954628967,-0.7485429644584656,0.46589145064353943,-0.47183510661125183, 182, 118, 0, 148
1731319879693,9i,5.224798358498481,1.5s : 0.3s,-11.185606523098741,1.0939534540087088,1.6873669250316576,1.0013050012850662,-1.2210075855255127,1.0104402303695679,2.7514455318450928,0.7850470542907715,-0.5365437269210815,0.31374138593673706,-0.5131803938642502,-0.9962431871657407,-0.7938734105844515,-0.7313054203987122,0.49095043540000916,-0.4734552800655365, 182, 118, 0, 148
1731319879703,9i,5.224798358498481,1.5s : 0.3s,-11.185606523098741,1.1006563900487443,1.876758317666114,1.0369316466760778,-1.2554850578308105,1.0341365337371826,3.066800117492676,0.8385287523269653,-0.5153754353523254,0.3263202905654907,-0.5442078870747578,-0.9827610629833481,-0.78720762856912,-0.7118348479270935,0.5177405476570129,-0.47459015250205994, 182, 118, 0, 148
1731319879713,9i,5.224798358498481,1.5s : 0.3s,-11.185606523098741,1.1090337212922596,2.069857077967372,1.0850714933390861,-1.2404358386993408,1.0640510320663452,3.3998119831085205,0.9160924553871155,-0.45361268520355225,0.3638547658920288,-0.5779885362081321,-0.9674137295391027,-0.7778895544888124,-0.6896670460700989,0.54634028673172,-0.47525933384895325, 182, 118, 0, 148
1731319879723,9i,5.224798358498481,1.5s : 0.3s,-11.185606523098741,1.119412371410319,2.2617148992611713,1.1486284460359124,-1.1772232055664062,1.0822924375534058,3.7272071838378906,1.0133063793182373,-0.38641440868377686,0.3784724473953247,-0.6140381307966125,-0.9495162473034192,-0.7649211030097002,-0.6645970940589905,0.5761726498603821,-0.47574734687805176, 182, 118, 0, 148
1731319879733,9i,5.224798358498481,1.5s : 0.3s,-11.185606523098741,1.1317606017562791,2.45734881943607,1.2238867403309839,-1.2416144609451294,1.107075572013855,4.022438049316406,1.1063628196716309,-0.36683279275894165,0.3732208013534546,-0.6523454339639636,-0.9289737981455887,-0.7484551202675719,-0.6365292072296143,0.6070519089698792,-0.47572949528694153, 182, 118, 0, 148
1731319879743,9i,5.224798358498481,1.5s : 0.3s,-11.185606523098741,1.1458871251126508,2.6603755701526137,1.2883204545849534,-1.3335102796554565,1.149802327156067,4.331912994384766,1.1863877773284912,-0.36217331886291504,0.34797143936157227,-0.6932547959438413,-0.9056011293425821,-0.7290427994115237,-0.6051802039146423,0.6390440464019775,-0.4747415781021118, 182, 118, 0, 148
1731319879753,9i,5.224798358498481,1.5s : 0.3s,-11.185606523098741,1.1616136524385967,2.869898844500555,1.3521673625650674,-1.46832275390625,1.197816252708435,4.635205268859863,1.261605978012085,-0.36630773544311523,0.32019615173339844,-0.7368680696519028,-0.8789405964483049,-0.7062051715041683,-0.5702910423278809,0.6719717979431152,-0.4724637269973755, 182, 118, 0, 148
1731319879763,9i,5.224798358498481,1.5s : 0.3s,-11.185606523098741,1.178830356680605,3.0821506576376274,1.4266924504288,-1.5684529542922974,1.2611178159713745,4.937715530395508,1.331260323524475,-0.39786452054977417,0.32388442754745483,-0.7831241034611262,-0.8481534243470026,-0.6792228371743864,-0.5315775275230408,0.7054969668388367,-0.4687209725379944, 182, 118, 0, 148
1731319879773,9i,5.224798358498481,1.5s : 0.3s,-11.185606523098741,1.1975688946661769,3.290706876912383,1.4874634801597353,-1.5729955434799194,1.3734794855117798,5.228326797485352,1.3869277238845825,-0.4077320694923401,0.35033363103866577,-0.8311777027966089,-0.8113376656626398,-0.6464568521397149,-0.4887952208518982,0.7387256622314453,-0.4640727639198303, 182, 118, 0, 148
1731319879783,9i,5.224798358498481,1.5s : 0.3s,-11.185606523098741,1.2181048044370248,3.5012557790621806,1.55847028151594,-1.6310418844223022,1.4434329271316528,5.5374579429626465,1.4395688772201538,-0.4053286910057068,0.4383830726146698,-0.880538268969833,-0.7665827058532306,-0.6059309745224589,-0.441689670085907,0.7710817456245422,-0.45863160490989685, 182, 118, 0, 148
1731319879793,9i,5.224798358498481,1.5s : 0.3s,-11.185606523098741,1.2409491660632659,3.729415160653249,1.6698666838695782,-1.7566070556640625,1.5162509679794312,5.911956787109375,1.5235011577606201,-0.3884599208831787,0.5625814199447632,-0.9315108977684224,-0.7125765974335672,-0.5560908940786872,-0.3900628387928009,0.8025223016738892,-0.4514518082141876, 182, 118, 0, 148
1731319879803,9i,5.224798358498481,1.5s : 0.3s,-11.185606523098741,1.2663964161616206,4.004172077199698,1.7780453807295604,-1.8786561489105225,1.698384404182434,6.442534446716309,1.6413564682006836,-0.3367231488227844,0.5949889421463013,-0.9842873312633994,-0.6446429711397343,-0.4925424950737072,-0.3325794041156769,0.8328778743743896,-0.4423859417438507, 182, 118, 0, 148
1731319879813,9i,5.224798358498481,1.5s : 0.3s,-11.185606523098741,1.294467466269703,4.3267079966111535,1.8906883331116273,-2.0046820640563965,1.9249560832977295,7.0409016609191895,1.7978583574295044,-0.2767373323440552,0.5155813694000244,-1.0383362338498485,-0.5553263169579222,-0.4086487620162892,-0.26764577627182007,0.8615608215332031,-0.43136826157569885, 182, 118, 0, 148
1731319879823,9i,5.224798358498481,1.5s : 0.3s,-11.185606523098741,1.3255155738952749,4.684718742535074,2.045760751506382,-2.0352609157562256,2.1615514755249023,7.673877716064453,1.9770944118499756,-0.2006480097770691,0.4857726991176605,-1.0911123252300146,-0.4357432297064389,-0.2953890557564274,-0.19479137659072876,0.8871408104896545,-0.4183747172355652, 182, 118, 0, 148
1731319879833,9i,5.224798358498481,1.5s : 0.3s,-11.185606523098741,1.36021797189643,5.0907481434966,2.2432230482566826,-2.2352864742279053,2.4145965576171875,8.375956535339355,2.1773746013641357,-0.10417062044143677,0.5293750762939453,-1.1388582267020853,-0.2747880449195149,-0.14178220903875186,-0.1135927140712738,0.9081560969352722,-0.40292561054229736, 182, 118, 0, 148
1731319879843,9i,5.224798358498481,1.5s : 0.3s,-11.185606523098741,1.3993894263472948,5.583428974790311,2.4790507970735307,-2.5549960136413574,2.6528525352478027,9.332759857177734,2.410748243331909,0.0596083402633667,0.5748326778411865,-1.177186427330238,-0.05946619170859335,0.06523559725701365,-0.02279331162571907,0.9235305786132812,-0.38284674286842346, 182, 118, 0, 148
1731319879853,9i,5.224798358498481,1.5s : 0.3s,-11.185606523098741,1.4438954340404198,6.159575255611746,2.7543725779031893,-3.0330443382263184,2.8365349769592285,10.383021354675293,2.666377544403076,0.3012806177139282,0.6214733123779297,-1.1971112743647674,0.21774771236055837,0.33402178540434985,0.078861765563488,0.9309884309768677,-0.35642820596694946, 182, 118, 0, 148
1731319879863,9i,5.224798358498481,1.5s : 0.3s,-11.185606523098741,1.494238243790731,6.7564577277391225,3.0481148494876327,-3.936767101287842,2.8687567710876465,11.142290115356445,2.9343888759613037,0.501959502696991,0.6545248031616211,-1.1897528614415567,0.5319028227794977,0.6407385540302888,0.1886124312877655,0.9282770752906799,-0.32050999999046326, 182, 118, 0, 148
1731319879873,9i,5.224798358498481,1.5s : 0.3s,-11.185606523098741,1.551415213055765,7.388546644930895,3.409234644278289,-5.126217365264893,2.8689486980438232,11.887733459472656,3.230264663696289,0.664756178855896,0.8639272451400757,-1.151445205335895,0.8395630834607453,0.9431108712606795,0.30307573080062866,0.9133533239364624,-0.2719016373157501, 182, 118, 0, 148
1731319879883,9i,5.224798358498481,1.5s : 0.3s,-11.185606523098741,1.6175830166002172,7.968013224748363,4.009298609311863,-6.291478157043457,2.7914984226226807,12.166849136352539,3.744067668914795,0.8937066197395325,1.1214816570281982,-1.0833138806726044,1.1052827383047028,1.2063329041461694,0.418560653924942,0.8835148811340332,-0.21025753021240234, 182, 118, 0, 148
1731319879893,9i,5.224798358498481,1.5s : 0.3s,-11.185606523098741,1.6950277041387016,8.301383736891,4.782034932346372,-7.257248401641846,2.139773368835449,11.413125991821289,4.467854976654053,1.2153043746948242,1.19547700881958,-0.9962874026705898,1.310238786448043,1.4139292351057378,0.5250800848007202,0.839459240436554,-0.13999614119529724, 182, 118, 0, 148
1731319879903,9i,5.224798358498481,1.5s : 0.3s,-11.185606523098741,1.7847429894065745,8.468889091124316,5.470542369875504,-9.041376113891602,0.9036449790000916,10.177997589111328,5.069334983825684,1.6958736181259155,1.163051724433899,-0.9046062913032347,1.4635123576218856,1.583437250639121,0.6144418716430664,0.7861819267272949,-0.06617384403944016, 182, 118, 0, 148
1731319879913,9i,5.224798358498481,1.5s : 0.3s,-11.185606523098741,1.8875410638063999,8.894527789030208,6.17702465826618,-12.293631553649902,0.29694095253944397,9.504924774169922,5.4807634353637695,2.5774848461151123,1.2138524055480957,-0.8110197565056609,1.5964303562884345,1.7515737716010378,0.6885328888893127,0.7249898910522461,0.01765373907983303, 182, 118, 0, 148
1731319879923,9i,5.224798358498481,1.5s : 0.3s,-11.185606523098741,2.00363222053677,9.519177099112712,7.077698220393281,-15.336292266845703,-1.4331599473953247,8.288020133972168,5.869194030761719,3.858994960784912,0.8686376810073853,-0.7091417555974435,1.7166575024009922,1.931032159628872,0.7508621215820312,0.6511826515197754,0.11030500382184982, 182, 118, 0, 148
1731319879933,9i,5.224798358498481,1.5s : 0.3s,-11.185606523098741,2.1299870172353703,10.380272448741136,7.489493297617118,-17.519229888916016,-4.992100715637207,7.60594367980957,5.668078422546387,4.84979248046875,0.667015552520752,-0.6022869238027939,1.7972349215123948,2.1151351667266822,0.803006112575531,0.5665284991264343,0.18500444293022156, 182, 118, 0, 148
1731319879943,9i,5.224798358498481,1.5s : 0.3s,-11.185606523098741,2.2606511891212278,11.991830652131323,6.794387982711067,-22.07268524169922,-5.6771240234375,8.169649124145508,4.597652435302734,4.688961505889893,1.743255615234375,-0.47464079766575146,1.8408821281738663,2.3141773281243125,0.8572123050689697,0.45701897144317627,0.23731966316699982, 182, 118, 0, 148
1731319879953,9i,5.224798358498481,1.5s : 0.3s,-11.185606523098741,2.3896305367934785,13.534010370195526,6.049799765372914,-26.172056198120117,-4.008708477020264,3.556934118270874,3.34952449798584,3.6865267753601074,3.4336981773376465,-0.3477371072519134,1.8854428367576377,2.5454605314539247,0.8939905166625977,0.34077122807502747,0.2909567654132843, 182, 118, 0, 148
1731319879963,9i,5.224798358498481,1.5s : 0.3s,-11.185606523098741,2.5061692231720385,14.468143646079707,5.254668030064704,-25.84608268737793,-5.325203895568848,-1.9412596225738525,1.6997671127319336,1.4642024040222168,4.751677513122559,-0.25417809797188345,1.9187987255511165,2.8060754617240735,0.9098517894744873,0.2514500021934509,0.3300636410713196, 182, 118, 0, 148
1731319879973,9i,5.224798358498481,1.5s : 0.3s,-11.185606523098741,2.6089716078876704,14.098149847083548,6.878761629574368,-18.792020797729492,-8.6655855178833,-1.2071688175201416,0.8149005174636841,-0.9134842157363892,6.7689619064331055,-0.19701331847762574,1.8993428850757095,3.033010026890394,0.9282023906707764,0.19574129581451416,0.31642577052116394, 182, 118, 0, 148
1731319879983,9i,5.224798358498481,1.5s : 0.3s,-11.185606523098741,2.719815685023617,12.376123467200689,8.585518977401744,-10.767017364501953,-7.562488555908203,0.558882474899292,2.174936294555664,0.8036202192306519,8.266497611999512,-0.15604246834780186,1.8393965711632323,-3.1093534691497604,0.9524288773536682,0.15540999174118042,0.26215770840644836, 182, 118, 0, 148
1731319879993,9i,5.224798358498481,1.5s : 0.3s,-11.185606523098741,2.8500277388849375,10.975811184169382,8.942915133505776,-9.878833770751953,-6.883243560791016,-1.5872983932495117,3.391082763671875,4.927587985992432,6.647944450378418,-0.1349088675342386,1.783061160551309,-3.011626548717256,0.9686737656593323,0.13450001180171967,0.20876015722751617, 182, 118, 0, 148
1731319880003,9i,5.224798358498481,1.5s : 0.3s,-11.185606523098741,2.9730115878764627,10.124472006283199,5.8839819479426065,-9.957524299621582,-7.508728981018066,-4.328978538513184,1.2982590198516846,3.858511447906494,4.248253345489502,-0.1463131274141977,1.7263132074675573,-2.904452183212815,0.9773759245872498,0.1457916498184204,0.1532358080148697, 182, 118, 0, 148
1731319880013,9i,5.224798358498481,1.5s : 0.3s,-11.185606523098741,3.072184842424118,9.263261787496495,3.4774347334624927,-7.447860240936279,-7.922196865081787,-5.460727691650391,0.37961000204086304,-0.5917896032333374,3.4056179523468018,-0.1848355351193085,1.6642018172257433,-2.810261251592597,0.9786814451217651,0.1837848722934723,0.09168099611997604, 182, 118, 0, 148
1731319880023,9i,5.224798358498481,1.5s : 0.3s,-11.185606523098741,3.1601472493842615,8.664383053194674,3.293901784132433,-6.00641393661499,-8.519096374511719,-6.288793087005615,1.4548089504241943,-0.027845710515975952,2.955087900161743,-0.24016998604825737,1.5972757020831443,-2.7394139687859385,0.9709569215774536,0.23786774277687073,0.025716343894600868, 182, 118, 0, 148
1731319880033,9i,5.224798358498481,1.5s : 0.3s,-11.185606523098741,3.240565725945127,8.353526749903084,3.4685361067627127,-5.278770923614502,-8.810880661010742,-6.942767143249512,0.6405474543571472,2.082489252090454,2.698829412460327,-0.31329701359806233,1.529250005466637,-2.680636475603926,0.950501561164856,0.3081968426704407,-0.03951257839798927, 182, 118, 0, 148
1731319880043,9i,5.224798358498481,1.5s : 0.3s,-11.185606523098741,3.312440962946264,8.162822792424762,3.2893857797704644,-3.935155153274536,-8.665494918823242,-8.15641975402832,0.17188763618469238,1.1557574272155762,3.0748558044433594,-0.39851561897150617,1.462277008249345,-2.6373394408466626,0.9162165522575378,0.38805070519447327,-0.09981933981180191, 182, 118, 0, 148
1731319880053,9i,5.224798358498481,1.5s : 0.3s,-11.185606523098741,3.378839869702331,8.00182579835094,3.252112317441406,-2.1604061126708984,-8.09591007232666,-9.274625778198242,0.365204393863678,0.8206145763397217,3.125612258911133,-0.49107708844378645,1.3894808430077517,-2.6189482576727157,0.8673697710037231,0.4715759754180908,-0.15901394188404083, 182, 118, 0, 148
1731319880063,9i,5.224798358498481,1.5s : 0.3s,-11.185606523098741,3.4404792756109495,7.808341991065413,3.1764474884394542,-0.5805274844169617,-7.281127452850342,-9.519657135009766,0.12149780988693237,1.0230340957641602,3.004739284515381,-0.5865107478637422,1.3082880574656972,-2.628344299061363,0.8043442964553833,0.5534582734107971,-0.21613465249538422, 182, 118, 0, 148
1731319880073,9i,5.224798358498481,1.5s : 0.3s,-11.185606523098741,3.497836525218544,7.591816955006298,3.1208378197707427,1.5920659303665161,-6.816842555999756,-9.380390167236328,0.05646169185638428,0.6125991344451904,3.0596017837524414,-0.6743441826056948,1.2132431126645722,-2.670365637543514,0.7317156791687012,0.6243851780891418,-0.2733777165412903, 182, 118, 0, 148
1731319880082,9i,5.224798358498481,1.5s : 0.3s,-11.185606523098741,3.550736266130169,7.401307061329802,2.9341025551219118,3.7068798542022705,-6.391809940338135,-8.94772720336914,0.062374889850616455,0.15415585041046143,2.9293861389160156,-0.747944948148505,1.0947648449382572,-2.7511560483735877,0.6515836715698242,0.6801336407661438,-0.3359416127204895, 182, 118, 0, 148
1731319880092,9i,5.224798358498481,1.5s : 0.3s,-11.185606523098741,3.597025588117922,7.316063695364257,2.774170036232964,6.4108805656433105,-6.19940710067749,-8.235281944274902,-0.2130800485610962,-0.4609273076057434,2.727299451828003,-0.79429352849629,0.9461827965436765,-2.8742750628052396,0.5684722661972046,0.7133687138557434,-0.409809947013855, 182, 118, 0, 148
1731319880102,9i,5.224798358498481,1.5s : 0.3s,-11.185606523098741,3.6358621936482245,7.398268475246269,2.6392662414197967,8.033653259277344,-6.175182819366455,-7.467926979064941,-0.2666148245334625,-1.0457438230514526,2.4085395336151123,-0.8062446997119368,0.7746085396866698,-3.0272989197465914,0.4841591715812683,0.7216928005218506,-0.49472132325172424, 182, 118, 0, 148
1731319880112,9i,5.224798358498481,1.5s : 0.3s,-11.185606523098741,3.668604958415446,7.54973115055572,2.6548154760018776,9.051898002624512,-5.934633255004883,-6.683650016784668,-0.265845388174057,-1.3028080463409424,2.2978386878967285,-0.7833258967201112,0.6035318633484124,3.1028125801227446,0.4021519720554352,0.7056399583816528,-0.5833917856216431, 182, 118, 0, 148
1731319880122,9i,5.224798358498481,1.5s : 0.3s,-11.185606523098741,3.700235830553895,7.65790159616279,2.7171348199641967,9.356389045715332,-5.980478763580322,-5.570156097412109,-0.3395533263683319,-1.4303693771362305,2.2850751876831055,-0.7318180605561042,0.4488997518292336,2.970761938786178,0.3228600323200226,0.6682233214378357,-0.6702529191970825, 182, 118, 0, 148
1731319880132,9i,5.224798358498481,1.5s : 0.3s,-11.185606523098741,3.725170412373995,7.6148195348439955,2.8206798188451083,8.214770317077637,-6.631710529327393,-4.535385608673096,-0.7344417572021484,-1.6014196872711182,2.2027902603149414,-0.6690990366965431,0.31486073588700353,2.8682891445844523,0.242910236120224,0.6202795505523682,-0.7458202838897705, 182, 118, 0, 148
1731319880142,9i,5.224798358498481,1.5s : 0.3s,-11.185606523098741,3.74399405596297,7.391178157780235,2.595671690399613,7.186949253082275,-6.632391452789307,-3.636641025543213,-1.261678695678711,-1.0173308849334717,2.0274901390075684,-0.6070495492755886,0.20310205576504722,2.794291605603066,0.165670245885849,0.5704466104507446,-0.8044525384902954, 182, 118, 0, 148
1731319880152,9i,5.224798358498481,1.5s : 0.3s,-11.185606523098741,3.7587353824793537,7.171780950255068,2.0995327970971633,7.201076507568359,-6.359048843383789,-3.075150728225708,-1.234961986541748,-0.3778647184371948,1.655332326889038,-0.5416076243724586,0.1103706351456642,2.7425490322108335,0.09438260644674301,0.5155141949653625,-0.8516671657562256, 182, 118, 0, 148
1731319880162,9i,5.224798358498481,1.5s : 0.3s,-11.185606523098741,3.7709647052777227,7.010241074172089,1.469188520224284,7.202987194061279,-6.148262023925781,-3.0955584049224854,-0.8036375045776367,-0.21803659200668335,1.210430383682251,-0.4718815339328002,0.028135773565339587,2.701801408084615,0.025057638064026833,0.4545629918575287,-0.8903620839118958, 182, 118, 0, 148
1731319880172,9i,5.224798358498481,1.5s : 0.3s,-11.185606523098741,3.781862208396914,6.862731709530348,1.212479271533635,7.077668190002441,-6.013166904449463,-2.9897382259368896,-0.5929515361785889,-0.11297681927680969,1.0515468120574951,-0.40025051160396236,-0.04644662023515496,2.6691152308251933,-0.04276026040315628,0.38964906334877014,-0.9199702143669128, 182, 118, 0, 148
1731319880182,9i,5.224798358498481,1.5s : 0.3s,-11.185606523098741,3.794089087561744,6.6666388112595625,1.3952375788919948,6.637479305267334,-5.868003845214844,-2.7553584575653076,-0.4501137435436249,0.07387614250183105,1.3185703754425049,-0.32940271591139725,-0.11458810224597875,2.644308185803717,-0.10819022357463837,0.32347792387008667,-0.9400302767753601, 182, 118, 0, 148
1731319880192,9i,5.224798358498481,1.5s : 0.3s,-11.185606523098741,3.8094208227505435,6.3909856640960685,1.5374810696535788,5.926188945770264,-5.895589351654053,-2.101379632949829,-0.17964155972003937,0.09164834022521973,1.5241973400115967,-0.2639446881737851,-0.17754997408880857,2.6272890925569867,-0.17050200700759888,0.2608906626701355,-0.9501921534538269, 182, 118, 0, 148
1731319880202,9i,5.224798358498481,1.5s : 0.3s,-11.185606523098741,3.8274615162180936,6.136907558342636,1.5136024219116981,5.2599968910217285,-6.18257999420166,-1.9045469760894775,0.01484401524066925,-0.02704945206642151,1.513287901878357,-0.20451268919293666,-0.23651032018936438,2.615344244694297,-0.2294284850358963,0.20309002697467804,-0.9519017934799194, 182, 118, 0, 148
1731319880212,9i,5.224798358498481,1.5s : 0.3s,-11.185606523098741,3.8469734756227156,5.832192866021485,1.3421100407024538,4.460851192474365,-5.940786361694336,-2.0102713108062744,0.17051872611045837,-0.12201753258705139,1.3256298303604126,-0.15115689201909097,-0.29187932483155127,2.6070253262479026,-0.2844714820384979,0.1505819410085678,-0.9467845559120178, 182, 118, 0, 148
1731319880222,9i,5.224798358498481,1.5s : 0.3s,-11.185606523098741,3.867664941454631,5.439215249106848,1.2271942328261172,3.903510093688965,-5.134415626525879,-2.0406527519226074,0.2939191162586212,0.0028591975569725037,1.1914734840393066,-0.10410972065093115,-0.3447267949068877,2.601597061521633,-0.33610978722572327,0.10392174869775772,-0.9360718131065369, 182, 118, 0, 148
1731319880232,9i,5.224798358498481,1.5s : 0.3s,-11.185606523098741,3.8901395643703207,5.021937285552154,1.2736935058262537,3.5304901599884033,-4.582355976104736,-1.7502285242080688,0.37151265144348145,0.3608233332633972,1.1636494398117065,-0.06255724501321773,-0.3931786083165309,2.5975181245783174,-0.3823769986629486,0.06251645088195801,-0.9218891263008118, 182, 118, 0, 148
1731319880242,9i,5.224798358498481,1.5s : 0.3s,-11.185606523098741,3.914512734595199,4.618595342655501,1.3600360339293063,3.2140486240386963,-4.153989315032959,-1.582179069519043,0.4350527822971344,0.5644516944885254,1.1583701372146606,-0.025196335057899637,-0.43676527292756073,2.595866694637006,-0.42287635803222656,0.02519366890192032,-0.9058371186256409, 182, 118, 0, 148
1731319880252,9i,5.224798358498481,1.5s : 0.3s,-11.185606523098741,3.9393458519504736,4.239978377554197,1.3196483919756832,2.9220125675201416,-3.786466121673584,-1.4737123250961304,0.45976418256759644,0.4570736885070801,1.1494226455688477,0.008999510242005616,-0.47632500141689804,2.5957586285324297,-0.4584977924823761,-0.008999388664960861,-0.8886499404907227, 182, 118, 0, 148
1731319880262,9i,5.224798358498481,1.5s : 0.3s,-11.185606523098741,3.9643702722646332,3.9017614507673946,1.234821640632157,2.6922860145568848,-3.502608060836792,-1.419892430305481,0.4024852216243744,0.1642933487892151,1.1557672023773193,0.04046409196080044,-0.5126841489561247,2.5964017139514275,-0.49011653661727905,-0.040453050285577774,-0.8707177042961121, 182, 118, 0, 148
1731319880272,9i,5.224798358498481,1.5s : 0.3s,-11.185606523098741,3.988800076965589,3.588697547833251,1.1741484232063573,2.425621747970581,-3.230409860610962,-1.3586775064468384,0.34744739532470703,0.004235304892063141,1.1215555667877197,0.06959913201959742,-0.5464052057775861,2.5974065548169687,-0.5183611512184143,-0.06954295188188553,-0.852329432964325, 182, 118, 0, 148
1731319880282,9i,5.224798358498481,1.5s : 0.3s,-11.185606523098741,4.012343486882802,3.2566836541011854,1.0988574529595239,1.9131598472595215,-2.915681838989258,-1.2716258764266968,0.31625789403915405,-0.0024904534220695496,1.0523604154586792,0.09500349982955605,-0.5771612670738179,2.5978456683002182,-0.5431866645812988,-0.09486065059900284,-0.8342359662055969, 182, 118, 0, 148
1731319880292,9i,5.224798358498481,1.5s : 0.3s,-11.185606523098741,4.0351852970561755,2.898241706771293,1.0521175876661597,1.3666129112243652,-2.551358938217163,-1.1198002099990845,0.31907445192337036,0.06959480047225952,1.0001497268676758,0.1151832117762781,-0.6043924732341837,2.5970158122677653,-0.5644968152046204,-0.11492868512868881,-0.817395031452179, 182, 118, 0, 148
1731319880302,9i,5.224798358498481,1.5s : 0.3s,-11.185606523098741,4.057305246878596,2.535287234103172,0.9921199542690327,0.9688597917556763,-2.1621289253234863,-0.9518274068832397,0.33316946029663086,0.09469291567802429,0.9296953082084656,0.13047849297330438,-0.6276517919625243,2.5953241492402395,-0.5822539329528809,-0.13010857999324799,-0.8025285005569458, 182, 118, 0, 148
1731319880312,9i,5.224798358498481,1.5s : 0.3s,-11.185606523098741,4.078209323930655,2.199315365009921,0.8739196395923938,0.7415032982826233,-1.822029948234558,-0.8432477116584778,0.3277433514595032,0.04957239329814911,0.8086175918579102,0.14246103811936858,-0.6472200762264192,2.593228175654412,-0.5968626141548157,-0.1419796496629715,-0.7896813750267029, 182, 118, 0, 148
1731319880322,9i,5.224798358498481,1.5s : 0.3s,-11.185606523098741,4.097132680525385,1.9010786738951442,0.7444130081010177,0.659362256526947,-1.5309739112854004,-0.7026610970497131,0.27867597341537476,-0.10031259059906006,0.6829552054405212,0.15245938578878598,-0.6636235915603661,2.591470546066389,-0.608830451965332,-0.15186944603919983,-0.7786277532577515, 182, 118, 0, 148
1731319880332,9i,5.224798358498481,1.5s : 0.3s,-11.185606523098741,4.113828849525543,1.6518672524235631,0.7167197106969384,0.6968235969543457,-1.3026397228240967,-0.6033195853233337,0.192038893699646,-0.24726426601409912,0.644723653793335,0.16144088139503157,-0.6775317745663438,2.5906859452982527,-0.6187204718589783,-0.16074052453041077,-0.7689911723136902, 182, 118, 0, 148
1731319880342,9i,5.224798358498481,1.5s : 0.3s,-11.185606523098741,4.128472255682449,1.4374982176426323,0.6504618204158635,0.7032178640365601,-1.0877736806869507,-0.5280820727348328,0.11941903829574585,-0.23261409997940063,0.5955924391746521,0.170385051795255,-0.68948251739467,2.5908742627791117,-0.6269264221191406,-0.16956183314323425,-0.7604025602340698, 182, 118, 0, 148
1731319880352,9i,5.224798358498481,1.5s : 0.3s,-11.185606523098741,4.141181277004613,1.2349704899596872,0.5971200786487838,0.5544770956039429,-0.8903801441192627,-0.4382675290107727,0.049093425273895264,-0.22948744893074036,0.549069881439209,0.17831639547670966,-0.6993997246252991,2.5913291380634678,-0.6335508227348328,-0.17737291753292084,-0.7530950903892517, 182, 118, 0, 148
1731319880362,9i,5.224798358498481,1.5s : 0.3s,-11.185606523098741,4.152413383019666,1.044416029276446,0.5621913819646815,0.4020613133907318,-0.7145198583602905,-0.35719993710517883,0.012134313583374023,-0.18089619278907776,0.5321545600891113,0.18445155232558738,-0.7073686273164491,2.5914444627351525,-0.638812780380249,-0.18340741097927094,-0.7471812963485718, 182, 118, 0, 148
1731319880372,9i,5.224798358498481,1.5s : 0.3s,-11.185606523098741,4.162486127531984,0.8655280856002122,0.5184229921814774,0.26394951343536377,-0.5470924973487854,-0.2826915979385376,-0.02893286943435669,-0.10422611236572266,0.5070130228996277,0.18904262973482788,-0.7136383639657834,2.5913192882107934,-0.6429268717765808,-0.18791866302490234,-0.7425170540809631, 182, 118, 0, 148
1731319880382,9i,5.224798358498481,1.5s : 0.3s,-11.185606523098741,4.171386124425496,0.7044297519984737,0.463240003271317,0.15404877066612244,-0.4082772731781006,-0.23582933843135834,-0.07426190376281738,-0.06306402385234833,0.45287901163101196,0.19222215975146867,-0.7182776067565534,2.590759304653104,-0.6459681987762451,-0.19104059040546417,-0.7390727400779724, 182, 118, 0, 148
1731319880392,9i,5.224798358498481,1.5s : 0.3s,-11.185606523098741,4.179172340632971,0.5713475526670242,0.39896303688497653,0.06622623652219772,-0.3294820487499237,-0.22893255949020386,-0.10200130939483643,0.010922059416770935,0.3855488896369934,0.19459724730307965,-0.7217687692218161,2.5898038759597597,-0.6482428312301636,-0.19337140023708344,-0.7364704012870789, 182, 118, 0, 148
1731319880402,9i,5.224798358498481,1.5s : 0.3s,-11.185606523098741,4.185845567347361,0.46374920198508696,0.36933323545351354,0.006051710341125727,-0.267037034034729,-0.21912619471549988,-0.14052653312683105,0.03322361409664154,0.3399345874786377,0.19633251754921555,-0.7244207528477065,2.5884011170399015,-0.6499703526496887,-0.19507361948490143,-0.7344962954521179, 182, 118, 0, 148
1731319880412,9i,5.224798358498481,1.5s : 0.3s,-11.185606523098741,4.191408712358522,0.377277504261643,0.36070572569933285,-0.09896152466535568,-0.2345091998577118,-0.20179566740989685,-0.17869651317596436,0.009390085935592651,0.3131900429725647,0.19736012519556861,-0.7265050340115764,2.5866071248261315,-0.6513662934303284,-0.19608138501644135,-0.7329897284507751, 182, 118, 0, 148
1731319880422,9i,5.224798358498481,1.5s : 0.3s,-11.185606523098741,4.195870103000054,0.31127818562529225,0.3302094199644521,-0.21223042905330658,-0.2081630825996399,-0.17761144042015076,-0.20072150230407715,0.01814374327659607,0.26157206296920776,0.19749519605078686,-0.7282494292820298,2.58418381465196,-0.6526262760162354,-0.19621384143829346,-0.7318326234817505, 182, 118, 0, 148
1731319880432,9i,5.224798358498481,1.5s : 0.3s,-11.185606523098741,4.199276559210404,0.270400612229317,0.2966452265267608,-0.27624109387397766,-0.19545580446720123,-0.15542039275169373,-0.21191465854644775,0.04444144666194916,0.20276963710784912,0.19669301917571166,-0.7296593916355966,2.581318911362302,-0.6537622213363647,-0.19542719423770905,-0.7310288548469543, 182, 118, 0, 148
1731319880442,9i,5.224798358498481,1.5s : 0.3s,-11.185606523098741,4.2016401416506355,0.2531840922789438,0.2476080700320453,-0.22931361198425293,-0.20858146250247955,-0.17754915356636047,-0.20200425386428833,0.029587596654891968,0.14010214805603027,0.1958923966954172,-0.7310724656890347,2.578394364840809,-0.6548988223075867,-0.19464194774627686,-0.7302204966545105, 182, 118, 0, 148
1731319880452,9i,5.224798358498481,1.5s : 0.3s,-11.185606523098741,4.202852989935488,0.25224267303791953,0.2237849042452544,-0.24333354830741882,-0.21969403326511383,-0.2124783843755722,-0.212257981300354,0.021908625960350037,0.06742584705352783,0.1954685132767617,-0.7326073114316776,2.5753973354201825,-0.6560739278793335,-0.19422614574432373,-0.7292757630348206, 182, 118, 0, 148
1731319880462,9i,5.224798358498481,1.5s : 0.3s,-11.185606523098741,4.203021198451453,0.26091941423210835,0.22703178258623294,-0.3274697959423065,-0.23476025462150574,-0.20687273144721985,-0.22248303890228271,0.04032376408576965,0.02046269178390503,0.1947663146353637,-0.7341967646487094,2.57192250942965,-0.6573234796524048,-0.19353727996349335,-0.7283331155776978, 182, 118, 0, 148
1731319880472,9i,5.224798358498481,1.5s : 0.3s,-11.185606523098741,4.202758649282425,0.2825324081670524,0.21283853109350975,-0.4018915593624115,-0.2638150453567505,-0.2000582367181778,-0.20480024814605713,0.049991339445114136,0.02929103374481201,0.1933912374953938,-0.7359200939609272,2.5679964600876435,-0.6587556600570679,-0.19218800961971283,-0.72739577293396, 182, 118, 0, 148
1731319880482,9i,5.224798358498481,1.5s : 0.3s,-11.185606523098741,4.20199713386216,0.31348166433914365,0.19073092323514068,-0.48146700859069824,-0.2831527292728424,-0.19867002964019775,-0.18819379806518555,0.022794008255004883,0.021019339561462402,0.19147282306080982,-0.737791709486038,2.563507516230866,-0.660362720489502,-0.19030500948429108,-0.7264330983161926, 182, 118, 0, 148
1731319880492,9i,5.224798358498481,1.5s : 0.3s,-11.185606523098741,4.200839856450945,0.3462827787854449,0.18270687237729244,-0.531467080116272,-0.2806845009326935,-0.2210373878479004,-0.18248701095581055,-0.007374301552772522,-0.00509035587310791,0.18907810107881634,-0.7396626207526193,2.55849549139542,-0.6620259284973145,-0.18795350193977356,-0.7255308628082275, 182, 118, 0, 148
1731319880502,9i,5.224798358498481,1.5s : 0.3s,-11.185606523098741,4.199393457278621,0.37303989246258007,0.17225616175977343,-0.554513692855835,-0.2611445486545563,-0.2327115684747696,-0.17152619361877441,-0.004011079668998718,-0.015325188636779785,0.18655277359994027,-0.7413561272126038,2.5531157168219667,-0.6635720729827881,-0.18547259271144867,-0.7247564792633057, 182, 118, 0, 148
1731319880512,9i,5.224798358498481,1.5s : 0.3s,-11.185606523098741,4.197760469249034,0.39098315705756415,0.16043283509364267,-0.540761411190033,-0.24355143308639526,-0.2619973123073578,-0.15973573923110962,0.006407395005226135,-0.013495683670043945,0.18415864122662853,-0.742812774223257,2.54753695578813,-0.6649255752563477,-0.18311946094036102,-0.7241141200065613, 182, 118, 0, 148
1731319880522,9i,5.224798358498481,1.5s : 0.3s,-11.185606523098741,4.196025070751904,0.39041091147258544,0.14197849448470984,-0.4662952721118927,-0.21716101467609406,-0.26004284620285034,-0.13825905323028564,0.024368196725845337,-0.021178245544433594,0.182142480123625,-0.7441241824743969,2.542153875682229,-0.6661232709884644,-0.18113702535629272,-0.7235116362571716, 182, 118, 0, 148
1731319880532,9i,5.224798358498481,1.5s : 0.3s,-11.185606523098741,4.194287917158671,0.3673123500795132,0.11247023147872377,-0.3457542061805725,-0.19285407662391663,-0.25638285279273987,-0.10554009675979614,0.022543564438819885,-0.03166431188583374,0.1809079194206554,-0.7453134858796634,2.5374644432949385,-0.6671344637870789,-0.17992274463176727,-0.7228826880455017, 182, 118, 0, 148
1731319880542,9i,5.224798358498481,1.5s : 0.3s,-11.185606523098741,4.192598132537623,0.33598576439909095,0.08986563001348337,-0.2720538079738617,-0.16344505548477173,-0.23926855623722076,-0.07392072677612305,0.022168874740600586,-0.04604452848434448,0.18030987732818074,-0.7463784742351827,2.5335816823440673,-0.6679768562316895,-0.17933443188667297,-0.7222506999969482, 182, 118, 0, 148
1731319880552,9i,5.224798358498481,1.5s : 0.3s,-11.185606523098741,4.1909823517924165,0.31662411994990736,0.08604272011985968,-0.3009355068206787,-0.12590299546718597,-0.24727454781532288,-0.03888338804244995,0.03333771228790283,-0.06913775205612183,0.17989051657283345,-0.747178692885737,2.529909141604424,-0.668605625629425,-0.1789218634366989,-0.7217710018157959, 182, 118, 0, 148
1731319880562,9i,5.224798358498481,1.5s : 0.3s,-11.185606523098741,4.189394109727741,0.3187445061360306,0.08269411927390921,-0.4164222478866577,-0.10295774042606354,-0.25502341985702515,-0.021300137042999268,0.022180527448654175,-0.0767635703086853,0.17897250556275232,-0.7475811859112568,2.525615593037562,-0.6690074801445007,-0.17801858484745026,-0.7216219902038574, 182, 118, 0, 148
1731319880572,9i,5.224798358498481,1.5s : 0.3s,-11.185606523098741,4.18804540203751,0.3282623377946708,0.049685863052742786,-0.4720311760902405,-0.06896834820508957,-0.24269938468933105,-0.0260431170463562,0.022420421242713928,-0.03588545322418213,0.1773092311566062,-0.747539598437778,2.5207172328067893,-0.6691778898239136,-0.17638163268566132,-0.7218659520149231, 182, 118, 0, 148
1731319880582,9i,5.224798358498481,1.5s : 0.3s,-11.185606523098741,4.187120752624548,0.3346890062975281,0.040425026068302616,-0.4715512692928314,-0.04243181273341179,-0.23944474756717682,-0.018669188022613525,0.03566378355026245,0.0037065744400024414,0.17546354729731903,-0.7472401416134211,2.5156765711558293,-0.669181764125824,-0.17456458508968353,-0.7223039269447327, 182, 118, 0, 148
1731319880592,9i,5.224798358498481,1.5s : 0.3s,-11.185606523098741,4.186278138672287,0.33263727428632633,0.04526047711904456,-0.4285934269428253,-0.0038308908697217703,-0.2145226150751114,-0.006040453910827637,0.040796831250190735,-0.018645167350769043,0.17367239294825576,-0.7466654845839968,2.5109755425393634,-0.6689779162406921,-0.17280066013336182,-0.7229166626930237, 182, 118, 0, 148
1731319880602,9i,5.224798358498481,1.5s : 0.3s,-11.185606523098741,4.185469668408747,0.3165934672953714,0.07026954614518414,-0.3839563727378845,0.02940269745886326,-0.18770362436771393,0.0028831958770751953,0.048021674156188965,-0.051219284534454346,0.17203803105580057,-0.7458282629996317,2.5067695153722664,-0.668563187122345,-0.17119064927101135,-0.7236829996109009, 182, 118, 0, 148
1731319880612,9i,5.224798358498481,1.5s : 0.3s,-11.185606523098741,4.18468864689089,0.30152297642701303,0.06683624494533046,-0.3624183237552643,0.07412436604499817,-0.18092107772827148,0.016128599643707275,0.03157651424407959,-0.05665576457977295,0.17050887042088525,-0.744637100979934,2.5029457393483585,-0.6678772568702698,-0.16968385875225067,-0.72467041015625, 182, 118, 0, 148
1731319880622,9i,5.224798358498481,1.5s : 0.3s,-11.185606523098741,4.183936139306166,0.29746748807464124,0.049639888975140885,-0.37103691697120667,0.09637454152107239,-0.18109315633773804,0.009681761264801025,0.01954244077205658,-0.044592320919036865,0.1689968759019317,-0.7431677652396765,2.4990695360596566,-0.6669846177101135,-0.16819359362125397,-0.7258391380310059, 182, 118, 0, 148
1731319880631,9i,5.224798358498481,1.5s : 0.3s,-11.185606523098741,4.183204379107429,0.2937136126600731,0.034875487284481484,-0.3547618091106415,0.10788951069116592,-0.19391387701034546,-0.0025524497032165527,0.008344560861587524,-0.03376615047454834,0.16755957613002434,-0.7414991850324113,2.49521619012178,-0.6659351587295532,-0.1667765974998474,-0.7271285057067871, 182, 118, 0, 148
1731319880641,9i,5.224798358498481,1.5s : 0.3s,-11.185606523098741,4.182504034225484,0.28645814855046814,0.024946404753037096,-0.334013432264328,0.11272989958524704,-0.19609159231185913,-0.01646512746810913,-0.001816675066947937,-0.018652677536010742,0.16627637807290738,-0.7397754844585975,2.491466273491439,-0.6648245453834534,-0.16551123559474945,-0.728432834148407, 182, 118, 0, 148
1731319880651,9i,5.224798358498481,1.5s : 0.3s,-11.185606523098741,4.181805299758705,0.26888287958147394,0.031792220294143504,-0.26932018995285034,0.11190272122621536,-0.19117805361747742,-0.021108567714691162,-0.0018166005611419678,-0.02370387315750122,0.16530180429659977,-0.7380716204221818,2.4880787183954047,-0.6636906266212463,-0.1645500361919403,-0.729683518409729, 182, 118, 0, 148
1731319880661,9i,5.224798358498481,1.5s : 0.3s,-11.185606523098741,4.181103364648369,0.2466117249596776,0.03648196813497159,-0.21354183554649353,0.11836382001638412,-0.1744440346956253,-0.0070629119873046875,-0.006787329912185669,-0.03514230251312256,0.16470220104226796,-0.7364242518785152,2.4850657426949287,-0.6625538468360901,-0.1639585644006729,-0.7308488488197327, 182, 118, 0, 148
1731319880671,9i,5.224798358498481,1.5s : 0.3s,-11.185606523098741,4.18041311531843,0.22080538795020715,0.0351236689373135,-0.1427353024482727,0.0923956036567688,-0.1875840723514557,0.003910481929779053,-0.011413916945457458,-0.03298640251159668,0.16455976550783266,-0.7349455462453491,2.4826770553142903,-0.6614880561828613,-0.16381806135177612,-0.7318450212478638, 182, 118, 0, 148
1731319880681,9i,5.224798358498481,1.5s : 0.3s,-11.185606523098741,4.179730953514413,0.20882552057078302,0.0412189438034214,-0.1811193823814392,0.06738896667957306,-0.19193245470523834,0.00883471965789795,-0.008488789200782776,-0.03935593366622925,0.1646324919179393,-0.7337418441983455,2.4803036603345983,-0.6605986952781677,-0.1638898104429245,-0.7326319217681885, 182, 118, 0, 148
1731319880691,9i,5.224798358498481,1.5s : 0.3s,-11.185606523098741,4.179038275819575,0.20514589490531926,0.04925339469343312,-0.21801641583442688,0.050198256969451904,-0.1724810004234314,0.007701396942138672,-0.0162745863199234,-0.04584455490112305,0.16435021715515022,-0.7327363143015507,2.4776785210838783,-0.6598925590515137,-0.16361133754253387,-0.7333301305770874, 182, 118, 0, 148
1731319880701,9i,5.224798358498481,1.5s : 0.3s,-11.185606523098741,4.178419326743633,0.20406797497277113,0.02516150847370766,-0.24999850988388062,0.03162146359682083,-0.15207555890083313,0.014807522296905518,0.014322742819786072,-0.014446377754211426,0.16364225734448434,-0.7318553943304831,2.4750392969259445,-0.6593235731124878,-0.16291287541389465,-0.7339971661567688, 182, 118, 0, 148
1731319880711,9i,5.224798358498481,1.5s : 0.3s,-11.185606523098741,4.17792805101734,0.20397699293760357,0.0501105991235571,-0.2768527567386627,0.0067134518176317215,-0.14636893570423126,0.027069270610809326,0.04215194284915924,0.001241147518157959,0.16258783351016273,-0.7312130586664224,2.4721251076530066,-0.6589662432670593,-0.16187244653701782,-0.7345479726791382, 182, 118, 0, 148
1731319880721,9i,5.224798358498481,1.5s : 0.3s,-11.185606523098741,4.1775481707544495,0.19444199476079904,0.03799920080607699,-0.21635125577449799,-0.012445417232811451,-0.14892128109931946,0.019034862518310547,0.03146351873874664,0.009573936462402344,0.16168370629576367,-0.7308199430092779,2.4693978598458552,-0.6587748527526855,-0.16098017990589142,-0.7349156141281128, 182, 118, 0, 148
1731319880731,9i,5.224798358498481,1.5s : 0.3s,-11.185606523098741,4.177275515073055,0.1817666468752986,0.03233755075527939,-0.1587074100971222,-0.03165426850318909,-0.1722247451543808,0.011457741260528564,0.015732601284980774,0.02582484483718872,0.1613290174598035,-0.7306523788541073,2.4670162737816965,-0.6586897373199463,-0.16063010692596436,-0.7350684404373169, 182, 118, 0, 148
1731319880741,9i,5.224798358498481,1.5s : 0.3s,-11.185606523098741,4.17710413804848,0.177708448830304,0.04122781273049474,-0.13377688825130463,-0.05450001358985901,-0.1998250037431717,0.007213115692138672,0.031619489192962646,0.02545410394668579,0.16151704786208004,-0.7307177015260837,2.464757801723983,-0.6587175726890564,-0.16081570088863373,-0.7350029349327087, 182, 118, 0, 148
1731319880751,9i,5.224798358498481,1.5s : 0.3s,-11.185606523098741,4.177076075912365,0.17673496150502768,0.04970544733255408,-0.16950666904449463,-0.0541069321334362,-0.18747299909591675,-0.00457841157913208,0.0432949960231781,0.02398359775543213,0.16164329967369123,-0.7308655183428852,2.4623715730500186,-0.6588127017021179,-0.16094030439853668,-0.7348904609680176, 182, 118, 0, 148
1731319880761,9i,5.224798358498481,1.5s : 0.3s,-11.185606523098741,4.177261081507737,0.17532700605863508,0.05504906680225577,-0.17390666902065277,-0.06514688581228256,-0.16841910779476166,0.007136523723602295,0.044362619519233704,0.0318029522895813,0.16148820491948046,-0.7310453541091387,2.459927633992255,-0.6589615345001221,-0.16078722476959229,-0.734790563583374, 182, 118, 0, 148
1731319880771,9i,5.224798358498481,1.5s : 0.3s,-11.185606523098741,4.177671086001722,0.1740983446209282,0.060148197219199485,-0.18024899065494537,-0.07363518327474594,-0.15951882302761078,0.028569579124450684,0.04552154242992401,0.027006924152374268,0.16124011430762927,-0.731375425649406,2.4575874410441503,-0.659230649471283,-0.1605423539876938,-0.734602689743042, 182, 118, 0, 148
1731319880781,9i,5.224798358498481,1.5s : 0.3s,-11.185606523098741,4.17811882356069,0.17099809510260447,0.04056317852336044,-0.17803849279880524,-0.09022995829582214,-0.12729160487651825,0.03416013717651367,0.017167985439300537,0.013554215431213379,0.16080449170984792,-0.7318391601377787,2.455357260781509,-0.6596179008483887,-0.16011236608028412,-0.7343488335609436, 182, 118, 0, 148
1731319880791,9i,5.224798358498481,1.5s : 0.3s,-11.185606523098741,4.178578623448005,0.16002261224644698,0.03970693334984881,-0.15108650922775269,-0.10376014560461044,-0.11161331832408905,0.03478133678436279,-0.014195218682289124,0.012860596179962158,0.16031881865898365,-0.7324691348355667,2.453393559109687,-0.6601322889328003,-0.15963295102119446,-0.7339909076690674, 182, 118, 0, 148
1731319880801,9i,5.224798358498481,1.5s : 0.3s,-11.185606523098741,4.179043291519149,0.14904216706958184,0.05245688009907572,-0.11891299486160278,-0.11785422265529633,-0.10587374120950699,0.0350307822227478,-0.03520287573337555,0.01689159870147705,0.1600134457997711,-0.7333054269933363,2.451752891564847,-0.6607785224914551,-0.15933148562908173,-0.7334747314453125, 182, 118, 0, 148
1731319880811,9i,5.224798358498481,1.5s : 0.3s,-11.185606523098741,4.179504024526781,0.14365884175767424,0.050125318299260424,-0.1158631443977356,-0.11991976946592331,-0.09556277841329575,0.023448169231414795,-0.037610962986946106,0.02341252565383911,0.15983080000432373,-0.734276178050674,2.450289936143503,-0.6615096926689148,-0.15915116667747498,-0.7328545451164246, 182, 118, 0, 148
1731319880821,9i,5.224798358498481,1.5s : 0.3s,-11.185606523098741,4.179968016160147,0.14220432093307733,0.05298553411082843,-0.15338481962680817,-0.10852427780628204,-0.07153020799160004,0.016751408576965332,-0.039313867688179016,0.031325340270996094,0.1591415032918781,-0.7352616485230344,2.448840325331365,-0.6623049974441528,-0.15847061574459076,-0.7322834730148315, 182, 118, 0, 148
1731319880831,9i,5.224798358498481,1.5s : 0.3s,-11.185606523098741,4.180451030973008,0.1421986639855918,0.0571599635118746,-0.20556120574474335,-0.08964432775974274,-0.048239003866910934,0.023956120014190674,-0.04180276393890381,0.03075540065765381,0.1579189900219477,-0.736130316977208,2.447326502301168,-0.6630704998970032,-0.15726342797279358,-0.7318509221076965, 182, 118, 0, 148
1731319880841,9i,5.224798358498481,1.5s : 0.3s,-11.185606523098741,4.180978048295688,0.15403730990684333,0.0575744885931724,-0.28404349088668823,-0.07248257100582123,-0.032831549644470215,0.026372432708740234,-0.03547167778015137,0.03689277172088623,0.15612560470479458,-0.7367144709214173,2.445425130376457,-0.6636862754821777,-0.15549211204051971,-0.731671154499054, 182, 118, 0, 148
1731319880851,9i,5.224798358498481,1.5s : 0.3s,-11.185606523098741,4.181639621788152,0.16582729059145004,0.06687451000911657,-0.3025977313518524,-0.04919535294175148,-0.008492656983435154,0.02261948585510254,-0.02355840802192688,0.058357179164886475,0.1539132226719381,-0.7369647336103645,2.443383186398236,-0.6640989184379578,-0.1533062607049942,-0.7317579388618469, 182, 118, 0, 148
1731319880861,9i,5.224798358498481,1.5s : 0.3s,-11.185606523098741,4.182535731854059,0.17601932036665946,0.08904262850557988,-0.306647926568985,-0.03248046711087227,-0.002319349441677332,0.023364543914794922,-0.03105241060256958,0.08011513948440552,0.15165720074907246,-0.7369586207095067,2.4413832741628414,-0.6643251776695251,-0.1510765254497528,-0.7320162653923035, 182, 118, 0, 148
1731319880871,9i,5.224798358498481,1.5s : 0.3s,-11.185606523098741,4.183598096178329,0.1842499280609301,0.09999050362589113,-0.3101382553577423,-0.012117404490709305,0.001173119992017746,0.02500075101852417,-0.04589544236660004,0.08524477481842041,0.14948492106014993,-0.7367895483467066,2.439379268244925,-0.6644203662872314,-0.14892882108688354,-0.7323698997497559, 182, 118, 0, 148
1731319880881,9i,5.224798358498481,1.5s : 0.3s,-11.185606523098741,4.184795653511697,0.19915447082098606,0.10944350629096329,-0.3550519645214081,0.01047605462372303,0.009635979309678078,0.018072843551635742,-0.04980337619781494,0.09576469659805298,0.14713815019875498,-0.7364083851667098,2.437195938815077,-0.6643741130828857,-0.14660781621932983,-0.7328801155090332, 182, 118, 0, 148
1731319880891,9i,5.224798358498481,1.5s : 0.3s,-11.185606523098741,4.186183721772672,0.21252769612056613,0.12452309853752085,-0.36747053265571594,0.04030266031622887,0.030184930190443993,0.021857142448425293,-0.05017156898975372,0.11185294389724731,0.1444526383503257,-0.7358016546217522,2.4349339832571704,-0.6641911268234253,-0.14395079016685486,-0.733572244644165, 182, 118, 0, 148
1731319880901,9i,5.224798358498481,1.5s : 0.3s,-11.185606523098741,4.187837773931499,0.21840647657627363,0.14244617953826558,-0.345083087682724,0.07559389621019363,0.04336405172944069,0.035800933837890625,-0.05155852437019348,0.12787073850631714,0.14152516854405717,-0.734917698452145,2.4328852131040426,-0.6638221740722656,-0.1410531997680664,-0.7344685196876526, 182, 118, 0, 148
1731319880911,9i,5.224798358498481,1.5s : 0.3s,-11.185606523098741,4.189675785769095,0.2250717409380353,0.14073362120399835,-0.34813135862350464,0.10566950589418411,0.05062755569815636,0.04380899667739868,-0.03902493417263031,0.1279209852218628,0.13861893620640162,-0.7337551090280362,2.4309806781673062,-0.6632395386695862,-0.13817542791366577,-0.7355411648750305, 182, 118, 0, 148
1731319880921,9i,5.224798358498481,1.5s : 0.3s,-11.185606523098741,4.191688458486039,0.23375496775223237,0.14404017286777096,-0.35301125049591064,0.1430511325597763,0.08186499774456024,0.04617208242416382,-0.01780301332473755,0.13527292013168335,0.13555060100770072,-0.7322727264075863,2.4291973485947054,-0.6624287962913513,-0.13513588905334473,-0.7368353605270386, 182, 118, 0, 148
1731319880931,9i,5.224798358498481,1.5s : 0.3s,-11.185606523098741,4.1941091253112335,0.24468208966462882,0.16946768529666706,-0.35630613565444946,0.17771537601947784,0.11579260975122452,0.05610668659210205,-0.008257508277893066,0.1596970558166504,0.13224917178050138,-0.73044782356435,2.427574936893697,-0.6613771319389343,-0.1318640112876892,-0.7383713126182556, 182, 118, 0, 148
1731319880941,9i,5.224798358498481,1.5s : 0.3s,-11.185606523098741,4.19695740234737,0.2558633034191068,0.19511535383436004,-0.35701292753219604,0.1998993307352066,0.12827351689338684,0.06554305553436279,-0.015029564499855042,0.18316173553466797,0.12877396846054492,-0.728376800852579,2.4261650748696013,-0.6601476073265076,-0.12841835618019104,-0.7400769591331482, 182, 118, 0, 148
1731319880951,9i,5.224798358498481,1.5s : 0.3s,-11.185606523098741,4.200180861594019,0.2684548451070817,0.21329853399975326,-0.3660687208175659,0.21521863341331482,0.1478826403617859,0.06445902585983276,-0.02304353564977646,0.20201557874679565,0.12514055641772312,-0.7261304324870641,2.424826364921664,-0.6587888598442078,-0.12481418997049332,-0.7419019937515259, 182, 118, 0, 148
1731319880961,9i,5.224798358498481,1.5s : 0.3s,-11.185606523098741,4.2037392857427545,0.2873743979728656,0.23544326147377068,-0.4120529294013977,0.2263445258140564,0.15713143348693848,0.05982041358947754,-0.036031968891620636,0.22484827041625977,0.12121660488059297,-0.7237488456266215,2.4234455496197724,-0.6573393940925598,-0.12091997265815735,-0.7438300848007202, 182, 118, 0, 148
1731319880971,9i,5.224798358498481,1.5s : 0.3s,-11.185606523098741,4.20764049900818,0.32073775916421493,0.2572909177989069,-0.5259254574775696,0.22759701311588287,0.15726885199546814,0.060764312744140625,-0.039857231080532074,0.24681514501571655,0.11667260409317756,-0.7212596242054536,2.4215634715178256,-0.6558418273925781,-0.1164080798625946,-0.745868980884552, 182, 118, 0, 148
1731319880981,9i,5.224798358498481,1.5s : 0.3s,-11.185606523098741,4.211969456593238,0.36541302906699874,0.28711745753603957,-0.6356380581855774,0.2376747578382492,0.17609725892543793,0.061528563499450684,-0.02970130741596222,0.2788700461387634,0.11119854856140067,-0.7186487674922324,2.418984927533146,-0.6543020009994507,-0.11096952855587006,-0.7480472326278687, 182, 118, 0, 148
1731319880991,9i,5.224798358498481,1.5s : 0.3s,-11.185606523098741,4.2168135896275265,0.41183457422082165,0.3304282094176481,-0.7164668440818787,0.24010783433914185,0.18026989698410034,0.0613858699798584,-0.03406870365142822,0.3228837251663208,0.1048716357171945,-0.7159452553457372,2.415853095607518,-0.6527249813079834,-0.10467950999736786,-0.7503281235694885, 182, 118, 0, 148
1731319881001,9i,5.224798358498481,1.5s : 0.3s,-11.185606523098741,4.222088670258165,0.45758691288052267,0.35388661756617606,-0.7816745638847351,0.2539517283439636,0.18360768258571625,0.052329838275909424,-0.044199079275131226,0.3471941351890564,0.09803251102721137,-0.7131383520495483,2.4122967760808507,-0.6510694622993469,-0.09787556529045105,-0.7526811361312866, 182, 118, 0, 148
1731319881011,9i,5.224798358498481,1.5s : 0.3s,-11.185606523098741,4.227683708187122,0.5034261521386213,0.35808735577111256,-0.8454636931419373,0.2677258551120758,0.2047278881072998,0.03963637351989746,-0.030415132641792297,0.35458487272262573,0.09061955839832507,-0.7101881966893865,2.408434540270902,-0.649301290512085,-0.09049558639526367,-0.755128026008606, 182, 118, 0, 148
1731319881021,9i,5.224798358498481,1.5s : 0.3s,-11.185606523098741,4.233683432263977,0.5539749474742739,0.37324850843857105,-0.9368742108345032,0.26783064007759094,0.23445557057857513,0.0509411096572876,-0.001669183373451233,0.3697521686553955,0.08243911439914421,-0.7071564140860076,2.4042896938520153,-0.6474682092666626,-0.08234576880931854,-0.7576305270195007, 182, 118, 0, 148
1731319881031,9i,5.224798358498481,1.5s : 0.3s,-11.185606523098741,4.240217147075375,0.6125277474392773,0.40706293176457187,-1.0442757606506348,0.28957533836364746,0.2707853317260742,0.06616252660751343,0.012765675783157349,0.4014471173286438,0.07328664295689163,-0.7040257841602979,2.39974282168224,-0.6455540657043457,-0.07322105765342712,-0.7601964473724365, 182, 118, 0, 148
1731319881041,9i,5.224798358498481,1.5s : 0.3s,-11.185606523098741,4.247240784692208,0.6697936756789071,0.43156474077127593,-1.118604302406311,0.29661574959754944,0.3094547390937805,0.06604605913162231,0.006174243986606598,0.42643630504608154,0.06313151934078953,-0.7007809083473695,2.3949508346251505,-0.6435301899909973,-0.06308959424495697,-0.7628161907196045, 182, 118, 0, 148
1731319881051,9i,5.224798358498481,1.5s : 0.3s,-11.185606523098741,4.254523310960616,0.7156861221082186,0.42038596125423705,-1.1413655281066895,0.30536237359046936,0.3290124535560608,0.06870031356811523,-0.01142706349492073,0.4145769476890564,0.05243981781272044,-0.6974841018810745,2.390083828356641,-0.6414084434509277,-0.05241578817367554,-0.7654069066047668, 182, 118, 0, 148
1731319881061,9i,5.224798358498481,1.5s : 0.3s,-11.185606523098741,4.261831235986774,0.7491352378533133,0.39975229684914787,-1.1396487951278687,0.3035595118999481,0.36105263233184814,0.07564860582351685,-0.02520022913813591,0.3917194604873657,0.04144684720149017,-0.6941939695715489,2.3853114697837365,-0.6392167210578918,-0.04143498092889786,-0.767909586429596, 182, 118, 0, 148
1731319881071,9i,5.224798358498481,1.5s : 0.3s,-11.185606523098741,4.269177234297601,0.7649007220561321,0.40535341384018353,-1.1018339395523071,0.29834797978401184,0.35360854864120483,0.08231431245803833,-0.026462659239768982,0.39602458477020264,0.030564266472625442,-0.6910284509392213,2.380878250442481,-0.6370323300361633,-0.030559508129954338,-0.7702310085296631, 182, 118, 0, 148
1731319881081,9i,5.224798358498481,1.5s : 0.3s,-11.185606523098741,4.276572710542899,0.80643282076164,0.4103413440973904,-1.2959651947021484,0.2657673954963684,0.27194151282310486,0.08708065748214722,-0.024810412898659706,0.4002267122268677,0.019487161612443953,-0.688116423422669,2.375712652407047,-0.6349627375602722,-0.019485928118228912,-0.7722969651222229, 182, 118, 0, 148
1731319881091,9i,5.224798358498481,1.5s : 0.3s,-11.185606523098741,4.284226860578893,0.9070675940625917,0.4443745270106106,-1.678731918334961,0.2763233482837677,0.20975854992866516,0.0649491548538208,-0.015826959162950516,0.4393174648284912,0.00651203704691888,-0.6853652075198235,2.3681048389207007,-0.6329423785209656,-0.006511990912258625,-0.7741715312004089, 182, 118, 0, 148
1731319881101,9i,5.224798358498481,1.5s : 0.3s,-11.185606523098741,4.292446535582249,1.0428020219274907,0.534116015997081,-1.9950166940689087,0.2952345609664917,0.25250309705734253,0.022914409637451172,0.013400697149336338,0.5334559679031372,-0.009167086367919923,-0.6825513535648325,2.3581883241013952,-0.6307483315467834,0.009166957810521126,-0.7759333252906799, 182, 118, 0, 148
1731319881111,9i,5.224798358498481,1.5s : 0.3s,-11.185606523098741,4.301217724334309,1.1856729487489923,0.5820582647694987,-2.2206614017486572,0.3040432333946228,0.3320618271827698,0.0048059821128845215,-0.00186903215944767,0.5820354223251343,-0.0274003347911185,-0.6798205300415211,2.347051279732778,-0.6284174919128418,0.027396906167268753,-0.777393639087677, 182, 118, 0, 148
1731319881121,9i,5.224798358498481,1.5s : 0.3s,-11.185606523098741,4.310197537049006,1.2841922298483222,0.5454984407989163,-2.194317579269409,0.309633731842041,0.42946183681488037,0.01652514934539795,-0.019693594425916672,0.5448923110961914,-0.04711572410853283,-0.6771378912263178,2.336127184542284,-0.6258695721626282,0.04709829390048981,-0.7785042524337769, 182, 118, 0, 148
1731319881131,9i,5.224798358498481,1.5s : 0.3s,-11.185606523098741,4.318953553065893,1.319134543023925,0.4514557998139532,-2.019570827484131,0.342212975025177,0.40262913703918457,0.029671013355255127,0.013030372560024261,0.4502912163734436,-0.06618043086424524,-0.6744889480857373,2.3261500322666637,-0.6231311559677124,0.06613212823867798,-0.7793164253234863, 182, 118, 0, 148
1731319881141,9i,5.224798358498481,1.5s : 0.3s,-11.185606523098741,4.32707068837932,1.3193556227742391,0.3635827123362457,-1.9049676656723022,0.358381450176239,0.3487447202205658,0.012224018573760986,0.03307142108678818,0.36186909675598145,-0.08374078283989342,-0.6716770578595558,2.31692229455986,-0.6201189160346985,0.08364294469356537,-0.7800360918045044, 182, 118, 0, 148
1731319881151,9i,5.224798358498481,1.5s : 0.3s,-11.185606523098741,4.3343138074034355,1.3188063445195555,0.31006148083241636,-1.8977196216583252,0.3837105333805084,0.3016728162765503,-0.026427268981933594,0.0334605872631073,0.3071157932281494,-0.10060481470271779,-0.6688052302532885,2.30760768352217,-0.6169138550758362,0.10043518990278244,-0.7805959582328796, 182, 118, 0, 148
1731319881161,9i,5.224798358498481,1.5s : 0.3s,-11.185606523098741,4.340748453237575,1.3331078953026465,0.2752666779787065,-1.9863337278366089,0.3232894241809845,0.31275027990341187,-0.03695744276046753,0.06498026102781296,0.2649216055870056,-0.11781765285788086,-0.6663424947916394,2.297882540633853,-0.6138299107551575,0.11754526942968369,-0.7806381583213806, 182, 118, 0, 148
1731319881171,9i,5.224798358498481,1.5s : 0.3s,-11.185606523098741,4.346506542132288,1.338000531831562,0.24868881490477523,-1.9460513591766357,0.4082533121109009,0.35303086042404175,-0.029983699321746826,0.10672087967395782,0.22261571884155273,-0.13532989186115352,-0.6640639305078736,2.288332177056744,-0.6106871366500854,0.13491719961166382,-0.780293881893158, 182, 118, 0, 148
1731319881181,9i,5.224798358498481,1.5s : 0.3s,-11.185606523098741,4.35172923857513,1.3403915141068965,0.23570166125963177,-1.9639512300491333,0.3106464445590973,0.34704193472862244,-0.0249750018119812,0.11686766147613525,0.20315873622894287,-0.15295399616266211,-0.6617428481988245,2.278935297507445,-0.6073187589645386,0.1523583084344864,-0.7797120809555054, 182, 118, 0, 148
1731319881190,9i,5.224798358498481,1.5s : 0.3s,-11.185606523098741,4.356265319891058,1.343712355414986,0.17258867128735284,-1.9723236560821533,0.3124493956565857,0.3374963700771332,-0.016892850399017334,0.08497792482376099,0.14926564693450928,-0.17037692515550884,-0.6599504626132633,2.269562965516897,-0.6042008996009827,0.16955383121967316,-0.778583824634552, 182, 118, 0, 148
1731319881200,9i,5.224798358498481,1.5s : 0.3s,-11.185606523098741,4.360067132442336,1.3842496109366185,0.1298033133907557,-2.143293857574463,0.39150187373161316,0.3328024744987488,-0.02240777015686035,0.03735445439815521,0.12227606773376465,-0.18867745282434542,-0.6583168825748571,2.259491643768077,-0.6009290218353271,0.18755997717380524,-0.7769848704338074, 182, 118, 0, 148
1731319881210,9i,5.224798358498481,1.5s : 0.3s,-11.185606523098741,4.363122853679954,1.426557927849906,0.11856931455136498,-2.191406011581421,0.5086681246757507,0.34054693579673767,-0.05225181579589844,0.029138922691345215,0.10236871242523193,-0.20801459802103023,-0.6559712041767016,2.2486736977245605,-0.5967808365821838,0.20651771128177643,-0.7753728628158569, 182, 118, 0, 148
1731319881220,9i,5.224798358498481,1.5s : 0.3s,-11.185606523098741,4.365562674414857,1.4247866690504403,0.13862005875118627,-1.995292067527771,0.6257123351097107,0.2937939167022705,-0.06953549385070801,0.09640291333198547,0.07132190465927124,-0.22674776101205457,-0.6524937928805895,2.2382122096867514,-0.591627836227417,0.22480972111225128,-0.7742331624031067, 182, 118, 0, 148
1731319881230,9i,5.224798358498481,1.5s : 0.3s,-11.185606523098741,4.3678292431100925,1.4330843176032626,0.1614171990806054,-2.039910316467285,0.7441769242286682,0.22370029985904694,-0.0540233850479126,0.15051059424877167,0.02198970317840576,-0.24426018039012973,-0.6480324727331518,2.227897574691879,-0.5857014060020447,0.24183852970600128,-0.7736071348190308, 182, 118, 0, 148
1731319881240,9i,5.224798358498481,1.5s : 0.3s,-11.185606523098741,4.369663222087147,1.3873393088240586,0.22485067167001474,-1.7765648365020752,0.7083484530448914,0.1855006068944931,-0.04302799701690674,0.22063758969306946,-0.0050467848777771,-0.2609515244628711,-0.6434370437315114,2.217626825380764,-0.5796374678611755,0.257999986410141,-0.7729530930519104, 182, 118, 0, 148
1731319881250,9i,5.224798358498481,1.5s : 0.3s,-11.185606523098741,4.370788072854731,1.3038844068738573,0.32633391047820226,-1.4840775728225708,0.7894643545150757,0.07909295707941055,-0.0433347225189209,0.3026030957698822,-0.11422473192214966,-0.2747700487879668,-0.6383283354860653,2.208773698419314,-0.5735018849372864,0.27132561802864075,-0.7729670405387878, 182, 118, 0, 148
