timestamp,club,max_speed,tempo,w.rotation,l.speed,t.spped,acc,rotation.x,rotation.y,rotation.z,userAcceleration.x,userAcceleration.y,userAcceleration.z,pitch,roll,yaw,gravity.x,gravity.y,gravity.z,impactIndex,minDownIndex,StartIndex,endIndex
1731319934528,9i,5.525374524593962,1.4s : 0.4s,5.880220492429373,0.00037916256518804085,0.08028011398033523,0.05685784681213969,0.04059344157576561,0.023659145459532738,0.056240931153297424,0.0013337135314941406,0.056585490703582764,0.005396127700805664,-0.24510137007878194,2.177423054708881,3.01287215526692,0.7970215082168579,0.24265466630458832,0.5530608892440796, 182, 105, 1, 141
1731319934538,9i,5.525374524593962,1.4s : 0.4s,5.880220492429373,0.0009717220375799517,0.052880008224081065,0.05715141173322274,0.009048565290868282,0.0211429912596941,0.055588990449905396,0.001316666603088379,0.05689112842082977,0.005286753177642822,-0.24478630709683366,2.177505680534905,3.012309497652126,0.7970384955406189,0.24234901368618011,0.5531702637672424, 182, 105, 1, 141
1731319934548,9i,5.525374524593962,1.4s : 0.4s,5.880220492429373,0.0013423776137690621,0.04395936220554611,0.0580254485724393,-0.04078996181488037,0.023681960999965668,0.055573608726263046,-0.004997611045837402,0.05765773355960846,-0.0041907429695129395,-0.24413772989345622,2.1776060873047958,3.0120992852548882,0.797111988067627,0.24171970784664154,0.5533398389816284, 182, 105, 1, 141
1731319934558,9i,5.525374524593962,1.4s : 0.4s,5.880220492429373,0.0016095722822197503,0.027054565124343094,0.04699974208835052,-0.06954251229763031,0.03068474307656288,0.05402844399213791,-0.017385542392730713,0.043306007981300354,-0.005595386028289795,-0.24328166046797411,2.1778613743792827,3.012224891870253,0.7971403002738953,0.24088893830776215,0.5536611080169678, 182, 105, 1, 141
1731319934568,9i,5.525374524593962,1.4s : 0.4s,5.880220492429373,0.001833273208619141,0.012786167076084883,0.03974382705002726,-0.09534242004156113,0.024081435054540634,0.051499903202056885,-0.02485954761505127,0.029325857758522034,-0.010078132152557373,-0.2423416690934485,2.1781739596623098,3.0126219666641947,0.7971526980400085,0.23997652530670166,0.5540391802787781, 182, 105, 1, 141
1731319934578,9i,5.525374524593962,1.4s : 0.4s,5.880220492429373,0.0020558554744708373,0.03148757129636837,0.030932844047351783,-0.10099657624959946,0.024508871138095856,0.0694514736533165,-0.023655474185943604,0.01963481307029724,0.003425419330596924,-0.24130610761988172,2.178456383718807,3.0130790024045053,0.7971996665000916,0.23897109925746918,0.5544057488441467, 182, 105, 1, 141
1731319934588,9i,5.525374524593962,1.4s : 0.4s,5.880220492429373,0.0023035070563246908,0.046008932699417984,0.02773940074901785,-0.08928153663873672,0.027584467083215714,0.07513975352048874,-0.01442188024520874,0.022048547863960266,0.008680164813995361,-0.24021906292111436,2.178761213774519,3.013443635227642,0.7972434163093567,0.23791541159152985,0.5547968149185181, 182, 105, 1, 141
1731319934598,9i,5.525374524593962,1.4s : 0.4s,5.880220492429373,0.0025732011870218553,0.055304780201420066,0.031444629739093136,-0.08703915774822235,0.02214070037007332,0.07163690030574799,-0.01598268747329712,0.026861846446990967,0.003429234027862549,-0.23915971261371316,2.1790426313929605,3.0137772847382416,0.7972937822341919,0.23688633739948273,0.5551649928092957, 182, 105, 1, 141
1731319934608,9i,5.525374524593962,1.4s : 0.4s,5.880220492429373,0.0028466838732192565,0.06537233678679312,0.026831887170313033,-0.11143403500318527,0.009013978764414787,0.0733046755194664,-0.022643446922302246,0.012620151042938232,0.006925046443939209,-0.23812860846513823,2.1793061015822293,3.014168789244803,0.797347366809845,0.23588445782661438,0.5555142760276794, 182, 105, 1, 141
1731319934618,9i,5.525374524593962,1.4s : 0.4s,5.880220492429373,0.003094176965173497,0.07750489212701689,0.019110281913450818,-0.14749830961227417,0.009343411773443222,0.06389465928077698,-0.018871843814849854,-0.0028596222400665283,-0.0009375214576721191,-0.23713142651827784,2.1796024962629974,3.014861352177689,0.7973753809928894,0.23491530120372772,0.5558848977088928, 182, 105, 1, 141
1731319934628,9i,5.525374524593962,1.4s : 0.4s,5.880220492429373,0.0032825190089048307,0.0,0.025907464262162457,-0.1560051590204239,0.005004945211112499,0.03719890117645264,-0.015171945095062256,-0.010544314980506897,-0.018161118030548096,-0.23629355475024622,2.1798780187766638,3.0158461841022457,0.7973831295967102,0.23410078883171082,0.5562168955802917, 182, 105, 1, 141
1731319934638,9i,5.525374524593962,1.4s : 0.4s,5.880220492429373,0.0033484981374565584,0.08562481916117523,0.03713422290481731,-0.1267724484205246,0.00702388770878315,0.03494000434875488,-0.011442363262176514,-0.02662956714630127,-0.023213982582092285,-0.23555850624535532,2.1801976244049026,3.0168390079422744,0.7973461747169495,0.2333860993385315,0.5565699934959412, 182, 105, 1, 141
1731319934648,9i,5.525374524593962,1.4s : 0.4s,5.880220492429373,0.0033646891425968837,0.1493357014389488,0.024054922140473105,-0.05225161090493202,-0.31988659501075745,0.4764288663864136,-0.0035944581031799316,-0.02030959725379944,-0.012378990650177002,-0.23467693383593524,2.1801252358578305,3.0172970094294316,0.7975549101829529,0.23252879083156586,0.5566298365592957, 182, 105, 1, 141
1731319934658,9i,5.525374524593962,1.4s : 0.4s,5.880220492429373,0.0033914604316556793,0.29500387087762076,0.007412903760420239,0.008972066454589367,-0.635028064250946,0.7600868940353394,-0.0035223960876464844,-0.0009918063879013062,0.006446719169616699,-0.23447290684399227,2.1807080741477898,3.018058734378917,0.7972695231437683,0.2323303520679474,0.557121992111206, 182, 105, 1, 141
1731319934668,9i,5.525374524593962,1.4s : 0.4s,5.880220492429373,0.003521222102529243,0.3247020346987498,0.039798448089488826,-0.03549160808324814,-0.4924217760562897,0.35561758279800415,0.027113616466522217,-0.0011213123798370361,0.029112040996551514,-0.23482561933014162,2.181812576747722,3.01881375322632,0.7965862154960632,0.23267339169979095,0.5579549670219421, 182, 105, 1, 141
1731319934677,9i,5.525374524593962,1.4s : 0.4s,5.880220492429373,0.0036761729709622534,0.247182632030249,0.03536833794860143,-0.028910400345921516,-0.12275665998458862,0.013957192189991474,0.03290802240371704,-0.0036879032850265503,0.012425005435943604,-0.23432678668942064,2.1815108104847405,3.0186399577252896,0.7968495488166809,0.23218822479248047,0.5577810406684875, 182, 105, 1, 141
1731319934687,9i,5.525374524593962,1.4s : 0.4s,5.880220492429373,0.0037943211693278025,0.18262887032516556,0.022587886084852606,-0.020227298140525818,-0.027601556852459908,0.03668707236647606,0.0026015639305114746,0.0007545650005340576,-0.02242487668991089,-0.2340892523539835,2.181642059682913,3.0188119562635185,0.7968214750289917,0.23195716738700867,0.5579172372817993, 182, 105, 1, 141
1731319934697,9i,5.525374524593962,1.4s : 0.4s,5.880220492429373,0.0037415401205909814,0.12917137588142416,0.039675423762559635,-0.025790642946958542,-0.00191270443610847,0.00144546153023839,-0.007048428058624268,-0.008119583129882812,-0.03819072246551514,-0.23384728047155526,2.181740068696851,3.01902185688168,0.7968126535415649,0.23172178864479065,0.558027446269989, 182, 105, 1, 141
1731319934707,9i,5.525374524593962,1.4s : 0.4s,5.880220492429373,0.003602772618229732,0.0926189667137401,0.03169059884170625,-0.03687625005841255,-0.005862439051270485,-0.0021170158870518208,0.00041753053665161133,-0.017721250653266907,-0.02626931667327881,-0.23366307284879254,2.1816464799420676,3.019253860348049,0.7968998551368713,0.23154260218143463,0.5579773783683777, 182, 105, 1, 141
1731319934717,9i,5.525374524593962,1.4s : 0.4s,5.880220492429373,0.003429563607475412,0.0699627824158027,0.027881335975649662,-0.012752003967761993,-0.016585923731327057,0.01577489823102951,-0.00028061866760253906,-0.015496999025344849,-0.023176133632659912,-0.23321187625560638,2.181423775117929,3.0194147007333,0.7971097230911255,0.23110364377498627,0.5578597784042358, 182, 105, 1, 141
1731319934727,9i,5.525374524593962,1.4s : 0.4s,5.880220492429373,0.0032452295802720523,0.0,0.02665394674001374,-0.03001801110804081,-0.024989262223243713,-0.004207697231322527,-0.0030357837677001953,-0.0029831230640411377,-0.026311933994293213,-0.2328965339018139,2.1811322346946382,3.01951018501678,0.7973319292068481,0.23079681396484375,0.5576691031455994, 182, 105, 1, 141
1731319934737,9i,5.525374524593962,1.4s : 0.4s,5.880220492429373,0.003051211350596724,0.04326256320727153,0.019152552470513427,-0.03267371654510498,-0.02303849719464779,-0.00731054600328207,-0.004650890827178955,-0.012461856007575989,-0.01378011703491211,-0.2327585061670798,2.181046502166093,3.0198574373543963,0.797406017780304,0.2306625247001648,0.5576190948486328, 182, 105, 1, 141
1731319934747,9i,5.525374524593962,1.4s : 0.4s,5.880220492429373,0.0028534466699013192,0.03609918252149832,0.020007307359982643,-0.00618990883231163,-0.027637241408228874,-0.0010551800951361656,-0.010597288608551025,-0.016287758946418762,0.0047643184661865234,-0.2326132120905963,2.1809396547778928,3.0200815180327676,0.797493040561676,0.23052114248275757,0.5575530529022217, 182, 105, 1, 141
1731319934757,9i,5.525374524593962,1.4s : 0.4s,5.880220492429373,0.0026657299182509912,0.030404452039769412,0.011186243694259664,0.014444795437157154,-0.01943470723927021,0.00091928755864501,-0.010294079780578613,-0.004376411437988281,-0.00010484457015991211,-0.2325250807132467,2.1805826186672794,3.0200044895409683,0.7977087497711182,0.23043538630008698,0.5572800040245056, 182, 105, 1, 141
1731319934767,9i,5.525374524593962,1.4s : 0.4s,5.880220492429373,0.0025068022570376098,0.027560185827334674,0.021261949748522947,0.022330548614263535,-0.015802953392267227,-0.007992515340447426,-0.014353275299072266,0.013070106506347656,-0.008673310279846191,-0.232707294306226,2.180164155408923,3.019794623486833,0.7979072332382202,0.23061268031597137,0.5569218993186951, 182, 105, 1, 141
1731319934777,9i,5.525374524593962,1.4s : 0.4s,5.880220492429373,0.0023661922837557334,0.025208306428810754,0.02932758911000435,0.030462510883808136,-0.015047414228320122,0.00189686706289649,-0.020110666751861572,0.012830808758735657,-0.01705986261367798,-0.23287484801049768,2.179687423642672,3.0195437540534584,0.7981410026550293,0.23077571392059326,0.5565194487571716, 182, 105, 1, 141
1731319934787,9i,5.525374524593962,1.4s : 0.4s,5.880220492429373,0.002255898189624684,0.023334010515981204,0.026847586756933793,0.025601044297218323,-0.015920398756861687,-0.0006013775710016489,-0.018870055675506592,0.01320144534111023,-0.013799846172332764,-0.23291735055670787,2.1792425010153473,3.0192394419658277,0.798380434513092,0.23081707954406738,0.5561586022377014, 182, 105, 1, 141
1731319934797,9i,5.525374524593962,1.4s : 0.4s,5.880220492429373,0.002203524568620658,0.14446510132513699,0.0297947242042438,0.052415881305933,-0.39381125569343567,0.5122989416122437,-0.016028642654418945,0.02051141858100891,-0.014494478702545166,-0.23250858913326455,2.1783444347639653,3.0186891916474314,0.7989570498466492,0.2304193377494812,0.5554952621459961, 182, 105, 1, 141
1731319934807,9i,5.525374524593962,1.4s : 0.4s,5.880220492429373,0.0022335217264407873,0.38170276994465774,0.038963119028258726,0.114204540848732,-0.9285797476768494,1.0331923961639404,-0.02619069814682007,0.021155327558517456,-0.019611835479736328,-0.23269372119648019,2.178172007264893,3.018680420678582,0.7990179657936096,0.23059947788715363,0.5553332567214966, 182, 105, 1, 141
1731319934817,9i,5.525374524593962,1.4s : 0.4s,5.880220492429373,0.0023361653115654174,0.44313957005676324,0.020615054308610548,0.06570784747600555,-0.7165231108665466,0.5178382396697998,-0.007358133792877197,0.010919421911239624,-0.01586204767227173,-0.2333809134451053,2.179398453232828,3.0193888676204605,0.7982060313224792,0.23126809298992157,0.5562220215797424, 182, 105, 1, 141
1731319934827,9i,5.525374524593962,1.4s : 0.4s,5.880220492429373,0.00248903140749579,0.3378859050622983,0.011411418338346852,0.0013104180106893182,-0.17671185731887817,0.0077143763191998005,-0.005851447582244873,0.006341785192489624,-0.007467448711395264,-0.23302018927760382,2.1788009072020507,3.019228021571124,0.7986066937446594,0.23091714084148407,0.5557925701141357, 182, 105, 1, 141
1731319934837,9i,5.525374524593962,1.4s : 0.4s,5.880220492429373,0.0026738044887633485,0.24715687308344506,0.009417478672526734,-0.022115545347332954,-0.06064889580011368,0.011031609028577805,-0.005235254764556885,0.007674515247344971,0.0015436410903930664,-0.23279523980309222,2.178256507913689,3.019339612948258,0.7989516258239746,0.23069825768470764,0.5553873181343079, 182, 105, 1, 141
1731319934847,9i,5.525374524593962,1.4s : 0.4s,5.880220492429373,0.002848665359363797,0.17803806605456737,0.020135229051005538,-0.023085733875632286,-0.030969923362135887,0.0019799242727458477,-0.016434073448181152,-0.0019753873348236084,0.011465013027191162,-0.23262926731115038,2.1779579699540492,3.019607944944201,0.7991487979888916,0.23053675889968872,0.5551705360412598, 182, 105, 1, 141
1731319934857,9i,5.525374524593962,1.4s : 0.4s,5.880220492429373,0.003014672886638263,0.12285625651200055,0.018512805811627307,-0.007545658387243748,0.0010244958102703094,-0.013239242136478424,0.0026241540908813477,0.005066826939582825,0.01761150360107422,-0.2325271167378434,2.177772831717101,3.019744558875228,0.7992711663246155,0.23043736815452576,0.555036187171936, 182, 105, 1, 141
1731319934867,9i,5.525374524593962,1.4s : 0.4s,5.880220492429373,0.0031989400329025656,0.0781618817628032,0.014879026114855493,-0.022486789152026176,0.023641390725970268,-0.034900594502687454,-0.010923385620117188,0.009681135416030884,-0.002888023853302002,-0.23248940603664506,2.1776797929343736,3.019845146854133,0.7993298768997192,0.2304006665945053,0.5549667477607727, 182, 105, 1, 141
1731319934877,9i,5.525374524593962,1.4s : 0.4s,5.880220492429373,0.0034058457558492693,0.05186203410467823,0.0207785158171508,-0.04849335923790932,0.08966967463493347,-0.1000170111656189,-0.015077471733093262,0.0068290382623672485,-0.01256108283996582,-0.232315615659966,2.1776499693691216,3.0199901199881816,0.7993794083595276,0.23023155331611633,0.5549657940864563, 182, 105, 1, 141
1731319934887,9i,5.525374524593962,1.4s : 0.4s,5.880220492429373,0.0036296142772788012,0.031914314965808224,0.015036371188872624,-0.06137373670935631,0.18507981300354004,-0.21453307569026947,-0.00783073902130127,0.007521048188209534,-0.010402202606201172,-0.23209058976878666,2.177641985265389,3.0201148393144632,0.7994263768196106,0.23001256585121155,0.5549889206886292, 182, 105, 1, 141
1731319934897,9i,5.525374524593962,1.4s : 0.4s,5.880220492429373,0.003851932963098277,0.10553797338613194,0.009434471246100948,-0.07068867981433868,0.28422024846076965,-0.3157816529273987,-0.008224844932556152,0.002967432141304016,-0.003543376922607422,-0.23184635145492638,2.177592384744901,3.02022323087176,0.7994998693466187,0.2297748625278473,0.5549811720848083, 182, 105, 1, 141
1731319934907,9i,5.525374524593962,1.4s : 0.4s,5.880220492429373,0.00405143376932724,0.17913669826706105,0.014257347043301777,-0.07101590931415558,0.35806792974472046,-0.3783584535121918,-0.010247766971588135,-0.009360209107398987,-0.003262162208557129,-0.2315627122644084,2.177480498463523,3.020334809937012,0.7996156215667725,0.22949880361557007,0.5549289584159851, 182, 105, 1, 141
1731319934917,9i,5.525374524593962,1.4s : 0.4s,5.880220492429373,0.0042086326671259,0.22841746866279214,0.02204947692275795,-0.06438357383012772,0.3620499074459076,-0.35780125856399536,-0.006600439548492432,-0.02083362638950348,-0.0029280781745910645,-0.2312792035808867,2.1773026519658076,3.020445131052848,0.7997674345970154,0.2292228490114212,0.554823637008667, 182, 105, 1, 141
1731319934927,9i,5.525374524593962,1.4s : 0.4s,5.880220492429373,0.004290830663663637,0.22949880101593934,0.03362996120647874,-0.03890790790319443,0.28179535269737244,-0.22147424519062042,-0.013446390628814697,-0.030192971229553223,0.006209135055541992,-0.2308618173165835,2.17712348818807,3.020571083290815,0.7999452948570251,0.22881655395030975,0.5547347664833069, 182, 105, 1, 141
1731319934937,9i,5.525374524593962,1.4s : 0.4s,5.880220492429373,0.004273310649491786,0.1767877268304445,0.03959549386035162,0.006682746112346649,0.09947720915079117,-0.015073128044605255,-0.01814103126525879,-0.033365339040756226,0.011200904846191406,-0.23042149120735134,2.1768966505362513,3.020631084190669,0.8001539707183838,0.22838789224624634,0.5546107292175293, 182, 105, 1, 141
1731319934947,9i,5.525374524593962,1.4s : 0.4s,5.880220492429373,0.004198223094591841,0.06596742729223495,0.040991997632779144,0.055503349751234055,-0.15494273602962494,0.2727353870868683,-0.013378500938415527,-0.03857186436653137,0.0036838650703430176,-0.23004875179784098,2.176695702661428,3.020736069158706,0.8003354072570801,0.22802498936653137,0.5544984340667725, 182, 105, 1, 141
1731319934957,9i,5.525374524593962,1.4s : 0.4s,5.880220492429373,0.004131507703808999,0.10364451459742187,0.038130029811514386,0.1126427948474884,-0.42639288306236267,0.5515379905700684,-0.013239264488220215,-0.03575289249420166,0.0005930662155151367,-0.22980199376813357,2.176590082266774,3.0207319928315854,0.8004401326179504,0.22778472304344177,0.5544458627700806, 182, 105, 1, 141
1731319934967,9i,5.525374524593962,1.4s : 0.4s,5.880220492429373,0.004105993176249503,0.2608180573616546,0.0269427386827245,0.1467915177345276,-0.6034454107284546,0.7104708552360535,-0.014714956283569336,-0.022512510418891907,0.0016025304794311523,-0.2296966689394531,2.176550913229077,3.020530476202005,0.8004815578460693,0.2276821732521057,0.5544281601905823, 182, 105, 1, 141
1731319934977,9i,5.525374524593962,1.4s : 0.4s,5.880220492429373,0.004118676590070481,0.39000231514723926,0.018646100925827705,0.11689513921737671,-0.6919941902160645,0.7588657736778259,-0.009005844593048096,-0.014637783169746399,0.007232367992401123,-0.2296484043501537,2.176543980819835,3.0202860928518436,0.8004943132400513,0.22763517498970032,0.5544288158416748, 182, 105, 1, 141
1731319934987,9i,5.525374524593962,1.4s : 0.4s,5.880220492429373,0.004145674682797967,0.46849015342274514,0.023983507827856715,0.07470600306987762,-0.6726785898208618,0.6999571323394775,-0.004072606563568115,-0.0131588876247406,0.01963329315185547,-0.2294459201689064,2.17659298966587,3.020173100050637,0.8005049824714661,0.22743800282478333,0.5544942021369934, 182, 105, 1, 141
1731319934997,9i,5.525374524593962,1.4s : 0.4s,5.880220492429373,0.0041701488866287065,0.4812868589418564,0.02441170670644209,0.02396586164832115,-0.5498949289321899,0.5313925743103027,0.004563748836517334,-0.009761929512023926,0.02190452814102173,-0.22913853577756468,2.176641423101871,3.020077115829679,0.8005358576774597,0.22713865339756012,0.5545729994773865, 182, 105, 1, 141
1731319935007,9i,5.525374524593962,1.4s : 0.4s,5.880220492429373,0.004198355284631838,0.42819650421639927,0.021550469838161227,-0.0376313216984272,-0.3523464500904083,0.29552194476127625,0.0030012130737304688,-0.0120830237865448,0.017590224742889404,-0.22876430058191913,2.176728608656219,3.0201325295867996,0.8005572557449341,0.2267741858959198,0.5546911358833313, 182, 105, 1, 141
1731319935017,9i,5.525374524593962,1.4s : 0.4s,5.880220492429373,0.00425599809886018,0.31962488903320607,0.02240353190889216,-0.09097230434417725,-0.11031197011470795,0.03135262429714203,-0.007032036781311035,-0.01748959720134735,0.012107133865356445,-0.2282994422482024,2.1768698880322823,3.02032053324754,0.8005655407905579,0.22632141411304474,0.5548642873764038, 182, 105, 1, 141
1731319935027,9i,5.525374524593962,1.4s : 0.4s,5.880220492429373,0.0043544887669629655,0.17843314162294438,0.019064731465249726,-0.13251082599163055,0.12772810459136963,-0.21282295882701874,-0.007555246353149414,-0.0173041969537735,0.0026357173919677734,-0.22781139568019831,2.1770527683762126,3.02061445800252,0.8005543947219849,0.22584600746631622,0.5550733208656311, 182, 105, 1, 141
1731319935037,9i,5.525374524593962,1.4s : 0.4s,5.880220492429373,0.004487615830569435,0.061473448086566546,0.01688063086725523,-0.15848863124847412,0.3131653666496277,-0.39877232909202576,-0.005059778690338135,-0.016104072332382202,0.00011485815048217773,-0.22731566761972982,2.1772058853528105,3.0210772884342565,0.8005614280700684,0.22536306083202362,0.5552597045898438, 182, 105, 1, 141
1731319935047,9i,5.525374524593962,1.4s : 0.4s,5.880220492429373,0.004639412367422717,0.13893171633407628,0.01695043819732255,-0.150165393948555,0.4514797031879425,-0.4934002757072449,-0.003666520118713379,-0.012707099318504333,0.010602056980133057,-0.22677341341601598,2.1772850041254808,3.0215018929643134,0.8006176948547363,0.22483472526073456,0.5553925633430481, 182, 105, 1, 141
1731319935057,9i,5.525374524593962,1.4s : 0.4s,5.880220492429373,0.004804125366506584,0.23724302901427025,0.01143448923955147,-0.11781889945268631,0.5024648904800415,-0.49699845910072327,-0.003766655921936035,-0.003927841782569885,0.01005643606185913,-0.2262354980765087,2.177365876007363,3.0217829469015114,0.8006722927093506,0.22431054711341858,0.5555263757705688, 182, 105, 1, 141
1731319935067,9i,5.525374524593962,1.4s : 0.4s,5.880220492429373,0.004981651324176228,0.29230439344203246,0.008747410473830665,-0.07670362293720245,0.4669415056705475,-0.42371970415115356,-0.006463229656219482,0.0021050721406936646,0.005505681037902832,-0.2258068809287074,2.177378321710684,3.0218229395992804,0.8007442355155945,0.22389283776283264,0.5555909872055054, 182, 105, 1, 141
1731319935077,9i,5.525374524593962,1.4s : 0.4s,5.880220492429373,0.0051788450618388175,0.29737823327397545,0.017188256720185757,-0.05256180092692375,0.3797259032726288,-0.27486497163772583,-0.013668954372406006,0.001553356647491455,0.010304510593414307,-0.22535528737504218,2.1774112974865463,3.0217890416885633,0.8008087277412415,0.22345268726348877,0.5556749105453491, 182, 105, 1, 141
1731319935087,9i,5.525374524593962,1.4s : 0.4s,5.880220492429373,0.005395817955325453,0.25759584640138045,0.019775707237248787,-0.015891872346401215,0.22970828413963318,-0.1123131662607193,-0.017337441444396973,0.007820293307304382,0.005416154861450195,-0.22485891283239653,2.177453611193026,3.0217116981995873,0.8008761405944824,0.22296883165836334,0.5557718873023987, 182, 105, 1, 141
1731319935097,9i,5.525374524593962,1.4s : 0.4s,5.880220492429373,0.005626385693059802,0.1860061662519464,0.01394180308050538,-0.01730361394584179,0.0767165943980217,0.06007564812898636,-0.012287259101867676,0.00023347139358520508,-0.006583511829376221,-0.22437706744354777,2.1775565726247366,3.0218025530223533,0.8009073734283447,0.2224990874528885,0.5559157133102417, 182, 105, 1, 141
1731319935107,9i,5.525374524593962,1.4s : 0.4s,5.880220492429373,0.0058743383454034955,0.09933700289622754,0.02405066156551132,-0.002745243487879634,-0.0748818963766098,0.20218682289123535,-0.010381996631622314,-0.01083587110042572,-0.018794476985931396,-0.22386748406134702,2.1777475745197608,3.022047812818607,0.8008942008018494,0.22200225293636322,0.5561333298683167, 182, 105, 1, 141
1731319935117,9i,5.525374524593962,1.4s : 0.4s,5.880220492429373,0.006135618234867496,0.0503843214256299,0.018489673711998764,0.003721976885572076,-0.20078790187835693,0.31155166029930115,-0.012528598308563232,-0.008194968104362488,-0.010851025581359863,-0.22338119935354703,2.177888228579634,3.0223250899508183,0.8009044528007507,0.2215280681848526,0.5563073754310608, 182, 105, 1, 141
1731319935127,9i,5.525374524593962,1.4s : 0.4s,5.880220492429373,0.006388621573067128,0.11089845225984261,0.01101546144040102,0.00987148191779852,-0.26751455664634705,0.3723721504211426,-0.004048168659210205,-0.006715595722198486,-0.007736504077911377,-0.22278740911214565,2.1780211013823836,3.022567315419609,0.8009384870529175,0.2209489941596985,0.5564888119697571, 182, 105, 1, 141
1731319935137,9i,5.525374524593962,1.4s : 0.4s,5.880220492429373,0.006613588520962807,0.1671832598625238,0.012665566171779113,0.013294177129864693,-0.29389476776123047,0.35229402780532837,0.0029622912406921387,0.0009022355079650879,-0.012281179428100586,-0.22223603411361262,2.178102860929624,3.022643153820756,0.8009927868843079,0.22041121125221252,0.556623637676239, 182, 105, 1, 141
1731319935147,9i,5.525374524593962,1.4s : 0.4s,5.880220492429373,0.0068182598809560895,0.1962119030959636,0.014219230282662716,0.016817139461636543,-0.26775848865509033,0.29482027888298035,-0.0004997849464416504,0.003055572509765625,-0.013878047466278076,-0.2217961276289575,2.178084335076717,3.0226329860373125,0.8010826110839844,0.2199821025133133,0.5566640496253967, 182, 105, 1, 141
1731319935157,9i,5.525374524593962,1.4s : 0.4s,5.880220492429373,0.0070072643940045694,0.19635789559813369,0.01576745996324335,0.0022190220188349485,-0.20579899847507477,0.21471959352493286,-0.0012834668159484863,0.0023565739393234253,-0.015537440776824951,-0.22138652744475268,2.1780154398170968,3.0224797861954995,0.8011950850486755,0.21958252787590027,0.5566604137420654, 182, 105, 1, 141
1731319935167,9i,5.525374524593962,1.4s : 0.4s,5.880220492429373,0.007166194674542693,0.17185815385969241,0.02580214045179388,0.003297269344329834,-0.12936519086360931,0.11613666266202927,0.006222367286682129,0.006482303142547607,-0.024187028408050537,-0.22097384985520566,2.1778722017641883,3.0222197129171917,0.8013489246368408,0.2191798985004425,0.556597113609314, 182, 105, 1, 141
1731319935177,9i,5.525374524593962,1.4s : 0.4s,5.880220492429373,0.007303492759903474,0.130635048088015,0.020277350654757383,-0.013413000851869583,-0.04550519213080406,0.028977520763874054,0.0044782161712646484,0.004657745361328125,-0.019220352172851562,-0.2206075137796576,2.1776532782016096,3.021861495612527,0.8015367388725281,0.2188224494457245,0.5564674735069275, 182, 105, 1, 141
1731319935187,9i,5.525374524593962,1.4s : 0.4s,5.880220492429373,0.0074411449143190695,0.0828858726931909,0.016074087091621437,-0.015739472582936287,0.023335127159953117,-0.03671344369649887,-0.00015348196029663086,-0.00618414580821991,-0.01483607292175293,-0.2201623987768581,2.177425542317382,3.0215253427019713,0.8017433881759644,0.21838811039924622,0.5563403964042664, 182, 105, 1, 141
1731319935197,9i,5.525374524593962,1.4s : 0.4s,5.880220492429373,0.007586231557647969,0.06732253302296025,0.019595236413942552,-0.019460441544651985,0.06663680076599121,-0.08776890486478806,-0.0009500384330749512,-0.009527519345283508,-0.01709669828414917,-0.2198358187327335,2.177168514081511,3.021204497557376,0.8019450306892395,0.218069389462471,0.5561749935150146, 182, 105, 1, 141
1731319935207,9i,5.525374524593962,1.4s : 0.4s,5.880220492429373,0.007753739308367357,0.035759730978314946,0.02805363497014911,-0.009344357065856457,0.09400060027837753,-0.09063802659511566,-0.002352118492126465,-0.019292786717414856,-0.020230233669281006,-0.21955407934641905,2.176960466731241,3.020934816214579,0.8021113276481628,0.21779443323612213,0.5560432076454163, 182, 105, 1, 141
1731319935217,9i,5.525374524593962,1.4s : 0.4s,5.880220492429373,0.007948864320213224,0.006853041123131185,0.028845703457441405,-0.005265725776553154,0.09233905375003815,-0.07707348465919495,-0.0060402750968933105,-0.015429899096488953,-0.023611605167388916,-0.21934827833940287,2.176787895526748,3.020650204707113,0.8022438287734985,0.21759356558322906,0.5559300780296326, 182, 105, 1, 141
1731319935227,9i,5.525374524593962,1.4s : 0.4s,5.880220492429373,0.008157570332158137,0.01935318562850454,0.02687954524714463,0.02074643410742283,0.07544297724962234,-0.055802278220653534,-0.005870819091796875,-0.0007988661527633667,-0.026218414306640625,-0.2192723196752471,2.1766780559552665,3.020363516899192,0.8023185729980469,0.21751941740512848,0.5558514595031738, 182, 105, 1, 141
1731319935236,9i,5.525374524593962,1.4s : 0.4s,5.880220492429373,0.008369908095750684,0.02814138297850434,0.02343161844814074,0.02592814713716507,0.057874906808137894,-0.039211057126522064,-0.009159266948699951,0.010869607329368591,-0.018627941608428955,-0.21946456439201406,2.176547047478157,3.0200647735262023,0.8023569583892822,0.2177070677280426,0.5557225346565247, 182, 105, 1, 141
1731319935246,9i,5.525374524593962,1.4s : 0.4s,5.880220492429373,0.008576828817785558,0.039307911971807566,0.024588504241597416,0.07157785445451736,0.06870269775390625,-0.034278515726327896,-0.01180732250213623,0.019007936120033264,-0.010192155838012695,-0.21989683052238937,2.17650273655821,3.01972532366119,0.8023043274879456,0.21812893450260162,0.5556334257125854, 182, 105, 1, 141
1731319935256,9i,5.525374524593962,1.4s : 0.4s,5.880220492429373,0.008695191838772048,0.06870929333576156,0.05433773446468874,0.16949854791164398,0.11000805348157883,-0.06576985865831375,-0.022609829902648926,0.049054503440856934,0.005919516086578369,-0.22098928604444149,2.1768645285726755,3.018886000461685,0.8019065856933594,0.21919496357440948,0.5557873845100403, 182, 105, 1, 141
1731319935266,9i,5.525374524593962,1.4s : 0.4s,5.880220492429373,0.008705021884325603,0.10754334602308312,0.10214349747676199,0.24685287475585938,0.15666921436786652,-0.062453493475914,-0.03529858589172363,0.09004171192646027,0.03286021947860718,-0.22266082868286677,2.1777051102690828,3.017475578588232,0.8011370301246643,0.22082553803920746,0.5562515258789062, 182, 105, 1, 141
1731319935276,9i,5.525374524593962,1.4s : 0.4s,5.880220492429373,0.008689895631184092,0.16201446581782036,0.16440572290616856,0.3467158079147339,0.24468083679676056,-0.07997949421405792,-0.04055678844451904,0.14255911111831665,0.07114273309707642,-0.22483947526862058,2.179195734787239,3.0153483731509336,0.799910306930542,0.22294987738132477,0.5571687817573547, 182, 105, 1, 141
1731319935286,9i,5.525374524593962,1.4s : 0.4s,5.880220492429373,0.009063951376846015,0.234827928683987,0.19395762537794753,0.43337807059288025,0.39306196570396423,-0.1532396823167801,-0.03820830583572388,0.16817177832126617,0.08875775337219238,-0.22802524693717105,2.1817249273629367,3.012776210487745,0.7979130744934082,0.2260543256998062,0.5587800741195679, 182, 105, 1, 141
1731319935296,9i,5.525374524593962,1.4s : 0.4s,5.880220492429373,0.010406197772860764,0.3356080099328691,0.21639957831086143,0.570388913154602,0.607778012752533,-0.1865563541650772,-0.06622880697250366,0.15021346509456635,0.14099091291427612,-0.232255338817476,2.1859448472138174,3.009618374989811,0.7947598099708557,0.23017288744449615,0.5615853071212769, 182, 105, 1, 141
1731319935306,9i,5.525374524593962,1.4s : 0.4s,5.880220492429373,0.013082748841619755,0.47710211561013977,0.2908864023444921,0.8007763028144836,0.8677225112915039,-0.23922915756702423,-0.08926153182983398,0.1762584149837494,0.21349531412124634,-0.23785862545245037,2.1922205190617086,3.005207413152186,0.7901588678359985,0.2356220781803131,0.5658021569252014, 182, 105, 1, 141
1731319935316,9i,5.525374524593962,1.4s : 0.4s,5.880220492429373,0.017565359227393884,0.6471810520102705,0.43175084028557337,0.9987519979476929,1.1446744203567505,-0.3426966965198517,-0.09507954120635986,0.25174933671951294,0.3376254439353943,-0.24550625655518749,2.200873364591041,2.999347243887712,0.7837545871734619,0.24304743111133575,0.5715394616127014, 182, 105, 1, 141
1731319935326,9i,5.525374524593962,1.4s : 0.4s,5.880220492429373,0.024385623889956715,0.8419989536582493,0.5731467695660583,1.239304780960083,1.415817379951477,-0.4411223530769348,-0.1008191704750061,0.3461938500404358,0.4455137848854065,-0.2551999755899143,2.2120471913258064,2.9925715102186903,0.7753947973251343,0.25243890285491943,0.5788244009017944, 182, 105, 1, 141
1731319935336,9i,5.525374524593962,1.4s : 0.4s,5.880220492429373,0.03398654994160528,1.0559905444966797,0.7273440767259802,1.5647730827331543,1.614174485206604,-0.567531943321228,-0.10768759250640869,0.4944121539592743,0.5224838852882385,-0.26766852038556743,2.2250436804611815,2.9842023269115785,0.7652497291564941,0.2644836902618408,0.5868915319442749, 182, 105, 1, 141
1731319935346,9i,5.525374524593962,1.4s : 0.4s,5.880220492429373,0.04667741505429805,1.2893475879118685,0.8918608624004039,1.9306331872940063,1.8189741373062134,-0.6700200438499451,-0.13414651155471802,0.6532537937164307,0.5921823978424072,-0.2832582133643823,2.2393897910882337,2.973844196918308,0.7534245848655701,0.2794854938983917,0.5951808094978333, 182, 105, 1, 141
1731319935356,9i,5.525374524593962,1.4s : 0.4s,5.880220492429373,0.06252264213445159,1.545654385127644,1.0368625056566612,2.3451104164123535,2.020033121109009,-0.8142997026443481,-0.19803643226623535,0.7999972105026245,0.6291819214820862,-0.30228759943079,2.2549525478916044,2.9613855614878997,0.7398149967193604,0.2977048456668854,0.6033625602722168, 182, 105, 1, 141
1731319935366,9i,5.525374524593962,1.4s : 0.4s,5.880220492429373,0.08134310087593864,1.8357287369701853,1.1471130613022325,2.8608150482177734,2.1930887699127197,-1.0586005449295044,-0.31736278533935547,0.872111439704895,0.6742187142372131,-0.3260321062126036,2.271408498468482,2.9466439007242093,0.724177360534668,0.32028669118881226,0.6107243895530701, 182, 105, 1, 141
1731319935376,9i,5.525374524593962,1.4s : 0.4s,5.880220492429373,0.1026150012360787,2.111035307851528,1.2100080882356234,2.9762165546417236,2.494626998901367,-1.3439337015151978,-0.4729520082473755,0.8502635359764099,0.7193663120269775,-0.354454041390864,2.289466316467267,2.9312020014301665,0.7058926224708557,0.3470783829689026,0.6174566149711609, 182, 105, 1, 141
1731319935386,9i,5.525374524593962,1.4s : 0.4s,5.880220492429373,0.12649830714343557,2.3621030141463897,1.364198856158393,3.0276241302490234,2.7921764850616455,-1.5512537956237793,-0.647651731967926,0.8614178895950317,0.8363880515098572,-0.3852548241694924,2.3110276664994855,2.917642220738199,0.6841963529586792,0.37579530477523804,0.6250228881835938, 182, 105, 1, 141
1731319935396,9i,5.525374524593962,1.4s : 0.4s,5.880220492429373,0.15366264923652412,2.6153308787542544,1.592875903019978,3.2131152153015137,3.1088333129882812,-1.7020009756088257,-0.8074550032615662,0.9434438943862915,0.9975889325141907,-0.41842097040149295,2.335571951543793,2.9050679894045515,0.6592922806739807,0.40631815791130066,0.6326454877853394, 182, 105, 1, 141
1731319935406,9i,5.525374524593962,1.4s : 0.4s,5.880220492429373,0.18379187375934242,2.916342097037032,1.6927261856242115,3.6331887245178223,3.47354793548584,-1.961363434791565,-0.9106929898262024,1.025526762008667,0.9920963048934937,-0.4556707223738466,2.3632216834211337,2.892376744171743,0.6304805278778076,0.4400646984577179,0.6394043564796448, 182, 105, 1, 141
1731319935416,9i,5.525374524593962,1.4s : 0.4s,5.880220492429373,0.2166835360708988,3.2595364166404477,1.7937306655306249,3.9427571296691895,3.9563846588134766,-2.3441288471221924,-0.9959281086921692,1.1383140087127686,0.9642811417579651,-0.4979984325359351,2.3948380680987666,2.880445091001724,0.5967580080032349,0.47766804695129395,0.6447585821151733, 182, 105, 1, 141
1731319935426,9i,5.525374524593962,1.4s : 0.4s,5.880220492429373,0.25246082859555014,3.636911258042425,1.9246517237639587,4.354920864105225,4.358999729156494,-2.726210355758667,-1.0470401048660278,1.2415486574172974,1.032738208770752,-0.5457643972024468,2.431547617210114,2.8705369024997025,0.5571719408035278,0.5190715789794922,0.648170530796051, 182, 105, 1, 141
1731319935436,9i,5.525374524593962,1.4s : 0.4s,5.880220492429373,0.2908378804839957,4.0161468224230354,1.9915424178161931,4.7301554679870605,4.640108108520508,-3.085148811340332,-0.986046314239502,1.317493200302124,1.1216797828674316,-0.5992672089846279,2.4723691113003206,2.8627845395452876,0.5122759938240051,0.5640375018119812,0.6476380825042725, 182, 105, 1, 141
1731319935446,9i,5.525374524593962,1.4s : 0.4s,5.880220492429373,0.3307450944266188,4.366543923322715,1.9419497884008368,4.977653980255127,4.715155124664307,-3.5934906005859375,-0.8120031356811523,1.32553231716156,1.1639518737792969,-0.6580447796792706,2.517274934824477,2.8595539562177152,0.4624852240085602,0.6115710735321045,0.6419416069984436, 182, 105, 1, 141
1731319935456,9i,5.525374524593962,1.4s : 0.4s,5.880220492429373,0.37150806312167245,4.691041824911386,1.9238947438908447,5.184776782989502,4.786930561065674,-4.05960750579834,-0.6333588361740112,1.3842544555664062,1.1764638423919678,-0.7215448404414978,2.5671932612466004,2.863382625643071,0.4079252779483795,0.660545289516449,0.6302992701530457, 182, 105, 1, 141
1731319935466,9i,5.525374524593962,1.4s : 0.4s,5.880220492429373,0.41275995455071907,4.9761334591780875,1.9267281582397706,5.275649547576904,4.783971309661865,-4.523134231567383,-0.5204086303710938,1.4535837173461914,1.15262770652771,-0.7883370991599061,2.624001436338001,2.8764836437280668,0.3488386869430542,0.7091818451881409,0.612677276134491, 182, 105, 1, 141
1731319935476,9i,5.525374524593962,1.4s : 0.4s,5.880220492429373,0.45396378846230134,5.260930978950185,1.8692166292182715,5.554774284362793,4.753438472747803,-5.013518333435059,-0.4298275411128998,1.491384744644165,1.0416288375854492,-0.8581930862718822,2.689911727317807,2.9014857981929763,0.28537240624427795,0.7566624283790588,0.5882391929626465, 182, 105, 1, 141
1731319935486,9i,5.525374524593962,1.4s : 0.4s,5.880220492429373,0.4950676988684848,5.561303458104761,1.8641910847864016,5.761908531188965,4.8338422775268555,-5.587644100189209,-0.35871750116348267,1.5408879518508911,0.9859992265701294,-0.9312107853523102,2.7700857119224502,2.942930187553266,0.21667316555976868,0.8023431897163391,0.5561457276344299, 182, 105, 1, 141
1731319935496,9i,5.525374524593962,1.4s : 0.4s,5.880220492429373,0.0,0.0,1.9735708852800735,6.201125621795654,4.936676025390625,-6.000144958496094,-0.30155330896377563,1.6564297676086426,1.02970290184021,-1.0059177176518221,2.8717101617254808,3.0070469409313856,0.14272435009479523,0.8446536064147949,0.5159364342689514, 182, 105, 1, 141
1731319935506,9i,5.525374524593962,1.4s : 0.4s,5.880220492429373,0.579367140943353,0.0,2.2174724387656646,6.732720375061035,4.933708667755127,-6.448026657104492,-0.17847388982772827,1.9034347534179688,1.1235066652297974,-1.0819298102758887,3.003145225961484,3.102086790913433,0.06481092423200607,0.8828657269477844,0.46513181924819946, 182, 105, 1, 141
1731319935516,9i,5.525374524593962,1.4s : 0.4s,5.880220492429373,0.6243831842886038,0.0,2.439072659535156,7.083573341369629,4.796440124511719,-6.854231357574463,0.023578748106956482,2.0863447189331055,1.2632043361663818,-1.154256795296832,-3.1016710027530228,-3.036766880162514,-0.01614796184003353,0.914494514465332,0.40427643060684204, 182, 105, 1, 141
1731319935526,9i,5.525374524593962,1.4s : 0.4s,5.880220492429373,0.671713650590075,6.88944679918653,2.6166023774759846,7.612267017364502,4.611093997955322,-7.147073745727539,0.2166597694158554,2.2152810096740723,1.375571370124817,-1.215565787353094,-2.854747207860299,-2.8211836211920236,-0.0984044298529625,0.937566339969635,0.3335963487625122, 182, 105, 1, 141
1731319935536,9i,5.525374524593962,1.4s : 0.4s,5.880220492429373,0.720916991310027,7.142276032560705,2.708763317500186,7.83536434173584,4.292893886566162,-7.335913181304932,0.4335523247718811,2.2426681518554688,1.4559775590896606,-1.2539356232507441,-2.5265476532058746,-2.5205804324313106,-0.1797836869955063,0.9502182602882385,0.25448712706565857, 182, 105, 1, 141
1731319935546,9i,5.525374524593962,1.4s : 0.4s,5.880220492429373,0.7716745171199997,7.3392849499497945,2.782465358058535,7.8028364181518555,3.961982488632202,-7.711848258972168,0.628808319568634,2.169543981552124,1.6247438192367554,-1.254487565344724,-2.152788443286063,-2.170650804131786,-0.2598510980606079,0.950390100479126,0.1709870547056198, 182, 105, 1, 141
1731319935556,9i,5.525374524593962,1.4s : 0.4s,5.880220492429373,0.8235437044088951,7.441774251547807,2.8072543808496078,7.249379634857178,3.6828041076660156,-8.132182121276855,0.7643574476242065,2.059980869293213,1.7472589015960693,-1.2121483410578195,-1.825260794865099,-1.863950632747555,-0.33970561623573303,0.9363722205162048,0.08835842460393906, 182, 105, 1, 141
1731319935566,9i,5.525374524593962,1.4s : 0.4s,5.880220492429373,0.8751222010257399,7.460595642869329,2.666888967039632,6.842288017272949,3.520272731781006,-8.175623893737793,0.8817750215530396,1.8639500141143799,1.6912894248962402,-1.1407666331769533,-1.5946867556225672,-1.6531896854154153,-0.4167789816856384,0.9089533686637878,0.009958923794329166, 182, 105, 1, 141
1731319935576,9i,5.525374524593962,1.4s : 0.4s,5.880220492429373,0.9260926799584847,7.441973666017031,2.6573290206780946,6.637535095214844,3.274019479751587,-8.222745895385742,1.0509995222091675,1.8338277339935303,1.6105506420135498,-1.0552315838016864,-1.4381918611622648,-1.515345189926696,-0.48869818449020386,0.8700144290924072,-0.06518609076738358, 182, 105, 1, 141
1731319935586,9i,5.525374524593962,1.4s : 0.4s,5.880220492429373,0.9773094600401567,7.414765760598509,2.794556527058207,6.681910514831543,3.038037061691284,-8.165372848510742,1.2116966247558594,1.9303439855575562,1.6171300411224365,-0.9622499396409573,-1.327480701179067,-1.4213721306926297,-0.5548364520072937,0.8204798698425293,-0.13772913813591003, 182, 105, 1, 141
1731319935596,9i,5.525374524593962,1.4s : 0.4s,5.880220492429373,1.029656418833809,7.389229577470863,2.9243687631020845,6.858456134796143,2.837669610977173,-8.035531997680664,1.3014841079711914,2.0436878204345703,1.6375017166137695,-0.8656056876498532,-1.2435010078064932,-1.3520446557916592,-0.6137708425521851,0.7614880204200745,-0.20837867259979248, 182, 105, 1, 141
1731319935606,9i,5.525374524593962,1.4s : 0.4s,5.880220492429373,1.0835170237620382,7.33928064725315,3.020634513261391,6.881170272827148,2.5464043617248535,-7.899425983428955,1.3867685794830322,2.1179659366607666,1.6478246450424194,-0.7669452910700418,-1.1781041587987753,-1.2987852566377163,-0.6652266383171082,0.6939389705657959,-0.2755405008792877, 182, 105, 1, 141
1731319935616,9i,5.525374524593962,1.4s : 0.4s,5.880220492429373,1.1392255173960106,7.258274430785043,3.1202076588584813,6.918223857879639,2.120529890060425,-7.694441795349121,1.4627765417099,2.153728723526001,1.7197189331054688,-0.6678271843495955,-1.1273355685301465,-1.2566563091646727,-0.7092214822769165,0.6192814111709595,-0.3368909955024719, 182, 105, 1, 141
1731319935626,9i,5.525374524593962,1.4s : 0.4s,5.880220492429373,1.1964131995944776,0.0,3.146331054198705,6.741482734680176,1.5393263101577759,-7.511040687561035,1.5428887605667114,2.0824453830718994,1.7839043140411377,-0.5693933448989713,-1.0895408362541532,-1.222586053441906,-0.7465633749961853,0.5391212105751038,-0.3898611068725586, 182, 105, 1, 141
1731319935636,9i,5.525374524593962,1.4s : 0.4s,5.880220492429373,1.2537958007733316,6.940006015892419,3.043682317960253,6.348443508148193,1.0935465097427368,-7.305397033691406,1.612004041671753,1.860715627670288,1.7897436618804932,-0.47321627830242896,-1.0635978534760833,-1.1960749807228546,-0.778050422668457,0.4557514786720276,-0.4323520362377167, 182, 105, 1, 141
1731319935646,9i,5.525374524593962,1.4s : 0.4s,5.880220492429373,1.3105338674432143,0.0,2.9085624539250747,5.924600601196289,0.835938036441803,-7.0906219482421875,1.604893445968628,1.7164735794067383,1.713992714881897,-0.38051824683029384,-1.045887133650892,-1.1759678373229006,-0.8034716844558716,0.37140169739723206,-0.46528950333595276, 182, 105, 1, 141
1731319935656,9i,5.525374524593962,1.4s : 0.4s,5.880220492429373,1.3661768619921493,6.467880914328927,2.753816311832967,5.490392684936523,0.5376104712486267,-6.869889259338379,1.534250020980835,1.6623951196670532,1.5703577995300293,-0.29156249258983263,-1.034125721947272,-1.1606807799064565,-0.8231448531150818,0.2874491214752197,-0.48969951272010803, 182, 105, 1, 141
1731319935666,9i,5.525374524593962,1.4s : 0.4s,5.880220492429373,1.4200837819758143,6.192620585841378,2.5923624238091465,5.043698310852051,0.18768633902072906,-6.613663196563721,1.504067063331604,1.579010248184204,1.4017317295074463,-0.2067925171380229,-1.0277519808076052,-1.1492261683677694,-0.8378990292549133,0.20532181859016418,-0.5057352781295776, 182, 105, 1, 141
1731319935676,9i,5.525374524593962,1.4s : 0.4s,5.880220492429373,1.4717042569233048,5.880968862567446,2.4670784562936894,4.45347261428833,-0.14442716538906097,-6.330338954925537,1.5438838005065918,1.4510462284088135,1.2638685703277588,-0.12696159899967316,-1.026402651732538,-1.1414488593541343,-0.8485562205314636,0.12662078440189362,-0.513731062412262, 182, 105, 1, 141
1731319935686,9i,5.525374524593962,1.4s : 0.4s,5.880220492429373,1.5207473546630816,5.5670791421646975,2.360650595418731,3.9948806762695312,-0.4238566756248474,-6.0605034828186035,1.5843358039855957,1.3332809209823608,1.133540153503418,-0.05225599764289899,-1.0288667693477707,-1.13676056509101,-0.8555455803871155,0.05223221704363823,-0.5150859355926514, 182, 105, 1, 141
1731319935696,9i,5.525374524593962,1.4s : 0.4s,5.880220492429373,1.5673020501392563,5.265177141140999,2.259670314371827,3.543504238128662,-0.6590425372123718,-5.846931457519531,1.572335958480835,1.2387996912002563,1.0484488010406494,0.018006186109875557,-1.0342772538876945,-1.1343413876170683,-0.8593539595603943,-0.018005212768912315,-0.5110644698143005, 182, 105, 1, 141
1731319935706,9i,5.525374524593962,1.4s : 0.4s,5.880220492429373,1.6115990009869168,4.974286853930135,2.150752003021331,3.0707314014434814,-0.7692757248878479,-5.645286560058594,1.5114517211914062,1.150891900062561,1.0083132982254028,0.08420390803207511,-1.0414608587694507,-1.1346001812063138,-0.8600847721099854,-0.08410444110631943,-0.5031708478927612, 182, 105, 1, 141
1731319935716,9i,5.525374524593962,1.4s : 0.4s,5.880220492429373,1.6540546870777568,4.686870920154547,2.0706478078511616,2.661001205444336,-0.7808056473731995,-5.370464324951172,1.448094367980957,1.1165516376495361,0.971554160118103,0.14612404629041303,-1.0489069964073654,-1.136920974623472,-0.8576405048370361,-0.14560459554195404,-0.49320611357688904, 182, 105, 1, 141
1731319935726,9i,5.525374524593962,1.4s : 0.4s,5.880220492429373,1.6947731828317996,4.399019877817969,2.006186910524087,2.240845203399658,-0.878070592880249,-5.0744194984436035,1.438974380493164,1.1145960092544556,0.8436909317970276,0.2034916276402632,-1.0562375076490833,-1.1409421294299176,-0.8525487184524536,-0.20209014415740967,-0.4819962978363037, 182, 105, 1, 141
1731319935736,9i,5.525374524593962,1.4s : 0.4s,5.880220492429373,1.733886530470096,4.136362470176204,1.9982198894271412,1.9269639253616333,-1.0661529302597046,-4.840178966522217,1.4998457431793213,1.108337640762329,0.7175884246826172,0.25671711913955836,-1.0644958029566993,-1.1467305390066862,-0.8458846807479858,-0.25390663743019104,-0.4690529704093933, 182, 105, 1, 141
1731319935746,9i,5.525374524593962,1.4s : 0.4s,5.880220492429373,1.7711074129801834,3.890043355485417,1.9801576303676758,1.697410225868225,-1.2473291158676147,-4.540005207061768,1.5901011228561401,1.0369369983673096,0.5633509755134583,0.3064673847249629,-1.0740923191569047,-1.1529694743327625,-0.8381938934326172,-0.30169251561164856,-0.45432665944099426, 182, 105, 1, 141
1731319935756,9i,5.525374524593962,1.4s : 0.4s,5.880220492429373,1.805461608411442,3.671252532777585,1.9293746523928301,1.4629130363464355,-1.4754035472869873,-4.309171676635742,1.692173957824707,0.8632931709289551,0.33728140592575073,0.3528709032868977,-1.0852597699986661,-1.1599468746811448,-0.8299304246902466,-0.34559324383735657,-0.43792808055877686, 182, 105, 1, 141
1731319935766,9i,5.525374524593962,1.4s : 0.4s,5.880220492429373,1.8370009885229621,3.4689095970833135,1.9598667793716475,1.2416387796401978,-1.6974444389343262,-4.033809185028076,1.8070529699325562,0.7244848012924194,0.22529786825180054,0.3959767012939216,-1.0982644441912,-1.16732752308619,-0.8215185403823853,-0.3857094943523407,-0.41992345452308655, 182, 105, 1, 141
1731319935776,9i,5.525374524593962,1.4s : 0.4s,5.880220492429373,1.8681415527874499,3.290026438868717,1.982219881758356,1.0387167930603027,-1.8733822107315063,-3.805412530899048,1.8692386150360107,0.6264818906784058,0.2065504789352417,0.4359690212331989,-1.112873762744654,-1.1749270164548522,-0.8130712509155273,-0.4222889840602875,-0.4007335901260376, 182, 105, 1, 141
1731319935785,9i,5.525374524593962,1.4s : 0.4s,5.880220492429373,1.8970113268536855,3.1350568070563205,1.9330896262682675,0.9436212182044983,-1.8974175453186035,-3.618252992630005,1.8435900211334229,0.5154374837875366,0.2689526677131653,0.4737065612123572,-1.1282642540898014,-1.182729579824731,-0.8041614294052124,-0.45618781447410583,-0.3810739815235138, 182, 105, 1, 141
1731319935795,9i,5.525374524593962,1.4s : 0.4s,5.880220492429373,1.9239196010825996,2.9793511191447686,1.7988886166287206,0.6933019161224365,-1.887759804725647,-3.404205083847046,1.723663568496704,0.37183311581611633,0.35598355531692505,0.5086767407075387,-1.1432423218995964,-1.1903602771429267,-0.7947696447372437,-0.48702195286750793,-0.36214780807495117, 182, 105, 1, 141
1731319935805,9i,5.525374524593962,1.4s : 0.4s,5.880220492429373,1.9488513499122548,2.8255105648413528,1.659122476728345,0.5023911595344543,-1.818343997001648,-3.206353187561035,1.5955030918121338,0.2441309094429016,0.38400179147720337,0.5414053643700735,-1.1570722425608366,-1.1993649507984088,-0.7846816182136536,-0.5153408646583557,-0.344527006149292, 182, 105, 1, 141
1731319935815,9i,5.525374524593962,1.4s : 0.4s,5.880220492429373,1.9717999473041943,2.6460892674715857,1.534594006608637,0.3576675355434418,-1.664721965789795,-2.886526107788086,1.481541633605957,0.15449947118759155,0.3689756989479065,0.5709784387562048,-1.1693473683670441,-1.208590187331697,-0.7744800448417664,-0.5404555201530457,-0.3287684917449951, 182, 105, 1, 141
1731319935825,9i,5.525374524593962,1.4s : 0.4s,5.880220492429373,1.9924221788886456,2.466066679239343,1.4091107500648004,0.30984142422676086,-1.6218661069869995,-2.5924527645111084,1.3790569305419922,0.05441451072692871,0.28431347012519836,0.5974826007045235,-1.1808101743494945,-1.2170677879659066,-0.7646772265434265,-0.5625630021095276,-0.3143119513988495, 182, 105, 1, 141
1731319935835,9i,5.525374524593962,1.4s : 0.4s,5.880220492429373,2.010609906940201,2.2863561479098613,1.3361016617074546,0.16984091699123383,-1.5922785997390747,-2.312265396118164,1.3188897371292114,-0.04229462146759033,0.20954397320747375,0.6210780818326003,-1.1920364126689993,-1.2251055542452198,-0.7556117177009583,-0.5819122791290283,-0.30071496963500977, 182, 105, 1, 141
1731319935845,9i,5.525374524593962,1.4s : 0.4s,5.880220492429373,2.0264040808974704,2.1114094957573406,1.281900754076953,0.0681883841753006,-1.5276782512664795,-2.0631189346313477,1.2625609636306763,-0.14371603727340698,0.16898241639137268,0.6417826506017229,-1.2026154405354943,-1.2331451698620244,-0.7473480701446533,-0.5986243486404419,-0.2883058488368988, 182, 105, 1, 141
1731319935855,9i,5.525374524593962,1.4s : 0.4s,5.880220492429373,2.0398539763938834,1.9454025062585327,1.197187540329181,-0.23151390254497528,-1.4135797023773193,-1.891990065574646,1.1633245944976807,-0.23869198560714722,0.15152567625045776,0.6599589240265255,-1.2115080151521702,-1.2423138969027292,-0.7395728826522827,-0.6130843758583069,-0.2777765989303589, 182, 105, 1, 141
1731319935865,9i,5.525374524593962,1.4s : 0.4s,5.880220492429373,2.0511230475198534,1.782479995439969,1.0741777770191026,-0.514856219291687,-1.2567449808120728,-1.6936028003692627,1.0062891244888306,-0.32247287034988403,0.19300606846809387,0.6754333176335989,-1.2170735346507213,-1.2544986475450255,-0.7321193218231201,-0.6252355575561523,-0.27033731341362, 182, 105, 1, 141
1731319935875,9i,5.525374524593962,1.4s : 0.4s,5.880220492429373,2.060522690923652,1.6056706988672722,0.9535603971368887,-0.6355645060539246,-1.0335105657577515,-1.4132301807403564,0.8395419716835022,-0.37226128578186035,0.25664809346199036,0.688011263382224,-1.219667095874435,-1.2680848874431734,-0.7253757119178772,-0.6350021362304688,-0.2657114267349243, 182, 105, 1, 141
1731319935885,9i,5.525374524593962,1.4s : 0.4s,5.880220492429373,2.0680447240019024,1.420067156561417,0.860844042041203,-0.6356933116912842,-0.8731164336204529,-1.1024125814437866,0.7091731429100037,-0.4214373826980591,0.24600091576576233,0.6975932651478611,-1.2206383794616573,-1.2810257173286284,-0.7198848128318787,-0.6423750519752502,-0.26290732622146606, 182, 105, 1, 141
1731319935895,9i,5.525374524593962,1.4s : 0.4s,5.880220492429373,2.074033058768884,1.2275116133616268,0.7728503226931475,-0.5752467513084412,-0.7043029069900513,-0.811136782169342,0.627492368221283,-0.399395227432251,0.20984375476837158,0.7044933512461227,-1.2209269646099856,-1.2924948860319017,-0.715779721736908,-0.6476478576660156,-0.2611740529537201, 182, 105, 1, 141
1731319935905,9i,5.525374524593962,1.4s : 0.4s,5.880220492429373,2.0790802404135285,1.0335147568321252,0.6707858294470694,-0.4641171395778656,-0.5913015007972717,-0.5236940979957581,0.563015878200531,-0.31628143787384033,0.181473970413208,0.7089063090211838,-1.2213308258644575,-1.3014814413759526,-0.7131929397583008,-0.6510039567947388,-0.25990381836891174, 182, 105, 1, 141
1731319935915,9i,5.525374524593962,1.4s : 0.4s,5.880220492429373,2.0833574967837087,0.8595999632814371,0.580825820664081,-0.4820721745491028,-0.4557977318763733,-0.34311312437057495,0.4979844093322754,-0.26652801036834717,0.13539934158325195,0.7113742630164585,-1.2215761697568484,-1.3088385474679165,-0.7117448449134827,-0.6528753638267517,-0.2591783106327057, 182, 105, 1, 141
1731319935925,9i,5.525374524593962,1.4s : 0.4s,5.880220492429373,2.0867670199177364,0.6985199805634057,0.5100225929768577,-0.5986449718475342,-0.2534986734390259,-0.12112246453762054,0.42536503076553345,-0.2639904022216797,0.09745103120803833,0.7117631733983,-1.2200162897581863,-1.3162798528263873,-0.7111011743545532,-0.6531698703765869,-0.26020094752311707, 182, 105, 1, 141
1731319935935,9i,5.525374524593962,1.4s : 0.4s,5.880220492429373,2.08928489662089,0.5744607508871271,0.4444525660784054,-0.7636624574661255,-0.09509919583797455,0.11886163800954819,0.3432897925376892,-0.2684759497642517,0.08724027872085571,0.7094286946772573,-1.21625459446676,-1.324307940637731,-0.7115454077720642,-0.6514003872871399,-0.26340270042419434, 182, 105, 1, 141
1731319935945,9i,5.525374524593962,1.4s : 0.4s,5.880220492429373,2.0911046348620346,0.5046026925832443,0.40177597413107163,-0.8481758236885071,0.040617264807224274,0.3525127172470093,0.2971497178077698,-0.2563110589981079,0.08620104193687439,0.7043565610690258,-1.2107413390992487,-1.3330085868066168,-0.7131654024124146,-0.6475436687469482,-0.2684822678565979, 182, 105, 1, 141
1731319935955,9i,5.525374524593962,1.4s : 0.4s,5.880220492429373,0.0,0.0,0.3687947625916336,-0.7730384469032288,0.20979830622673035,0.585864245891571,0.2718668580055237,-0.2352689504623413,0.08213713765144348,0.697050739166716,-1.2044202649441738,-1.340413338583922,-0.715851902961731,-0.6419591903686523,-0.2746722996234894, 182, 105, 1, 141
1731319935965,9i,5.525374524593962,1.4s : 0.4s,5.880220492429373,2.093410649314425,0.0,0.33507027156067776,-0.7096469402313232,0.3634689152240753,0.7301068902015686,0.25659483671188354,-0.209314227104187,0.05117353796958923,0.6882069447358933,-1.1978908903222734,-1.3460025882500826,-0.7193024158477783,-0.6351532936096191,-0.28139790892601013, 182, 105, 1, 141
1731319935975,9i,5.525374524593962,1.4s : 0.4s,5.880220492429373,2.094272111356341,0.0,0.3025412549250924,-0.6238499879837036,0.5027373433113098,0.8878381848335266,0.25840485095977783,-0.1548091173171997,0.028147488832473755,0.6782912461589673,-1.1908844246965862,-1.3498112056071647,-0.7231264710426331,-0.6274634003639221,-0.2887520492076874, 182, 105, 1, 141
1731319935985,9i,5.525374524593962,1.4s : 0.4s,5.880220492429373,2.095070216492832,0.0,0.3062289886037121,-0.5652133822441101,0.5751318335533142,1.0770795345306396,0.27938103675842285,-0.12359678745269775,-0.021124958992004395,0.6669869713320579,-1.1839800267536096,-1.3519218590530049,-0.7276385426521301,-0.6186214685440063,-0.2963949143886566, 182, 105, 1, 141
1731319935995,9i,5.525374524593962,1.4s : 0.4s,5.880220492429373,2.0958568540388374,0.7254302051081293,0.3625039786005923,-0.5204653143882751,0.6132754683494568,1.2387776374816895,0.33300524950027466,-0.11663055419921875,-0.08315017819404602,0.654243196163422,-1.1776431884304497,-1.3522757609056009,-0.7329686284065247,-0.6085588932037354,-0.3039955198764801, 182, 105, 1, 141
1731319936005,9i,5.525374524593962,1.4s : 0.4s,5.880220492429373,2.096682263707173,0.8309112582406657,0.40697170642548053,-0.6070769429206848,0.6496027112007141,1.3627066612243652,0.3802754878997803,-0.11358791589736938,-0.09007945656776428,0.6401353908788919,-1.1712843036447003,-1.3521692273108437,-0.7388569712638855,-0.5973040461540222,-0.31195881962776184, 182, 105, 1, 141
1731319936015,9i,5.525374524593962,1.4s : 0.4s,5.880220492429373,2.097618322568194,0.9527225685470341,0.40703125753450264,-0.7528181672096252,0.7260591387748718,1.523495078086853,0.3833632469177246,-0.12382233142852783,-0.058095574378967285,0.6242337254360437,-1.1639535844001017,-1.3527148547959924,-0.7451797127723694,-0.5844756960868835,-0.32108500599861145, 182, 105, 1, 141
1731319936025,9i,5.525374524593962,1.4s : 0.4s,5.880220492429373,2.0986294894493067,1.0921626934370172,0.3852217608693007,-0.7748716473579407,0.8568452596664429,1.7762988805770874,0.3593578338623047,-0.13831007480621338,-0.011317044496536255,0.6061383197691133,-1.1556932848968262,-1.3530806327324891,-0.7520580291748047,-0.5696979761123657,-0.331440806388855, 182, 105, 1, 141
1731319936035,9i,5.525374524593962,1.4s : 0.4s,5.880220492429373,0.0,1.23787961906434,0.3778792607857733,-0.6545324325561523,0.9832359552383423,2.053560495376587,0.3427414894104004,-0.15912556648254395,-0.00024750828742980957,0.5857254620047898,-1.1472802617015494,-1.3513767125368064,-0.7596880197525024,-0.5528040528297424,-0.3424646854400635, 182, 105, 1, 141
1731319936045,9i,5.525374524593962,1.4s : 0.4s,5.880220492429373,2.100795976425359,1.3688954218155207,0.3943554274138887,-0.43873873353004456,1.0681300163269043,2.248547077178955,0.3650735020637512,-0.14901387691497803,-0.005692601203918457,0.5639206084288295,-1.139625492933363,-1.346362440000651,-0.767814040184021,-0.5345038771629333,-0.3532243072986603, 182, 105, 1, 141
1731319936055,9i,5.525374524593962,1.4s : 0.4s,5.880220492429373,2.102299708816516,1.502054881780775,0.4338625565993019,-0.3622998893260956,1.1676630973815918,2.436213493347168,0.412680983543396,-0.13378101587295532,0.005810648202896118,0.5410699556265913,-1.1323156441374056,-1.3389924315753805,-0.7760691046714783,-0.515053391456604,-0.36391884088516235, 182, 105, 1, 141
1731319936065,9i,5.525374524593962,1.4s : 0.4s,5.880220492429373,2.104344958042057,1.645167195566631,0.49769279183238213,-0.40529629588127136,1.2546195983886719,2.649172782897949,0.4726181626319885,-0.1502162218093872,0.04201516509056091,0.5165555381285499,-1.1245761300558377,-1.330138244216185,-0.7843858003616333,-0.4938880205154419,-0.37525153160095215, 182, 105, 1, 141
1731319936075,9i,5.525374524593962,1.4s : 0.4s,5.880220492429373,2.1072167981841896,1.79894164612261,0.5933570971189792,-0.5238471627235413,1.3100788593292236,2.891416072845459,0.5526085495948792,-0.17981630563735962,0.11984378099441528,0.4896651903434592,-1.1161080792760265,-1.3209612699578197,-0.7928277254104614,-0.47033044695854187,-0.3875741958618164, 182, 105, 1, 141
1731319936085,9i,5.525374524593962,1.4s : 0.4s,5.880220492429373,2.111133565901147,1.9672296998803935,0.6998623975067348,-0.6681872010231018,1.4165664911270142,3.148775100708008,0.6321559548377991,-0.21644869446754456,0.2081734538078308,0.46002124028101676,-1.1066711966713851,-1.3117615741449293,-0.8012538552284241,-0.44396713376045227,-0.4011053144931793, 182, 105, 1, 141
1731319936095,9i,5.525374524593962,1.4s : 0.4s,5.880220492429373,2.1162642304771446,2.1567388959877207,0.7909193357111818,-0.6607505679130554,1.5738192796707153,3.476823329925537,0.7068215608596802,-0.22685450315475464,0.2729353606700897,0.42751415326894615,-1.0959386099520103,-1.3016994460500757,-0.8093149065971375,-0.41460996866226196,-0.41606250405311584, 182, 105, 1, 141
1731319936105,9i,5.525374524593962,1.4s : 0.4s,5.880220492429373,2.122851034521021,2.342539145272759,0.8601352454744414,-0.553911566734314,1.669123649597168,3.74796199798584,0.7851149439811707,-0.1804349720478058,0.30144715309143066,0.39267412885924097,-1.0846638752979905,-1.2891573697437726,-0.8168532848358154,-0.3826603889465332,-0.43165019154548645, 182, 105, 1, 141
1731319936115,9i,5.525374524593962,1.4s : 0.4s,5.880220492429373,2.1313022214856567,2.5203950723519495,0.9501910510521145,-0.5628038644790649,1.770230770111084,3.9622786045074463,0.879355251789093,-0.1045578122138977,0.34447792172431946,0.356188732739318,-1.0727399003058957,-1.274673190892756,-0.8233708143234253,-0.3487047255039215,-0.4477338492870331, 182, 105, 1, 141
1731319936125,9i,5.525374524593962,1.4s : 0.4s,5.880220492429373,2.142049334355347,2.702471166312534,1.0592591933345186,-0.7337148785591125,1.8760018348693848,4.2023210525512695,0.9503066539764404,-0.0502316951751709,0.4652140140533447,0.3174708026889389,-1.0594924535169266,-1.2595913414456357,-0.8285263180732727,-0.3121647536754608,-0.46486276388168335, 182, 105, 1, 141
1731319936135,9i,5.525374524593962,1.4s : 0.4s,5.880220492429373,2.1552743568580164,2.9102814742842886,1.1915159719643516,-1.0144329071044922,2.0122313499450684,4.533771514892578,1.0078144073486328,-0.05827781558036804,0.6329487562179565,0.2753269545015877,-1.0444110083256353,-1.2447809466670166,-0.8320637345314026,-0.27186158299446106,-0.48348864912986755, 182, 105, 1, 141
1731319936145,9i,5.525374524593962,1.4s : 0.4s,5.880220492429373,2.170745728367992,3.1532695123379275,1.3116379447175226,-1.3055428266525269,2.2072010040283203,4.923726558685303,1.0780141353607178,-0.10667784512042999,0.7395265102386475,0.22885678780030783,-1.0270161781295388,-1.2299898749350042,-0.8334464430809021,-0.2268642634153366,-0.5038848519325256, 182, 105, 1, 141
1731319936155,9i,5.525374524593962,1.4s : 0.4s,5.880220492429373,2.188297327722791,0.0,1.4161567814575957,-1.423498272895813,2.402024745941162,5.3214802742004395,1.1651798486709595,-0.12510977685451508,0.7951122522354126,0.1780607049547115,-1.007113072787047,-1.2144338948725937,-0.831928014755249,-0.17712128162384033,-0.5258554220199585, 182, 105, 1, 141
1731319936165,9i,5.525374524593962,1.4s : 0.4s,5.880220492429373,2.2080783235184773,3.673242886272586,1.52577611371253,-1.289113163948059,2.569720983505249,5.680794715881348,1.2676312923431396,-0.0893312618136406,0.8444664478302002,0.12455275558285843,-0.9850335799228634,-1.195544181144279,-0.8268355131149292,-0.12423096597194672,-0.5485525727272034, 182, 105, 1, 141
1731319936175,9i,5.525374524593962,1.4s : 0.4s,5.880220492429373,2.2300256324362246,3.909929246026927,1.6272321310736888,-1.4399333000183105,2.7189228534698486,5.895081996917725,1.3778071403503418,-0.07301101088523865,0.8626710176467896,0.0692411752357391,-0.9607494200005575,-1.1738888302952013,-0.8176572322845459,-0.06918586045503616,-0.5715331435203552, 182, 105, 1, 141
1731319936185,9i,5.525374524593962,1.4s : 0.4s,5.880220492429373,2.2541614566823966,4.154962065896898,1.7477493743759094,-1.7396296262741089,2.9131274223327637,6.176599025726318,1.4952077865600586,-0.07037651538848877,0.9022353887557983,0.01109059444898833,-0.9335618369045031,-1.1516922195929855,-0.8036949038505554,-0.01109036710113287,-0.5949384570121765, 182, 105, 1, 141
1731319936195,9i,5.525374524593962,1.4s : 0.4s,5.880220492429373,2.280568673676944,4.423653741568493,1.876442313178965,-2.076831579208374,3.11962890625,6.535680770874023,1.6226325035095215,-0.06280545890331268,0.9402951598167419,-0.050787924661300415,-0.9030027483822882,-1.128238156673615,-0.7841774821281433,0.05076609179377556,-0.6184565424919128, 182, 105, 1, 141
1731319936205,9i,5.525374524593962,1.4s : 0.4s,5.880220492429373,2.3091973545054465,4.723638834105463,2.031840949228115,-2.543233871459961,3.3846559524536133,6.903439044952393,1.773904800415039,-0.1148100346326828,0.9841026663780212,-0.11732188751311169,-0.8685459751559315,-1.103614983385043,-0.7581427693367004,0.11705292761325836,-0.6414968967437744, 182, 105, 1, 141
1731319936215,9i,5.525374524593962,1.4s : 0.4s,5.880220492429373,2.340377490769071,5.050381364950383,2.218908770055538,-2.796996593475342,3.774317502975464,7.292637348175049,1.9418275356292725,-0.1367054283618927,1.0649758577346802,-0.18819878500503837,-0.8287459680539269,-1.0766468271822809,-0.7240696549415588,0.18708978593349457,-0.6638679504394531, 182, 105, 1, 141
1731319936225,9i,5.525374524593962,1.4s : 0.4s,5.880220492429373,2.3746817718669546,5.405879947194663,2.4223316746642554,-2.9654245376586914,4.171302318572998,7.764179706573486,2.1323046684265137,-0.0981728732585907,1.1451330184936523,-0.2623030663218884,-0.7818043457997613,-1.0446811089346986,-0.6804617643356323,0.25930553674697876,-0.6853703856468201, 182, 105, 1, 141
1731319936235,9i,5.525374524593962,1.4s : 0.4s,5.880220492429373,2.4128074878259707,5.732822212424735,2.6402910905786046,-2.9774811267852783,4.361752510070801,8.114449501037598,2.326425552368164,-0.014540314674377441,1.248466968536377,-0.3382606011369046,-0.7274464192805823,-1.005313508653503,-0.6272832751274109,0.33184677362442017,-0.7045519948005676, 182, 105, 1, 141
1731319936245,9i,5.525374524593962,1.4s : 0.4s,5.880220492429373,2.4555199936512406,6.045896401117918,2.8811330771168926,-3.532048225402832,4.493587970733643,8.336357116699219,2.506239652633667,0.08202004432678223,1.4187893867492676,-0.4156049330084415,-0.6665243354887558,-0.9600494401898545,-0.5656270384788513,0.4037434458732605,-0.7190669775009155, 182, 105, 1, 141
1731319936255,9i,5.525374524593962,1.4s : 0.4s,5.880220492429373,2.50320314236956,6.444720014804227,3.134789827480022,-4.495241641998291,4.732072353363037,8.88470458984375,2.7152915000915527,0.13618269562721252,1.5606260299682617,-0.4983575387948419,-0.598061571582616,-0.9094487890569123,-0.4945581555366516,0.4779835045337677,-0.7259091138839722, 182, 105, 1, 141
1731319936265,9i,5.525374524593962,1.4s : 0.4s,5.880220492429373,2.5566298352479384,6.9534525316929745,3.472197298720832,-5.492582321166992,4.948119163513184,9.679840087890625,3.033114433288574,0.2366344928741455,1.6734321117401123,-0.5897657039544334,-0.5179192702630272,-0.848708951453588,-0.4114411175251007,0.5561663508415222,-0.7220770120620728, 182, 105, 1, 141
1731319936275,9i,5.525374524593962,1.4s : 0.4s,5.880220492429373,2.6169249946360913,7.533756418711688,3.9102486922500166,-6.614102840423584,4.950300693511963,10.442363739013672,3.472811222076416,0.3899441957473755,1.754300594329834,-0.6889620289258844,-0.42189578151069884,-0.7713323380761549,-0.3160884976387024,0.6357362866401672,-0.7042211890220642, 182, 105, 1, 141
1731319936285,9i,5.525374524593962,1.4s : 0.4s,5.880220492429373,2.685601011736823,8.243285661018149,4.449548208450461,-8.608301162719727,4.703449726104736,11.234922409057617,3.987826108932495,0.6042526364326477,1.878989338874817,-0.7977041719753912,-0.30510568314378705,-0.6706317756018251,-0.20978069305419922,0.7157546877861023,-0.6660985946655273, 182, 105, 1, 141
1731319936295,9i,5.525374524593962,1.4s : 0.4s,5.880220492429373,2.7644193621576387,9.16554448368179,5.04984339474357,-11.516388893127441,4.53645658493042,11.905143737792969,4.531888961791992,0.9749031066894531,2.0031137466430664,-0.9218965705724309,-0.1543817090781365,-0.5330077740387179,-0.09292428195476532,0.7967491745948792,-0.5971229672431946, 182, 105, 1, 141
1731319936315,9i,5.525374524593962,1.4s : 0.4s,5.880220492429373,2.949314853570828,10.420083166630192,6.016379246867086,-18.71279525756836,2.1667473316192627,10.200813293457031,5.444161415100098,1.6024646759033203,1.9975066184997559,-1.199401567538064,0.3995649740295634,0.008105165969691321,0.14118066430091858,0.9318220615386963,-0.33432909846305847, 182, 105, 1, 141
1731319936325,9i,5.525374524593962,1.4s : 0.4s,5.880220492429373,3.056564085698207,11.782524135844652,6.780235395162607,-22.104965209960938,-0.8364225029945374,8.93280029296875,6.096054553985596,2.0687389373779297,2.1283867359161377,-1.2954395021942162,1.0349300667556522,0.667896764734462,0.23377901315689087,0.9623282551765442,-0.13882368803024292, 182, 105, 1, 141
1731319936335,9i,5.525374524593962,1.4s : 0.4s,5.880220492429373,3.1824911116166925,12.883806490015873,7.959873021253447,-22.4885311126709,-3.460357904434204,8.092659950256348,6.874428749084473,3.1426634788513184,2.4950900077819824,-1.2422396710088282,1.7918571560815086,1.4790287539229328,0.3148256838321686,0.946509063243866,0.07075189799070358, 182, 105, 1, 141
1731319936344,9i,5.525374524593962,1.4s : 0.4s,5.880220492429373,3.329082036298605,0.0,8.886543460889206,-22.192495346069336,-6.102357864379883,7.445691108703613,7.110477447509766,4.172667503356934,3.3167169094085693,-1.0800670184301462,2.148933999160196,1.916792286039372,0.3946796655654907,0.8819894194602966,0.25753241777420044, 182, 105, 1, 141
1731319936354,9i,5.525374524593962,1.4s : 0.4s,5.880220492429373,3.4947193955233278,0.0,9.387454003256051,-22.04236602783203,-8.711197853088379,5.480520248413086,6.605076313018799,4.75653076171875,4.676823139190674,-0.8932268277406316,2.2801348888710398,2.1626724509891355,0.4756884276866913,0.7790986895561218,0.4083210527896881, 182, 105, 1, 141
1731319936364,9i,5.525374524593962,1.4s : 0.4s,5.880220492429373,3.6767979680812,0.0,10.177026766350503,-23.327125549316406,-10.814859390258789,1.724434494972229,5.037051200866699,5.2720842361450195,7.099656105041504,-0.7161354791786317,2.328030085745795,2.3657402563864296,0.5482146739959717,0.6564744114875793,0.5181726217269897, 182, 105, 1, 141
1731319936374,9i,5.525374524593962,1.4s : 0.4s,5.880220492429373,3.868037991386112,0.0,10.923111237761695,-23.3994140625,-12.267083168029785,0.030461832880973816,3.1062779426574707,4.673828601837158,9.371271133422852,-0.5464805375311673,2.3353100851900996,2.5716946732303434,0.616607129573822,0.5196835994720459,0.591375470161438, 182, 105, 1, 141
1731319936384,9i,5.525374524593962,1.4s : 0.4s,5.880220492429373,4.068796469955556,15.343545902802743,12.360448056566117,-19.2481632232666,-12.022934913635254,0.36759743094444275,2.130647659301758,4.464954376220703,11.327188491821289,-0.3998978791075945,2.289440752330998,2.7467965267852805,0.6933116316795349,0.38932427763938904,0.6064205169677734, 182, 105, 1, 141
1731319936394,9i,5.525374524593962,1.4s : 0.4s,5.880220492429373,4.275646142143637,14.39753145153927,12.190157828485443,-15.43738842010498,-10.546103477478027,-1.8104411363601685,1.5376336574554443,5.03593111038208,10.994318008422852,-0.2950367781490144,2.22918898862299,2.893937837649952,0.7567999958992004,0.29077503085136414,0.5854094624519348, 182, 105, 1, 141
1731319936404,9i,5.525374524593962,1.4s : 0.4s,5.880220492429373,4.468410093176391,13.331230372145438,9.261825787554077,-13.121118545532227,-10.038087844848633,-4.874142169952393,-0.07050049304962158,5.028539657592773,7.7775468826293945,-0.23942721466603772,2.1624822647891238,3.030302729765721,0.8063248991966248,0.23714621365070343,0.5418504476547241, 182, 105, 1, 141
1731319936414,9i,5.525374524593962,1.4s : 0.4s,5.880220492429373,4.628303556617199,0.0,4.184652478588934,-11.455991744995117,-9.349899291992188,-7.223849296569824,0.5809423923492432,1.840659737586975,3.7129225730895996,-0.22467165551573687,2.0979860272347772,-3.109434100652901,0.8425042033195496,0.22278627753257751,0.4904622435569763, 182, 105, 1, 141
1731319936424,9i,5.525374524593962,1.4s : 0.4s,5.880220492429373,4.761891717879451,0.0,4.898516813938726,-8.879047393798828,-9.31651496887207,-9.377175331115723,1.592653751373291,-1.4398908615112305,4.402912139892578,-0.24656542569032108,2.0316763260187067,-2.9809023282850164,0.8685736656188965,0.24407470226287842,0.43128612637519836, 182, 105, 1, 141
1731319936434,9i,5.525374524593962,1.4s : 0.4s,5.880220492429373,4.8813007599133,0.0,6.288257247275803,-7.19581937789917,-8.66275691986084,-10.88217544555664,-0.2116355299949646,-0.28481483459472656,6.278237819671631,-0.29909620763265093,1.9665103787437483,-2.866654848481868,0.8817558884620667,0.2946566641330719,0.3683537244796753, 182, 105, 1, 141
1731319936444,9i,5.525374524593962,1.4s : 0.4s,5.880220492429373,4.997445664438636,10.675373813668651,6.465330871768875,-6.428321361541748,-9.140875816345215,-12.193655967712402,-1.6657228469848633,0.6535689830780029,6.212786674499512,-0.3777507766539418,1.908799591922163,-2.75780138518643,0.8769045472145081,0.36883077025413513,0.3082248270511627, 182, 105, 1, 141
1731319936454,9i,5.525374524593962,1.4s : 0.4s,5.880220492429373,0.0,10.826085141285704,6.048825327712858,-5.278194904327393,-9.186277389526367,-14.450712203979492,-2.6040921211242676,1.0829885005950928,5.351086616516113,-0.4859976934664106,1.8598956499869632,-2.6511308315339672,0.8475159406661987,0.46709075570106506,0.25207850337028503, 182, 105, 1, 141
1731319936464,9i,5.525374524593962,1.4s : 0.4s,5.880220492429373,5.180994518692505,11.060503534765148,5.555082695274785,-3.528233766555786,-8.413949012756348,-16.1114444732666,-2.963717222213745,2.558253049850464,3.940896511077881,-0.621755938834413,1.8234490531490637,-2.5518508227504375,0.7870512008666992,0.5824633836746216,0.20319263637065887, 182, 105, 1, 141
1731319936474,9i,5.525374524593962,1.4s : 0.4s,5.880220492429373,5.25939347281258,11.160406169397303,4.852328314630352,-0.7093887329101562,-7.681020259857178,-16.546844482421875,-1.4867818355560303,3.746756076812744,2.7011828422546387,-0.7756408472357492,1.7922009355028647,-2.4750532820898035,0.6965446472167969,0.7001737952232361,0.15678852796554565, 182, 105, 1, 141
1731319936484,9i,5.525374524593962,1.4s : 0.4s,5.880220492429373,5.337076017148414,11.26551810806425,3.9836678455509498,1.216087818145752,-7.164277076721191,-16.725154876708984,0.29695695638656616,3.1718084812164307,2.3918731212615967,-0.9391013152127464,1.7525246070470466,-2.430003902396514,0.5807899236679077,0.8070277571678162,0.10672339797019958, 182, 105, 1, 141
1731319936494,9i,5.525374524593962,1.4s : 0.4s,5.880220492429373,5.413189248895391,11.404326324938785,3.4114210998460437,2.228912591934204,-7.252488136291504,-16.512975692749023,0.6471505165100098,1.679215669631958,2.898141622543335,-1.1057426372760442,1.6931250919218297,-2.4154897896746492,0.44511955976486206,0.8937975168228149,0.05472416803240776, 182, 105, 1, 141
1731319936504,9i,5.525374524593962,1.4s : 0.4s,5.880220492429373,5.487048303831128,11.375546656394148,3.513504866923643,2.9523868560791016,-7.076079368591309,-15.506428718566895,0.7891947031021118,0.4116344451904297,3.3988888263702393,-1.2687478525524196,1.585489828211945,-2.45461768174774,0.2974449098110199,0.9547291398048401,0.004370821639895439, 182, 105, 1, 141
1731319936514,9i,5.525374524593962,1.4s : 0.4s,5.880220492429373,5.553744178409588,11.14907817133497,3.2890138017553636,4.562925338745117,-6.539046287536621,-14.267983436584473,1.1900852918624878,-1.0493007898330688,2.8810200691223145,-1.4165547851486215,1.2724477399992449,-2.7088842298373046,0.146844282746315,0.9881283640861511,-0.045158691704273224, 182, 105, 1, 141
1731319936524,9i,5.525374524593962,1.4s : 0.4s,5.880220492429373,5.606239289348129,10.979971118357394,2.875661403345219,6.353647708892822,-5.932413101196289,-13.90540885925293,1.2357327938079834,-2.06326961517334,1.5764870643615723,-1.4674678403946941,-0.006652122371397655,2.3431730164581572,-0.0006861367146484554,0.994666337966919,-0.10314401239156723, 182, 105, 1, 141
1731319936534,9i,5.525374524593962,1.4s : 0.4s,5.880220492429373,5.64386537358603,10.894785607655256,1.9639831573206508,8.054712295532227,-5.266815185546875,-13.551645278930664,1.1146183013916016,-1.5836431980133057,0.327001690864563,-1.345423913585768,-0.6917992859544015,1.7034859348040394,-0.14255693554878235,0.9747109413146973,-0.17209424078464508, 182, 105, 1, 141
1731319936544,9i,5.525374524593962,1.4s : 0.4s,5.880220492429373,5.671123804960485,10.837888424027442,1.0372686718135418,9.041248321533203,-5.167861461639404,-12.807613372802734,0.9345883131027222,-0.3151095509529114,-0.32121169567108154,-1.1917877537272863,-0.8537497937033928,1.5882847432738136,-0.27888742089271545,0.9290319085121155,-0.24314965307712555, 182, 105, 1, 141
1731319936554,9i,5.525374524593962,1.4s : 0.4s,5.880220492429373,5.693363811914258,10.685336473900106,1.080379161768496,9.455530166625977,-5.189427375793457,-11.570874214172363,0.9266130924224854,0.4563136696815491,-0.3168361485004425,-1.038721156942472,-0.9167996931246228,1.575858410822817,-0.4026414453983307,0.8617561459541321,-0.30863675475120544, 182, 105, 1, 141
1731319936564,9i,5.525374524593962,1.4s : 0.4s,5.880220492429373,5.7156385980954205,10.428968532160088,1.2380919578923792,9.314828872680664,-5.374800205230713,-10.371275901794434,1.1038755178451538,0.4933626055717468,0.26631537079811096,-0.8951517351926378,-0.954574963648863,1.594630172819185,-0.5103694200515747,0.7803040146827698,-0.3614537715911865, 182, 105, 1, 141
1731319936574,9i,5.525374524593962,1.4s : 0.4s,5.880220492429373,5.739909931472271,10.117798677230423,1.5122845267380416,9.142267227172852,-5.512352466583252,-9.378669738769531,1.343601942062378,0.46108192205429077,0.518788754940033,-0.761883609370502,-0.9870026559696408,1.624687427009102,-0.6037032008171082,0.6902855038642883,-0.3988087773323059, 182, 105, 1, 141
1731319936584,9i,5.525374524593962,1.4s : 0.4s,5.880220492429373,5.7661317260278295,9.774371372826149,1.6288879538206333,9.102811813354492,-5.4380292892456055,-8.447158813476562,1.4244372844696045,0.6409059166908264,0.4620541036128998,-0.6380762636329836,-1.017601990596469,1.662611085173675,-0.6834398508071899,0.5956513285636902,-0.4220302402973175, 182, 105, 1, 141
1731319936594,9i,5.525374524593962,1.4s : 0.4s,5.880220492429373,5.794363663783949,9.404170725314387,1.8425578795788786,9.130911827087402,-4.7802886962890625,-7.728529453277588,1.6026060581207275,0.8446987271308899,0.33638879656791687,-0.5243537322044728,-1.0458531150227222,1.7083989941787758,-0.749090313911438,0.5006536841392517,-0.4338313639163971, 182, 105, 1, 141
1731319936604,9i,5.525374524593962,1.4s : 0.4s,5.880220492429373,5.8251595687106965,8.991403857172129,2.1444451397338877,9.006147384643555,-4.017724514007568,-7.0185346603393555,1.8722563982009888,1.010981559753418,0.2668655514717102,-0.4188195494465375,-1.07446064102866,1.7586463358793387,-0.8033324480056763,0.4066823124885559,-0.4350479245185852, 182, 105, 1, 141
1731319936614,9i,5.525374524593962,1.4s : 0.4s,5.880220492429373,5.857553442736158,8.553068752176216,2.100951325341975,8.505617141723633,-4.150750160217285,-6.2074995040893555,1.808666467666626,1.040316104888916,0.24589526653289795,-0.32147003000442426,-1.1049390523046914,1.8086599679361055,-0.847667932510376,0.315961629152298,-0.42617788910865784, 182, 105, 1, 141
1731319936624,9i,5.525374524593962,1.4s : 0.4s,5.880220492429373,5.891020286481907,8.131426110103488,2.022996372018145,7.942826271057129,-4.1523027420043945,-5.842510223388672,1.6640325784683228,1.1130938529968262,0.2907438278198242,-0.23176436343719128,-1.1355533467041092,1.8579359295891886,-0.8825231790542603,0.22969506680965424,-0.4103575050830841, 182, 105, 1, 141
1731319936634,9i,5.525374524593962,1.4s : 0.4s,5.880220492429373,5.925355283538472,7.75303486923575,1.9738433813811447,7.77432918548584,-3.9618804454803467,-5.430591583251953,1.5206522941589355,1.2053776979446411,0.3615783452987671,-0.1486699342320613,-1.1668396621429458,1.9079887871289445,-0.9093698859214783,0.1481228768825531,-0.38872379064559937, 182, 105, 1, 141
1731319936644,9i,5.525374524593962,1.4s : 0.4s,5.880220492429373,5.959884975646386,7.439264569990439,1.9125259020279841,7.570700645446777,-3.8168716430664062,-5.327932834625244,1.317202091217041,1.3440041542053223,0.34115511178970337,-0.06997828546677459,-1.2003185453520642,1.95944537266571,-0.9298731088638306,0.06992118805646896,-0.36117473244667053, 182, 105, 1, 141
1731319936654,9i,5.525374524593962,1.4s : 0.4s,5.880220492429373,5.994645515339423,7.14796974854586,1.9382096469014942,7.4283952713012695,-3.6249313354492188,-4.993815898895264,1.1467766761779785,1.515892505645752,0.3789852261543274,0.0041888523648141865,-1.235648466628978,2.012366266457763,-0.9443535804748535,-0.004188840277493,-0.32890596985816956, 182, 105, 1, 141
1731319936664,9i,5.525374524593962,1.4s : 0.4s,5.880220492429373,6.029714309036174,6.857325307609422,1.912722426505932,7.075769424438477,-3.394709587097168,-4.830236911773682,1.1549625396728516,1.460749626159668,0.43678271770477295,0.07327227291085663,-1.2729616634138063,2.0661839968347304,-0.9534092545509338,-0.07320672273635864,-0.2926635444164276, 182, 105, 1, 141
1731319936674,9i,5.525374524593962,1.4s : 0.4s,5.880220492429373,6.065885087823635,6.494413539475778,1.9428443853465562,6.531499862670898,-2.951744556427002,-4.422841548919678,1.2466087341308594,1.3605448007583618,0.6078888177871704,0.13658843454669006,-1.3102146734019542,2.1195246659478215,-0.9572410583496094,-0.136164128780365,-0.2552430331707001, 182, 105, 1, 141
1731319936684,9i,5.525374524593962,1.4s : 0.4s,5.880220492429373,6.103994221065905,6.0177688070100945,2.041533909088561,5.651033401489258,-2.554426670074463,-3.8748435974121094,1.391322374343872,1.2590056657791138,0.8043553233146667,0.1913229780122275,-1.3458835871069474,2.1695353365668546,-0.9570267796516418,-0.1901579052209854,-0.2189519703388214, 182, 105, 1, 141
1731319936694,9i,5.525374524593962,1.4s : 0.4s,5.880220492429373,6.144292201487682,5.491824526327908,2.141654100516595,4.76825475692749,-2.167757511138916,-3.604112148284912,1.5380580425262451,1.1738262176513672,0.9182547330856323,0.23858305351509843,-1.3789364172846479,2.2140499228610646,-0.9538449645042419,-0.23632605373859406,-0.18528366088867188, 182, 105, 1, 141
1731319936704,9i,5.525374524593962,1.4s : 0.4s,5.880220492429373,6.186725621568531,4.971766521643487,2.144007330464332,4.071641445159912,-1.8055046796798706,-3.4172492027282715,1.4200774431228638,1.0114641189575195,1.247833251953125,0.280636195956272,-1.4086503695531032,2.2525688539781763,-0.9482759237289429,-0.27696701884269714,-0.15512093901634216, 182, 105, 1, 141
1731319936714,9i,5.525374524593962,1.4s : 0.4s,5.880220492429373,6.23079779205802,4.523134492192461,2.1479893904606904,3.7515454292297363,-1.414546012878418,-3.3210809230804443,1.2751622200012207,0.827655553817749,1.5174999237060547,0.31959482760991836,-1.4351634658234613,2.287830686339066,-0.9406439065933228,-0.314181923866272,-0.12837037444114685, 182, 105, 1, 141
1731319936724,9i,5.525374524593962,1.4s : 0.4s,5.880220492429373,6.275051876127945,4.119038462399215,2.050543198677873,3.428328275680542,-0.9681860208511353,-3.1858816146850586,1.2312580347061157,0.6200850605964661,1.5179675817489624,0.35638697476178477,-1.458155777592346,2.321462971529418,-0.9312244653701782,-0.3488905131816864,-0.10533952713012695, 182, 105, 1, 141
1731319936734,9i,5.525374524593962,1.4s : 0.4s,5.880220492429373,6.31780480623577,3.754838053440445,1.8135402703354973,3.234875202178955,-0.5614874958992004,-2.909553050994873,1.203310489654541,0.4096217453479767,1.2935154438018799,0.3900319495916856,-1.4774509225803214,2.3536725638901914,-0.9208705425262451,-0.380217969417572,-0.08620956540107727, 182, 105, 1, 141
1731319936744,9i,5.525374524593962,1.4s : 0.4s,5.880220492429373,6.3578966219421185,3.407276210614185,1.6068754762615107,2.9095160961151123,-0.25499609112739563,-2.6329362392425537,1.1966516971588135,0.2830469608306885,1.0343877077102661,0.42024688065085414,-1.4936789155049068,2.384826256794155,-0.910274863243103,-0.4079858660697937,-0.07033753395080566, 182, 105, 1, 141
1731319936754,9i,5.525374524593962,1.4s : 0.4s,5.880220492429373,6.395043405883214,3.010389937664214,1.4816956273101585,2.2075932025909424,-0.00769975408911705,-2.284224033355713,1.1424050331115723,0.1485903263092041,0.9318012595176697,0.44651409378805124,-1.5059990657962887,2.4112818395828346,-0.9000653028488159,-0.4318240284919739,-0.05840352922677994, 182, 105, 1, 141
1731319936764,9i,5.525374524593962,1.4s : 0.4s,5.880220492429373,6.430054683447699,2.5908730166684295,1.4726245009004684,1.5732994079589844,0.21257571876049042,-1.9247686862945557,1.0413331985473633,0.08503222465515137,1.037794589996338,0.46861959871085446,-1.513507139852493,2.430738595568585,-0.8907290697097778,-0.4516551196575165,-0.05108504369854927, 182, 105, 1, 141
1731319936774,9i,5.525374524593962,1.4s : 0.4s,5.880220492429373,6.4635436450483805,2.1741886119955702,1.4923259817338326,1.0338770151138306,0.3950999677181244,-1.5677070617675781,0.9567532539367676,0.013924896717071533,1.1451926231384277,0.4867109205335964,-1.5166428224319013,2.444200877907462,-0.8825804591178894,-0.46772128343582153,-0.04784160107374191, 182, 105, 1, 141
1731319936784,9i,5.525374524593962,1.4s : 0.4s,5.880220492429373,6.495036500696541,1.8080921256499347,1.406556043242634,0.7779541611671448,0.5461903214454651,-1.2433832883834839,0.8899595737457275,-0.1173592209815979,1.0828659534454346,0.5011846935535904,-1.5162123626494568,2.453462350253147,-0.8757080435752869,-0.4804648756980896,-0.047847144305706024, 182, 105, 1, 141
1731319936794,9i,5.525374524593962,1.4s : 0.4s,5.880220492429373,6.524062224208729,1.5035318813165937,1.2720510451400717,0.6562676429748535,0.6116990447044373,-0.9611612558364868,0.8140308856964111,-0.1907900869846344,0.9586796760559082,0.5124878009763718,-1.5140038905378472,2.4609578318822045,-0.8701222538948059,-0.4903469383716583,-0.049469560384750366, 182, 105, 1, 141
1731319936804,9i,5.525374524593962,1.4s : 0.4s,5.880220492429373,6.550127592581248,1.253125104190009,1.1071943857449449,0.6008434295654297,0.6859921813011169,-0.6858165264129639,0.7218809127807617,-0.24797552824020386,0.8020445704460144,0.5210400823603921,-1.5107879166261402,2.4676903889416955,-0.8657408356666565,-0.49778246879577637,-0.05201418325304985, 182, 105, 1, 141
1731319936814,9i,5.525374524593962,1.4s : 0.4s,5.880220492429373,6.573281914494906,1.0405497088336348,0.9797985390635341,0.4881024956703186,0.7235584855079651,-0.44480207562446594,0.6263847351074219,-0.26209425926208496,0.7063667178153992,0.5269388661704449,-1.5066976150473557,2.4735952186543475,-0.8625755906105042,-0.5028898119926453,-0.05536583065986633, 182, 105, 1, 141
1731319936824,9i,5.525374524593962,1.4s : 0.4s,5.880220492429373,6.593796162107109,0.8613939866889506,0.8719875606598242,0.3638734221458435,0.7601250410079956,-0.2252039611339569,0.5403169989585876,-0.24933165311813354,0.6373802423477173,0.5304982604676367,-1.5016191730802466,2.478293261352553,-0.8604923486709595,-0.5059632062911987,-0.05962154641747475, 182, 105, 1, 141
1731319936834,9i,5.525374524593962,1.4s : 0.4s,5.880220492429373,6.611799903789852,0.7104957454616503,0.7627996727009964,0.1953563243150711,0.7768344879150391,-0.03261001035571098,0.4230419397354126,-0.24377530813217163,0.5860652327537537,0.5319164315796391,-1.4955433161812368,2.481395402019213,-0.8593975901603699,-0.5071859359741211,-0.0647946149110794, 182, 105, 1, 141
1731319936844,9i,5.525374524593962,1.4s : 0.4s,5.880220492429373,6.6274826199612695,0.5892770950381905,0.6823274105763745,-0.02518237568438053,0.7830079793930054,0.12236069142818451,0.33482789993286133,-0.2491086721420288,0.5398201942443848,0.5314292586887783,-1.4882802856754678,2.4824487009498357,-0.8591505289077759,-0.5067660212516785,-0.07105504721403122, 182, 105, 1, 141
1731319936854,9i,5.525374524593962,1.4s : 0.4s,5.880220492429373,6.6411910706993,0.5144803488214786,0.6124535714954791,-0.23835483193397522,0.7723366618156433,0.23050394654273987,0.27102363109588623,-0.22500449419021606,0.5010175108909607,0.5294601479461708,-1.4798038645524405,2.4810971967772146,-0.8595094084739685,-0.5050674676895142,-0.07842544466257095, 182, 105, 1, 141
1731319936864,9i,5.525374524593962,1.4s : 0.4s,5.880220492429373,6.653226856707509,0.4820849502838792,0.5488365956627907,-0.42666494846343994,0.7613933682441711,0.31596845388412476,0.22522813081741333,-0.19875770807266235,0.45933568477630615,0.5263358219147795,-1.4703906033431822,2.477456646255619,-0.8602992296218872,-0.5023684501647949,-0.0866704136133194, 182, 105, 1, 141
1731319936874,9i,5.525374524593962,1.4s : 0.4s,5.880220492429373,6.663861922641454,0.4968138835586506,0.4742641860784713,-0.4771459698677063,0.7552326917648315,0.3939756453037262,0.19823163747787476,-0.1525278091430664,0.4029466509819031,0.5222415099793621,-1.460369783131953,2.4724736152645974,-0.8614245057106018,-0.4988241195678711,-0.09551267325878143, 182, 105, 1, 141
1731319936884,9i,5.525374524593962,1.4s : 0.4s,5.880220492429373,6.673362171189708,0.5254071334852853,0.3934215652938415,-0.4056113362312317,0.7424104809761047,0.45444005727767944,0.1909216046333313,-0.08418670296669006,0.3335297107696533,0.5174032000853128,-1.4506606640534172,2.4678106839932434,-0.8628425002098083,-0.49462491273880005,-0.10415973514318466, 182, 105, 1, 141
1731319936894,9i,5.525374524593962,1.4s : 0.4s,5.880220492429373,6.68181690976029,0.5547610219109049,0.31847709162218896,-0.3636596202850342,0.7482984662055969,0.4827483892440796,0.190121591091156,-0.03883454203605652,0.25253379344940186,0.5121824624275745,-1.44142205474122,2.463965159157184,-0.8643922805786133,-0.4900808036327362,-0.1124582514166832, 182, 105, 1, 141
1731319936903,9i,5.525374524593962,1.4s : 0.4s,5.880220492429373,6.689321979827882,0.5853441159602633,0.2623848394207318,-0.4031461179256439,0.7580370903015137,0.507276177406311,0.16659903526306152,-0.001681298017501831,0.20270110666751862,0.506657193659428,-1.4321882021827836,2.46032192435341,-0.865985631942749,-0.4852571189403534,-0.12080729752779007, 182, 105, 1, 141
1731319936913,9i,5.525374524593962,1.4s : 0.4s,5.880220492429373,6.696065084343866,0.615065774239661,0.24164461376541646,-0.48841652274131775,0.7470030784606934,0.5257412195205688,0.1493430733680725,0.008864820003509521,0.18976348638534546,0.5007709772612398,-1.4226556174127112,2.4562904964211674,-0.8676049113273621,-0.480102002620697,-0.1294761449098587, 182, 105, 1, 141
1731319936923,9i,5.525374524593962,1.4s : 0.4s,5.880220492429373,0.0,0.0,0.2105499722070516,-0.5702078938484192,0.71922767162323,0.5338407754898071,0.1288924217224121,-0.0036763250827789307,0.1664467453956604,0.4945907124705134,-1.4129311709460297,2.451419170787262,-0.8692185282707214,-0.47467145323753357,-0.13837069272994995, 182, 105, 1, 141
1731319936973,9i,5.525374524593962,1.4s : 0.4s,5.880220492429373,0.0,0.0,0.07258454498248758,-0.5963133573532104,0.4798828661441803,0.5868428349494934,0.028591394424438477,-0.039884746074676514,0.05348135530948639,0.46033254323624145,-1.3696095069137533,2.4221083128108503,-0.8778346180915833,-0.4442460536956787,-0.17903079092502594, 182, 105, 1, 141
1731319937023,9i,5.525374524593962,1.4s : 0.4s,5.880220492429373,0.0,0.0,0.16153098734556418,-0.6168853044509888,0.3875950276851654,0.6813374757766724,0.047859370708465576,-0.019140541553497314,0.15308618545532227,0.4220499732625372,-1.338356889791259,2.3965338026539587,-0.8877184987068176,-0.4096314013004303,-0.2101389467716217, 182, 105, 1, 141
1731319937053,9i,5.525374524593962,1.4s : 0.4s,5.880220492429373,0.0,0.0,0.24522873267088915,-0.6389031410217285,0.5040602087974548,0.7999443411827087,0.12917256355285645,-0.005970507860183716,0.20836490392684937,0.39489955951657085,-1.320259909313076,2.3834338312709025,-0.894217848777771,-0.3847154676914215,-0.22884231805801392, 182, 105, 1, 141
1731319937063,9i,5.525374524593962,1.4s : 0.4s,5.880220492429373,0.0,0.0,0.30489649840318767,-0.7339516282081604,0.5637819766998291,0.8588341474533081,0.1676235795021057,-0.016706913709640503,0.25413596630096436,0.3845299674172647,-1.3131740999438617,2.378499406032537,-0.8963834643363953,-0.3751234710216522,-0.2361765205860138, 182, 105, 1, 141
1731319937073,9i,5.525374524593962,1.4s : 0.4s,5.880220492429373,0.0,0.0,0.3836323147027376,-0.8700364828109741,0.605407178401947,0.9220759868621826,0.21594655513763428,-0.01590248942375183,0.31668272614479065,0.37357008080568405,-1.3052449414285654,2.372665997752172,-0.8983961343765259,-0.3649415969848633,-0.2443409562110901, 182, 105, 1, 141
1731319937093,9i,5.525374524593962,1.4s : 0.4s,5.880220492429373,0.0,0.0,0.5016098025991705,-1.0791233777999878,0.7594029903411865,1.0537114143371582,0.2599010467529297,-0.01046648621559143,0.4288989305496216,0.34926772643024867,-1.2867626915402297,2.358238379882435,-0.9019757509231567,-0.3422098457813263,-0.2633107006549835, 182, 105, 1, 141
1731319937113,9i,5.525374524593962,1.4s : 0.4s,5.880220492429373,0.0,0.0,0.5959447177079792,-1.2729886770248413,0.9954097867012024,1.2009330987930298,0.30225670337677,0.00031828880310058594,0.5136057734489441,0.3205533451045224,-1.2638550364722445,2.3412272297510675,-0.9047043323516846,-0.3150917589664459,-0.28675347566604614, 182, 105, 1, 141
1731319937133,9i,5.525374524593962,1.4s : 0.4s,5.880220492429373,0.0,0.0,0.6474941599249205,-1.5859291553497314,1.257333517074585,1.3353934288024902,0.32147425413131714,0.021640121936798096,0.5616357326507568,0.28781979224750304,-1.235468580481385,2.3218374474309447,-0.9054588675498962,-0.2838623821735382,-0.3155421018600464, 182, 105, 1, 141
1731319937153,9i,5.525374524593962,1.4s : 0.4s,5.880220492429373,0.0,0.0,0.7179885116706154,-2.1054880619049072,1.5670863389968872,1.5271263122558594,0.3599971532821655,0.0074234455823898315,0.6211718320846558,0.24813631344815712,-1.2004561295356335,2.295758913010548,-0.9036526083946228,-0.24559777975082397,-0.3508472740650177, 182, 105, 1, 141
1731319937173,9i,5.525374524593962,1.4s : 0.4s,5.880220492429373,0.0,0.0,0.7462525747319468,-2.2175450325012207,1.8585349321365356,1.653106927871704,0.4078068733215332,0.06673039495944977,0.6213964223861694,0.20184129078930077,-1.1594219434900639,2.266527199468788,-0.8979650139808655,-0.2004735767841339,-0.391751766204834, 182, 105, 1, 141
1731319937203,9i,5.525374524593962,1.4s : 0.4s,5.880220492429373,0.0,0.0,0.6993031133550658,-2.6098737716674805,2.1277196407318115,1.6346960067749023,0.4055051803588867,0.1761220395565033,0.5418223142623901,0.12708627420451385,-1.0928282865756969,2.2218373573368093,-0.880770742893219,-0.12674446403980255,-0.4562664330005646, 182, 105, 1, 141
1731319937223,9i,5.525374524593962,1.4s : 0.4s,5.880220492429373,0.0,0.0,0.5708793020591955,-2.901805877685547,2.49179744720459,1.6608256101608276,0.2826751470565796,0.15833334624767303,0.4700303077697754,0.07170946088442784,-1.0434286501663415,2.189098689128014,-0.8619140982627869,-0.0716480165719986,-0.5019670724868774, 182, 105, 1, 141
1731319937243,9i,5.525374524593962,1.4s : 0.4s,5.880220492429373,0.0,0.0,0.6182496983691242,-2.9392285346984863,2.6257100105285645,1.6785542964935303,0.3403874635696411,0.31205445528030396,0.41108524799346924,0.01253984038878501,-0.9905880698156725,2.1566849556589616,-0.8362828493118286,-0.012539511546492577,-0.5481550693511963, 182, 105, 1, 141
1731319937303,9i,5.525374524593962,1.4s : 0.4s,5.880220492429373,0.0,0.0,0.41113180078333095,-3.1970908641815186,2.681572198867798,0.8954678773880005,0.012630283832550049,0.3999081552028656,0.09456902742385864,-0.15169857050045,-0.840907926172275,2.0693121849259852,-0.7366902828216553,0.15111741423606873,-0.6591290235519409, 182, 105, 1, 141
1731319937323,9i,5.525374524593962,1.4s : 0.4s,5.880220492429373,0.0,0.0,0.43096522202013565,-2.8470029830932617,2.2220585346221924,0.6604901552200317,0.07468920946121216,0.39443618059158325,-0.15675663948059082,-0.20419380880155522,-0.7976293181970688,2.035317130540242,-0.7008335590362549,0.20277778804302216,-0.6838958859443665, 182, 105, 1, 141
1731319937343,9i,5.525374524593962,1.4s : 0.4s,5.880220492429373,0.0,0.0,0.5881374042979984,-2.4939205646514893,2.0582363605499268,0.35274738073349,-0.052059948444366455,0.5232280492782593,-0.26349151134490967,-0.25015552685563425,-0.7632282759751118,2.002856278382927,-0.669741690158844,0.24755464494228363,-0.7001162767410278, 182, 105, 1, 141
1731319937363,9i,5.525374524593962,1.4s : 0.4s,5.880220492429373,0.0,0.0,0.5897334252247461,-2.57726788520813,2.0424630641937256,0.2341666966676712,-0.2629684805870056,0.4429287314414978,-0.2871362566947937,-0.2900807399710343,-0.730171748129996,1.971347511873673,-0.6391310095787048,0.2860296070575714,-0.7139318585395813, 182, 105, 1, 141
1731319937383,9i,5.525374524593962,1.4s : 0.4s,5.880220492429373,0.0,0.0,0.469357426395229,-2.3483402729034424,1.850311517715454,0.16097486019134521,-0.21791362762451172,0.2770691514015198,-0.30990761518478394,-0.32983107405345713,-0.7010992474758595,1.9403846599807504,-0.6102875471115112,0.32388320565223694,-0.7229445576667786, 182, 105, 1, 141
1731319937403,9i,5.525374524593962,1.4s : 0.4s,5.880220492429373,0.0,0.0,0.5292087859083932,-1.8444156646728516,1.8801060914993286,0.11326397210359573,-0.2613195776939392,0.17824912071228027,-0.4242655634880066,-0.36528181371210683,-0.6728642445332844,1.913878158215899,-0.5821098685264587,0.35721254348754883,-0.7304432988166809, 182, 105, 1, 141
1731319937423,9i,5.525374524593962,1.4s : 0.4s,5.880220492429373,0.0,0.0,0.5503476772504851,-1.4303390979766846,1.8958402872085571,-0.20011869072914124,-0.2764158844947815,0.26102912425994873,-0.3979203701019287,-0.3913561950528113,-0.6431959015515425,1.8911638881892139,-0.5544098615646362,0.38144242763519287,-0.7396833300590515, 182, 105, 1, 141
1731319937443,9i,5.525374524593962,1.4s : 0.4s,5.880220492429373,0.0,0.0,0.502927101816905,-1.2447901964187622,1.6828714609146118,-0.14821507036685944,-0.24931657314300537,0.15743499994277954,-0.4074200987815857,-0.41104998890761535,-0.6145081841276173,1.8703336078346737,-0.5285305976867676,0.39957207441329956,-0.7489977478981018, 182, 105, 1, 141
1731319937453,9i,5.525374524593962,1.4s : 0.4s,5.880220492429373,0.0,0.0,0.5138572095841171,-0.8998532891273499,1.706093430519104,-0.2750324010848999,-0.20898771286010742,0.13349217176437378,-0.45005911588668823,-0.4185380083344297,-0.6013448421608383,1.8617358698683983,-0.5169185400009155,0.4064250886440277,-0.7534015774726868, 182, 105, 1, 141
1731319937462,9i,5.525374524593962,1.4s : 0.4s,5.880220492429373,0.0,0.0,0.6163721411773163,-0.82132887840271,1.7476743459701538,-0.3374803364276886,-0.25635379552841187,0.11981639266014099,-0.5475777387619019,-0.42397645928191363,-0.5872266516265272,1.8535359062452346,-0.5049986243247986,0.4113880693912506,-0.7587729096412659, 182, 105, 1, 141
1731319937492,9i,5.525374524593962,1.4s : 0.4s,5.880220492429373,0.0,0.0,0.637804511128942,-0.6753852367401123,1.5190508365631104,-0.6397958397865295,-0.25207412242889404,0.060572683811187744,-0.5827385187149048,-0.43007186509496387,-0.5493428773130805,1.8262813052877809,-0.4745798408985138,0.41693612933158875,-0.7752020955085754, 182, 105, 1, 141
1731319937652,9i,5.525374524593962,1.4s : 0.4s,5.880220492429373,0.0,0.0,0.16378246481613185,1.5999096632003784,0.8306682705879211,-1.1354917287826538,0.03599536418914795,0.15506695210933685,-0.038513243198394775,-0.21868136150465953,-0.3898876113654867,1.7622911238134533,-0.3710325360298157,0.21694257855415344,-0.9029234647750854, 182, 105, 1, 141
1731319937682,9i,5.525374524593962,1.4s : 0.4s,5.880220492429373,0.0,0.0,0.1173752383608625,1.504680871963501,0.7513251304626465,-1.2190625667572021,0.06056758761405945,0.05791819095611572,0.08218270540237427,-0.16071430924850577,-0.3701148122162989,1.7470082076615598,-0.3570610284805298,0.16002334654331207,-0.9202716946601868, 182, 105, 1, 141
1731319937702,9i,5.525374524593962,1.4s : 0.4s,5.880220492429373,0.0,0.0,0.09153916267920893,1.6461480855941772,0.7752684354782104,-1.238175392150879,0.031183570623397827,0.08195865154266357,0.026263713836669922,-0.12304852921205676,-0.35644655407010917,1.7351045600819877,-0.34630799293518066,0.12273824959993362,-0.9300570487976074, 182, 105, 1, 141
1731319937722,9i,5.525374524593962,1.4s : 0.4s,5.880220492429373,0.0,0.0,0.14564427536870359,1.6500154733657837,0.7478870749473572,-1.2007191181182861,0.05345913767814636,0.13500595092773438,-0.011303484439849854,-0.08326063233906898,-0.34238517940633645,1.7237161801814327,-0.3345717489719391,0.08316446840763092,-0.9386934638023376, 182, 105, 1, 141
1731319937742,9i,5.525374524593962,1.4s : 0.4s,5.880220492429373,0.0,0.0,0.10190347524378819,1.2487860918045044,0.6636257767677307,-1.3070482015609741,0.08015713095664978,0.03121337667107582,0.054634034633636475,-0.04657774482437463,-0.3291075628189808,1.7102081467070764,-0.3228480815887451,0.04656090587377548,-0.945304811000824, 182, 105, 1, 141
1731319937842,9i,5.525374524593962,1.4s : 0.4s,5.880220492429373,0.0,0.0,0.17051406892871018,1.6581133604049683,0.6749046444892883,-1.0537512302398682,0.12896502017974854,0.06032462418079376,0.0938296914100647,0.12401177680846018,-0.2622474574126524,1.6379953269369065,-0.25726085901260376,-0.12369415909051895,-0.9583927392959595, 182, 105, 1, 141
1731319937862,9i,5.525374524593962,1.4s : 0.4s,5.880220492429373,0.0,0.0,0.10799875116492634,1.3990212678909302,0.8662266731262207,-1.2620227336883545,0.06489789485931396,0.06276360154151917,0.05926823616027832,0.1583183181585915,-0.2429263354995049,1.6255588125377571,-0.2375357747077942,-0.15765778720378876,-0.9584992527961731, 182, 105, 1, 141
1731319937882,9i,5.525374524593962,1.4s : 0.4s,5.880220492429373,0.0,0.0,0.11533717617298804,1.2539944648742676,0.6784602999687195,-0.8892814517021179,0.05051790177822113,-0.07210841774940491,0.07450491189956665,0.1884655273612221,-0.22473139029745312,1.6113370953177084,-0.21889857947826385,-0.18735180795192719,-0.9575921297073364, 182, 105, 1, 141
1731319937902,9i,5.525374524593962,1.4s : 0.4s,5.880220492429373,0.0,0.0,0.11183726985110856,1.311259150505066,0.5384059548377991,-0.9254316687583923,0.10778500139713287,0.01966319978237152,0.02243494987487793,0.2175730278347223,-0.2104354235329121,1.59878727614615,-0.2039610892534256,-0.2158605009317398,-0.9548843502998352, 182, 105, 1, 141
1731319937922,9i,5.525374524593962,1.4s : 0.4s,5.880220492429373,0.0,0.0,0.06649650153689711,1.1112738847732544,0.5322549939155579,-0.938209593296051,0.05585978925228119,0.035442158579826355,-0.006732165813446045,0.24504014323229595,-0.19681969546947997,1.5849013950601172,-0.1897098273038864,-0.24259527027606964,-0.9513977766036987, 182, 105, 1, 141
1731319937942,9i,5.525374524593962,1.4s : 0.4s,5.880220492429373,0.0,0.0,0.06500482819503889,0.7792025208473206,0.5128437876701355,-1.0102612972259521,0.06164039671421051,0.0011133253574371338,0.020611882209777832,0.2672056794387269,-0.18230234724791256,1.5690358566708924,-0.17486056685447693,-0.2640373110771179,-0.9485294222831726, 182, 105, 1, 141
1731319937962,9i,5.525374524593962,1.4s : 0.4s,5.880220492429373,0.0,0.0,0.05896252678405908,0.5099161863327026,0.5699425339698792,-0.9588106870651245,0.04174621403217316,-0.04163751006126404,0.0003885030746459961,0.2833038042564442,-0.16649105999095215,1.5512294851614887,-0.15911677479743958,-0.27952927350997925,-0.9468607306480408, 182, 105, 1, 141
1731319937982,9i,5.525374524593962,1.4s : 0.4s,5.880220492429373,0.0,0.0,0.05822448804218213,0.493728905916214,0.47824254631996155,-0.8490350842475891,0.03592592477798462,-0.04528340697288513,-0.0069879889488220215,0.2962499971514049,-0.1510890252237749,1.5342630223226816,-0.14395810663700104,-0.29193562269210815,-0.9455419778823853, 182, 105, 1, 141
1731319938002,9i,5.525374524593962,1.4s : 0.4s,5.880220492429373,0.0,0.0,0.06520898697706454,0.45399242639541626,0.33776575326919556,-0.6213983297348022,0.05578242242336273,-0.03376513719558716,0.0006699562072753906,0.3075308227631233,-0.13887977219589032,1.5201603975068678,-0.13193899393081665,-0.302706241607666,-0.9439073204994202, 182, 105, 1, 141
1731319938021,9i,5.525374524593962,1.4s : 0.4s,5.880220492429373,0.0,0.0,0.08176080119454454,0.37293362617492676,0.2999228537082672,-0.39054039120674133,0.05339227616786957,-0.06191229820251465,-0.0009801983833312988,0.3170447869549598,-0.12981906802011992,1.5111512988791884,-0.12300282716751099,-0.3117600083351135,-0.9421656131744385, 182, 105, 1, 141
1731319938041,9i,5.525374524593962,1.4s : 0.4s,5.880220492429373,0.0,0.0,0.07333429108017821,0.4139375388622284,0.23113776743412018,-0.3226836919784546,0.03026759624481201,-0.06679052114486694,0.0009039640426635742,0.32578238556711897,-0.1226742725339518,1.5048483094966039,-0.11593040078878403,-0.32005012035369873,-0.9402808547019958, 182, 105, 1, 141
1731319938101,9i,5.525374524593962,1.4s : 0.4s,5.880220492429373,0.0,0.0,0.05171268192201283,0.12456776946783066,0.12342382222414017,-0.2786342203617096,0.04937809705734253,-0.00968635082244873,-0.011923909187316895,0.34359173428337175,-0.10700237863450457,1.4893089699757778,-0.10055603086948395,-0.33687105774879456,-0.9361658096313477, 182, 105, 1, 141
1731319937832,9i,5.525374524593962,1.4s : 0.4s,5.880220492429373,0.0,0.0,0.1845117294737667,1.5766733884811401,0.6710089445114136,-1.0774364471435547,0.12660446763038635,-0.022441059350967407,0.13233399391174316,0.10557762226084363,-0.2696174258059625,1.6440621458202058,-0.2648795545101166,-0.10538159310817719,-0.9585058689117432, 182, 105, 1, 141
1731319938121,9i,5.525374524593962,1.4s : 0.4s,5.880220492429373,0.0,0.0,0.041283890817670234,0.08796527981758118,0.056685272604227066,-0.2621404528617859,0.040919229388237,-0.0027373135089874268,0.004741668701171875,0.34656572321167783,-0.10348974304889275,1.4838176243563461,-0.09716308116912842,-0.33966973423957825,-0.9355126023292542, 182, 105, 1, 141
1731319938141,9i,5.525374524593962,1.4s : 0.4s,5.880220492429373,0.0,0.0,0.03250952574760996,0.17183569073677063,0.03673384711146355,-0.2241455465555191,0.03005348891019821,0.012394338846206665,0.00019347667694091797,0.3493034442520209,-0.1009793700969654,1.4785933572508272,-0.09472019225358963,-0.34224340319633484,-0.9348248839378357, 182, 105, 1, 141
1731319938161,9i,5.525374524593962,1.4s : 0.4s,5.880220492429373,0.0,0.0,0.06055428347077624,0.09306976199150085,-0.020981913432478905,-0.26434528827667236,0.05686705559492111,0.013602584600448608,-0.01574575901031494,0.35214978756587073,-0.09916118141473174,1.4739274321052631,-0.09292353689670563,-0.3449164628982544,-0.9340224266052246, 182, 105, 1, 141
1731319938171,9i,5.525374524593962,1.4s : 0.4s,5.880220492429373,0.0,0.0,0.057207791045863696,0.09158052504062653,-0.07284004986286163,-0.2579664885997772,0.05475495755672455,-0.010378777980804443,-0.012919247150421143,0.3533588570180048,-0.09957455931381903,1.4712010913432305,-0.09326810389757156,-0.34605109691619873,-0.9335682988166809, 182, 105, 1, 141
1731319938181,9i,5.525374524593962,1.4s : 0.4s,5.880220492429373,0.0,0.0,0.08732267516453948,-0.08564691245555878,-0.009664190001785755,-0.19505994021892548,0.06269845366477966,-0.05873200297355652,0.015643060207366943,0.3536211030840924,-0.09928321387606402,1.469316172699409,-0.09298711270093918,-0.34629711508750916,-0.9335050582885742, 182, 105, 1, 141
1731319938201,9i,5.525374524593962,1.4s : 0.4s,5.880220492429373,0.0,0.0,0.008670871996704124,-0.16066117584705353,0.07790036499500275,-0.23658537864685059,-0.008581921458244324,-0.0011327266693115234,0.0005015730857849121,0.3516671361729527,-0.09650984735177418,1.4637611010449332,-0.09046284109354019,-0.34446337819099426,-0.9344310760498047, 182, 105, 1, 141
1731319938221,9i,5.525374524593962,1.4s : 0.4s,5.880220492429373,0.0,0.0,0.08158634252153553,-0.0025911128614097834,-0.11290989071130753,-0.15614433586597443,0.04916415363550186,0.0496385395526886,-0.04213351011276245,0.3498692176645748,-0.09402227722898047,1.4592780230298976,-0.08819609880447388,-0.3427749574184418,-0.9352682828903198, 182, 105, 1, 141
1731319938241,9i,5.525374524593962,1.4s : 0.4s,5.880220492429373,0.0,0.0,0.1389675749807961,0.13037513196468353,-0.20910850167274475,-0.08096625655889511,0.13156795501708984,0.03722521662712097,-0.024822235107421875,0.352412075020521,-0.09766119718539061,1.4578576146688236,-0.09151358902454376,-0.34516265988349915,-0.9340706467628479, 182, 105, 1, 141