timestamp,club,max_speed,tempo,w.rotation,l.speed,t.spped,acc,rotation.x,rotation.y,rotation.z,userAcceleration.x,userAcceleration.y,userAcceleration.z,pitch,roll,yaw,gravity.x,gravity.y,gravity.z,impactIndex,minDownIndex,StartIndex,endIndex
1731320614927,9i,5.732666779973744,1.3s : 0.5s,6.542264175631999,0.0005545075205078463,0.11215350048029561,0.042395074134661745,-0.08189379423856735,0.012938146479427814,0.08645585924386978,-0.01121598482131958,0.014979362487792969,-0.03804159164428711,-0.39671201211807877,2.0531717275544037,2.8995057379571607,0.8170936107635498,0.38638779520988464,0.4278578460216522, 199, 113, 18, 153
1731320614937,9i,5.732666779973744,1.3s : 0.5s,6.542264175631999,0.0015435582793048778,0.06311838695359552,0.030903420184153155,-0.0877964198589325,0.02215578965842724,0.057020340114831924,0.000466763973236084,0.009424746036529541,-0.02942749857902527,-0.3957034846308745,2.053500868909838,2.899883502529488,0.8172973990440369,0.3854573965072632,0.42830735445022583, 199, 113, 18, 153
1731320614947,9i,5.732666779973744,1.3s : 0.5s,6.542264175631999,0.0024089195285660007,0.03698904266910123,0.0353661500856681,-0.1174246221780777,0.024541983380913734,0.057452570647001266,-0.01321786642074585,-0.010387420654296875,-0.031115174293518066,-0.3947348388888194,2.054028342120957,2.900636347861776,0.8174018263816833,0.3845634460449219,0.42891180515289307, 199, 113, 18, 153
1731320614957,9i,5.732666779973744,1.3s : 0.5s,6.542264175631999,0.0032026056615044934,0.0336832067328208,0.028239459832486945,-0.09469108283519745,0.022019971162080765,0.05475851893424988,-0.019619762897491455,0.0015417039394378662,-0.0202522873878479,-0.39371365888259413,2.0544976792811367,2.901350380999643,0.8175474405288696,0.38362058997154236,0.4294776916503906, 199, 113, 18, 153
1731320614967,9i,5.732666779973744,1.3s : 0.5s,6.542264175631999,0.00389903678691333,0.04272216410272498,0.01964708998693466,-0.0962759256362915,0.02397739328444004,0.06793264299631119,-0.0014141201972961426,-0.006413578987121582,-0.018516868352890015,-0.3926953586508344,2.0549151196154694,2.901934899481097,0.8177133798599243,0.3826799988746643,0.43000051379203796, 199, 113, 18, 153
1731320614977,9i,5.732666779973744,1.3s : 0.5s,6.542264175631999,0.004500423672990392,0.04884617406971749,0.01490036186440681,-0.06985270977020264,0.022053170949220657,0.07619702816009521,0.005042314529418945,-0.008801192045211792,-0.010914891958236694,-0.3915638506177158,2.0552061973337685,2.902352321588244,0.817970871925354,0.38163435459136963,0.43043988943099976, 199, 113, 18, 153
1731320614987,9i,5.732666779973744,1.3s : 0.5s,6.542264175631999,0.005013520181012752,0.04979424888708636,0.019362645051398956,-0.0443635955452919,0.03019365482032299,0.0811329334974289,0.0011282563209533691,-0.01193508505821228,-0.015205025672912598,-0.39053046824966964,2.0553952466876995,2.9024365423668597,0.8182381987571716,0.38067901134490967,0.4307781159877777, 199, 113, 18, 153
1731320614997,9i,5.732666779973744,1.3s : 0.5s,6.542264175631999,0.005452071281646221,0.05023303617944595,0.028851269464003182,-0.041423264890909195,0.038287535309791565,0.07424928992986679,-0.010181784629821777,-0.01653006672859192,-0.021342068910598755,-0.38979032686800696,2.055611567001131,2.902382639719109,0.8183942437171936,0.3799944818019867,0.43108639121055603, 199, 113, 18, 153
1731320615007,9i,5.732666779973744,1.3s : 0.5s,6.542264175631999,0.005823257771476872,0.05389424670673398,0.0323893073092707,-0.05729597061872482,0.03902203217148781,0.08036897331476212,-0.015991628170013428,-0.024222075939178467,-0.014374494552612305,-0.3890992177780853,2.05580471657212,2.9023563908372023,0.8185428977012634,0.37935513257980347,0.4313666820526123, 199, 113, 18, 153
1731320615017,9i,5.732666779973744,1.3s : 0.5s,6.542264175631999,0.006152941040766111,0.060671934944035506,0.026114589684520986,-0.06734620034694672,0.04137688875198364,0.08820372819900513,-0.017597734928131104,-0.019270628690719604,0.0009666383266448975,-0.38820060597576417,2.056069258442159,2.9024694624755853,0.818729817867279,0.3785235285758972,0.43174198269844055, 199, 113, 18, 153
1731320615027,9i,5.732666779973744,1.3s : 0.5s,6.542264175631999,0.006467233145289968,0.06420818052297417,0.018070561344229994,-0.054181136190891266,0.0386335663497448,0.10013468563556671,-0.012816250324249268,-0.005203366279602051,0.011628150939941406,-0.3871472524865736,2.0563322489121054,2.902513474781401,0.8189685940742493,0.37754833698272705,0.4321432113647461, 199, 113, 18, 153
1731320615037,9i,5.732666779973744,1.3s : 0.5s,6.542264175631999,0.0067652610585883085,0.06138254437429502,0.011508184750148212,-0.042643722146749496,0.1019710823893547,-0.006742194294929504,-0.008529424667358398,-0.002003908157348633,0.007461339235305786,-0.3864110086803343,2.056827419151354,2.9025418989109806,0.8189998269081116,0.37686648964881897,0.4326782822608948, 199, 113, 18, 153
1731320615047,9i,5.732666779973744,1.3s : 0.5s,6.542264175631999,0.007064255210181717,0.12347638713715917,0.02416675016736994,-0.06676344573497772,0.4332299530506134,-0.42278361320495605,-0.02364248037338257,-0.004979312419891357,-0.0005209445953369141,-0.38530757227976986,2.0570958362966048,2.902343177544145,0.8192509412765503,0.37584418058395386,0.43309226632118225, 199, 113, 18, 153
1731320615057,9i,5.732666779973744,1.3s : 0.5s,6.542264175631999,0.007327048143750423,0.21623167564296245,0.006534359911463793,-0.04099942371249199,0.5010141730308533,-0.4273563623428345,0.0027253031730651855,-0.00443035364151001,0.003955066204071045,-0.38432022750813616,2.0573250150382005,2.902079086305327,0.8194794058799744,0.3749290406703949,0.43345335125923157, 199, 113, 18, 153
1731320615067,9i,5.732666779973744,1.3s : 0.5s,6.542264175631999,0.0075663742283910845,0.16822541227913812,0.010317769507423089,-0.03208422288298607,0.15258269011974335,0.10894755274057388,-0.00174790620803833,-0.003378748893737793,0.009590893983840942,-0.38353155220095136,2.0574292586795684,2.9020475948178057,0.8196951746940613,0.374197781085968,0.4336768388748169, 199, 113, 18, 153
1731320615077,9i,5.732666779973744,1.3s : 0.5s,6.542264175631999,0.007814282651594428,0.12815853321648088,0.0163629654668663,-0.01856169104576111,0.0786203071475029,0.08141489326953888,-0.013682246208190918,0.003988146781921387,0.008039742708206177,-0.38284387708188894,2.057667022083062,2.901696656276954,0.8198191523551941,0.37355998158454895,0.433991938829422, 199, 113, 18, 153
1731320615087,9i,5.732666779973744,1.3s : 0.5s,6.542264175631999,0.008058310788043085,0.0946733364804577,0.009164311161777856,-0.008464581333100796,0.03428852930665016,0.06787244975566864,-0.00847172737121582,0.002959311008453369,0.0018592774868011475,-0.38201215541582917,2.057788506154048,2.901134722347174,0.8200408816337585,0.37278833985328674,0.4342368543148041, 199, 113, 18, 153
1731320615097,9i,5.732666779973744,1.3s : 0.5s,6.542264175631999,0.008276914657250988,0.07254222053456208,0.014711351633537432,-0.010032916441559792,0.02789507992565632,0.06758350133895874,-0.004161655902862549,-0.008664995431900024,0.011136531829833984,-0.38135137778690786,2.0580946476714095,2.900866455100576,0.82012540102005,0.37217509746551514,0.43460315465927124, 199, 113, 18, 153
1731320615107,9i,5.732666779973744,1.3s : 0.5s,6.542264175631999,0.008478973318532835,0.05766322944518976,0.01773725230605716,-0.0014431574381887913,0.021960757672786713,0.05890665575861931,-0.004944503307342529,-0.006562024354934692,0.015719473361968994,-0.38082837545867415,2.0584793734476587,2.9006942484978313,0.8201301097869873,0.3716896176338196,0.4350098669528961, 199, 113, 18, 153
1731320615117,9i,5.732666779973744,1.3s : 0.5s,6.542264175631999,0.008692499234873526,0.052148127506644736,0.018833507369795312,-0.008070234209299088,0.011308914050459862,0.05873032286763191,-0.007384002208709717,0.008642464876174927,0.015016168355941772,-0.3803608544571922,2.058660935092365,2.9004525133202264,0.8202043771743774,0.3712555468082428,0.43524008989334106, 199, 113, 18, 153
1731320615127,9i,5.732666779973744,1.3s : 0.5s,6.542264175631999,0.008898352586157473,0.04980729709624157,0.013744246021404387,-0.02217033877968788,0.018304239958524704,0.0511176772415638,-0.0018042922019958496,0.0029622018337249756,0.013299405574798584,-0.37992157672709626,2.058874930906558,2.900366466588925,0.8202553391456604,0.3708476424217224,0.4354920983314514, 199, 113, 18, 153
1731320615137,9i,5.732666779973744,1.3s : 0.5s,6.542264175631999,0.009102288799215591,0.04768360382688985,0.019901305048345766,-0.04020766541361809,0.018899809569120407,0.03588319942355156,-0.015750765800476074,-0.009669005870819092,0.007381439208984375,-0.3793760749859201,2.0591098409657125,2.9004457952813807,0.8203313946723938,0.3703409731388092,0.4357795715332031, 199, 113, 18, 153
1731320615147,9i,5.732666779973744,1.3s : 0.5s,6.542264175631999,0.00931996281796519,0.045532117813099716,0.02239768852906623,-0.030679408460855484,0.015175912529230118,0.03762304037809372,-0.021881818771362305,-0.004521459341049194,-0.0015488266944885254,-0.3788776118541623,2.0594553412203807,2.9006628094476143,0.8203437924385071,0.3698779046535492,0.43614962697029114, 199, 113, 18, 153
1731320615157,9i,5.732666779973744,1.3s : 0.5s,6.542264175631999,0.009546236370731254,0.04008268008083219,0.015260186484966963,-0.02302834577858448,0.015368280932307243,0.022488728165626526,-0.013143777847290039,0.005214422941207886,-0.005737960338592529,-0.3786468623298945,2.0598258083211562,2.9008229684173137,0.8202574849128723,0.3696635067462921,0.4364936053752899, 199, 113, 18, 153
1731320615167,9i,5.732666779973744,1.3s : 0.5s,6.542264175631999,0.009785716983991633,0.03487713101247322,0.018765507018322393,-0.022224603220820427,0.011949582025408745,0.012263255193829536,-0.014361798763275146,0.00898703932762146,-0.008069455623626709,-0.3784950434642517,2.060050325651023,2.9009564299739976,0.8202087879180908,0.36952245235443115,0.43670400977134705, 199, 113, 18, 153
1731320615177,9i,5.732666779973744,1.3s : 0.5s,6.542264175631999,0.010038996081627682,0.028789129682647192,0.01835956711539315,-0.014711424708366394,0.009979641065001488,0.0012724562548100948,-0.015714168548583984,0.00804603099822998,-0.005039840936660767,-0.3782597417478166,2.060343701406696,2.9011247433876344,0.8201574087142944,0.36930379271507263,0.4369855225086212, 199, 113, 18, 153
1731320615187,9i,5.732666779973744,1.3s : 0.5s,6.542264175631999,0.010284764476162226,0.03110859995068447,0.01031815304475687,-0.012333754450082779,0.05742465704679489,-0.10578715056180954,-0.010170578956604004,-0.0009424984455108643,-0.0014612674713134766,-0.3783759021012465,2.060860975648622,2.9014644326488255,0.819893479347229,0.36941173672676086,0.4373895227909088, 199, 113, 18, 153
1731320615197,9i,5.732666779973744,1.3s : 0.5s,6.542264175631999,0.010536835477447392,0.1889247436010025,0.020594817672822393,-0.06605943292379379,0.49399229884147644,-0.6854948401451111,-0.019897282123565674,-0.0045299530029296875,-0.002779245376586914,-0.3785583830061549,2.0613720245249145,2.901885134345453,0.8196105360984802,0.36958131194114685,0.4377768337726593, 199, 113, 18, 153
1731320615207,9i,5.732666779973744,1.3s : 0.5s,6.542264175631999,0.010761115019690544,0.40028463514389134,0.011501999702000328,-0.06742057204246521,0.8918781876564026,-0.9882317781448364,0.0067092180252075195,0.008354991674423218,-0.004180490970611572,-0.37846921157966157,2.0617409592291005,2.9022270360257982,0.8194779753684998,0.36949843168258667,0.43809470534324646, 199, 113, 18, 153
1731320615217,9i,5.732666779973744,1.3s : 0.5s,6.542264175631999,0.010964691697629644,0.37376261403833816,0.018392117605885622,-0.053561486303806305,0.36903518438339233,-0.28840920329093933,0.005571186542510986,0.013285607099533081,-0.01143348217010498,-0.3786311770115467,2.061669828154669,2.902640919030955,0.8194562196731567,0.36964893341064453,0.4380080997943878, 199, 113, 18, 153
1731320615227,9i,5.732666779973744,1.3s : 0.5s,6.542264175631999,0.011144853874115183,0.2689326181257436,0.017057333054002397,-0.05327093228697777,0.03337835147976875,-0.01081809587776661,0.0005236268043518066,0.003220587968826294,-0.016742348670959473,-0.37898627378408933,2.0620046977064725,2.9032376883996442,0.8191937208175659,0.3699788749217987,0.4382205605506897, 199, 113, 18, 153
1731320615237,9i,5.732666779973744,1.3s : 0.5s,6.542264175631999,0.011313768523113521,0.1919697372435793,0.02407100121763754,-0.03002060577273369,-0.014156765304505825,-0.03348831832408905,-0.012106001377105713,-0.008191853761672974,-0.019124627113342285,-0.37905075619677553,2.062002119924618,2.903532305694397,0.8191738724708557,0.370038777589798,0.43820720911026, 199, 113, 18, 153
1731320615247,9i,5.732666779973744,1.3s : 0.5s,6.542264175631999,0.011442635419356181,0.1349485222590914,0.02044745005243442,0.0025250855833292007,-0.025429924950003624,-0.026305776089429855,0.0037735700607299805,-0.009999752044677734,-0.017431676387786865,-0.3793050840521852,2.0618711252309163,2.9037624641975492,0.8191483020782471,0.3702750504016876,0.43805551528930664, 199, 113, 18, 153
1731320615257,9i,5.732666779973744,1.3s : 0.5s,6.542264175631999,0.011553660407382142,0.08695985872090405,0.015740271317759593,-0.0021808529272675514,-0.055365189909935,0.006151433568447828,-0.0016519427299499512,-0.004667878150939941,-0.014941155910491943,-0.3795608786530513,2.0616607145105386,2.903919780544,0.8191569447517395,0.37051263451576233,0.43783852458000183, 199, 113, 18, 153
1731320615266,9i,5.732666779973744,1.3s : 0.5s,6.542264175631999,0.011641617963908658,0.06942996019479726,0.013747776163611803,0.0018580971518531442,-0.11777769774198532,0.08280599862337112,-0.00030881166458129883,-0.010895967483520508,-0.00837758183479309,-0.37974419569674545,2.0614548608581167,2.9041149378562263,0.8191869258880615,0.37068289518356323,0.4376377761363983, 199, 113, 18, 153
1731320615276,9i,5.732666779973744,1.3s : 0.5s,6.542264175631999,0.011695687067026811,0.01894716214952751,0.016538954030895846,0.007743549533188343,-0.20898254215717316,0.19029538333415985,0.0050376057624816895,-0.01436719298362732,-0.006460905075073242,-0.3799494795043415,2.061245059817222,2.904305506684629,0.8192116022109985,0.3708735406398773,0.43743008375167847, 199, 113, 18, 153
1731320615286,9i,5.732666779973744,1.3s : 0.5s,6.542264175631999,0.011732403021283215,0.09046811481206443,0.009434760773301739,0.029912501573562622,-0.2914382517337799,0.2886837422847748,0.0024503469467163086,-0.007672697305679321,-0.004913270473480225,-0.38016749328267063,2.061097365651515,2.9044516035094756,0.8192047476768494,0.3710760176181793,0.4372709393501282, 199, 113, 18, 153
1731320615296,9i,5.732666779973744,1.3s : 0.5s,6.542264175631999,0.011760788849368702,0.1588487858298775,0.009658210247045752,0.04215504974126816,-0.3337455093860626,0.33729228377342224,-0.0015826821327209473,-0.008299469947814941,-0.004679203033447266,-0.3804481023196781,2.0609460069357435,2.904450213626158,0.819179117679596,0.37133657932281494,0.4370979368686676, 199, 113, 18, 153
1731320615306,9i,5.732666779973744,1.3s : 0.5s,6.542264175631999,0.011789937792942098,0.19570009668055924,0.013015315850581351,0.05872337520122528,-0.2927325367927551,0.296587198972702,-0.0055389404296875,-0.007426917552947998,-0.009141087532043457,-0.38079023305660475,2.0607846051544527,2.904208436721547,0.8191375732421875,0.371654212474823,0.4369059205055237, 199, 113, 18, 153
1731320615316,9i,5.732666779973744,1.3s : 0.5s,6.542264175631999,0.011825918272388247,0.1815561450259232,0.014879841725715636,0.02602388709783554,-0.16209092736244202,0.14863254129886627,-0.008223354816436768,-0.007204830646514893,-0.010093390941619873,-0.38115917941665683,2.0606848240766684,2.903951098954664,0.819060206413269,0.3719967007637024,0.43675971031188965, 199, 113, 18, 153
1731320615326,9i,5.732666779973744,1.3s : 0.5s,6.542264175631999,0.01186652638483911,0.10583618069534433,0.01831088530860246,-0.014053490944206715,0.06347855180501938,-0.08569660037755966,-0.010552942752838135,-0.014950424432754517,-0.0006393194198608398,-0.3813994028629442,2.060725255563296,2.9039685269152646,0.8189635872840881,0.37221968173980713,0.43675071001052856, 199, 113, 18, 153
1731320615336,9i,5.732666779973744,1.3s : 0.5s,6.542264175631999,0.011899013528941559,0.029961184300023553,0.020927347132006686,-0.0445253811776638,0.33529868721961975,-0.378052681684494,-0.006406188011169434,-0.019919127225875854,0.0003781318664550781,-0.3815412913338007,2.060854812649515,2.9041070787184142,0.8188604116439819,0.37235137820243835,0.4368319511413574, 199, 113, 18, 153
1731320615346,9i,5.732666779973744,1.3s : 0.5s,6.542264175631999,0.01193050029138752,0.20194715047937117,0.01078854070565733,-0.04151147976517677,0.6123217940330505,-0.6634852290153503,-0.003811061382293701,-0.009467124938964844,0.003498852252960205,-0.3816238223474097,2.0609000342257437,2.9041614774292106,0.8188136219978333,0.37242797017097473,0.4368545413017273, 199, 113, 18, 153
1731320615356,9i,5.732666779973744,1.3s : 0.5s,6.542264175631999,0.011961203276805369,0.3694452821008309,0.007145018991471855,-0.05623549595475197,0.7751688361167908,-0.8248039484024048,0.002326369285583496,0.003747999668121338,0.0056206583976745605,-0.38160628191973056,2.0607462123584446,2.904060920748668,0.8188864588737488,0.37241169810295105,0.43673163652420044, 199, 113, 18, 153
1731320615366,9i,5.732666779973744,1.3s : 0.5s,6.542264175631999,0.011969460414765164,0.4854805605975824,0.014137284377986515,-0.05190892517566681,0.7759643197059631,-0.8157108426094055,0.01101154088973999,0.0005234479904174805,0.008850693702697754,-0.38159513785081034,2.0606566019149857,2.904005734143948,0.8189292550086975,0.3724013566970825,0.43666020035743713, 199, 113, 18, 153
1731320615376,9i,5.732666779973744,1.3s : 0.5s,6.542264175631999,0.011954133698346673,0.531624757668522,0.015869876061866097,-0.0416484996676445,0.6603676676750183,-0.6854839324951172,0.008496701717376709,-0.007926106452941895,0.010809063911437988,-0.38155815851672376,2.060586252542973,2.903967542319366,0.8189721703529358,0.3723670244216919,0.43660908937454224, 199, 113, 18, 153
1731320615386,9i,5.732666779973744,1.3s : 0.5s,6.542264175631999,0.011913744751424087,0.499646027768296,0.018813436951986652,-0.03183501958847046,0.4396963119506836,-0.454799085855484,0.008765161037445068,-0.011554926633834839,0.011983364820480347,-0.3814894800377419,2.0605537920877914,2.903986711626728,0.8190090656280518,0.3723032772541046,0.4365946054458618, 199, 113, 18, 153
1731320615396,9i,5.732666779973744,1.3s : 0.5s,6.542264175631999,0.011853925593568019,0.3972972379264254,0.016312515907930217,-0.005748423747718334,0.17097856104373932,-0.1632598340511322,0.00851142406463623,-0.00879785418510437,0.010782003402709961,-0.3813465731364196,2.0604995797102896,2.9040023831860604,0.8190794587135315,0.37217065691947937,0.43657511472702026, 199, 113, 18, 153
1731320615406,9i,5.732666779973744,1.3s : 0.5s,6.542264175631999,0.011784669246386908,0.24652351420720164,0.01078602704178437,-0.0020831148140132427,-0.09709310531616211,0.12479859590530396,0.004886925220489502,-0.00816202163696289,0.0050830841064453125,-0.3811876052492189,2.060530546908342,2.9040543624029507,0.8191181421279907,0.3720231056213379,0.4366283118724823, 199, 113, 18, 153
1731320615416,9i,5.732666779973744,1.3s : 0.5s,6.542264175631999,0.011717218043004591,0.07275844805255294,0.01149816679651048,0.025019075721502304,-0.33375152945518494,0.36700138449668884,-0.0012984871864318848,-0.011403501033782959,0.0006942152976989746,-0.38106327594421957,2.0606461354713055,2.904135741343136,0.8191086053848267,0.37190768122673035,0.4367448091506958, 199, 113, 18, 153
1731320615426,9i,5.732666779973744,1.3s : 0.5s,6.542264175631999,0.011650712028305496,0.09783428415682252,0.01289537725202969,0.04112507775425911,-0.5014685988426208,0.53932785987854,-0.0010459423065185547,-0.012509018182754517,0.002953171730041504,-0.38102133933094445,2.06076672896578,2.9041498009558624,0.8190696239471436,0.371868759393692,0.4368508756160736, 199, 113, 18, 153
1731320615436,9i,5.732666779973744,1.3s : 0.5s,6.542264175631999,0.011586272042519868,0.23792189795613353,0.013666021954667217,0.037394650280475616,-0.5681254863739014,0.6200392842292786,-0.0007906556129455566,-0.01153784990310669,0.007281005382537842,-0.3809778305309113,2.060894718326922,2.9041189582290534,0.8190277814865112,0.3718283772468567,0.4369632303714752, 199, 113, 18, 153
1731320615446,9i,5.732666779973744,1.3s : 0.5s,6.542264175631999,0.011524255161896162,0.3282141196075681,0.018656948310354627,0.02683868072926998,-0.5477643013000488,0.586753785610199,-0.0025219321250915527,-0.01701238751411438,0.00723189115524292,-0.38090842560566446,2.061070351355001,2.904167213105847,0.8189738392829895,0.3717639446258545,0.4371192455291748, 199, 113, 18, 153
1731320615456,9i,5.732666779973744,1.3s : 0.5s,6.542264175631999,0.011473597237896196,0.36078062022392554,0.024459725823618186,0.007493412122130394,-0.44819894433021545,0.47220730781555176,-0.007078111171722412,-0.020546406507492065,0.011226028203964233,-0.3808361925246598,2.0612084448471832,2.9043052137456558,0.8189371824264526,0.3716968894004822,0.4372449815273285, 199, 113, 18, 153
1731320615466,9i,5.732666779973744,1.3s : 0.5s,6.542264175631999,0.011441560061968859,0.3365256171667793,0.02134555427715594,0.0021473830565810204,-0.28870993852615356,0.3012624680995941,-0.008424758911132812,-0.015691280364990234,0.011766046285629272,-0.380701647139275,2.061265583503009,2.904406102742947,0.8189563155174255,0.37157195806503296,0.43731534481048584, 199, 113, 18, 153
1731320615476,9i,5.732666779973744,1.3s : 0.5s,6.542264175631999,0.011426301203723474,0.2631463762663455,0.016427698146120863,-0.017507279291749,-0.09989564120769501,0.09449677169322968,-0.007317602634429932,-0.013538360595703125,0.005747586488723755,-0.3805685834682877,2.0612450734818415,2.9044970278799194,0.8190087080001831,0.37144842743873596,0.4373217225074768, 199, 113, 18, 153
1731320615486,9i,5.732666779973744,1.3s : 0.5s,6.542264175631999,0.011434737606094019,0.15663342666816576,0.019616739146922652,-0.0354953333735466,0.09055499732494354,-0.10353108495473862,-0.0111314058303833,-0.015206515789031982,0.005447030067443848,-0.38039323905581157,2.061239141318245,2.9046578265817855,0.819068968296051,0.371285617351532,0.4373476803302765, 199, 113, 18, 153
1731320615496,9i,5.732666779973744,1.3s : 0.5s,6.542264175631999,0.011469413127971284,0.03892239805453794,0.02091437733665816,-0.047590676695108414,0.2514672875404358,-0.2618119716644287,-0.012938499450683594,-0.01593184471130371,0.004022777080535889,-0.38023769343267316,2.061305487109361,2.9048916462325947,0.8190909028053284,0.3711411952972412,0.4374292194843292, 199, 113, 18, 153
1731320615506,9i,5.732666779973744,1.3s : 0.5s,6.542264175631999,0.01152438124245508,0.07828440016873994,0.02126371209281545,-0.05198169872164726,0.3492196500301361,-0.3618362843990326,-0.01079636812210083,-0.01735764741897583,0.00585627555847168,-0.3800806116476332,2.0614366555383286,2.905138090204805,0.819084882736206,0.37099534273147583,0.43756410479545593, 199, 113, 18, 153
1731320615516,9i,5.732666779973744,1.3s : 0.5s,6.542264175631999,0.011592052327717109,0.16294528374434358,0.01814785210674667,-0.04025140777230263,0.3780209422111511,-0.3838094472885132,-0.006692409515380859,-0.01449960470199585,0.008620768785476685,-0.37994411469310563,2.0615719496635863,2.9053343236461684,0.8190702199935913,0.3708685636520386,0.43769872188568115, 199, 113, 18, 153
1731320615526,9i,5.732666779973744,1.3s : 0.5s,6.542264175631999,0.011667457276381622,0.2117905986996138,0.012587677386889281,-0.027340134605765343,0.3438941538333893,-0.3427184522151947,-0.0038625001907348633,-0.0095195472240448,0.007273852825164795,-0.37983947496112175,2.0616664606229995,2.9054133276163974,0.8190633654594421,0.3707713782787323,0.43779456615448, 199, 113, 18, 153
1731320615536,9i,5.732666779973744,1.3s : 0.5s,6.542264175631999,0.011752306166972658,0.22305608334400764,0.013709774997626267,-0.01149698905646801,0.2676084339618683,-0.2584149241447449,-0.005129575729370117,-0.011018455028533936,0.006343424320220947,-0.3797775997384932,2.061745935021478,2.9053878849298638,0.8190487027168274,0.3707139194011688,0.43787044286727905, 199, 113, 18, 153
1731320615546,9i,5.732666779973744,1.3s : 0.5s,6.542264175631999,0.011848519569449417,0.19744640332720728,0.014842507141768903,0.008943038061261177,0.16250410676002502,-0.12854613363742828,-0.006161868572235107,-0.011549323797225952,0.006996035575866699,-0.37972494446411886,2.061832176669707,2.905290667317221,0.8190282583236694,0.3706650137901306,0.4379503130912781, 199, 113, 18, 153
1731320615556,9i,5.732666779973744,1.3s : 0.5s,6.542264175631999,0.011953034213452387,0.1459403685914546,0.010346563581122256,0.058578502386808395,0.0474395751953125,-0.005688914097845554,-0.004097461700439453,-0.0026061534881591797,0.009136199951171875,-0.3797067637550079,2.06178629344185,2.9048516377670506,0.8190540671348572,0.3706481456756592,0.4379158020019531, 199, 113, 18, 153
1731320615566,9i,5.732666779973744,1.3s : 0.5s,6.542264175631999,0.012061129006779485,0.08643720847166686,0.008337808385229843,0.09215670078992844,-0.042241841554641724,0.09449627250432968,-0.003143310546875,0.007532715797424316,0.0017020106315612793,-0.3798799226425561,2.0616407523987674,2.9040351076467994,0.8190613389015198,0.3708089590072632,0.437766432762146, 199, 113, 18, 153
1731320615576,9i,5.732666779973744,1.3s : 0.5s,6.542264175631999,0.012183453264981164,0.04212595202123555,0.013391475697782457,0.08199753612279892,-0.10053230822086334,0.15998554229736328,-0.009181678295135498,0.009747326374053955,-0.00013428926467895508,-0.3800912899015745,2.061561867615285,2.9031495036016426,0.81902676820755,0.37100523710250854,0.43766486644744873, 199, 113, 18, 153
1731320615586,9i,5.732666779973744,1.3s : 0.5s,6.542264175631999,0.012323868254704835,0.052887023208383614,0.0144179573098929,0.07157978415489197,-0.1333288699388504,0.1909615695476532,-0.01110696792602539,0.0034207701683044434,0.008532941341400146,-0.3802328346765829,2.061554503019769,2.9024068065742554,0.8189834356307983,0.37113669514656067,0.4376339614391327, 199, 113, 18, 153
1731320615596,9i,5.732666779973744,1.3s : 0.5s,6.542264175631999,0.012469314152298629,0.07937755675281591,0.013031413553904048,0.05602865666151047,-0.12442352622747421,0.18489068746566772,-0.005969107151031494,-0.004530072212219238,0.010661423206329346,-0.3802996727257681,2.0616340509986157,2.9017872380683514,0.8189267516136169,0.37119874358177185,0.4376874268054962, 199, 113, 18, 153
1731320615606,9i,5.732666779973744,1.3s : 0.5s,6.542264175631999,0.01262327767212457,0.09273241725609972,0.01108959680785118,0.07262387871742249,-0.08990177512168884,0.1451248973608017,-0.008189797401428223,0.00040394067764282227,0.007466137409210205,-0.3803760087586224,2.0617325471953825,2.9011403678825585,0.8188585638999939,0.3712696433067322,0.43775469064712524, 199, 113, 18, 153
1731320615616,9i,5.732666779973744,1.3s : 0.5s,6.542264175631999,0.012791851439378157,0.09203044608013689,0.017137020346800657,0.08318191021680832,-0.03519005700945854,0.09586943686008453,-0.012968719005584717,0.011192023754119873,-0.00047791004180908203,-0.3806224012374294,2.0618899650069475,2.900399568911452,0.8187090754508972,0.3714984059333801,0.4378404915332794, 199, 113, 18, 153
1731320615626,9i,5.732666779973744,1.3s : 0.5s,6.542264175631999,0.012989725980015757,0.0864085345627704,0.034152267026166847,0.10329410433769226,0.016549304127693176,0.042623791843652725,-0.017495453357696533,0.02891603112220764,-0.004914224147796631,-0.3809748348441087,2.062091113709133,2.89947044826832,0.8185056447982788,0.37182557582855225,0.4379434585571289, 199, 113, 18, 153
1731320615636,9i,5.732666779973744,1.3s : 0.5s,6.542264175631999,0.01322313069035299,0.08048830301881338,0.0408610157176819,0.10439752042293549,0.06154012680053711,0.0018525589257478714,-0.016764938831329346,0.03713300824165344,-0.00311434268951416,-0.381360939733718,2.0625290217763164,2.8985902445051543,0.8181870579719543,0.37218397855758667,0.4382339417934418, 199, 113, 18, 153
1731320615646,9i,5.732666779973744,1.3s : 0.5s,6.542264175631999,0.013496155233452331,0.07113377149856695,0.04816245681208884,0.1264953762292862,0.09233371913433075,-0.01506437361240387,-0.014746308326721191,0.04535019397735596,0.00674748420715332,-0.3820593673225466,2.0629907012015294,2.8975799035112146,0.8177553415298462,0.37283214926719666,0.4384886920452118, 199, 113, 18, 153
1731320615656,9i,5.732666779973744,1.3s : 0.5s,6.542264175631999,0.013813333826959583,0.07888421523556485,0.05478590936153294,0.1592300683259964,0.11865614354610443,-0.0492711141705513,-0.013657927513122559,0.052099406719207764,0.010030388832092285,-0.383139767020849,2.063687904527335,2.896460516952058,0.8170941472053528,0.37383443117141724,0.4388679265975952, 199, 113, 18, 153
1731320615666,9i,5.732666779973744,1.3s : 0.5s,6.542264175631999,0.014224330592349744,0.1060708227626268,0.07462845972612954,0.21675248444080353,0.15306098759174347,-0.09562475979328156,-0.014025270938873291,0.07123875617980957,0.01725509762763977,-0.384681443426074,2.064611801996334,2.8951138134019168,0.816179633140564,0.37526386976242065,0.43934881687164307, 199, 113, 18, 153
1731320615676,9i,5.732666779973744,1.3s : 0.5s,6.542264175631999,0.01481790782990493,0.14761409769781117,0.11844768631788566,0.2917954921722412,0.18914318084716797,-0.14153063297271729,-0.012543261051177979,0.11506801843643188,0.02513706684112549,-0.38686540935119756,2.065678096581609,2.8933098280944347,0.8149877190589905,0.3772873282432556,0.43982866406440735, 199, 113, 18, 153
1731320615686,9i,5.732666779973744,1.3s : 0.5s,6.542264175631999,0.01574732103756899,0.19385091367779456,0.16865767024170195,0.3442046642303467,0.22839471697807312,-0.19179247319698334,-0.006723642349243164,0.16519060730934143,0.03335064649581909,-0.38985211004336046,2.066933026495726,2.89112822247432,0.8134403824806213,0.3800516128540039,0.44031262397766113, 199, 113, 18, 153
1731320615696,9i,5.732666779973744,1.3s : 0.5s,6.542264175631999,0.017243867456391945,0.25452217193278154,0.19943989975765292,0.44256311655044556,0.2730780243873596,-0.2905454635620117,-0.008690118789672852,0.19346696138381958,0.047658056020736694,-0.3937465230792859,2.068507092807007,2.888696332315037,0.8114396929740906,0.38365092873573303,0.4408825635910034, 199, 113, 18, 153
1731320615706,9i,5.732666779973744,1.3s : 0.5s,6.542264175631999,0.019419664320671562,0.29727523488651697,0.19459484328068882,0.31313881278038025,0.3653203248977661,-0.3864474892616272,-0.026346325874328613,0.18303552269935608,0.060588955879211426,-0.3985535584203283,2.0709317066923254,2.8866990102437455,0.8087406754493713,0.38808566331863403,0.4419592320919037, 199, 113, 18, 153
1731320615716,9i,5.732666779973744,1.3s : 0.5s,6.542264175631999,0.022388013085362708,0.3623496962657944,0.22997790696660123,0.3662996292114258,0.4571651220321655,-0.5191182494163513,-0.04122251272201538,0.20812493562698364,0.08873867988586426,-0.40406898968602467,2.0746968456392976,2.8858941151680053,0.8051843047142029,0.39316290616989136,0.44396084547042847, 199, 113, 18, 153
1731320615726,9i,5.732666779973744,1.3s : 0.5s,6.542264175631999,0.026309087877960827,0.4423894685693479,0.2959133368175038,0.3853828012943268,0.5547899603843689,-0.6706409454345703,-0.039867937564849854,0.2716341018676758,0.11040908098220825,-0.4111138575747243,2.0795538240747535,2.88546485077612,0.8005796670913696,0.3996306359767914,0.44650617241859436, 199, 113, 18, 153
1731320615736,9i,5.732666779973744,1.3s : 0.5s,6.542264175631999,0.031543197499772496,0.5428759690999462,0.3906644773826268,0.500407874584198,0.6464117765426636,-0.8269323110580444,-0.052505552768707275,0.3662949204444885,0.12525945901870728,-0.4197411731195073,2.0854738998564954,2.88528715374682,0.7948915362358093,0.40752410888671875,0.44952383637428284, 199, 113, 18, 153
1731320615746,9i,5.732666779973744,1.3s : 0.5s,6.542264175631999,0.03834847648840215,0.6572117303220611,0.48127136627355704,0.6247233748435974,0.7713882923126221,-0.9549459218978882,-0.06907719373703003,0.4525185525417328,0.1485847532749176,-0.4302970330563683,2.092310769051554,2.884784126027071,0.7880253791809082,0.41714078187942505,0.45277929306030273, 199, 113, 18, 153
1731320615756,9i,5.732666779973744,1.3s : 0.5s,6.542264175631999,0.0467544322027316,0.7799774996397751,0.5517055017578357,0.8390039205551147,0.8882625699043274,-1.0196760892868042,-0.09066617488861084,0.5301671028137207,0.12280654907226562,-0.44245693815404263,2.100023842778819,2.88335983635572,0.7800734639167786,0.428161084651947,0.4562492370605469, 199, 113, 18, 153
1731320615766,9i,5.732666779973744,1.3s : 0.5s,6.542264175631999,0.05680963950520457,0.9201847179548532,0.6270984688825623,1.1555869579315186,0.9902874827384949,-1.0893909931182861,-0.10714644193649292,0.5999767780303955,0.14764821529388428,-0.4565348179793292,2.1078478392559816,2.879762531761917,0.7712242007255554,0.4408404529094696,0.45920905470848083, 199, 113, 18, 153
1731320615776,9i,5.732666779973744,1.3s : 0.5s,6.542264175631999,0.06839177906010004,1.083613852474798,0.6755490448815534,1.4667307138442993,1.1332733631134033,-1.1835464239120483,-0.1400713324546814,0.62348473072052,0.21911942958831787,-0.47299642033921435,2.1156952072834834,2.873751915360056,0.7612870931625366,0.4555557668209076,0.46142253279685974, 199, 113, 18, 153
1731320615786,9i,5.732666779973744,1.3s : 0.5s,6.542264175631999,0.0814598031211513,1.2821416198203146,0.738225697420462,1.816351056098938,1.335389494895935,-1.324934720993042,-0.19449728727340698,0.6563075184822083,0.2764207422733307,-0.49220254581659306,2.1241081520960265,2.8653607713617344,0.7497950196266174,0.4725681245326996,0.4631268084049225, 199, 113, 18, 153
1731320615796,9i,5.732666779973744,1.3s : 0.5s,6.542264175631999,0.09598484847819469,1.5090953778203782,0.8056295701530127,2.1434378623962402,1.5689144134521484,-1.4916024208068848,-0.26006776094436646,0.6863366365432739,0.3321833610534668,-0.5146052642246481,2.1334838253737614,2.854751018847999,0.7362794280052185,0.49219128489494324,0.4643712341785431, 199, 113, 18, 153
1731320615806,9i,5.732666779973744,1.3s : 0.5s,6.542264175631999,0.1120863630609748,1.7604335599597036,0.8953362733060417,2.531261444091797,1.8039458990097046,-1.6213231086730957,-0.3284112811088562,0.7356643676757812,0.3906033933162689,-0.5403038730921338,2.1437748389576514,2.8416394133662988,0.7205925583839417,0.514396607875824,0.4649110436439514, 199, 113, 18, 153
1731320615816,9i,5.732666779973744,1.3s : 0.5s,6.542264175631999,0.12984184068932667,2.029461731497682,0.9747940832210885,2.919484853744507,1.9877947568893433,-1.8033915758132935,-0.38059675693511963,0.8085635900497437,0.38935142755508423,-0.5695407070263574,2.154405937144596,2.825794377173767,0.7027555704116821,0.5392453074455261,0.46405741572380066, 199, 113, 18, 153
1731320615825,9i,5.732666779973744,1.3s : 0.5s,6.542264175631999,0.14912703224526297,2.3054955808465123,1.03011370661564,3.255574941635132,2.1593213081359863,-2.0206799507141113,-0.4363904595375061,0.8610937595367432,0.359465092420578,-0.6027933934937281,2.165096076770557,2.807527609342025,0.6825146675109863,0.5669457316398621,0.4612440764904022, 199, 113, 18, 153
1731320615835,9i,5.732666779973744,1.3s : 0.5s,6.542264175631999,0.16987687045107305,2.578103606217629,1.0926120811499525,3.529003381729126,2.336385726928711,-2.2441012859344482,-0.4975929856300354,0.9076940417289734,0.34970545768737793,-0.6395542477125771,2.176192901627544,2.787907180322668,0.6597633957862854,0.5968378186225891,0.45661476254463196, 199, 113, 18, 153
1731320615845,9i,5.732666779973744,1.3s : 0.5s,6.542264175631999,0.19201377486257323,2.8376945439032824,1.1467736858320428,3.754861831665039,2.4845361709594727,-2.461942434310913,-0.5353257060050964,0.9465010166168213,0.36421436071395874,-0.6796963612159449,2.1876325876619216,2.7672102193792862,0.6344314813613892,0.6285569071769714,0.4499029815196991, 199, 113, 18, 153
1731320615855,9i,5.732666779973744,1.3s : 0.5s,6.542264175631999,0.2151117743690177,3.0890908334229636,1.1442819146935108,4.008638381958008,2.5837149620056152,-2.696310043334961,-0.5354074835777283,0.9257944822311401,0.40696990489959717,-0.7232051766432064,2.199039389190827,2.7454686890191256,0.6065439581871033,0.6617909669876099,0.44061005115509033, 199, 113, 18, 153
1731320615865,9i,5.732666779973744,1.3s : 0.5s,6.542264175631999,0.23862506468927971,3.3142442687642935,1.1039341877807156,4.103307723999023,2.6185646057128906,-3.0177433490753174,-0.515163004398346,0.8826565146446228,0.41736704111099243,-0.7702190390826881,2.2103712328853975,2.72380245685698,0.575892984867096,0.6962924599647522,0.42839717864990234, 199, 113, 18, 153
1731320615875,9i,5.732666779973744,1.3s : 0.5s,6.542264175631999,0.2624643565980108,3.5248627159815267,1.1055743522401906,4.178234577178955,2.6546289920806885,-3.3860793113708496,-0.5030098557472229,0.9001282453536987,0.39880430698394775,-0.8205776401134229,2.222703871446461,2.7040052805895245,0.5419808030128479,0.731539785861969,0.41364985704421997, 199, 113, 18, 153
1731320615885,9i,5.732666779973744,1.3s : 0.5s,6.542264175631999,0.2867987537011908,3.7290262174957474,1.1410960385746054,4.332221984863281,2.6493420600891113,-3.6972196102142334,-0.4767480492591858,0.9641273021697998,0.3811430335044861,-0.8745295685359316,2.2357406490278966,2.685821476666535,0.5047174692153931,0.767241895198822,0.3957277536392212, 199, 113, 18, 153
1731320615895,9i,5.732666779973744,1.3s : 0.5s,6.542264175631999,0.3114690874454602,3.9108902454815984,1.140440529486251,4.419823169708252,2.568840742111206,-3.979426145553589,-0.39938655495643616,1.0081651210784912,0.3531261384487152,-0.9317616838885905,2.2485891057352503,2.668753055535958,0.4645874798297882,0.8026719093322754,0.3740009367465973, 199, 113, 18, 153
1731320615905,9i,5.732666779973744,1.3s : 0.5s,6.542264175631999,0.3362624591767278,4.059443874100353,1.1397340439775139,4.388919353485107,2.421785831451416,-4.281744480133057,-0.2925708591938019,1.0516481399536133,0.327768474817276,-0.9915423492258514,2.2620245878854823,2.6545652250949057,0.42175179719924927,0.8368712663650513,0.3489587604999542, 199, 113, 18, 153
1731320615915,9i,5.732666779973744,1.3s : 0.5s,6.542264175631999,0.36109714199782045,4.1884727231473065,1.1457607141489736,4.339241027832031,2.307548761367798,-4.586632251739502,-0.20617160201072693,1.081829309463501,0.3160794675350189,-1.0534382518212282,2.2777257950731484,2.6451120997176956,0.37606289982795715,0.8691288828849792,0.3212343156337738, 199, 113, 18, 153
1731320615925,9i,5.732666779973744,1.3s : 0.5s,6.542264175631999,0.38595786087977263,4.308063444693776,1.1584002695481053,4.2763190269470215,2.1955769062042236,-4.912472724914551,-0.14619854092597961,1.110108494758606,0.2969449460506439,-1.1174479990919564,2.2979032083633664,2.6424100757880473,0.3272135257720947,0.8989856243133545,0.2911286950111389, 199, 113, 18, 153
1731320615935,9i,5.732666779973744,1.3s : 0.5s,6.542264175631999,0.4111829686352998,4.419311661412358,1.2237892884259458,4.21689510345459,2.1174967288970947,-5.181297779083252,-0.08908280730247498,1.1758191585540771,0.32737407088279724,-1.1832787475475663,2.325669882216751,2.649059475136359,0.2752399742603302,0.925849974155426,0.25892961025238037, 199, 113, 18, 153
1731320615945,9i,5.732666779973744,1.3s : 0.5s,6.542264175631999,0.4371174583778773,4.5111616199328815,1.308272498144788,4.125539302825928,1.9923145771026611,-5.392799377441406,-0.014868199825286865,1.2383694648742676,0.4216597378253937,-1.2501240950462602,2.3655636379215577,2.669523026259911,0.22078557312488556,0.9490237236022949,0.22496196627616882, 199, 113, 18, 153
1731320615955,9i,5.732666779973744,1.3s : 0.5s,6.542264175631999,0.463795150425057,4.601983352001331,1.3628405261416296,4.008329391479492,1.9025334119796753,-5.683969020843506,0.05589969456195831,1.274807333946228,0.4786186218261719,-1.3172791663030772,2.4302845618270554,2.7164275191402862,0.1637353003025055,0.9680362939834595,0.18999096751213074, 199, 113, 18, 153
1731320615965,9i,5.732666779973744,1.3s : 0.5s,6.542264175631999,0.49096015957097927,4.694568478097659,1.36833288360644,3.9647488594055176,1.879400372505188,-5.8917236328125,0.10955008864402771,1.2990968227386475,0.4155491590499878,-1.3841174768576479,2.5458043852473624,2.815442160429933,0.104149229824543,0.9826260209083557,0.15361888706684113, 199, 113, 18, 153
1731320615975,9i,5.732666779973744,1.3s : 0.5s,6.542264175631999,0.5190015027647209,4.810476524821111,1.4566574263626066,4.176430702209473,1.8754932880401611,-6.045652389526367,0.15322086215019226,1.3811142444610596,0.43691837787628174,-1.4477255842942345,2.7860547458696145,3.039282086881874,0.04273250326514244,0.9924363493919373,0.11508359014987946, 199, 113, 18, 153
1731320615985,9i,5.732666779973744,1.3s : 0.5s,6.542264175631999,0.5484713784797065,4.956123318982342,1.5859678404238289,4.516760349273682,1.8060367107391357,-6.223504543304443,0.2007502317428589,1.4704346656799316,0.5592988729476929,-1.4959656933679681,-2.8721241979716905,-2.634767108013285,-0.019903067499399185,0.9972015023231506,0.07206401228904724, 199, 113, 18, 153
1731320615995,9i,5.732666779973744,1.3s : 0.5s,6.542264175631999,0.5787291987860931,5.104622069964579,1.5744276375222896,4.675403118133545,1.6754729747772217,-6.439517498016357,0.28564178943634033,1.4328210353851318,0.5867325067520142,-1.483184273205847,-1.8639155667364848,-1.6413272128697303,-0.08376800268888474,0.9961645007133484,0.025282269343733788, 199, 113, 18, 153
1731320616005,9i,5.732666779973744,1.3s : 0.5s,6.542264175631999,0.6093461488956151,5.235932720458626,1.5765934304553384,4.702789783477783,1.5286433696746826,-6.628688812255859,0.385425865650177,1.3964593410491943,0.6220892667770386,-1.4198322727295998,-1.4167534662361987,-1.2075121822061323,-0.14860942959785461,0.9886265397071838,-0.023075029253959656, 199, 113, 18, 153
1731320616015,9i,5.732666779973744,1.3s : 0.5s,6.542264175631999,0.6401275234999378,5.338450904422437,1.6014522956935047,4.712753772735596,1.323796033859253,-6.734246253967285,0.49091482162475586,1.3662676811218262,0.6759916543960571,-1.3436297916121793,-1.24630802358195,-1.0487127541014745,-0.21346426010131836,0.974308431148529,-0.07180469483137131, 199, 113, 18, 153
1731320616025,9i,5.732666779973744,1.3s : 0.5s,6.542264175631999,0.6709354264795854,5.418923918765053,1.6232042446620836,4.709708213806152,1.0972951650619507,-6.833935260772705,0.5889945030212402,1.3366315364837646,0.7080209255218506,-1.2635277676995227,-1.1622413471615676,-0.9741869396524717,-0.27756261825561523,0.9531632661819458,-0.12016082555055618, 199, 113, 18, 153
1731320616035,9i,5.732666779973744,1.3s : 0.5s,6.542264175631999,0.7019232209851276,5.4909803221031925,1.6576587849130757,4.726345062255859,0.9194030165672302,-6.943732261657715,0.6453083157539368,1.3303911685943604,0.7493124604225159,-1.1813040404219288,-1.1140145005826465,-0.9335016175079276,-0.34078866243362427,0.9251019954681396,-0.16747957468032837, 199, 113, 18, 153
1731320616045,9i,5.732666779973744,1.3s : 0.5s,6.542264175631999,0.7333970477248027,5.555526324297556,1.7078401220591937,4.8100104331970215,0.7895374298095703,-6.98347282409668,0.6773880124092102,1.3450467586517334,0.8054269552230835,-1.0977125127510268,-1.08218536613139,-0.9077357273826457,-0.4023177921772003,0.8901674151420593,-0.2138742357492447, 199, 113, 18, 153
1731320616055,9i,5.732666779973744,1.3s : 0.5s,6.542264175631999,0.7655169673568168,5.602786227458249,1.7591097567940124,4.847146987915039,0.6243936419487,-6.9864115715026855,0.7311033010482788,1.3611817359924316,0.8409157991409302,-1.013354876237773,-1.0594299798808609,-0.8895601377326492,-0.46134325861930847,0.8486114144325256,-0.25888457894325256, 199, 113, 18, 153
1731320616065,9i,5.732666779973744,1.3s : 0.5s,6.542264175631999,0.7982945344348439,5.633821006256056,1.809732985440721,4.877976894378662,0.4274826645851135,-6.968796730041504,0.8182220458984375,1.376793384552002,0.8426660895347595,-0.9287885369931583,-1.043151858769184,-0.8759796327771578,-0.517364501953125,0.800895094871521,-0.3014978766441345, 199, 113, 18, 153
1731320616075,9i,5.732666779973744,1.3s : 0.5s,6.542264175631999,0.8316039336843222,5.649412428637482,1.8523013836856947,4.8927788734436035,0.21425847709178925,-6.933113098144531,0.9248846173286438,1.3744007349014282,0.8286322951316833,-0.8442241252562774,-1.0317692550987867,-0.8651664614247389,-0.570117712020874,0.747455894947052,-0.34099191427230835, 199, 113, 18, 153
1731320616085,9i,5.732666779973744,1.3s : 0.5s,6.542264175631999,0.8653312102781348,5.64652000691272,1.8925695136090706,4.8855414390563965,-0.014657262712717056,-6.831357002258301,1.0321235656738281,1.3664236068725586,0.8058702349662781,-0.7601665061240256,-1.024242649289838,-0.855866701430478,-0.6191444396972656,0.6890421509742737,-0.3766710162162781, 199, 113, 18, 153
1731320616095,9i,5.732666779973744,1.3s : 0.5s,6.542264175631999,0.8995292296451092,5.611669721343667,1.9415244435026486,4.826585292816162,-0.2938000559806824,-6.7123918533325195,1.121766448020935,1.36488676071167,0.8051343560218811,-0.6772009426553192,-1.020463767608813,-0.8475382293607867,-0.6642621755599976,0.6266140937805176,-0.4075666069984436, 199, 113, 18, 153
1731320616105,9i,5.732666779973744,1.3s : 0.5s,6.542264175631999,0.934005099313946,5.559626725555546,1.9409045343400624,4.7444891929626465,-0.528597891330719,-6.585865497589111,1.1722702980041504,1.3223052024841309,0.8027463555335999,-0.5956064774164846,-1.020139994502148,-0.8397463518196002,-0.7054428458213806,0.5610108971595764,-0.43314796686172485, 199, 113, 18, 153
1731320616115,9i,5.732666779973744,1.3s : 0.5s,6.542264175631999,0.9687652373928005,5.480586454960655,1.8771336757980772,4.600644588470459,-0.6960359215736389,-6.406102657318115,1.1876308917999268,1.2268264293670654,0.7797824144363403,-0.5158757618982925,-1.0226291147929711,-0.8325315276788136,-0.7424099445343018,0.4932968318462372,-0.45330536365509033, 199, 113, 18, 153
1731320616125,9i,5.732666779973744,1.3s : 0.5s,6.542264175631999,1.0026421293732164,5.376627685482974,1.8032535517823394,4.440392017364502,-0.8207235336303711,-6.201179027557373,1.1935094594955444,1.1215606927871704,0.7545595765113831,-0.4386517362911654,-1.027129064789082,-0.825584253044443,-0.7747930884361267,0.4247192442417145,-0.4683047831058502, 199, 113, 18, 153
1731320616135,9i,5.732666779973744,1.3s : 0.5s,6.542264175631999,1.0353758911850108,5.241989849885979,1.7386894708558835,4.1895599365234375,-0.9374197721481323,-5.979722023010254,1.2126235961914062,1.026263952255249,0.7066593170166016,-0.36434236307095247,-1.033517463387455,-0.819179936382853,-0.8027114868164062,0.3563348948955536,-0.47820472717285156, 199, 113, 18, 153
1731320616145,9i,5.732666779973744,1.3s : 0.5s,6.542264175631999,1.0669378125164855,5.084970420896665,1.6983668548332138,3.928203821182251,-1.0820549726486206,-5.754278182983398,1.2399433851242065,0.9562827348709106,0.6576577425003052,-0.29329602779028946,-1.0418595602922271,-0.813499719654585,-0.826475977897644,0.2891090512275696,-0.4830666482448578, 199, 113, 18, 153
1731320616155,9i,5.732666779973744,1.3s : 0.5s,6.542264175631999,1.0973649761093107,4.921087767032802,1.6616993154183701,3.7059292793273926,-1.2292829751968384,-5.5481696128845215,1.2560977935791016,0.8892416954040527,0.6266674995422363,-0.22548773753375637,-1.0521833408268801,-0.8084619033163072,-0.8465213775634766,0.22358177602291107,-0.48312801122665405, 199, 113, 18, 153
1731320616165,9i,5.732666779973744,1.3s : 0.5s,6.542264175631999,1.126508899409863,4.763889749825329,1.5860413082692024,3.579571008682251,-1.280869722366333,-5.355432510375977,1.2415013313293457,0.817097008228302,0.5536731481552124,-0.16022644541736994,-1.0637315277450239,-0.8029754057007769,-0.8629764914512634,0.1595417559146881,-0.47939333319664, 199, 113, 18, 153
1731320616175,9i,5.732666779973744,1.3s : 0.5s,6.542264175631999,1.1542823771936277,4.594137215007695,1.5037774453400128,3.2939813137054443,-1.308714747428894,-5.171664714813232,1.2099987268447876,0.7577898502349854,0.47223323583602905,-0.09758953334052327,-1.0760623666979594,-0.7978632518302379,-0.8759075403213501,0.09743470698595047,-0.47253844141960144, 199, 113, 18, 153
1731320616185,9i,5.732666779973744,1.3s : 0.5s,6.542264175631999,1.1810333041432723,4.401580061139826,1.47853654510188,2.894374132156372,-1.4041677713394165,-4.960123538970947,1.1998765468597412,0.7413549423217773,0.44357573986053467,-0.03843967678398554,-1.0893087445783773,-0.7940271609899602,-0.8856523633003235,0.03843021020293236,-0.46275606751441956, 199, 113, 18, 153
1731320616195,9i,5.732666779973744,1.3s : 0.5s,6.542264175631999,1.20700936548476,4.188378098183616,1.4725908439676243,2.4757208824157715,-1.4832205772399902,-4.720621585845947,1.2106695175170898,0.7050731182098389,0.45351406931877136,0.016810992862112642,-1.1036983327224759,-0.7919554767916499,-0.8927525877952576,-0.016810201108455658,-0.4502333700656891, 199, 113, 18, 153
1731320616205,9i,5.732666779973744,1.3s : 0.5s,6.542264175631999,1.2322649260760596,3.9724574957483787,1.4414180571440323,2.133389711380005,-1.5038527250289917,-4.502999782562256,1.1967754364013672,0.6500032544136047,0.4721338152885437,0.0682079862589407,-1.1186696164133687,-0.7916248690253185,-0.8974284529685974,-0.06815510988235474,-0.4358637034893036, 199, 113, 18, 153
1731320616215,9i,5.732666779973744,1.3s : 0.5s,6.542264175631999,1.2568224012799838,3.7629334297096193,1.389467618742459,1.897413730621338,-1.511580467224121,-4.268931865692139,1.1589308977127075,0.6139568090438843,0.45886433124542236,0.11632471192726876,-1.1336400102904116,-0.7921467208370836,-0.8998367786407471,-0.11606255173683167,-0.4205038249492645, 199, 113, 18, 153
1731320616225,9i,5.732666779973744,1.3s : 0.5s,6.542264175631999,1.2806327399954855,3.569275440166754,1.33351207361702,1.6687445640563965,-1.5317435264587402,-4.090471267700195,1.1240143775939941,0.5823205709457397,0.4192241430282593,0.1616831355284824,-1.1486650653334063,-0.7931495319960068,-0.9003204107284546,-0.16097961366176605,-0.4043620526790619, 199, 113, 18, 153
1731320616235,9i,5.732666779973744,1.3s : 0.5s,6.542264175631999,1.303568873339647,3.381954031337999,1.2904473207198957,1.3966407775878906,-1.568565845489502,-3.893333673477173,1.1147985458374023,0.5340933799743652,0.370435893535614,0.20433561186070662,-1.163715374249381,-0.7951886807529303,-0.8991765975952148,-0.20291663706302643,-0.3876935839653015, 199, 113, 18, 153
1731320616245,9i,5.732666779973744,1.3s : 0.5s,6.542264175631999,1.325304661159146,3.199724782097649,1.2524999650920563,1.1544082164764404,-1.6327695846557617,-3.6645703315734863,1.1299095153808594,0.44299232959747314,0.3095455467700958,0.24403708780772654,-1.1790173100577066,-0.7979866981975904,-0.8968465924263,-0.24162206053733826,-0.3705196678638458, 199, 113, 18, 153
1731320616255,9i,5.732666779973744,1.3s : 0.5s,6.542264175631999,1.3454905953518932,3.0383843003724205,1.222078865103581,0.8658298254013062,-1.7359927892684937,-3.5226452350616455,1.1521823406219482,0.3336538076400757,0.23372578620910645,0.28101774669972873,-1.1947035604323806,-0.8020677227910943,-0.8936221599578857,-0.2773336172103882,-0.3528817296028137, 199, 113, 18, 153
1731320616265,9i,5.732666779973744,1.3s : 0.5s,6.542264175631999,1.3640991181991469,2.8885919614135083,1.1857005233481297,0.7106420993804932,-1.724897027015686,-3.342144727706909,1.1429966688156128,0.2600870728492737,0.1783229112625122,0.31581753109280225,-1.2104750948795564,-0.8071619179137033,-0.8895024061203003,-0.3105936646461487,-0.3351374864578247, 199, 113, 18, 153
1731320616275,9i,5.732666779973744,1.3s : 0.5s,6.542264175631999,1.3812252932971514,2.7569434780472126,1.1202467228128912,0.6289829611778259,-1.701570749282837,-3.2021894454956055,1.0908148288726807,0.21448415517807007,0.13810241222381592,0.34872164014415385,-1.2258192594147586,-0.8123889707130953,-0.8844397068023682,-0.34169667959213257,-0.3178204596042633, 199, 113, 18, 153
1731320616285,9i,5.732666779973744,1.3s : 0.5s,6.542264175631999,1.3971968635844276,2.6321386099861996,1.056720863437201,0.6051883697509766,-1.6593385934829712,-3.0276846885681152,1.0282936096191406,0.20750948786735535,0.12732261419296265,0.38007719293718834,-1.2408961389784645,-0.8169232534552384,-0.8785589933395386,-0.37099215388298035,-0.30083033442497253, 199, 113, 18, 153
1731320616295,9i,5.732666779973744,1.3s : 0.5s,6.542264175631999,1.412198762077231,2.5024632871179615,1.0065826220939427,0.4560586214065552,-1.6074473857879639,-2.8406717777252197,0.9812628030776978,0.1847369372844696,0.12729552388191223,0.40954510564710717,-1.255456593353879,-0.821361226237428,-0.872070848941803,-0.3981921076774597,-0.28449156880378723, 199, 113, 18, 153
1731320616305,9i,5.732666779973744,1.3s : 0.5s,6.542264175631999,1.426122654069649,2.374392039559751,0.9753838927171258,0.31401917338371277,-1.5728073120117188,-2.667114019393921,0.9615105986595154,0.11624667048454285,0.11557602882385254,0.43661233624955087,-1.2692620495907676,-0.8263666439764844,-0.8653039336204529,-0.42287203669548035,-0.26912522315979004, 199, 113, 18, 153
1731320616315,9i,5.732666779973744,1.3s : 0.5s,6.542264175631999,1.4387128987574342,2.251795347210409,0.9484167653558805,0.21405065059661865,-1.5598714351654053,-2.493056058883667,0.9437651038169861,0.020288079977035522,0.09159794449806213,0.46197657034851275,-1.2824809969547426,-0.8317155330598492,-0.8582242131233215,-0.44571834802627563,-0.25453129410743713, 199, 113, 18, 153
1731320616325,9i,5.732666779973744,1.3s : 0.5s,6.542264175631999,1.4498586125385964,2.1327603317484085,0.9026522798693803,0.13497154414653778,-1.546610713005066,-2.3100476264953613,0.8994660377502441,-0.048040956258773804,0.058600783348083496,0.48548569583373985,-1.2954247150192963,-0.8372481499032943,-0.8511261343955994,-0.4666379988193512,-0.2404855638742447, 199, 113, 18, 153
1731320616335,9i,5.732666779973744,1.3s : 0.5s,6.542264175631999,1.4596450337410882,2.01253300941122,0.8355925697748903,0.16706477105617523,-1.500220775604248,-2.1079211235046387,0.828636646270752,-0.08987531065940857,0.05914963781833649,0.5071479709256923,-1.308212265237662,-0.842224446098043,-0.8441700339317322,-0.48568618297576904,-0.22690477967262268, 199, 113, 18, 153
1731320616345,9i,5.732666779973744,1.3s : 0.5s,6.542264175631999,1.4680041433992579,1.8928978082495738,0.7782000083864081,0.16461439430713654,-1.4404714107513428,-1.9296495914459229,0.7605812549591064,-0.15357989072799683,0.0593685507774353,0.5270377371321817,-1.3209763450053924,-0.8460340157747395,-0.837470293045044,-0.5029752850532532,-0.2136806845664978, 199, 113, 18, 153
1731320616355,9i,5.732666779973744,1.3s : 0.5s,6.542264175631999,1.475063572878155,1.7675331736711388,0.7330217509377152,0.11387024819850922,-1.3674108982086182,-1.729042649269104,0.703907310962677,-0.1930551528930664,0.06756547093391418,0.5450515015844059,-1.3331811436707526,-0.8494673104705158,-0.8310738801956177,-0.5184621214866638,-0.20127823948860168, 199, 113, 18, 153
1731320616365,9i,5.732666779973744,1.3s : 0.5s,6.542264175631999,1.481124872819918,1.6363370309090721,0.686882369267509,0.013580665923655033,-1.274733066558838,-1.5332802534103394,0.6525046825408936,-0.19811612367630005,0.08243197202682495,0.5610528548542744,-1.3444407896366275,-0.8529901611412765,-0.825096845626831,-0.532077968120575,-0.19002175331115723, 199, 113, 18, 153
1731320616374,9i,5.732666779973744,1.3s : 0.5s,6.542264175631999,1.4864347172555654,1.497028588165558,0.6365021312346231,-0.043316371738910675,-1.1858737468719482,-1.301721215248108,0.5975602865219116,-0.19458496570587158,0.10096216201782227,0.5748167626188767,-1.3546288259914774,-0.8566726012361593,-0.8197587728500366,-0.5436810255050659,-0.18001796305179596, 199, 113, 18, 153
1731320616384,9i,5.732666779973744,1.3s : 0.5s,6.542264175631999,1.491034361207766,1.353680796245506,0.5781142667865995,-0.03203655406832695,-1.0743693113327026,-1.0905489921569824,0.5327891707420349,-0.1996309757232666,0.10246598720550537,0.5863924206642068,-1.3640194928800442,-0.8600189585704582,-0.8151988387107849,-0.5533597469329834,-0.17100845277309418, 199, 113, 18, 153
1731320616394,9i,5.732666779973744,1.3s : 0.5s,6.542264175631999,1.494693203893587,1.2161108083643741,0.5139676733807814,-0.0194473247975111,-1.0280976295471191,-0.8791223764419556,0.45637667179107666,-0.22641748189926147,0.06795753538608551,0.5959583649453714,-1.372843111316568,-0.8624434952926637,-0.8114486336708069,-0.5613021850585938,-0.16276037693023682, 199, 113, 18, 153
1731320616404,9i,5.732666779973744,1.3s : 0.5s,6.542264175631999,1.4974043831771628,1.0688950666360546,0.4685481424076231,-0.045355621725320816,-0.7413931488990784,-0.7883645296096802,0.39182889461517334,-0.2475132942199707,0.06888140738010406,0.6043800174452358,-1.3805754556663918,-0.8650018460215964,-0.8080121874809265,-0.5682520270347595,-0.15558184683322906, 199, 113, 18, 153
1731320616414,9i,5.732666779973744,1.3s : 0.5s,6.542264175631999,1.4991077512197453,0.9036709062188547,0.42810653745567,-0.01608182117342949,-0.6386838555335999,-0.4610753059387207,0.3205413818359375,-0.27473461627960205,0.07105857133865356,0.6103454017904542,-1.3866994264772727,-0.8665458131880063,-0.80560302734375,-0.5731505155563354,-0.15000753104686737, 199, 113, 18, 153
1731320616424,9i,5.732666779973744,1.3s : 0.5s,6.542264175631999,1.5001863137403177,0.7628575388554074,0.3919233490730639,-0.07089073956012726,-0.5656525492668152,-0.348343163728714,0.2913557291030884,-0.2492416501045227,0.08120560646057129,0.6142182718386385,-1.391944399955356,-0.8678214298105597,-0.8041883707046509,-0.5763198733329773,-0.14538413286209106, 199, 113, 18, 153
1731320616434,9i,5.732666779973744,1.3s : 0.5s,6.542264175631999,1.5012073393984442,0.6179253176858274,0.3279952880763925,-0.1023186445236206,-0.36955127120018005,-0.20955009758472443,0.2403509020805359,-0.17636066675186157,0.13678182661533356,0.6168595049350989,-1.3956306923903539,-0.869407866142974,-0.8032170534133911,-0.5784763097763062,-0.14215289056301117, 199, 113, 18, 153
1731320616444,9i,5.732666779973744,1.3s : 0.5s,6.542264175631999,1.5020177893890148,0.47321258144953143,0.2765772944901394,-0.17908266186714172,-0.18957695364952087,-0.06738284230232239,0.1902529001235962,-0.16608762741088867,0.1127551943063736,0.6180244906662997,-1.3972827434861728,-0.8711871423676278,-0.8027864098548889,-0.5794262290000916,-0.1407092958688736, 199, 113, 18, 153
1731320616454,9i,5.732666779973744,1.3s : 0.5s,6.542264175631999,1.5025824638509666,0.33006325257776364,0.26671087386611575,-0.29804545640945435,0.001868806779384613,0.11125192046165466,0.17271429300308228,-0.17202699184417725,0.10821819305419922,0.6174210678786343,-1.3965282837865116,-0.8739867530998294,-0.8030242919921875,-0.5789343118667603,-0.14137554168701172, 199, 113, 18, 153
1731320616464,9i,5.732666779973744,1.3s : 0.5s,6.542264175631999,1.503118695072208,0.2900331242894639,0.24738532530846974,-0.40450426936149597,0.15476274490356445,0.23601862788200378,0.18006712198257446,-0.14150571823120117,0.09354925155639648,0.615032237718485,-1.393511954152274,-0.8777051435431336,-0.803953230381012,-0.5769848823547363,-0.1440405696630478, 199, 113, 18, 153
1731320616474,9i,5.732666779973744,1.3s : 0.5s,6.542264175631999,1.5038625552411458,0.2085620590636631,0.25232339822828576,-0.4878653287887573,0.2789495885372162,0.31096014380455017,0.21492409706115723,-0.1095159649848938,0.07403366267681122,0.6115892596787861,-1.38856570743203,-0.8824520800612059,-0.8051798939704895,-0.574169397354126,-0.14837448298931122, 199, 113, 18, 153
1731320616484,9i,5.732666779973744,1.3s : 0.5s,6.542264175631999,1.5048299892700343,0.24081014198541878,0.2633278284039083,-0.5336916446685791,0.40676429867744446,0.4411351978778839,0.23559367656707764,-0.095242440700531,0.06903652846813202,0.60696414583182,-1.3821190548677464,-0.8876177918519235,-0.8068065643310547,-0.5703765153884888,-0.1540585309267044, 199, 113, 18, 153
1731320616494,9i,5.732666779973744,1.3s : 0.5s,6.542264175631999,1.5058954182431987,0.33906996152393876,0.2846061427141586,-0.565491259098053,0.542288601398468,0.5665147304534912,0.25637251138687134,-0.10331588983535767,0.0678204894065857,0.6010112701860288,-1.374301327869208,-0.8929711936137639,-0.8088932633399963,-0.5654768347740173,-0.1610211879014969, 199, 113, 18, 153
1731320616504,9i,5.732666779973744,1.3s : 0.5s,6.542264175631999,1.507060902544723,0.46015001588569615,0.3104808659905347,-0.5883619785308838,0.678656816482544,0.7348744869232178,0.27122563123703003,-0.1262805461883545,0.0829954743385315,0.5935373145882797,-1.3652894875807962,-0.8981119550441045,-0.8115240335464478,-0.5592968463897705,-0.16916188597679138, 199, 113, 18, 153
1731320616514,9i,5.732666779973744,1.3s : 0.5s,6.542264175631999,1.5085282556705546,0.5877180348995894,0.3473512013236231,-0.565092146396637,0.8163906931877136,0.9237064123153687,0.30166369676589966,-0.13458597660064697,0.10741734504699707,0.5842284523195967,-1.3551439238812004,-0.9028421675260608,-0.8148167133331299,-0.5515559911727905,-0.17849279940128326, 199, 113, 18, 153
1731320616524,9i,5.732666779973744,1.3s : 0.5s,6.542264175631999,1.5105582217032487,0.7075479873618082,0.38566998580042,-0.48519226908683777,0.9125752449035645,1.0916591882705688,0.350257933139801,-0.10732871294021606,0.12058717012405396,0.5732617598577909,-1.3445897753306326,-0.9062385000926045,-0.818733274936676,-0.5423752665519714,-0.18842776119709015, 199, 113, 18, 153
1731320616534,9i,5.732666779973744,1.3s : 0.5s,6.542264175631999,1.5133063782965872,0.8210054618467458,0.4172742103518322,-0.3900250494480133,1.0023053884506226,1.2491992712020874,0.3951237201690674,-0.07185816764831543,0.11327584087848663,0.5609165670114703,-1.3340484566314006,-0.9080761406174205,-0.8231479525566101,-0.531962513923645,-0.19860300421714783, 199, 113, 18, 153
1731320616544,9i,5.732666779973744,1.3s : 0.5s,6.542264175631999,1.5167150071892423,0.9389016603492581,0.4450108009359438,-0.3698827624320984,1.092916488647461,1.4184203147888184,0.42490047216415405,-0.06484025716781616,0.11528201401233673,0.5470993464724924,-1.3233423753144942,-0.9084633600511629,-0.828022301197052,-0.5202121734619141,-0.20918463170528412, 199, 113, 18, 153
1731320616554,9i,5.732666779973744,1.3s : 0.5s,6.542264175631999,1.5205079879330676,1.0698062269600148,0.4754059176006963,-0.46489769220352173,1.2022207975387573,1.6002494096755981,0.4402921199798584,-0.10954248905181885,0.14196506142616272,0.5315284129706991,-1.3117988920876078,-0.9086534290464024,-0.8332821130752563,-0.5068514943122864,-0.22077669203281403, 199, 113, 18, 153
1731320616564,9i,5.732666779973744,1.3s : 0.5s,6.542264175631999,1.5244100275710237,1.2221408147912096,0.5130739567294683,-0.5904945135116577,1.3363133668899536,1.8436921834945679,0.44980013370513916,-0.1723906397819519,0.17665274441242218,0.5135706079624824,-1.2988023799229556,-0.9092646928601582,-0.8389754891395569,-0.4912903606891632,-0.23399528861045837, 199, 113, 18, 153
1731320616574,9i,5.732666779973744,1.3s : 0.5s,6.542264175631999,1.5283585321978865,1.3854842678716155,0.5666088508622598,-0.6819061040878296,1.4513694047927856,2.0896048545837402,0.48160022497177124,-0.22045016288757324,0.2012673318386078,0.4929359342259579,-1.2844608552923318,-0.9100632622418375,-0.8450797200202942,-0.473214328289032,-0.2488136738538742, 199, 113, 18, 153
1731320616584,9i,5.732666779973744,1.3s : 0.5s,6.542264175631999,1.5324436110649755,1.5555060691424318,0.6247268697478655,-0.7095649242401123,1.5863728523254395,2.3349130153656006,0.5349467992782593,-0.2476567029953003,0.2068374752998352,0.46976407128892056,-1.2691472533626864,-0.9103329154195872,-0.8514140844345093,-0.4526759386062622,-0.2649124264717102, 199, 113, 18, 153
1731320616594,9i,5.732666779973744,1.3s : 0.5s,6.542264175631999,1.5367750074044964,1.7249077220333542,0.6801102964983077,-0.6688175797462463,1.7253670692443848,2.564253568649292,0.5949530005455017,-0.26368650794029236,0.19761165976524353,0.44438392468911275,-1.2530476247850202,-0.9093623846358357,-0.8576787710189819,-0.42990171909332275,-0.28208431601524353, 199, 113, 18, 153
1731320616604,9i,5.732666779973744,1.3s : 0.5s,6.542264175631999,1.541488000764202,1.9017516584152345,0.7344903901562687,-0.606464684009552,1.878964900970459,2.8341920375823975,0.6547216773033142,-0.2716740369796753,0.19237691164016724,0.4168368208691878,-1.2362326053254324,-0.9064395371568231,-0.8636754751205444,-0.4048701524734497,-0.30024126172065735, 199, 113, 18, 153
1731320616614,9i,5.732666779973744,1.3s : 0.5s,6.542264175631999,1.546859286608604,2.084291935576592,0.8027689351719586,-0.5941605567932129,2.0200307369232178,3.0974013805389404,0.7255187034606934,-0.26849228143692017,0.2144119143486023,0.38695084414214287,-1.218619538169457,-0.9016511332101466,-0.8692259192466736,-0.37736645340919495,-0.3194381892681122, 199, 113, 18, 153
1731320616624,9i,5.732666779973744,1.3s : 0.5s,6.542264175631999,1.5532777631388115,2.2780828847353365,0.8863855355089806,-0.7021855711936951,2.1662330627441406,3.373023748397827,0.8073244094848633,-0.25252997875213623,0.2648305594921112,0.3544876283274047,-1.1998434487660774,-0.895804912596137,-0.8740357756614685,-0.3471098840236664,-0.33996477723121643, 199, 113, 18, 153
1731320616634,9i,5.732666779973744,1.3s : 0.5s,6.542264175631999,1.5610574258810526,2.485076313386285,0.9804156747918266,-0.9010986089706421,2.3057496547698975,3.6664252281188965,0.8960102796554565,-0.23799264430999756,0.3189670443534851,0.3189308959697633,-1.1795227863969047,-0.8898138649551788,-0.877806544303894,-0.31355154514312744,-0.36213418841362, 199, 113, 18, 153
1731320616644,9i,5.732666779973744,1.3s : 0.5s,6.542264175631999,1.570465068334099,2.704803552114133,1.08136068582612,-1.1133639812469482,2.43825626373291,3.9794256687164307,0.9923966526985168,-0.220155268907547,0.36881089210510254,0.279899345389746,-1.1575956308036501,-0.883905973496609,-0.8801987767219543,-0.2762589156627655,-0.38591596484184265, 199, 113, 18, 153
1731320616654,9i,5.732666779973744,1.3s : 0.5s,6.542264175631999,1.5817421443068056,2.9344074228951045,1.1835533885327205,-1.2527371644973755,2.55574631690979,4.321764945983887,1.0937609672546387,-0.19186736643314362,0.4094783067703247,0.23726283466841339,-1.134311881912358,-0.8775046205268647,-0.8808550834655762,-0.23504303395748138,-0.4109126031398773, 199, 113, 18, 153
1731320616664,9i,5.732666779973744,1.3s : 0.5s,6.542264175631999,1.5951775882978902,3.1623358125128083,1.2915980860277982,-1.1928584575653076,2.669222354888916,4.666824817657471,1.204331874847412,-0.14422069489955902,0.44385892152786255,0.19144986651908572,-1.1100376440297575,-0.8689895918135886,-0.8793500661849976,-0.19028246402740479,-0.4365041255950928, 199, 113, 18, 153
1731320616674,9i,5.732666779973744,1.3s : 0.5s,6.542264175631999,1.611043758467983,3.3769516885761983,1.4029053173082564,-1.1303846836090088,2.730698823928833,4.969985008239746,1.3097211122512817,-0.08916835486888885,0.49479585886001587,0.14333182547058285,-1.08501512365113,-0.8572459279937927,-0.8752424716949463,-0.14284156262874603,-0.46211159229278564, 199, 113, 18, 153
1731320616684,9i,5.732666779973744,1.3s : 0.5s,6.542264175631999,1.6294947665108577,3.5790135900590445,1.498199918263462,-1.1366665363311768,2.802077531814575,5.227879047393799,1.3900561332702637,-0.029285535216331482,0.5581122636795044,0.09327091245056875,-1.0591392081622915,-0.8428951522410011,-0.8681443929672241,-0.09313573688268661,-0.4874946177005768, 199, 113, 18, 153
1731320616694,9i,5.732666779973744,1.3s : 0.5s,6.542264175631999,1.6502143258841306,3.785229964532047,1.5620317879456675,-1.1716687679290771,2.948434829711914,5.511600494384766,1.4503426551818848,-0.01914641633629799,0.5797265768051147,0.04110685911640365,-1.0315793841611285,-0.825977437199578,-0.8573861122131348,-0.04109528288245201,-0.513030469417572, 199, 113, 18, 153
1731320616704,9i,5.732666779973744,1.3s : 0.5s,6.542264175631999,1.6726938813734287,3.9930462448639155,1.6204727738773885,-1.3518247604370117,3.0977938175201416,5.75396728515625,1.5122253894805908,-0.06321199983358383,0.578887403011322,-0.013285621306191781,-1.0016523506193598,-0.8071926021852365,-0.8422882556915283,0.013285230845212936,-0.5388635993003845, 199, 113, 18, 153
1731320616714,9i,5.732666779973744,1.3s : 0.5s,6.542264175631999,1.6967158349232678,4.211806633367616,1.678992305469092,-1.5227917432785034,3.2598509788513184,6.048447132110596,1.563643455505371,-0.08754896372556686,0.6052846312522888,-0.07034926849088721,-0.9690520840237635,-0.7868243126051572,-0.8223105072975159,0.07029125839471817,-0.5646809935569763, 199, 113, 18, 153
1731320616724,9i,5.732666779973744,1.3s : 0.5s,6.542264175631999,1.7222148290643535,4.428460208875623,1.7529752424747205,-1.624943494796753,3.4212844371795654,6.3024420738220215,1.6365134716033936,-0.10656477510929108,0.6191847920417786,-0.1296480071631558,-0.9333921725420057,-0.76379080438057,-0.7968986630439758,0.12928511202335358,-0.5901167988777161, 199, 113, 18, 153
1731320616734,9i,5.732666779973744,1.3s : 0.5s,6.542264175631999,1.749314772935823,4.643472253877344,1.841857687362803,-1.8156975507736206,3.5965957641601562,6.525356769561768,1.7369608879089355,-0.09715636074542999,0.6049522757530212,-0.19084193532082894,-0.8942547730584595,-0.7381822423593183,-0.7655863761901855,0.1896856129169464,-0.6147331595420837, 199, 113, 18, 153
1731320616744,9i,5.732666779973744,1.3s : 0.5s,6.542264175631999,1.778551890974812,4.861590137587681,1.950258294863132,-1.8733619451522827,3.7714004516601562,6.806112766265869,1.854595422744751,-0.006369143724441528,0.6032766103744507,-0.2536638481075568,-0.8509901329470814,-0.7091568161116028,-0.7278711795806885,0.25095224380493164,-0.6381429433822632, 199, 113, 18, 153
1731320616754,9i,5.732666779973744,1.3s : 0.5s,6.542264175631999,1.8103476429006955,5.096880314235561,2.0654266814159867,-1.9185537099838257,3.9715418815612793,7.164353370666504,1.9773380756378174,0.10147362947463989,0.5880685448646545,-0.31770844174590046,-0.8026082958224476,-0.674732767380409,-0.6831790804862976,0.3123905062675476,-0.6600595116615295, 199, 113, 18, 153
1731320616764,9i,5.732666779973744,1.3s : 0.5s,6.542264175631999,1.8450006915872976,5.363660260454113,2.1662528977751423,-2.0781409740448,4.3310370445251465,7.5175580978393555,2.06825590133667,0.228542298078537,0.6022769808769226,-0.3831995772167108,-0.7471313535987384,-0.6341126616983975,-0.6302523016929626,0.37388989329338074,-0.6804324984550476, 199, 113, 18, 153
1731320616774,9i,5.732666779973744,1.3s : 0.5s,6.542264175631999,1.8828501452008466,5.668476081980829,2.2713219246373964,-2.296130895614624,4.716386795043945,7.931595802307129,2.129269599914551,0.3655411899089813,0.701066255569458,-0.4502031919914693,-0.6825378223934438,-0.5865364922227368,-0.5679141283035278,0.4351484775543213,-0.6986553072929382, 199, 113, 18, 153
1731320616784,9i,5.732666779973744,1.3s : 0.5s,6.542264175631999,1.9239984891930548,5.996646545502011,2.4044619409110983,-2.4848780632019043,5.013619899749756,8.382781028747559,2.21256685256958,0.40945202112197876,0.8475459814071655,-0.5182709504791477,-0.607187973947555,-0.5295703668997217,-0.4956326484680176,0.49537888169288635,-0.713405966758728, 199, 113, 18, 153
1731320616794,9i,5.732666779973744,1.3s : 0.5s,6.542264175631999,1.9684111779798787,6.3413669891843005,2.597782056652092,-2.981391191482544,5.32404088973999,8.736417770385742,2.3890910148620605,0.3243098258972168,0.9672325849533081,-0.5867047438534441,-0.5198848833253171,-0.46200493213870203,-0.41370347142219543,0.5536198616027832,-0.7227410078048706, 199, 113, 18, 153
1731320616804,9i,5.732666779973744,1.3s : 0.5s,6.542264175631999,2.016598190221846,6.743216173165069,2.88706568951983,-3.8619046211242676,5.597038269042969,9.243927001953125,2.6688570976257324,0.24843508005142212,1.07267427444458,-0.657555721826113,-0.41905584831359655,-0.38299891138348574,-0.32205525040626526,0.6111840605735779,-0.7230038046836853, 199, 113, 18, 153
1731320616814,9i,5.732666779973744,1.3s : 0.5s,6.542264175631999,2.0699060253368615,7.246436459608809,3.2777971083032216,-5.235905170440674,5.673097610473633,9.999330520629883,3.03233003616333,0.2936190962791443,1.209428071975708,-0.7335358773671597,-0.30087301271010436,-0.28703213511731623,-0.22013531625270844,0.6695002913475037,-0.7094432711601257, 199, 113, 18, 153
1731320616824,9i,5.732666779973744,1.3s : 0.5s,6.542264175631999,2.129790650631076,7.884246234362163,3.7222106720646697,-7.120922565460205,5.593976020812988,10.867076873779297,3.4386909008026123,0.39243531227111816,1.3697633743286133,-0.8170964409959044,-0.15864019664246168,-0.16494408799874063,-0.10810922831296921,0.7291618585586548,-0.6757479310035706, 199, 113, 18, 153
1731320616834,9i,5.732666779973744,1.3s : 0.5s,6.542264175631999,2.197068029821713,8.64931076453487,4.162996542413963,-9.572469711303711,5.435196876525879,11.422542572021484,3.864443063735962,0.4308086037635803,1.486951231956482,-0.9077063499886281,0.020126200061989268,-0.0028943286375650687,0.01238794531673193,0.7880939245223999,-0.6154302954673767, 199, 113, 18, 153
1731320616844,9i,5.732666779973744,1.3s : 0.5s,6.542264175631999,2.2723248189922187,9.51690147982163,4.665571808057975,-12.683897972106934,4.965202331542969,11.351887702941895,4.39810848236084,0.3704146146774292,1.5122814178466797,-1.0023159954919756,0.2540624750786786,0.21865148137472187,0.13530832529067993,0.842720091342926,-0.5210704207420349, 199, 113, 18, 153
1731320616854,9i,5.732666779973744,1.3s : 0.5s,6.542264175631999,2.358233314173545,10.360025573095829,5.465880974918253,-15.39596939086914,3.7118096351623535,10.651351928710938,5.220753192901611,0.5268493890762329,1.5303661823272705,-1.088005176507433,0.5702437615684477,0.5323478049106934,0.25062116980552673,0.8857025504112244,-0.39079415798187256, 199, 113, 18, 153
1731320616864,9i,5.732666779973744,1.3s : 0.5s,6.542264175631999,2.4598629439252844,11.08003357810376,6.507532571654832,-17.117401123046875,1.1785887479782104,10.007774353027344,6.103598594665527,1.3159193992614746,1.8336904048919678,-1.1337109134799799,0.9764745034148018,0.9568338748793394,0.3507167398929596,0.9059892296791077,-0.23702600598335266, 199, 113, 18, 153
1731320616874,9i,5.732666779973744,1.3s : 0.5s,6.542264175631999,2.5813553288397597,11.629094551013637,7.525323057426121,-17.345460891723633,-0.7484970092773438,9.753951072692871,6.48323917388916,2.9237372875213623,2.4596457481384277,-1.106799962830163,1.390082897359438,1.4125849220672912,0.4402380585670471,0.894271194934845,-0.08043443411588669, 199, 113, 18, 153
1731320616884,9i,5.732666779973744,1.3s : 0.5s,6.542264175631999,2.72133866461492,12.28298833015756,8.249115430957138,-19.039690017700195,-2.5563313961029053,9.143651962280273,6.527816295623779,4.396193504333496,2.471639633178711,-1.0148702314477145,1.7011224391965152,1.7857831466648648,0.5232548713684082,0.8494120836257935,0.06858250498771667, 199, 113, 18, 153
1731320616894,9i,5.732666779973744,1.3s : 0.5s,6.542264175631999,2.875087050126317,13.308886193925451,8.432765686775783,-22.232521057128906,-5.639305114746094,8.224719047546387,6.033287048339844,4.997358322143555,3.1204798221588135,-0.8791137523087049,1.9115603985027594,2.094659201805258,0.601158082485199,0.7701739072799683,0.21316872537136078, 199, 113, 18, 153
1731320616904,9i,5.732666779973744,1.3s : 0.5s,6.542264175631999,3.0352686356269736,14.682897691299601,8.125199902301391,-26.959327697753906,-6.286409854888916,3.885239839553833,4.976108551025391,4.34035062789917,4.734825611114502,-0.7246646216182173,2.056613339572843,2.3812188646325576,0.6620901226997375,0.6628843545913696,0.34960147738456726, 199, 113, 18, 153
1731320616914,9i,5.732666779973744,1.3s : 0.5s,6.542264175631999,3.1894078065640654,16.25728001098646,7.457527003967003,-30.3654727935791,-6.8825531005859375,-0.45615673065185547,3.259338617324829,2.418307304382324,6.256453514099121,-0.5573369489306987,2.17266342384771,2.6791617326027173,0.6995391249656677,0.5289280414581299,0.48050034046173096, 199, 113, 18, 153
1731320616924,9i,5.732666779973744,1.3s : 0.5s,6.542264175631999,3.3406046825845657,16.08992855208987,9.400741346753971,-22.225614547729492,-10.9773530960083,-1.8199567794799805,2.261565923690796,1.7974417209625244,8.945862770080566,-0.41242378125675644,2.200448855721189,2.936745802591197,0.7404634952545166,0.40083104372024536,0.5394888520240784, 199, 113, 18, 153
1731320616933,9i,5.732666779973744,1.3s : 0.5s,6.542264175631999,3.502707346098344,14.177474228120154,11.507785864026937,-12.133732795715332,-9.5305757522583,1.32634437084198,2.1755337715148926,4.038327217102051,10.554056167602539,-0.318678271570488,2.1485971350625777,3.0889586186094853,0.7954897880554199,0.3133116662502289,0.5186830163002014, 199, 113, 18, 153
1731320616943,9i,5.732666779973744,1.3s : 0.5s,6.542264175631999,3.6721421091082487,12.58083501697526,10.611348474428661,-10.860939025878906,-8.509172439575195,0.268675833940506,1.6263492107391357,7.235426902770996,7.589749813079834,-0.252003586795651,2.086609758728969,-3.10622817506854,0.842415988445282,0.24934476613998413,0.47766339778900146, 199, 113, 18, 153
1731320616953,9i,5.732666779973744,1.3s : 0.5s,6.542264175631999,3.817702421810644,12.047592592136983,4.8507436891429085,-14.321246147155762,-7.927209377288818,-5.130185604095459,0.7714518308639526,2.601658821105957,4.020689964294434,-0.2141528028732824,2.0331518865323694,-2.9772892278903953,0.8745594024658203,0.21251966059207916,0.43586814403533936, 199, 113, 18, 153
1731320616963,9i,5.732666779973744,1.3s : 0.5s,6.542264175631999,3.928754268087673,11.317144190357448,5.455773254592733,-11.693840026855469,-7.7636237144470215,-6.238056182861328,0.7257221341133118,-3.358433485031128,4.237890243530273,-0.21169566747275642,1.9878106850915434,-2.827294847859624,0.8938915729522705,0.21011801064014435,0.39599061012268066, 199, 113, 18, 153
1731320616973,9i,5.732666779973744,1.3s : 0.5s,6.542264175631999,4.027081872560422,10.393635332642598,4.343481140985688,-7.852495193481445,-8.839682579040527,-7.013632774353027,0.4015064239501953,0.8201143741607666,4.2464141845703125,-0.23951158195769606,1.9341782747920537,-2.7084988240299235,0.9080180525779724,0.2372281849384308,0.34529101848602295, 199, 113, 18, 153
1731320616983,9i,5.732666779973744,1.3s : 0.5s,6.542264175631999,4.119735367586688,9.736068829165577,4.948668642964825,-6.450947284698486,-8.529611587524414,-8.581406593322754,-0.11885696649551392,3.082119941711426,3.8698489665985107,-0.29653558460894613,1.8773105502993301,-2.610403999738997,0.9117798805236816,0.2922087609767914,0.2885676920413971, 199, 113, 18, 153
1731320616993,9i,5.732666779973744,1.3s : 0.5s,6.542264175631999,4.202339609936924,9.400777666317037,4.074444753949402,-5.680206298828125,-7.950645446777344,-10.281195640563965,-0.28469961881637573,1.2339372634887695,3.8726534843444824,-0.3716183904428662,1.8268291513774362,-2.520131826941955,0.901368260383606,0.3631238341331482,0.23595845699310303, 199, 113, 18, 153
1731320617003,9i,5.732666779973744,1.3s : 0.5s,6.542264175631999,4.275898412841134,9.26151235748674,3.8944587138686617,-4.443783760070801,-7.594020843505859,-11.554588317871094,-0.6266167163848877,1.3177711963653564,3.610767126083374,-0.4662587223056602,1.7824632852941824,-2.4380938844976585,0.8733208179473877,0.44954752922058105,0.187664195895195, 199, 113, 18, 153
1731320617013,9i,5.732666779973744,1.3s : 0.5s,6.542264175631999,4.343964070183645,9.12148174163393,3.5481139198786575,-2.609973907470703,-6.949710845947266,-12.15873908996582,-0.3484380841255188,1.917771816253662,2.964768886566162,-0.5760757719996693,1.7423438315428748,-2.372131668233645,0.8262975215911865,0.5447372794151306,0.14315633475780487, 199, 113, 18, 153
1731320617023,9i,5.732666779973744,1.3s : 0.5s,6.542264175631999,4.408528598817422,8.95206866336857,2.97207210580928,-0.7298884987831116,-6.328771591186523,-12.263589859008789,0.3430471420288086,1.751124382019043,2.3767824172973633,-0.6941065011960014,1.7016406557235175,-2.3287260039961617,0.7620552182197571,0.6396989226341248,0.10028355568647385, 199, 113, 18, 153
1731320617033,9i,5.732666779973744,1.3s : 0.5s,6.542264175631999,4.468347638735673,8.732784379830589,2.485258690891475,1.8251755237579346,-5.695760726928711,-11.963033676147461,0.5663589239120483,0.830288290977478,2.2729649543762207,-0.8150667486947331,1.6488351030267716,-2.317887755549402,0.6837326288223267,0.7277714014053345,0.05346623808145523, 199, 113, 18, 153
1731320617043,9i,5.732666779973744,1.3s : 0.5s,6.542264175631999,4.521076033740341,8.48868776997258,2.3247957328093634,4.08957052230835,-5.341053485870361,-11.409428596496582,0.4875466227531433,-0.2552033066749573,2.2587263584136963,-0.9325321373421138,1.5624499327932957,-2.3585592720731987,0.5957816243171692,0.8031311631202698,-0.004972743336111307, 199, 113, 18, 153
1731320617053,9i,5.732666779973744,1.3s : 0.5s,6.542264175631999,4.567199924099609,8.398053894657265,2.6437124111865486,5.350924015045166,-4.983392238616943,-11.12562084197998,0.4900802969932556,-0.9960843324661255,2.3993442058563232,-1.0366296179430157,1.4240000881709403,-2.4611554431569886,0.5036484003067017,0.8606931567192078,-0.07446937263011932, 199, 113, 18, 153
1731320617063,9i,5.732666779973744,1.3s : 0.5s,6.542264175631999,4.606883375436008,8.337499977391621,2.832081878014748,6.503899574279785,-4.505001068115234,-10.461417198181152,0.3889831602573395,-1.4773764610290527,2.384688377380371,-1.118473993209054,1.2171756145917094,-2.6367712561286734,0.410012811422348,0.8994345664978027,-0.1513509303331375, 199, 113, 18, 153
1731320617073,9i,5.732666779973744,1.3s : 0.5s,6.542264175631999,4.643919420545235,8.223977115928953,2.6370136966719464,7.6077680587768555,-4.541440486907959,-9.054815292358398,0.22357836365699768,-1.9092087745666504,1.8052079677581787,-1.1672552394175941,0.9327529851610971,-2.894693085231893,0.3154231011867523,0.9196762442588806,-0.2338884174823761, 199, 113, 18, 153
1731320617083,9i,5.732666779973744,1.3s : 0.5s,6.542264175631999,4.67065236541494,8.171645454356714,2.082491940202647,8.778935432434082,-4.598575592041016,-8.03248405456543,0.04216302931308746,-1.6743741035461426,1.2375242710113525,-1.1680673998973499,0.6086888223400413,3.0877316015887444,0.22410285472869873,0.9199948906898499,-0.3215392231941223, 199, 113, 18, 153
1731320617093,9i,5.732666779973744,1.3s : 0.5s,6.542264175631999,4.6910780955744995,8.178337300948616,1.4049333790715168,9.585396766662598,-4.492234230041504,-7.254337310791016,0.06015412509441376,-1.0190210342407227,0.9653058648109436,-1.1197403077153203,0.3220708387103472,2.823528660492375,0.13798126578330994,0.8999872803688049,-0.4135023057460785, 199, 113, 18, 153
1731320617103,9i,5.732666779973744,1.3s : 0.5s,6.542264175631999,4.708173949603939,8.188224408360249,1.0471239930563996,9.833045959472656,-4.567448616027832,-6.541878700256348,0.12998348474502563,-0.5867376327514648,0.8575032949447632,-1.0392744021273614,0.1115125708760448,2.6368888990734187,0.05640261247754097,0.8620367050170898,-0.5036977529525757, 199, 113, 18, 153
1731320617113,9i,5.732666779973744,1.3s : 0.5s,6.542264175631999,4.7234765289118315,8.172042393597083,0.9159033816858461,9.949555397033691,-4.664613246917725,-5.811543941497803,0.051332563161849976,-0.2901962995529175,0.8671966791152954,-0.9427521807473137,-0.03452384285099333,2.518093074406611,-0.020280912518501282,0.8091782331466675,-0.5872131586074829, 199, 113, 18, 153
1731320617123,9i,5.732666779973744,1.3s : 0.5s,6.542264175631999,4.738653482444943,8.089429507963631,1.0568012668793323,9.64175033569336,-4.883888244628906,-5.1479620933532715,0.038193441927433014,-0.1442185640335083,1.0462175607681274,-0.8403332775121537,-0.1391524838084013,2.445618017486932,-0.09254523366689682,0.7448655366897583,-0.6607652902603149, 199, 113, 18, 153
1731320617133,9i,5.732666779973744,1.3s : 0.5s,6.542264175631999,4.754887164867153,7.901682113533825,1.2504989909749324,8.97297191619873,-5.328929901123047,-4.318645477294922,0.04470500349998474,-0.06467562913894653,1.2480249404907227,-0.739967847745813,-0.22090996837439397,2.401103513776926,-0.16181617975234985,0.6742641925811768,-0.7205437421798706, 199, 113, 18, 153
1731320617143,9i,5.732666779973744,1.3s : 0.5s,6.542264175631999,4.771601355711678,7.608227066643669,1.3064835313268854,8.057045936584473,-5.766378402709961,-3.4920101165771484,0.042350515723228455,0.006426692008972168,1.3057811260223389,-0.6464649488420188,-0.290134482330964,2.371713411163412,-0.22835512459278107,0.6023684144020081,-0.7648569941520691, 199, 113, 18, 153
1731320617153,9i,5.732666779973744,1.3s : 0.5s,6.542264175631999,4.789227587883784,7.2632398353642165,1.1909052922291599,7.161489009857178,-5.561180114746094,-3.4805073738098145,0.07280299067497253,0.09428775310516357,1.1849324703216553,-0.5612240074610433,-0.3500805176721985,2.353414501593267,-0.29036277532577515,0.5322228670120239,-0.795253574848175, 199, 113, 18, 153
1731320617163,9i,5.732666779973744,1.3s : 0.5s,6.542264175631999,4.807819598341729,6.889445330220369,1.0509833591820932,6.616774082183838,-5.049506664276123,-3.4122228622436523,0.3180427551269531,0.15908503532409668,0.9889928102493286,-0.48358226919998804,-0.404733022426359,2.3446865757980446,-0.3486213684082031,0.4649536609649658,-0.8138066530227661, 199, 113, 18, 153
1731320617173,9i,5.732666779973744,1.3s : 0.5s,6.542264175631999,4.827312376280753,6.539462787940441,1.0178122327708257,6.316413402557373,-4.827734470367432,-3.1394224166870117,0.4528573751449585,0.20569029450416565,0.8880053162574768,-0.41130838508319517,-0.45505318033130393,2.3424283750144297,-0.4028542637825012,0.39980894327163696,-0.8233232498168945, 199, 113, 18, 153
1731320617183,9i,5.732666779973744,1.3s : 0.5s,6.542264175631999,4.847206829518067,6.247949672550358,0.9599565652452876,6.193249702453613,-4.6849164962768555,-2.9577817916870117,0.44362595677375793,0.2756340205669403,0.8054430484771729,-0.34200183849956955,-0.5019851139931033,2.3448365989148017,-0.45329999923706055,0.3353736698627472,-0.8258593082427979, 199, 113, 18, 153
1731320617193,9i,5.732666779973744,1.3s : 0.5s,6.542264175631999,4.867191678730993,6.045450836905431,0.9227412621405594,6.3385491371154785,-4.564027309417725,-2.8482110500335693,0.4235954284667969,0.33161675930023193,0.749699056148529,-0.2736061038633876,-0.5462139906293716,2.351895864146405,-0.5001335144042969,0.27020514011383057,-0.8227123618125916, 199, 113, 18, 153
1731320617203,9i,5.732666779973744,1.3s : 0.5s,6.542264175631999,4.8870136068093695,5.934149678460714,0.8885975794237995,6.718388557434082,-4.346416473388672,-2.780545711517334,0.3899441361427307,0.42398303747177124,0.6766000390052795,-0.20357993148272482,-0.5879888209959758,2.36407772838523,-0.5432338714599609,0.20217661559581757,-0.8148751854896545, 199, 113, 18, 153
1731320617213,9i,5.732666779973744,1.3s : 0.5s,6.542264175631999,4.906909842849098,5.851297691030434,0.9403749432356973,6.91796875,-4.0900349617004395,-2.629582166671753,0.43106740713119507,0.5311663746833801,0.6452504992485046,-0.13208970459647243,-0.6272896194907571,2.3817153526872827,-0.5818395018577576,0.13170592486858368,-0.8025686144828796, 199, 113, 18, 153
1731320617223,9i,5.732666779973744,1.3s : 0.5s,6.542264175631999,4.927967948286747,5.710040035387435,1.0872168783496896,6.644888401031494,-3.827126979827881,-2.404409408569336,0.5380614399909973,0.6206369400024414,0.7122781872749329,-0.06266214816057733,-0.6648091376799102,2.403170242784068,-0.6156981587409973,0.06262114644050598,-0.7854898571968079, 199, 113, 18, 153
1731320617233,9i,5.732666779973744,1.3s : 0.5s,6.542264175631999,4.950740553193897,5.466740721825664,1.2064821499771174,5.952270030975342,-3.630239486694336,-2.181615114212036,0.643990159034729,0.5839824676513672,0.8365646004676819,0.0006847559663118075,-0.7013393362410506,2.425735369644472,-0.6452413201332092,-0.0006847559125162661,-0.7639784812927246, 199, 113, 18, 153
1731320617243,9i,5.732666779973744,1.3s : 0.5s,6.542264175631999,4.975123292728917,5.117393335074363,1.2738097948928566,5.015764236450195,-3.440706968307495,-2.0364890098571777,0.6844685673713684,0.4125897288322449,0.9918991327285767,0.05577658017818186,-0.737228684621664,2.446564456210049,-0.6711934208869934,-0.05574766546487808,-0.7391831278800964, 199, 113, 18, 153
1731320617253,9i,5.732666779973744,1.3s : 0.5s,6.542264175631999,5.000737782463215,4.687054297542018,1.3066516190289401,4.056041240692139,-3.165461778640747,-1.959855556488037,0.6655738353729248,0.3496979773044586,1.0686726570129395,0.1023944778547112,-0.771519841473106,2.4635198278263664,-0.6935736536979675,-0.10221564024686813,-0.7130971550941467, 199, 113, 18, 153
1731320617263,9i,5.732666779973744,1.3s : 0.5s,6.542264175631999,5.027336584770372,4.224079182830109,1.3184045515152816,3.2813756465911865,-2.8705880641937256,-1.7947113513946533,0.6512333750724792,0.4196796417236328,1.0667495727539062,0.1413719848786203,-0.8032040468050988,2.476612941070647,-0.7124058604240417,-0.14090155065059662,-0.6874770522117615, 199, 113, 18, 153
1731320617273,9i,5.732666779973744,1.3s : 0.5s,6.542264175631999,5.0542424904011405,3.7912396994440622,1.2516027126555833,2.8396224975585938,-2.5714287757873535,-1.6415075063705444,0.6440831422805786,0.42706674337387085,0.9845203161239624,0.17462648606916853,-0.8320239719107193,2.48774672018224,-0.7280521988868713,-0.17374031245708466,-0.6631397008895874, 199, 113, 18, 153
1731320617283,9i,5.732666779973744,1.3s : 0.5s,6.542264175631999,5.080340785950073,3.3924625390920107,1.1085583539053387,2.445425271987915,-2.27954363822937,-1.5617586374282837,0.6080296635627747,0.2656417489051819,0.8880518078804016,0.20411357810061156,-0.8579454209337442,2.497586889840417,-0.7407962679862976,-0.202699214220047,-0.6404168605804443, 199, 113, 18, 153
1731320617293,9i,5.732666779973744,1.3s : 0.5s,6.542264175631999,5.104865128239303,3.021319707712521,1.0075823207163412,2.085768938064575,-1.999312162399292,-1.4450839757919312,0.5327165126800537,0.06313811242580414,0.8529061079025269,0.23012669334779923,-0.8809244617577604,2.5057236605578543,-0.7509934902191162,-0.22810088098049164,-0.6196602582931519, 199, 113, 18, 153
1731320617303,9i,5.732666779973744,1.3s : 0.5s,6.542264175631999,5.127736196728765,2.6835905817333816,0.9724101421232486,1.8151050806045532,-1.7275062799453735,-1.3340338468551636,0.47183841466903687,-0.04393523931503296,0.849128782749176,0.2530688624639597,-0.90110149331375,2.512765371319063,-0.7590392231941223,-0.25037625432014465,-0.6009750962257385, 199, 113, 18, 153
1731320617313,9i,5.732666779973744,1.3s : 0.5s,6.542264175631999,5.1491587492915025,2.374069057096968,0.9340040973483517,1.5740255117416382,-1.4828412532806396,-1.1959447860717773,0.4381435513496399,-0.05928915739059448,0.8227263689041138,0.273483438083897,-0.9186508756427192,2.5190476811967866,-0.7652461528778076,-0.27008703351020813,-0.584338366985321, 199, 113, 18, 153
1731320617323,9i,5.732666779973744,1.3s : 0.5s,6.542264175631999,5.169237257788328,2.0811302199353494,0.8820514115977633,1.2976714372634888,-1.268904447555542,-1.0381040573120117,0.39133137464523315,-0.05483531951904297,0.7885857820510864,0.2910056754452771,-0.9337425802465427,2.5245054922297356,-0.7700545191764832,-0.28691574931144714,-0.5698205828666687, 199, 113, 18, 153
1731320617333,9i,5.732666779973744,1.3s : 0.5s,6.542264175631999,5.187951547806651,1.7964558118601408,0.840883224262274,0.9990863800048828,-1.0734789371490479,-0.8514456152915955,0.34739577770233154,-0.09887611865997314,0.7593578100204468,0.3053685678746536,-0.9465197731306085,2.5287676132345545,-0.7738483548164368,-0.30064472556114197,-0.5574687123298645, 199, 113, 18, 153
1731320617343,9i,5.732666779973744,1.3s : 0.5s,6.542264175631999,5.205161167693039,1.5390770391489164,0.7915034918792156,0.8338779807090759,-0.896694004535675,-0.6833846569061279,0.30928659439086914,-0.1641087830066681,0.7098506093025208,0.3168434061524584,-0.9573223827578028,2.5322627593703846,-0.7769531607627869,-0.31156864762306213,-0.5470545887947083, 199, 113, 18, 153
1731320617353,9i,5.732666779973744,1.3s : 0.5s,6.542264175631999,5.220813355926954,1.301703357858697,0.7327376364692239,0.6472135782241821,-0.7361171841621399,-0.5372520685195923,0.2745489478111267,-0.1991933286190033,0.6494992971420288,0.3260539616341617,-0.9663436676403965,2.535342284697695,-0.7794622182846069,-0.3203074038028717,-0.5383695363998413, 199, 113, 18, 153
1731320617363,9i,5.732666779973744,1.3s : 0.5s,6.542264175631999,5.235078341266855,1.0819117862325707,0.6887412348460578,0.4796469807624817,-0.5994986295700073,-0.37083327770233154,0.2472788691520691,-0.20292431116104126,0.6099503040313721,0.33296390695065764,-0.9736953606776437,2.5379758362239855,-0.7815501093864441,-0.32684558629989624,-0.5313675403594971, 199, 113, 18, 153
1731320617373,9i,5.732666779973744,1.3s : 0.5s,6.542264175631999,5.248209300585914,0.8779359180909511,0.6574195064860957,0.30560925602912903,-0.45392918586730957,-0.2614007592201233,0.21799403429031372,-0.18857192993164062,0.5908634662628174,0.3376757462646687,-0.9794675283756378,2.539784393220691,-0.7833168506622314,-0.331294983625412,-0.5259830951690674, 199, 113, 18, 153
1731320617383,9i,5.732666779973744,1.3s : 0.5s,6.542264175631999,5.260277662429894,0.6991193618370961,0.6124554963812107,0.2238941639661789,-0.3272514045238495,-0.1544029265642166,0.15897172689437866,-0.16218522191047668,0.5687931776046753,0.3408193771632164,-0.9837162441748921,2.5412694369316164,-0.7846735715866089,-0.3342594504356384,-0.5220707654953003, 199, 113, 18, 153
1731320617393,9i,5.732666779973744,1.3s : 0.5s,6.542264175631999,5.27124238735548,0.5409096711356105,0.5498146628622727,0.14692041277885437,-0.2081274837255478,-0.06428082287311554,0.1147305965423584,-0.1431344747543335,0.5183103084564209,0.3427063035660918,-0.9867388755532164,2.54260599565462,-0.7857205271720886,-0.3360372483730316,-0.5193479657173157, 199, 113, 18, 153
1731320617403,9i,5.732666779973744,1.3s : 0.5s,6.542264175631999,5.281158136679054,0.40795579560750544,0.47134536208962863,0.1242276206612587,-0.1063033863902092,0.0053576454520225525,0.09154307842254639,-0.09597599506378174,0.4522995948791504,0.3436230898563528,-0.9886594650783219,2.544036570741802,-0.7864588499069214,-0.33690059185028076,-0.5176683068275452, 199, 113, 18, 153
1731320617413,9i,5.732666779973744,1.3s : 0.5s,6.542264175631999,5.289974606054789,0.2868147485637417,0.39684244700128507,0.04051700606942177,-0.007354430854320526,0.06593963503837585,0.05975371599197388,-0.06883895397186279,0.38623130321502686,0.34379248774960514,-0.9895672542653509,2.545374285574109,-0.7868807315826416,-0.3370600640773773,-0.5169228315353394, 199, 113, 18, 153
1731320617423,9i,5.732666779973744,1.3s : 0.5s,6.542264175631999,5.297841077231465,0.1661219861166556,0.35973356528147793,-0.12779423594474792,0.07754342257976532,0.11655060946941376,0.040200233459472656,-0.04989522695541382,0.3539811372756958,0.3427472771339029,-0.9892804126650728,2.5459012282629234,-0.7870263457298279,-0.3360758423805237,-0.5173417329788208, 199, 113, 18, 153
1731320617433,9i,5.732666779973744,1.3s : 0.5s,6.542264175631999,5.305004483726321,0.05750099082228746,0.3474108251952575,-0.3014075756072998,0.14461201429367065,0.15096424520015717,0.021134614944458008,-0.020527124404907227,0.34615927934646606,0.3404422965511321,-0.9878153715207812,2.5451724170887755,-0.7869122624397278,-0.3339040279388428,-0.5189193487167358, 199, 113, 18, 153
1731320617443,9i,5.732666779973744,1.3s : 0.5s,6.542264175631999,5.311491331264647,0.09967566598871487,0.3270975695756323,-0.5060192942619324,0.1958232820034027,0.17182238399982452,-0.006677865982055664,-0.013482600450515747,0.32675135135650635,0.33681317549778184,-0.9852455040091904,2.542788126327611,-0.7865807414054871,-0.33048102259635925,-0.5216060876846313, 199, 113, 18, 153
1731320617453,9i,5.732666779973744,1.3s : 0.5s,6.542264175631999,5.317375998803177,0.20809726183698324,0.3064233727146529,-0.6239997744560242,0.2491651475429535,0.2045600861310959,-0.02275073528289795,0.00017982721328735352,0.3055775761604309,0.33205394598783566,-0.9817015150207872,2.539172112204072,-0.786026120185852,-0.32598546147346497,-0.5252583622932434, 199, 113, 18, 153
1731320617463,9i,5.732666779973744,1.3s : 0.5s,6.542264175631999,5.322706042496424,0.2981691223388599,0.27373485002472414,-0.6711113452911377,0.27907058596611023,0.22458332777023315,-0.016444265842437744,-0.0030434727668762207,0.27322351932525635,0.3265835729723924,-0.9776225803845908,2.535115495195478,-0.7853440046310425,-0.3208090662956238,-0.5294491052627563, 199, 113, 18, 153
1731320617473,9i,5.732666779973744,1.3s : 0.5s,6.542264175631999,5.327321683367469,0.358800319464299,0.19994003569964428,-0.6419522762298584,0.2986438572406769,0.24082429707050323,-0.006919443607330322,-0.01066097617149353,0.19953566789627075,0.3208985278247046,-0.9733200753723993,2.530996070329452,-0.7845540046691895,-0.31541934609413147,-0.533840537071228, 199, 113, 18, 153
1731320617482,9i,5.732666779973744,1.3s : 0.5s,6.542264175631999,5.331033311567381,0.3938888035404767,0.11923931843326248,-0.586030125617981,0.3055560886859894,0.26554080843925476,-0.004744887351989746,-0.021085679531097412,0.11726421117782593,0.31535296696028436,-0.9691537646738931,2.5275663875190886,-0.783752977848053,-0.3101520538330078,-0.5380862951278687, 199, 113, 18, 153
1731320617492,9i,5.732666779973744,1.3s : 0.5s,6.542264175631999,5.334003242585822,0.4252215891136197,0.08613433777091445,-0.6090115308761597,0.31555473804473877,0.2890525758266449,0.010746300220489502,-0.023454934358596802,0.0821797251701355,0.30965610710242375,-0.9649942298968733,2.5242342179476926,-0.7829478979110718,-0.3047311305999756,-0.5423390865325928, 199, 113, 18, 153
1731320617502,9i,5.732666779973744,1.3s : 0.5s,6.542264175631999,5.336579443411423,0.4566986061419671,0.09558819535954177,-0.6629770398139954,0.302123099565506,0.3062957525253296,0.026329457759857178,-0.014554023742675781,0.09073060750961304,0.3035793315295112,-0.9608071394905353,2.5207441427048254,-0.7821735143661499,-0.29893776774406433,-0.546663224697113, 199, 113, 18, 153
1731320617512,9i,5.732666779973744,1.3s : 0.5s,6.542264175631999,5.338828625462398,0.49468324039260836,0.110157663472172,-0.7557409405708313,0.2845286428928375,0.32504087686538696,0.03140830993652344,-0.04846376180648804,0.09380561113357544,0.2968656418430902,-0.9566743728229588,2.5167159653394173,-0.7815303206443787,-0.29252439737319946,-0.5510352253913879, 199, 113, 18, 153
1731320617522,9i,5.732666779973744,1.3s : 0.5s,6.542264175631999,5.340998770462095,0.5341322969731659,0.13277051127908135,-0.8190091252326965,0.27831602096557617,0.3543042242527008,0.028202354907989502,-0.07278281450271606,0.107402503490448,0.28952133836309674,-0.9525202197952953,2.5122137983013717,-0.7809640765190125,-0.28549352288246155,-0.5555073022842407, 199, 113, 18, 153
1731320617532,9i,5.732666779973744,1.3s : 0.5s,6.542264175631999,5.343144897597421,0.5672246935330679,0.14280007387589502,-0.8361782431602478,0.2853992283344269,0.37834498286247253,0.04135483503341675,-0.06342434883117676,0.12107431888580322,0.28167032616304805,-0.9483624586803919,2.507487327421239,-0.7804448008537292,-0.27796053886413574,-0.5600391626358032, 199, 113, 18, 153
1731320617542,9i,5.732666779973744,1.3s : 0.5s,6.542264175631999,5.345319292828378,0.5839372300201489,0.1342368276739259,-0.7852487564086914,0.2993136942386627,0.39620015025138855,0.05948728322982788,-0.02643299102783203,0.11739712953567505,0.2737253105047062,-0.9442248569258688,2.503413415315632,-0.7798852324485779,-0.2703199088573456,-0.564540684223175, 199, 113, 18, 153
1731320617552,9i,5.732666779973744,1.3s : 0.5s,6.542264175631999,5.347520851721566,0.5844577378900344,0.11730355421242311,-0.712787926197052,0.3243972361087799,0.40400394797325134,0.06382924318313599,-0.006077408790588379,0.09822940826416016,0.26606299915497444,-0.9401125359927194,2.500125725606117,-0.7792070508003235,-0.26293501257896423,-0.5689477920532227, 199, 113, 18, 153
1731320617562,9i,5.732666779973744,1.3s : 0.5s,6.542264175631999,5.3497221275044655,0.5839078025527094,0.10904695430746515,-0.6736477613449097,0.3596963584423065,0.41751575469970703,0.06351613998413086,-0.005576491355895996,0.08846378326416016,0.25861879357103235,-0.9358770219962109,2.4973124882748694,-0.7783446311950684,-0.255745530128479,-0.5733880996704102, 199, 113, 18, 153
1731320617582,9i,5.732666779973744,1.3s : 0.5s,6.542264175631999,5.35430015282628,0.6083815673974949,0.16516602580010373,-0.7703171968460083,0.42211490869522095,0.47220781445503235,0.06732648611068726,-0.06128908693790436,0.13780641555786133,0.2429587441164414,-0.9265179584330939,2.4917080100763704,-0.7760514616966248,-0.24057552218437195,-0.5829816460609436, 199, 113, 18, 153
1731320617592,9i,5.732666779973744,1.3s : 0.5s,6.542264175631999,5.356824484679502,0.6433345004802886,0.21091316114023892,-0.830958366394043,0.46237993240356445,0.5191607475280762,0.0755852460861206,-0.08647903800010681,0.17689716815948486,0.23413575729185448,-0.9213126212975109,2.4886212757157344,-0.7746666073799133,-0.2320024073123932,-0.5882741212844849, 199, 113, 18, 153
1731320617602,9i,5.732666779973744,1.3s : 0.5s,6.542264175631999,5.359759590269484,0.6866833763302456,0.24633404786027766,-0.8882868885993958,0.5155278444290161,0.5739496946334839,0.09161239862442017,-0.08265133202075958,0.21320503950119019,0.22451260727278272,-0.9156448550866733,2.4853252957616307,-0.7730545997619629,-0.22263123095035553,-0.5939880609512329, 199, 113, 18, 153
1731320617612,9i,5.732666779973744,1.3s : 0.5s,6.542264175631999,5.363240420272388,0.7349828572696516,0.2843160382357933,-0.9344016313552856,0.5697283148765564,0.635848343372345,0.10907918214797974,-0.07852195203304291,0.25054270029067993,0.21406373290469943,-0.9094822588096164,2.4820380729771174,-0.7711732387542725,-0.2124326229095459,-0.6001367568969727, 199, 113, 18, 153
1731320617622,9i,5.732666779973744,1.3s : 0.5s,6.542264175631999,5.367270181355711,0.7845649554989861,0.3131734244539285,-0.9716805815696716,0.626605212688446,0.6850859522819519,0.13059937953948975,-0.08606481552124023,0.2713194489479065,0.2029226183192988,-0.9028162756388324,2.478837772351134,-0.768966019153595,-0.20153284072875977,-0.606692373752594, 199, 113, 18, 153
1731320617632,9i,5.732666779973744,1.3s : 0.5s,6.542264175631999,5.37183058132904,0.8434007969042442,0.3450238722667776,-1.0539101362228394,0.6893571615219116,0.7439808249473572,0.14954179525375366,-0.10136835277080536,0.29394418001174927,0.1909427435759303,-0.8956181122967369,2.4756061524009803,-0.7664088606834412,-0.18978458642959595,-0.6136768460273743, 199, 113, 18, 153
1731320617642,9i,5.732666779973744,1.3s : 0.5s,6.542264175631999,5.377058664304232,0.9119954024014096,0.3976791346730329,-1.1509969234466553,0.7547053098678589,0.8121926188468933,0.18149632215499878,-0.11301396787166595,0.33531421422958374,0.17779241015367675,-0.8878387532594578,2.472146006990878,-0.7634817361831665,-0.17685721814632416,-0.621141791343689, 199, 113, 18, 153
1731320617652,9i,5.732666779973744,1.3s : 0.5s,6.542264175631999,5.3831363358942275,0.9854368583809814,0.44504299769424976,-1.2369192838668823,0.816436231136322,0.8810501098632812,0.21949678659439087,-0.09723973274230957,0.3747383952140808,0.1631417697462122,-0.8795993543246078,2.468559506828007,-0.7602529525756836,-0.16241905093193054,-0.6289955973625183, 199, 113, 18, 153
1731320617662,9i,5.732666779973744,1.3s : 0.5s,6.542264175631999,5.390208141913315,1.0610923735525495,0.4829155238689873,-1.317772626876831,0.8945184946060181,0.9305854439735413,0.2552343010902405,-0.05515916645526886,0.4062269330024719,0.14777058899438497,-0.8705713323924564,2.4648637655927907,-0.7563633918762207,-0.14723338186740875,-0.6373670697212219, 199, 113, 18, 153
1731320617672,9i,5.732666779973744,1.3s : 0.5s,6.542264175631999,5.398343937837701,1.1390360530979013,0.5230690973051093,-1.3967727422714233,0.9775967597961426,0.9848203659057617,0.2781679034233093,-0.014611944556236267,0.4427306056022644,0.13162653319319914,-0.860700056614466,2.4609600656910207,-0.7517396211624146,-0.13124677538871765,-0.6462675929069519, 199, 113, 18, 153
1731320617702,9i,5.732666779973744,1.3s : 0.5s,6.542264175631999,5.426869712776156,1.2829003740510552,0.6060003239962856,-1.6851084232330322,1.2752310037612915,1.167433738708496,0.33317822217941284,0.027049191296100616,0.5054671168327332,0.0764247135771836,-0.8259331899660293,2.448822815911405,-0.7330347299575806,-0.07635033875703812,-0.6758925318717957, 199, 113, 18, 153
1731320617712,9i,5.732666779973744,1.3s : 0.5s,6.542264175631999,5.437552156187964,1.4227441707882533,0.6375796905650423,-1.8369204998016357,1.396291971206665,1.2160441875457764,0.345919132232666,0.03599916771054268,0.5343705415725708,0.05571181260037734,-0.8122838239396637,2.444121301714651,-0.724733829498291,-0.05568299815058708,-0.6867753267288208, 199, 113, 18, 153
1731320617722,9i,5.732666779973744,1.3s : 0.5s,6.542264175631999,5.449441863354861,1.563768390162865,0.6974099565843938,-2.0548219680786133,1.4883686304092407,1.2377294301986694,0.36829233169555664,0.04876894876360893,0.5902228355407715,0.033409556485693215,-0.7976359619743778,2.438860031438878,-0.7153076529502869,-0.033403340727090836,-0.6980109214782715, 199, 113, 18, 153
1731320617732,9i,5.732666779973744,1.3s : 0.5s,6.542264175631999,5.462460450675079,1.7086142238076416,0.7422282975035528,-2.2879927158355713,1.597544550895691,1.242104172706604,0.3719329833984375,0.06306655704975128,0.6392114758491516,0.009340491358449107,-0.782124823426157,2.432448866954951,-0.7047576308250427,-0.009340355172753334,-0.7093865871429443, 199, 113, 18, 153
1731320617742,9i,5.732666779973744,1.3s : 0.5s,6.542264175631999,5.476256362942251,1.8584155131086824,0.7414940958309847,-2.507483720779419,1.727691888809204,1.260401964187622,0.34999096393585205,0.07269711792469025,0.6496421694755554,-0.016552288725128556,-0.7655526927941617,2.424869842343641,-0.6928406953811646,0.016551533713936806,-0.7209007143974304, 199, 113, 18, 153
1731320617752,9i,5.732666779973744,1.3s : 0.5s,6.542264175631999,5.490485391156617,2.00768736818788,0.7232799687302436,-2.6897687911987305,1.8435778617858887,1.3104830980300903,0.339841365814209,0.07360559701919556,0.6342113018035889,-0.04422193741240061,-0.7479903542434361,2.4166142971274267,-0.679502010345459,0.04420752450823784,-0.7323405742645264, 199, 113, 18, 153
1731320617762,9i,5.732666779973744,1.3s : 0.5s,6.542264175631999,5.504754662382191,2.14076429151119,0.6866748733760452,-2.767744302749634,1.9374148845672607,1.3910576105117798,0.3421176075935364,0.07503412663936615,0.5906333923339844,-0.07350005137357177,-0.7295903591620415,2.408429088944882,-0.6647646427154541,0.07343389093875885,-0.7434349060058594, 199, 113, 18, 153
1731320617772,9i,5.732666779973744,1.3s : 0.5s,6.542264175631999,5.518880852076223,2.2575832346550704,0.6391855663520221,-2.8101487159729004,2.0554358959198,1.4487597942352295,0.3383224606513977,0.0921526700258255,0.5344192981719971,-0.10377324174161535,-0.7103749201230732,2.401006654278257,-0.6486099362373352,0.1035870909690857,-0.7540390491485596, 199, 113, 18, 153
1731320617782,9i,5.732666779973744,1.3s : 0.5s,6.542264175631999,5.532809428599112,2.371526429843313,0.6145098694551314,-2.9287235736846924,2.1572186946868896,1.4897929430007935,0.3247857093811035,0.13294997811317444,0.5044412016868591,-0.13513057905104045,-0.6902066533313335,2.3939572164136576,-0.630892276763916,0.13471969962120056,-0.7640847563743591, 199, 113, 18, 153
1731320617792,9i,5.732666779973744,1.3s : 0.5s,6.542264175631999,5.546638061188597,2.4750299529596687,0.613131146534274,-3.0209953784942627,2.221311092376709,1.5259253978729248,0.31581979990005493,0.18049797415733337,0.49356675148010254,-0.1677145367198715,-0.6693614765013277,2.387193339411453,-0.6117792725563049,0.16692939400672913,-0.77321457862854, 199, 113, 18, 153
1731320617802,9i,5.732666779973744,1.3s : 0.5s,6.542264175631999,5.560257156919384,2.5849473212041105,0.594456931297594,-3.213914632797241,2.280423879623413,1.5503718852996826,0.29928815364837646,0.17873597145080566,0.481517493724823,-0.20165631495944034,-0.6482276220873788,2.3803984970819405,-0.5915396809577942,0.20029236376285553,-0.7810017466545105, 199, 113, 18, 153
1731320617812,9i,5.732666779973744,1.3s : 0.5s,6.542264175631999,5.573698377883668,2.7186913233061487,0.5896111536783105,-3.52738618850708,2.350919008255005,1.567705512046814,0.26619213819503784,0.1756499707698822,0.49591344594955444,-0.23796657104000063,-0.6267788243535904,2.3728827453767973,-0.5700098276138306,0.2357269823551178,-0.7870969176292419, 199, 113, 18, 153
1731320617822,9i,5.732666779973744,1.3s : 0.5s,6.542264175631999,5.586918898342377,2.842344662216493,0.5792250887363433,-3.7022411823272705,2.360954523086548,1.5883047580718994,0.23529762029647827,0.20317021012306213,0.48873162269592285,-0.2766006644996314,-0.6053644705610358,2.3646832852441375,-0.5474314093589783,0.27308711409568787,-0.7910387516021729, 199, 113, 18, 153
1731320617832,9i,5.732666779973744,1.3s : 0.5s,6.542264175631999,5.599451913155534,2.9472718475015403,0.49990660580304885,-3.7942278385162354,2.3888988494873047,1.596472978591919,0.21147853136062622,0.2125369906425476,0.40001434087753296,-0.31655774485677285,-0.5841267989731983,2.35670836155093,-0.5240700244903564,0.3112971782684326,-0.792745053768158, 199, 113, 18, 153
1731320617842,9i,5.732666779973744,1.3s : 0.5s,6.542264175631999,5.61082865814386,2.995636812475964,0.4017300873076924,-3.640946388244629,2.3878397941589355,1.5810352563858032,0.18114909529685974,0.2281179428100586,0.27664828300476074,-0.35645491883505653,-0.5626589863265695,2.3495396373497415,-0.49990516901016235,0.3489542007446289,-0.7926700115203857, 199, 113, 18, 153
1731320617852,9i,5.732666779973744,1.3s : 0.5s,6.542264175631999,5.620940240401509,3.0092042063835907,0.3612645370785877,-3.5848464965820312,2.340026617050171,1.4874577522277832,0.1334846317768097,0.26924243569374084,0.20050543546676636,-0.39520066692767913,-0.541211325080048,2.3435532811262143,-0.4754645824432373,0.38499340415000916,-0.7910205721855164, 199, 113, 18, 153
1731320617862,9i,5.732666779973744,1.3s : 0.5s,6.542264175631999,5.630314959369976,2.98453708266412,0.4256183171290333,-3.4324240684509277,2.3058810234069824,1.3907158374786377,0.08341073989868164,0.37009310722351074,0.19293701648712158,-0.4327805768234245,-0.5203898428731955,2.3377087759321893,-0.45137640833854675,0.41939663887023926,-0.7876330614089966, 199, 113, 18, 153
1731320617872,9i,5.732666779973744,1.3s : 0.5s,6.542264175631999,5.639216846557117,2.9631888703687785,0.5313818901061441,-3.5663328170776367,2.105600357055664,1.3196396827697754,0.05038881301879883,0.4907793700695038,0.19739121198654175,-0.4694853980484706,-0.5006476698378343,2.332267129982561,-0.42805907130241394,0.4524274170398712,-0.7823521494865417, 199, 113, 18, 153
1731320617882,9i,5.732666779973744,1.3s : 0.5s,6.542264175631999,5.648109732177149,2.97239204989439,0.6491696413561707,-3.7432775497436523,2.1413815021514893,1.1812325716018677,0.02374252676963806,0.6078969240188599,0.22653663158416748,-0.5076181748729381,-0.482597591711341,2.3253203660617747,-0.4055631756782532,0.486097127199173,-0.7740982174873352, 199, 113, 18, 153
1731320617892,9i,5.732666779973744,1.3s : 0.5s,6.542264175631999,5.656441710622244,2.9731432309742893,0.6412077525899088,-3.7961323261260986,2.070371627807617,1.063026785850525,-0.026866286993026733,0.6245168447494507,0.1428436040878296,-0.5462427011621993,-0.4657972997159905,2.3170584259136313,-0.3837782144546509,0.5194803476333618,-0.7634490728378296, 199, 113, 18, 153
1731320617902,9i,5.732666779973744,1.3s : 0.5s,6.542264175631999,5.6641657788545965,2.978519481766705,0.533375729994561,-3.8490190505981445,2.0537869930267334,0.9829716086387634,-0.038790881633758545,0.5223312973976135,-0.10077178478240967,-0.5851383097800384,-0.45022894523986073,2.3078236942475896,-0.36277464032173157,0.5523146986961365,-0.7505618333816528, 199, 113, 18, 153
1731320617912,9i,5.732666779973744,1.3s : 0.5s,6.542264175631999,5.669038896876703,2.9226217599746853,0.5872172576047275,-3.543405055999756,2.0027527809143066,0.8922801613807678,-0.02908247709274292,0.48042911291122437,-0.3364018201828003,-0.6226060881593366,-0.4350541473790173,2.298953328841486,-0.3423774838447571,0.5831542015075684,-0.7366877794265747, 199, 113, 18, 153
1731320617952,9i,5.732666779973744,1.3s : 0.5s,6.542264175631999,5.675275742907796,2.6767859188226613,0.8476766199342678,-2.3432254791259766,2.039896011352539,0.6716436743736267,-0.17271068692207336,0.6058731079101562,-0.5671370625495911,-0.7438575683481856,-0.36975899089217257,2.2753046718134065,-0.26593366265296936,0.6771315932273865,-0.6861283183097839, 199, 113, 18, 153
1731320617962,9i,5.732666779973744,1.3s : 0.5s,6.542264175631999,5.673668236463549,2.460038814319346,0.822988510354121,-2.038947105407715,2.1025335788726807,0.522053062915802,-0.21526044607162476,0.4657362699508667,-0.6434770822525024,-0.7663419120918403,-0.35098264236996396,2.272644357654929,-0.24770644307136536,0.6935043931007385,-0.6765301823616028, 199, 113, 18, 153
1731320617942,9i,5.732666779973744,1.3s : 0.5s,6.542264175631999,5.678646613402046,2.423624388737422,0.863916304956724,-2.7325611114501953,2.0442447662353516,0.7121709585189819,-0.12766581773757935,0.6697363257408142,-0.530571460723877,-0.7176832539751788,-0.38746693778676805,2.2791670533982735,-0.2846420109272003,0.6576411724090576,-0.6974862813949585, 199, 113, 18, 153
1731320617972,9i,5.732666779973744,1.3s : 0.5s,6.542264175631999,5.66401902302656,2.2577556820913505,0.7949912623185206,-1.8441886901855469,2.156839609146118,0.32501089572906494,-0.24386517703533173,0.37616586685180664,-0.6565364599227905,-0.7859516585063941,-0.33225810222699104,2.269151964472097,-0.23051530122756958,0.7074980735778809,-0.668063759803772, 199, 113, 18, 153
1731320617982,9i,5.732666779973744,1.3s : 0.5s,6.542264175631999,5.657601342936585,2.1399449804991177,0.8095845457195444,-1.8064836263656616,2.189613103866577,0.12206658720970154,-0.24087406694889069,0.40316200256347656,-0.6594446301460266,-0.8038782532520199,-0.3143211686625109,2.264024133469033,-0.21453973650932312,0.7200527191162109,-0.6599218249320984, 199, 113, 18, 153
1731320617992,9i,5.732666779973744,1.3s : 0.5s,6.542264175631999,5.6503903916095695,2.047579875462323,0.8469290331288067,-1.675161600112915,2.235814094543457,-0.034381646662950516,-0.20689657330513,0.47993069887161255,-0.6664451360702515,-0.8207358851030904,-0.2974594085633193,2.2569470501772986,-0.1997959315776825,0.7316476702690125,-0.651746392250061, 199, 113, 18, 153
1731320618002,9i,5.732666779973744,1.3s : 0.5s,6.542264175631999,5.642720048977773,1.955306892308301,0.8816923702141631,-1.4952675104141235,2.178501844406128,-0.10103178024291992,-0.17917241156101227,0.5156385898590088,-0.6923839449882507,-0.8354888732682354,-0.2810287247947368,2.2494438799566256,-0.18604667484760284,0.7416245341300964,-0.6444995403289795, 199, 113, 18, 153
1731320618032,9i,5.732666779973744,1.3s : 0.5s,6.542264175631999,5.618422867902333,1.7606481600941373,0.8262981200521979,-0.4948515295982361,2.108872175216675,-0.3722504675388336,-0.15567663311958313,0.3900839686393738,-0.7115952968597412,-0.8659724642669125,-0.23427079565811487,2.226566997518206,-0.15039940178394318,0.761725664138794,-0.6302016377449036, 199, 113, 18, 153
1731320618041,9i,5.732666779973744,1.3s : 0.5s,6.542264175631999,5.609969670088436,1.6100230098577741,0.7611604295809113,-0.27725744247436523,2.013216972351074,-0.5478270649909973,-0.15748603641986847,0.3283843398094177,-0.6683764457702637,-0.8687217676934617,-0.22021273518824364,2.218225251269212,-0.14106743037700653,0.7635040879249573,-0.6302075982093811, 199, 113, 18, 153
1731320618051,9i,5.732666779973744,1.3s : 0.5s,6.542264175631999,5.601390906144465,1.5042981699414162,0.6809920668949259,-0.20982611179351807,1.9068042039871216,-0.6958872079849243,-0.17856918275356293,0.2913956642150879,-0.589026153087616,-0.8698113642392273,-0.20847485974337018,2.207997711469248,-0.13348829746246338,0.7642073035240173,-0.631005585193634, 199, 113, 18, 153
1731320618061,9i,5.732666779973744,1.3s : 0.5s,6.542264175631999,5.592695243323101,1.4094434479322318,0.6332067262315778,0.05670623481273651,1.7776087522506714,-0.781682550907135,-0.20216156542301178,0.24310261011123657,-0.5486187934875488,-0.8691003576611636,-0.1988557370520082,2.196616190926812,-0.12751980125904083,0.7637485265731812,-0.6327928900718689, 199, 113, 18, 153
1731320618071,9i,5.732666779973744,1.3s : 0.5s,6.542264175631999,5.583620057599964,1.3584103339498341,0.6559163457486603,0.2179962545633316,1.766546607017517,-0.9065209031105042,-0.22477418184280396,0.2147223949432373,-0.5775786638259888,-0.8660783701132382,-0.19057824362806894,2.184443774665779,-0.12271421402692795,0.7617942690849304,-0.636090099811554, 199, 113, 18, 153
1731320618091,9i,5.732666779973744,1.3s : 0.5s,6.542264175631999,5.565470723431725,1.3095891115529437,0.5375325064071168,0.26797327399253845,1.5715651512145996,-1.0359688997268677,-0.24558380246162415,0.1342124342918396,-0.4589300751686096,-0.8582077922832737,-0.17977522296743983,2.154912553966365,-0.11690400540828705,0.7566720247268677,-0.6432580947875977, 199, 113, 18, 153
1731320618101,9i,5.732666779973744,1.3s : 0.5s,6.542264175631999,5.556329596423138,1.2988241004868604,0.5212137134231383,0.5145321488380432,1.6293396949768066,-1.0465110540390015,-0.22151193022727966,0.08309423923492432,-0.46442604064941406,-0.8525798647074603,-0.17465844251274643,2.140562023698094,-0.11434926837682724,0.7529805898666382,-0.6480312943458557, 199, 113, 18, 153
1731320618111,9i,5.732666779973744,1.3s : 0.5s,6.542264175631999,5.5470208580905895,1.2831841770756314,0.5330567476810617,0.7366335391998291,1.4388563632965088,-1.1233233213424683,-0.18316107988357544,0.043573081493377686,-0.49870121479034424,-0.8447324052104921,-0.1702796612335733,2.125995945352925,-0.11250846832990646,0.7477934956550598,-0.654329240322113, 199, 113, 18, 153
1731320618121,9i,5.732666779973744,1.3s : 0.5s,6.542264175631999,5.537826845231993,1.2642107809989158,0.5033541027908935,1.1149060726165771,1.24368155002594,-1.1243491172790527,-0.14563846588134766,0.041481614112854004,-0.4800354838371277,-0.8337016363088653,-0.16769857358677445,2.111828179182518,-0.11218927055597305,0.7404244542121887,-0.6627104878425598, 199, 113, 18, 153
1731320618141,9i,5.732666779973744,1.3s : 0.5s,6.542264175631999,5.52119085098904,1.3274120787850294,0.38943233520115933,1.9763110876083374,1.057679533958435,-1.2395431995391846,-0.13204902410507202,0.0962754487991333,-0.35348498821258545,-0.7999965204826763,-0.16531858290437315,2.0844064011317096,-0.11465504765510559,0.7173536419868469,-0.6872102618217468, 199, 113, 18, 153
1731320618151,9i,5.732666779973744,1.3s : 0.5s,6.542264175631999,5.513428710458184,1.424558768363847,0.4094981045089917,2.001540422439575,1.033412218093872,-1.3346058130264282,-0.1362350583076477,0.10907191038131714,-0.37044841051101685,-0.777936058254101,-0.1642292225634377,2.0713005045074047,-0.1164657324552536,0.7018106579780579,-0.7027785181999207, 199, 113, 18, 153
1731320618181,9i,5.732666779973744,1.3s : 0.5s,6.542264175631999,5.493276290080771,1.538436622591979,0.271557024141928,2.593963146209717,0.5434321761131287,-1.2864655256271362,-0.0040200501680374146,-0.011806666851043701,-0.2712704539299011,-0.7074510832510026,-0.16478309004708414,2.035875469330704,-0.12467257678508759,0.6498986482620239,-0.7497255802154541, 199, 113, 18, 153
1731320618191,9i,5.732666779973744,1.3s : 0.5s,6.542264175631999,5.486754168573711,1.6336441328977351,0.3378115166677854,2.5102975368499756,0.5259506702423096,-1.280713438987732,-0.03737722337245941,-0.05853462219238281,-0.33059531450271606,-0.6801284634805873,-0.16637655100222623,2.0251375132474627,-0.1287604570388794,0.6288928985595703,-0.7667557597160339, 199, 113, 18, 153
