timestamp,club,max_speed,tempo,w.rotation,l.speed,t.spped,acc,rotation.x,rotation.y,rotation.z,userAcceleration.x,userAcceleration.y,userAcceleration.z,pitch,roll,yaw,gravity.x,gravity.y,gravity.z,impactIndex,minDownIndex,StartIndex,endIndex
1731320659013,9i,13.709257033564649,1.2s : 0.1s,-4.333493483956403,0.0036585045013297402,0.2241785994035767,0.21306104827945282,-1.1406168937683105,0.6335826516151428,0.6651912927627563,-0.05477340519428253,-0.15628862380981445,0.13404756784439087,-0.87747457380402,0.34527091877099503,0.16820008182657445,0.21630291640758514,0.769127368927002,-0.6013785600662231, 191, 151, 77, 179
1731320659003,9i,13.709257033564649,1.2s : 0.1s,-4.333493483956403,0.002807668859390087,0.25231576444997805,0.21759076604914848,-0.9567734003067017,0.588302493095398,0.6297540068626404,-0.05185100436210632,-0.15472137928009033,0.14393925666809082,-0.8697575997272972,0.32783337077690616,0.15336892932764304,0.20768898725509644,0.7641726136207581,-0.6106598973274231, 191, 151, 77, 179
1731320659023,9i,13.709257033564649,1.2s : 0.1s,-4.333493483956403,0.00881727767875789,0.48262296834110135,0.21418251735119903,-1.3425140380859375,0.6743103861808777,0.7189594507217407,-0.05090285837650299,-0.1572626829147339,0.13620388507843018,-0.8867141760848981,0.36490864191401357,0.18516567188831953,0.2255244255065918,0.7749994397163391,-0.5903512239456177, 191, 151, 77, 179
1731320659033,9i,13.709257033564649,1.2s : 0.1s,-4.333493483956403,0.01438713695698244,0.69246347127845,0.2265071485402276,-1.4332252740859985,0.7078953981399536,0.7985665202140808,-0.05261772871017456,-0.16411221027374268,0.14698314666748047,-0.8969410542747426,0.3868471880634813,0.20450555956885388,0.23541799187660217,0.7814217805862427,-0.5778913497924805, 191, 151, 77, 179
1731320659043,9i,13.709257033564649,1.2s : 0.1s,-4.333493483956403,0.01992013199686984,0.8375481498689468,0.24256269922134763,-1.2967997789382935,0.7553020715713501,0.9097756147384644,-0.05060620605945587,-0.1827273964881897,0.1512824296951294,-0.90631190124488,0.41087780093029413,0.2257672396312056,0.24630014598369598,0.7872348427772522,-0.5653297305107117, 191, 151, 77, 179
1731320659053,9i,13.709257033564649,1.2s : 0.1s,-4.333493483956403,0.02540320332441428,0.9240326115503847,0.23757598190261137,-1.1181727647781372,0.8078566789627075,0.9655707478523254,-0.04405099153518677,-0.186539888381958,0.14037352800369263,-0.913392601723927,0.43604215586663,0.24770428563069766,0.2580859959125519,0.791581392288208,-0.5538867712020874, 191, 151, 77, 179
1731320659063,9i,13.709257033564649,1.2s : 0.1s,-4.333493483956403,0.030560959565959365,0.9833001448390002,0.20270395054053048,-1.091345191001892,0.8425163626670837,0.9509710073471069,-0.04770103096961975,-0.1457485556602478,0.13255512714385986,-0.9190744208489714,0.4617590466540997,0.2696670313180674,0.27023518085479736,0.7950405478477478,-0.5430318117141724, 191, 151, 77, 179
1731320659073,9i,13.709257033564649,1.2s : 0.1s,-4.333493483956403,0.035370479415796165,1.0454397388335017,0.1824651185550732,-1.1873475313186646,0.9133824706077576,0.9518157839775085,-0.05973348021507263,-0.078524649143219,0.15349042415618896,-0.9247915912796149,0.48839803359307354,0.29214598762795957,0.28246602416038513,0.7984952926635742,-0.5316184759140015, 191, 151, 77, 179
1731320659082,9i,13.709257033564649,1.2s : 0.1s,-4.333493483956403,0.04016611404064531,1.1200578545100064,0.21639677424722256,-1.3509601354599,0.9461385607719421,1.0002206563949585,-0.07043230533599854,-0.07439225912094116,0.19061124324798584,-0.9312108898080786,0.517200255380321,0.3166113668332797,0.29511794447898865,0.8023432493209839,-0.5187972784042358, 191, 151, 77, 179
1731320659092,9i,13.709257033564649,1.2s : 0.1s,-4.333493483956403,0.044998031294194225,1.2013954591249987,0.2318968618781747,-1.497626543045044,0.9625833630561829,1.064983606338501,-0.0557594895362854,-0.10741674900054932,0.19780969619750977,-0.9381791906647127,0.5485424245135052,0.34362869927830525,0.3083076775074005,0.8064828515052795,-0.5045113563537598, 191, 151, 77, 179
1731320659102,9i,13.709257033564649,1.2s : 0.1s,-4.333493483956403,0.0498079226313471,1.295512160533354,0.20650903023608738,-1.724366307258606,0.9685238599777222,1.1013938188552856,-0.022364556789398193,-0.1161355972290039,0.16928771138191223,-0.9459730763055431,0.5825558957348843,0.37376591064994685,0.3218182325363159,0.8110665082931519,-0.4884710907936096, 191, 151, 77, 179
1731320659112,9i,13.709257033564649,1.2s : 0.1s,-4.333493483956403,0.0543288645203487,1.4017173337936526,0.17545434464493734,-1.9546359777450562,0.9596472382545471,1.1610093116760254,-0.004238724708557129,-0.11519712209701538,0.13227200508117676,-0.9547257593679449,0.6197295215090294,0.4074405626955526,0.33561384677886963,0.8161553144454956,-0.47037628293037415, 191, 151, 77, 179
1731320659122,9i,13.709257033564649,1.2s : 0.1s,-4.333493483956403,0.05858695839986789,1.5164135814015176,0.16380669154998442,-2.121281862258911,0.8537290692329407,1.3836184740066528,-0.008902132511138916,-0.10823911428451538,0.12262821197509766,-0.9640027875961392,0.6603595378462228,0.44533031477659907,0.34978345036506653,0.8214806914329529,-0.45035654306411743, 191, 151, 77, 179
1731320659132,9i,13.709257033564649,1.2s : 0.1s,-4.333493483956403,0.06260081313221748,1.6049425579724363,0.15344478448320376,-2.157151937484741,0.9546679854393005,1.3182258605957031,-0.03090566396713257,-0.10764563083648682,0.10489308834075928,-0.9731098736431928,0.7033804237957842,0.4840182653415929,0.3639744818210602,0.826639711856842,-0.42917290329933167, 191, 151, 77, 179
1731320659142,9i,13.709257033564649,1.2s : 0.1s,-4.333493483956403,0.06624611341879742,1.6509921973837223,0.1285167192407422,-1.9882811307907104,1.1588332653045654,1.2609519958496094,-0.003406226634979248,-0.09378629922866821,0.08780133724212646,-0.9798603699545836,0.7468904141267539,0.5237874826438429,0.37849777936935425,0.8304196000099182,-0.40883103013038635, 191, 151, 77, 179
1731320659152,9i,13.709257033564649,1.2s : 0.1s,-4.333493483956403,0.06943578115789142,1.6183493550489212,0.09865488518791844,-1.4622722864151,1.2045245170593262,1.361672282218933,-0.03269419074058533,-0.036186277866363525,0.08575797080993652,-0.9827457242917524,0.7897434229393709,0.5625586505360038,0.39396125078201294,0.8320236802101135,-0.3905523121356964, 191, 151, 77, 179
1731320659162,9i,13.709257033564649,1.2s : 0.1s,-4.333493483956403,0.07204192857437067,1.5430321248663446,0.08502082865254791,-1.1699855327606201,1.061011552810669,1.3466424942016602,-0.03314441442489624,0.018932044506072998,0.07597082853317261,-0.9819421198085059,0.8282916357071683,0.5960074996576973,0.40921249985694885,0.8315775990486145,-0.37553146481513977, 191, 151, 77, 179
1731320659172,9i,13.709257033564649,1.2s : 0.1s,-4.333493483956403,0.07421318016276961,1.4852125681805386,0.0709076325751159,-1.1208349466323853,1.0350747108459473,1.3487071990966797,-0.0038216710090637207,0.009656548500061035,0.07014298439025879,-0.9794980414985279,0.864656551710432,0.6273535960975818,0.42414024472236633,0.8302176594734192,-0.3617232143878937, 191, 151, 77, 179
1731320659182,9i,13.709257033564649,1.2s : 0.1s,-4.333493483956403,0.07626455929350254,1.4616633955617655,0.08847826026851172,-1.1972213983535767,1.0307676792144775,1.3921819925308228,-0.018012046813964844,0.04101526737213135,0.07630017399787903,-0.9761633526552383,0.900907690609233,0.6587834709501167,0.43913933634757996,0.8283541798591614,-0.3478303849697113, 191, 151, 77, 179
1731320659192,9i,13.709257033564649,1.2s : 0.1s,-4.333493483956403,0.07821137207400419,1.4801980716928855,0.06831873598492061,-1.4564162492752075,1.0218160152435303,1.4114243984222412,-0.011284679174423218,-0.018133223056793213,0.06489446759223938,-0.9730210591126885,0.9391540647123823,0.692714156164289,0.4542168378829956,0.8265897631645203,-0.33232006430625916, 191, 151, 77, 179
1731320659202,9i,13.709257033564649,1.2s : 0.1s,-4.333493483956403,0.0801658695060698,1.5224984451290866,0.10206641280883984,-1.6641247272491455,1.0014772415161133,1.4454058408737183,-0.002279043197631836,-0.09006237983703613,0.04797005653381348,-0.9703406666615884,0.9799431057465857,0.7300475456987133,0.46922847628593445,0.8250782489776611,-0.31475475430488586, 191, 151, 77, 179
1731320659212,9i,13.709257033564649,1.2s : 0.1s,-4.333493483956403,0.08211228220755354,1.571601066297241,0.10439650757129154,-1.79616379737854,0.9775360226631165,1.4724940061569214,0.009158611297607422,-0.09618079662322998,0.039547502994537354,-0.9673489330234886,1.0225392903008699,0.7698768292795166,0.4843105971813202,0.823384165763855,-0.29577314853668213, 191, 151, 77, 179
1731320659222,9i,13.709257033564649,1.2s : 0.1s,-4.333493483956403,0.08398198230438744,1.618023309486001,0.09188404573210798,-1.9012672901153564,0.9780691862106323,1.444286584854126,0.010016918182373047,-0.09115058183670044,0.005823284387588501,-0.9640048599417337,1.0658781762707408,0.8108038220924136,0.4990772306919098,0.8214818835258484,-0.2758428156375885, 191, 151, 77, 179
1731320659232,9i,13.709257033564649,1.2s : 0.1s,-4.333493483956403,0.08571074248299225,1.661577894918638,0.07302810938553372,-1.9673115015029907,0.9809768199920654,1.4491298198699951,-0.0019165873527526855,-0.06973093748092651,-0.02161082625389099,-0.9602754982392758,1.1099360738257777,0.8526227762240167,0.5134828090667725,0.8193495273590088,-0.25495481491088867, 191, 151, 77, 179
1731320659242,9i,13.709257033564649,1.2s : 0.1s,-4.333493483956403,0.08695848445877696,1.6753176951884419,0.0317983113040628,-1.8263882398605347,0.9974138736724854,1.463959813117981,-0.025143742561340332,-0.016798019409179688,-0.00983622670173645,-0.9552359687319381,1.1530788198226556,0.893284487236627,0.5277681946754456,0.8164499998092651,-0.23424337804317474, 191, 151, 77, 179
1731320659252,9i,13.709257033564649,1.2s : 0.1s,-4.333493483956403,0.08807018536734015,1.6605456757099428,0.05278809162415651,-1.6635466814041138,0.9760433435440063,1.4689662456512451,-0.030267298221588135,0.04082244634628296,0.014282897114753723,-0.9483925960508288,1.1932933778556465,0.9304265905699652,0.5419402122497559,0.8124794363975525,-0.2148902267217636, 191, 151, 77, 179
1731320659262,9i,13.709257033564649,1.2s : 0.1s,-4.333493483956403,0.08905470063662445,1.6535923868431313,0.06939311021350772,-1.649928331375122,0.9652261137962341,1.5126484632492065,-0.012796461582183838,0.061533331871032715,0.0294160395860672,-0.9403420904943753,1.2316528849132375,0.9658212568303767,0.5559329390525818,0.8077598214149475,-0.19611836969852448, 191, 151, 77, 179
1731320659272,9i,13.709257033564649,1.2s : 0.1s,-4.333493483956403,0.08992330004709362,1.67225693560256,0.06377687804184191,-1.70472252368927,0.8254388570785522,1.735625982284546,0.010833501815795898,0.0554162859916687,0.029650643467903137,-0.9308240582772047,1.2690410045577933,1.0002572717588838,0.5701905488967896,0.802112340927124,-0.1774778515100479, 191, 151, 77, 179
1731320659282,9i,13.709257033564649,1.2s : 0.1s,-4.333493483956403,0.09063608087216643,1.719926893476174,0.013936345688248527,-1.9106404781341553,0.5860110521316528,1.9007196426391602,0.007427990436553955,-0.008487999439239502,-0.008185386657714844,-0.9214804542062075,1.307307323482878,1.0349981553598577,0.5837737321853638,0.796497642993927,-0.15747936069965363, 191, 151, 77, 179
1731320659292,9i,13.709257033564649,1.2s : 0.1s,-4.333493483956403,0.0913223412537564,1.7693640300998064,0.056935913180656064,-2.0578341484069824,0.548795759677887,1.8577114343643188,0.025335729122161865,-0.05098426342010498,0.0006355494260787964,-0.9128742306723889,1.3462574080771554,1.070299181561753,0.5961242914199829,0.791264533996582,-0.13614892959594727, 191, 151, 77, 179
1731320659302,9i,13.709257033564649,1.2s : 0.1s,-4.333493483956403,0.09204615742855743,1.7838197577028052,0.05008739098120173,-2.0811171531677246,0.9312547445297241,1.4921339750289917,-0.0013574957847595215,-0.03813827037811279,0.03244034945964813,-0.9029837856420652,1.3851285016730674,1.107064181484733,0.6086267828941345,0.7851781845092773,-0.11431906372308731, 191, 151, 77, 179
1731320659312,9i,13.709257033564649,1.2s : 0.1s,-4.333493483956403,0.09270797164294735,1.768735027982429,0.025566739039837104,-1.8426238298416138,1.017317295074463,1.5128849744796753,0.007114231586456299,0.016468584537506104,0.018216244876384735,-0.8917849937655242,1.422387945874127,1.1420040085789156,0.6211206912994385,0.778194010257721,-0.09286228567361832, 191, 151, 77, 179
1731320659322,9i,13.709257033564649,1.2s : 0.1s,-4.333493483956403,0.09288594011907608,1.725015972517417,0.07840964896752758,-1.618837594985962,1.0368024110794067,1.4855259656906128,0.04198223352432251,0.06621205806732178,0.0012363195419311523,-0.8791283799800551,1.4558788478370939,1.1720410200268805,0.6336158514022827,0.7701832056045532,-0.07313576340675354, 191, 151, 77, 179
1731320659332,9i,13.709257033564649,1.2s : 0.1s,-4.333493483956403,0.09257326927209147,1.6793741238614117,0.10269299689024172,-1.5511066913604736,1.0275263786315918,1.4372700452804565,0.06766623258590698,0.0756722092628479,-0.015519320964813232,-0.8662384369652171,1.4866891645833986,1.1986777502147061,0.6454074382781982,0.7618979811668396,-0.05441175401210785, 191, 151, 77, 179
1731320659342,9i,13.709257033564649,1.2s : 0.1s,-4.333493483956403,0.09198021066846956,1.6408896333963467,0.10921745807301961,-1.5131795406341553,1.0889087915420532,1.3803646564483643,0.03322792053222656,0.10391873121261597,0.005025509744882584,-0.8527942314616432,1.5156516261877475,1.2234193924076593,0.6568812131881714,0.7531216144561768,-0.03626028075814247, 191, 151, 77, 179
1731320659352,9i,13.709257033564649,1.2s : 0.1s,-4.333493483956403,0.09142247768730136,1.621160198428183,0.08508717089946705,-1.634629487991333,1.166812539100647,1.2384899854660034,0.023619890213012695,0.07669997215270996,0.028267325833439827,-0.8391420642621352,1.5440593154377384,1.2475757390776787,0.667862594127655,0.7440702319145203,-0.017860906198620796, 191, 151, 77, 179
1731320659362,9i,13.709257033564649,1.2s : 0.1s,-4.333493483956403,0.0909200901569442,1.6219890661846115,0.04304316940256368,-1.7693684101104736,1.2109158039093018,1.1670401096343994,0.038892149925231934,0.01635158061981201,0.008528828620910645,-0.8254285732776667,1.5730246998454414,1.2730638000648893,0.6782402992248535,0.7348385453224182,0.0015113749541342258, 191, 151, 77, 179
1731320659372,9i,13.709257033564649,1.2s : 0.1s,-4.333493483956403,0.09043459328120378,1.636517141717345,0.05342957046591731,-1.8427605628967285,1.2141757011413574,1.1762337684631348,0.045871615409851074,0.02737480401992798,-0.001064896583557129,-0.8109760214500185,1.6019216032523942,1.2990111038729553,0.6884576082229614,0.7249597907066345,0.02143535576760769, 191, 151, 77, 179
1731320659382,9i,13.709257033564649,1.2s : 0.1s,-4.333493483956403,0.08990718836845635,1.6640238185216205,0.0741973650157877,-2.0015454292297363,1.1214686632156372,1.1911451816558838,0.056810736656188965,0.043139755725860596,-0.02041447162628174,-0.7960252815778572,1.6309881322685371,1.3258110431855352,0.6982856392860413,0.7145811915397644,0.04208190739154816, 191, 151, 77, 179
1731320659392,9i,13.709257033564649,1.2s : 0.1s,-4.333493483956403,0.08931434809772207,1.7022115188881077,0.07548194070979916,-2.1412441730499268,0.9568832516670227,1.3018778562545776,0.05190896987915039,0.038776695728302,-0.038721442222595215,-0.7808075625224488,1.6607211445185008,1.353998671310101,0.7074751853942871,0.7038533091545105,0.06379161775112152, 191, 151, 77, 179
1731320659402,9i,13.709257033564649,1.2s : 0.1s,-4.333493483956403,0.0886654046229873,1.7160088459713632,0.06658114988686341,-2.0111794471740723,0.7395451068878174,1.520913004875183,0.036267101764678955,0.039465487003326416,-0.03949964791536331,-0.765052502126299,1.689546930096032,1.3811357901327186,0.7162657380104065,0.6925748586654663,0.08545907586812973, 191, 151, 77, 179
1731320659412,9i,13.709257033564649,1.2s : 0.1s,-4.333493483956403,0.08796647795524803,1.7129800357935527,0.0622670225628901,-1.888633370399475,0.49795225262641907,1.6985766887664795,0.027917563915252686,0.036786794662475586,-0.04176749289035797,-0.7492757548282779,1.7162786480021763,1.405285975907163,0.7244474291801453,0.6811086535453796,0.10614420473575592, 191, 151, 77, 179
1731320659422,9i,13.709257033564649,1.2s : 0.1s,-4.333493483956403,0.08688810396009064,1.7076065129084916,0.10501055398564688,-1.7714664936065674,0.25203409790992737,1.9021449089050293,0.029966652393341064,0.08565092086791992,-0.05285012722015381,-0.7337702687859868,1.7409083688695106,1.4269555434035073,0.7319352030754089,0.6696743965148926,0.1257261037826538, 191, 151, 77, 179
1731320659432,9i,13.709257033564649,1.2s : 0.1s,-4.333493483956403,0.08538800479691577,1.7267902833070217,0.17628212424495837,-1.7785953283309937,0.10221272706985474,2.0473337173461914,0.03949630260467529,0.1674988865852356,-0.03820408880710602,-0.7182428300002083,1.7636298047223613,1.4467614374998943,0.7390070557594299,0.6580625772476196,0.14429831504821777, 191, 151, 77, 179
1731320659442,9i,13.709257033564649,1.2s : 0.1s,-4.333493483956403,0.08397611404669289,1.7619635897556913,0.17865412151297017,-1.9925405979156494,0.16702288389205933,1.9117387533187866,0.06984084844589233,0.16311824321746826,0.02078436315059662,-0.7027449273638413,1.7860145524954094,1.467237857557166,0.7454667091369629,0.6463146805763245,0.16296188533306122, 191, 151, 77, 179
1731320659452,9i,13.709257033564649,1.2s : 0.1s,-4.333493483956403,0.08291711235620566,1.7949678998209857,0.19048815082294138,-2.1674158573150635,0.36988934874534607,1.7271462678909302,0.10215771198272705,0.15058130025863647,0.05634544789791107,-0.6870634978301221,1.8090846313142572,1.4898115929530271,0.7512663006782532,0.634269654750824,0.18248502910137177, 191, 151, 77, 179
1731320659462,9i,13.709257033564649,1.2s : 0.1s,-4.333493483956403,0.0821074421251642,1.7988863733123477,0.21503288586076097,-2.147864580154419,0.6105841994285583,1.539793848991394,0.12193232774734497,0.1689700484275818,0.053110942244529724,-0.6706316465538381,1.8315638214860126,1.5125789151177689,0.7569433450698853,0.6214809417724609,0.2019854187965393, 191, 151, 77, 179
1731320659472,9i,13.709257033564649,1.2s : 0.1s,-4.333493483956403,0.08134881913777117,1.7706363999753747,0.2253874710138993,-2.129035472869873,0.8294922709465027,1.218788504600525,0.15587902069091797,0.16187047958374023,0.017297133803367615,-0.6538036670330518,1.8522996327762749,1.5339917783960515,0.7625321745872498,0.6082100868225098,0.2205110639333725, 191, 151, 77, 179
1731320659482,9i,13.709257033564649,1.2s : 0.1s,-4.333493483956403,0.0807501157045354,1.718240389566631,0.19917913614911156,-2.023401975631714,1.0863962173461914,0.9049329161643982,0.1685807704925537,0.10598182678222656,-0.00455021858215332,-0.637274311789133,1.8715789043309072,1.5545681483893155,0.7676374912261963,0.5950069427490234,0.23811647295951843, 191, 151, 77, 179
1731320659492,9i,13.709257033564649,1.2s : 0.1s,-4.333493483956403,0.08029259475498109,1.6364797384542753,0.1494084451476465,-1.7308781147003174,1.298311710357666,0.6825505495071411,0.13581466674804688,0.060186147689819336,-0.015965193510055542,-0.6211989958693266,1.888942862698824,1.5720187658229459,0.7723732590675354,0.5820105671882629,0.25436851382255554, 191, 151, 77, 179
1731320659502,9i,13.709257033564649,1.2s : 0.1s,-4.333493483956403,0.08003259810436339,1.5522688533619533,0.11171430846952413,-1.5959744453430176,1.314534306526184,0.47216853499412537,0.09490948915481567,0.05891978740692139,0.0008568763732910156,-0.6060251590490453,1.9044324612649377,1.5867836407446956,0.7765962481498718,0.5696049928665161,0.2691625952720642, 191, 151, 77, 179
1731320659512,9i,13.709257033564649,1.2s : 0.1s,-4.333493483956403,0.07993262440610797,1.467925755256719,0.15793917906027732,-1.437678337097168,1.236301064491272,0.4444881081581116,0.07596325874328613,0.13612210750579834,0.025399595499038696,-0.5914041401540221,1.918331123337852,1.5999207765355472,0.7805279493331909,0.5575272440910339,0.2827363610267639, 191, 151, 77, 179
1731320659522,9i,13.709257033564649,1.2s : 0.1s,-4.333493483956403,0.07983149433231577,1.3825379882140554,0.22983455395586355,-1.301689624786377,1.0878490209579468,0.5294346809387207,0.09171229600906372,0.21065813302993774,0.00599399209022522,-0.5769022877478198,1.9305232330714028,1.610879531053759,0.784508466720581,0.5454301834106445,0.2950466573238373, 191, 151, 77, 179
1731320659532,9i,13.709257033564649,1.2s : 0.1s,-4.333493483956403,0.0795222724425437,1.3083398549244212,0.22707367569401798,-1.339396595954895,0.8585247993469238,0.5762665271759033,0.11579322814941406,0.18946975469589233,-0.0474931001663208,-0.5626512816969589,1.9419187997222942,1.6211946719761665,0.7882595062255859,0.5334306359291077,0.3067551851272583, 191, 151, 77, 179
1731320659552,9i,13.709257033564649,1.2s : 0.1s,-4.333493483956403,0.07962563867037413,1.2773669813804693,0.1645660550537482,-1.603739619255066,0.4039514362812042,0.8778355121612549,0.09233438968658447,0.13607805967330933,0.006253689527511597,-0.5344155114680771,1.96531052493021,1.645092998623208,0.7944604754447937,0.5093381404876709,0.33076703548431396, 191, 151, 77, 179
1731320659562,9i,13.709257033564649,1.2s : 0.1s,-4.333493483956403,0.08022778649100028,1.295920533930225,0.14578193931636577,-1.798151969909668,0.20582345128059387,1.042900800704956,0.09623438119888306,0.10404461622238159,0.03414726257324219,-0.5194690221020903,1.9776736581210044,1.6593853719543281,0.7972134947776794,0.4964192807674408,0.34353816509246826, 191, 151, 77, 179
1731320659572,9i,13.709257033564649,1.2s : 0.1s,-4.333493483956403,0.08111736586199894,1.3146915326435675,0.13809830825776356,-1.7157799005508423,0.0999888926744461,1.2049016952514648,0.11823821067810059,0.06645834445953369,0.02596452832221985,-0.5040724161813521,1.9898254706166632,1.673739103546671,0.7998679876327515,0.4829954206943512,0.3562680780887604, 191, 151, 77, 179
1731320659592,9i,13.709257033564649,1.2s : 0.1s,-4.333493483956403,0.08319735256439852,1.3058171408032964,0.1452334884585046,-1.5035576820373535,0.021263454109430313,1.2173676490783691,0.13941437005996704,0.03306254744529724,-0.02373325824737549,-0.4746925740448799,2.0105766291931424,1.697754445581147,0.8047994375228882,0.45706504583358765,0.3786679208278656, 191, 151, 77, 179
1731320659602,9i,13.709257033564649,1.2s : 0.1s,-4.333493483956403,0.0843349067279259,1.2701176627714952,0.16360977734130133,-1.3692480325698853,0.10002697259187698,1.1669421195983887,0.13024312257766724,0.08762231469154358,-0.04612177610397339,-0.4607835529768254,2.019449155694809,1.7078307013071965,0.8070586323738098,0.4446500837802887,0.3885136842727661, 191, 151, 77, 179
1731320659582,9i,13.709257033564649,1.2s : 0.1s,-4.333493483956403,0.0822509149290784,1.2892499144972298,0.14519723096427622,-1.5765076875686646,0.02713572420179844,1.2448546886444092,0.13884377479553223,0.03983995318412781,-0.014745175838470459,-0.48903361738841616,2.0007497175225186,1.6863128760954302,0.8024402856826782,0.46977299451828003,0.36797070503234863, 191, 151, 77, 179
1731320659622,9i,13.709257033564649,1.2s : 0.1s,-4.333493483956403,0.08686223995398223,1.2516493927138983,0.13201683912247147,-1.5106393098831177,0.26282697916030884,0.8283300399780273,0.12257212400436401,0.04901161789894104,0.0015432238578796387,-0.4344688337441983,2.035689720730392,1.7280004627171046,0.810823380947113,0.4209286570549011,0.4066751003265381, 191, 151, 77, 179
1731320659632,9i,13.709257033564649,1.2s : 0.1s,-4.333493483956403,0.08836957428359724,1.2066244771796908,0.12683978641902127,-1.4460667371749878,0.3840753138065338,0.7121385931968689,0.1093055009841919,0.050039857625961304,0.04045554995536804,-0.42141417950939974,2.0433494124821374,1.7384686932191522,0.8125084042549133,0.4090513288974762,0.4153395891189575, 191, 151, 77, 179
1731320659641,9i,13.709257033564649,1.2s : 0.1s,-4.333493483956403,0.08988586119888774,1.1516904952110008,0.12232168301199409,-1.3588039875030518,0.4893295466899872,0.5690780878067017,0.10284143686294556,0.06464523077011108,-0.014395385980606079,-0.40892126646050386,2.050692109811414,1.7482886683467125,0.8139064908027649,0.39761975407600403,0.4236207604408264, 191, 151, 77, 179
1731320659612,9i,13.709257033564649,1.2s : 0.1s,-4.333493483956403,0.08641698813929075,1.1524680974029007,0.1759986659501701,-1.4317694902420044,0.17200903594493866,0.9718906283378601,0.13069814443588257,0.10022583603858948,-0.0620347261428833,-0.44752229579266417,2.0276272219671316,1.717291999146829,0.8090754151344299,0.4327331483364105,0.39766696095466614, 191, 151, 77, 179
1731320659651,9i,13.709257033564649,1.2s : 0.1s,-4.333493483956403,0.09069025622305649,1.0750862650466,0.12974073684229923,-1.1432983875274658,0.5441944599151611,0.5041331052780151,0.08241379261016846,0.0770564079284668,-0.06405416131019592,-0.39731954833594013,2.057452216706519,1.7566379067555578,0.815047025680542,0.3869480788707733,0.43124160170555115, 191, 151, 77, 179
1731320659701,9i,13.709257033564649,1.2s : 0.1s,-4.333493483956403,0.09733442903091227,0.897055166838175,0.08886335282245465,-0.486730694770813,0.27964067459106445,0.49521103501319885,0.06400388479232788,0.0614011287689209,-0.00548630952835083,-0.3535574284874012,2.080595859935652,1.7754636927180434,0.8188542127609253,0.3462373912334442,0.45781776309013367, 191, 151, 77, 179
1731320659711,9i,13.709257033564649,1.2s : 0.1s,-4.333493483956403,0.09854763893821161,0.7584849709159943,0.07502990172133346,-0.3887290954589844,0.23610278964042664,0.5150193572044373,0.05119633674621582,0.04791703820228577,-0.026690423488616943,-0.3469083238069328,2.0835850041683077,1.7767211364838984,0.8194702863693237,0.3399919271469116,0.46138277649879456, 191, 151, 77, 179
1731320659721,9i,13.709257033564649,1.2s : 0.1s,-4.333493483956403,0.0996681252553606,0.6440259126947251,0.10100133525222134,-0.2746536433696747,0.2115015834569931,0.5013378858566284,0.030820369720458984,0.07335013151168823,-0.062218427658081055,-0.34089879939687884,2.0860991351742775,1.7770585944961048,0.8200708627700806,0.3343343138694763,0.46444013714790344, 191, 151, 77, 179
1731320659781,9i,13.709257033564649,1.2s : 0.1s,-4.333493483956403,0.10661357740175433,0.49604144573406006,0.101850538868756,-0.033066198229789734,0.10263021290302277,0.26656219363212585,0.022901177406311035,0.08326607942581177,-0.05399841070175171,-0.3172948354432998,2.0939968162505225,1.7715350998932557,0.8229849338531494,0.31199756264686584,0.47471362352371216, 191, 151, 77, 179
1731320659771,9i,13.709257033564649,1.2s : 0.1s,-4.333493483956403,0.10557745308897072,0.4068182019222517,0.07520236686796831,-0.07336674630641937,0.11208443343639374,0.3076273202896118,0.023584604263305664,0.0575585663318634,-0.042263150215148926,-0.32003871835988873,2.0932558730468256,1.7727419234344404,0.8225915431976318,0.3146032989025116,0.4736747741699219, 191, 151, 77, 179
1731320659791,9i,13.709257033564649,1.2s : 0.1s,-4.333493483956403,0.10751919250135206,0.3296014548849303,0.11576723379657693,-0.03874565660953522,0.09022725373506546,0.23003838956356049,0.018831074237823486,0.09687191247940063,-0.06052500009536743,-0.3149722722628982,2.09464692558213,1.7703828794470458,0.8233015537261963,0.30979010462760925,0.4756098687648773, 191, 151, 77, 179
1731320659801,9i,13.709257033564649,1.2s : 0.1s,-4.333493483956403,0.10846397457435897,0.2703395179446867,0.12092787455117023,-0.03303477540612221,0.07177048176527023,0.1990027129650116,0.018852531909942627,0.10439163446426392,-0.05805617570877075,-0.31295389660191014,2.0952168069504795,1.7694775812089034,0.8235700726509094,0.30787038803100586,0.47639113664627075, 191, 151, 77, 179
1731320659811,9i,13.709257033564649,1.2s : 0.1s,-4.333493483956403,0.10935460031582653,0.22287326139174585,0.14037397026382348,-0.033254750072956085,0.0584498830139637,0.16200900077819824,0.024602532386779785,0.12390121817588806,-0.06122136116027832,-0.3112449782590625,2.0956838915556837,1.7686541172871304,0.8238013386726379,0.30624404549598694,0.47703859210014343, 191, 151, 77, 179
1731320659821,9i,13.709257033564649,1.2s : 0.1s,-4.333493483956403,0.11027409412299082,0.1837749871998144,0.13575399834885044,-0.030059752985835075,0.04592530056834221,0.13103777170181274,0.02799546718597412,0.12032783031463623,-0.056272685527801514,-0.30980575329836885,2.0960770400573825,1.768041186451784,0.8239943981170654,0.30487364530563354,0.4775830805301666, 191, 151, 77, 179
1731320659831,9i,13.709257033564649,1.2s : 0.1s,-4.333493483956403,0.11121338418584077,0.14925132407069805,0.11992861177793664,-0.040718261152505875,0.02751380391418934,0.09014707058668137,0.031199395656585693,0.09938287734985352,-0.05943495035171509,-0.30871083963276,2.0963601542897776,1.7675852545685513,0.8241474032402039,0.30383068323135376,0.4779835045337677, 191, 151, 77, 179
1731320659841,9i,13.709257033564649,1.2s : 0.1s,-4.333493483956403,0.11216383041841275,0.12081967878849884,0.10667493822482318,-0.05535499379038811,0.010955246165394783,0.06363077461719513,0.029345273971557617,0.08617305755615234,-0.05561116337776184,-0.307825496712018,2.096574422524122,1.7675549855545707,0.8242771029472351,0.30298706889152527,0.4782947599887848, 191, 151, 77, 179
1731320659851,9i,13.709257033564649,1.2s : 0.1s,-4.333493483956403,0.1131350429726295,0.09668104984712494,0.11115697668445361,-0.05111810192465782,-0.006976882927119732,0.04514060914516449,0.02296501398086548,0.09592917561531067,-0.05124524235725403,-0.3070830415740758,2.0966574608186677,1.7676159440615429,0.8244317770004272,0.30227941274642944,0.47847604751586914, 191, 151, 77, 179
1731320659861,9i,13.709257033564649,1.2s : 0.1s,-4.333493483956403,0.11412866712255729,0.0742039450316595,0.11074955618538704,-0.03347519040107727,-0.013957560062408447,0.021779362112283707,0.029825985431671143,0.09133866429328918,-0.05507379770278931,-0.30660042621695693,2.0966224311218693,1.7677532331351193,0.8245747685432434,0.3018193542957306,0.4785204231739044, 191, 151, 77, 179
1731320659881,9i,13.709257033564649,1.2s : 0.1s,-4.333493483956403,0.11604100507142433,0.05320511843937802,0.08035924950249274,0.01940346695482731,-0.03640135005116463,0.0239864569157362,0.01995164155960083,0.06697756052017212,-0.03966796398162842,-0.30617681411354714,2.096052021656556,1.7674804919969258,0.8249582052230835,0.30141547322273254,0.4781140983104706, 191, 151, 77, 179
1731320659891,9i,13.709257033564649,1.2s : 0.1s,-4.333493483956403,0.11692362719925042,0.0476522454864616,0.06684869775818693,0.04304980859160423,-0.053288187831640244,0.01753315143287182,0.016005396842956543,0.056782156229019165,-0.031438231468200684,-0.30736392453459827,2.0948392705667587,1.766722125380315,0.8252270817756653,0.3025471568107605,0.47693389654159546, 191, 151, 77, 179
1731320659901,9i,13.709257033564649,1.2s : 0.1s,-4.333493483956403,0.11765142699073512,0.041260013411011875,0.053532670618042455,0.0648251473903656,-0.04790247604250908,-0.004338857717812061,0.017125248908996582,0.036628395318984985,-0.035083234310150146,-0.3087056759734731,2.0935673302428692,1.7658959597459347,0.8254804611206055,0.3038257658481598,0.47568070888519287, 191, 151, 77, 179
1731320659931,9i,13.709257033564649,1.2s : 0.1s,-4.333493483956403,0.11935359854090356,0.032355787155460954,0.027171716353585243,0.07734246551990509,-0.055268604308366776,0.001161069143563509,0.0005198121070861816,0.021573573350906372,-0.016510993242263794,-0.31275437321395966,2.0894883395735215,1.7631287071271162,0.8263385891914368,0.30768054723739624,0.47169584035873413, 191, 151, 77, 179
1731320659941,9i,13.709257033564649,1.2s : 0.1s,-4.333493483956403,0.11985347426925863,0.0310769971246627,0.01824414720539905,0.047830913215875626,-0.061395201832056046,0.0006300348322838545,0.0038909912109375,0.017786085605621338,-0.0011680126190185547,-0.31381651388186954,2.088234821996285,1.7623192168650097,0.8266448974609375,0.30869099497795105,0.47049781680107117, 191, 151, 77, 179
1731320659951,9i,13.709257033564649,1.2s : 0.1s,-4.333493483956403,0.12034255657954163,0.033340275302203085,0.027739329498888604,0.05357808247208595,-0.06008537486195564,0.0024315635673701763,-0.001343846321105957,0.007167845964431763,0.02676352858543396,-0.3145525105111808,2.0870323631399468,1.7615577596413516,0.8270121216773987,0.30939096212387085,0.4693911075592041, 191, 151, 77, 179
1731320659961,9i,13.709257033564649,1.2s : 0.1s,-4.333493483956403,0.12082273741437606,0.03913305753779944,0.03431672430972023,0.06650640070438385,-0.059564460068941116,0.0002922462299466133,-0.002581775188446045,0.002168029546737671,0.03415071964263916,-0.3152533408317337,2.0859420267638256,1.760831317602996,0.8273345828056335,0.3100573420524597,0.46838220953941345, 191, 151, 77, 179
1731320659971,9i,13.709257033564649,1.2s : 0.1s,-4.333493483956403,0.12127431667461273,0.044128812514323726,0.02195143901370673,0.07508117705583572,-0.054928429424762726,0.002760829869657755,-0.008086979389190674,0.005250126123428345,0.019720613956451416,-0.31602395307011927,2.0849168759291024,1.759933557375873,0.8276059031486511,0.31078988313674927,0.4674161374568939, 191, 151, 77, 179
1731320659981,9i,13.709257033564649,1.2s : 0.1s,-4.333493483956403,0.12168549644558949,0.04549296437192621,0.021114494017475123,0.07158365100622177,-0.048789843916893005,0.004743020515888929,-0.01460486650466919,0.006659507751464844,0.01371753215789795,-0.3166764422104496,2.0838468966157806,1.759032632745415,0.8279288411140442,0.31140998005867004,0.46643078327178955, 191, 151, 77, 179
1731320659991,9i,13.709257033564649,1.2s : 0.1s,-4.333493483956403,0.12205588097009627,0.04658519810759323,0.014872630048272039,0.0652560442686081,-0.05271827057003975,0.010690825060009956,-0.00545048713684082,-0.005238056182861328,0.01280820369720459,-0.31716970539480727,2.0829353275403233,1.7581678430568384,0.8282195925712585,0.31187868118286133,0.46560049057006836, 191, 151, 77, 179
1731320660001,9i,13.709257033564649,1.2s : 0.1s,-4.333493483956403,0.12237641280968381,0.04649072629336489,0.0325022353869512,0.05295144021511078,-0.045000962913036346,-0.0007796760182827711,0.0023640990257263184,-0.026765823364257812,0.018286526203155518,-0.31763300516696336,2.082209745761566,1.7574824668222075,0.828431248664856,0.3123188316822052,0.4649287462234497, 191, 151, 77, 179
1731320660011,9i,13.709257033564649,1.2s : 0.1s,-4.333493483956403,0.12258372191432985,0.04582257898886084,0.04739150795921418,0.03718559443950653,-0.04752279818058014,0.003535343799740076,-0.0022391676902770996,-0.04182058572769165,0.022180616855621338,-0.3180768301824995,2.0815328747860886,1.7569017711577002,0.8286247849464417,0.3127404451370239,0.46430012583732605, 191, 151, 77, 179
1731320660021,9i,13.709257033564649,1.2s : 0.1s,-4.333493483956403,0.12259601146160978,0.045393664762460616,0.05148390378438023,0.042993951588869095,-0.04544153809547424,0.0015345108695328236,-0.008050858974456787,-0.04366371035575867,0.02606254816055298,-0.3183625696047761,2.0810073206553246,1.756477995915394,0.8287904262542725,0.3130118250846863,0.46382078528404236, 191, 151, 77, 179
1731320660031,9i,13.709257033564649,1.2s : 0.1s,-4.333493483956403,0.12251582638661328,0.04555542391385225,0.050772894755681856,0.05595935136079788,-0.04270700365304947,0.005734349135309458,-0.006145358085632324,-0.03937402367591858,0.0314612090587616,-0.3185532999190726,2.0808250620333233,1.7559949308753033,0.8288228511810303,0.3131929636001587,0.46364057064056396, 191, 151, 77, 179
1731320660041,9i,13.709257033564649,1.2s : 0.1s,-4.333493483956403,0.12241383915946821,0.04566285878967439,0.0361203179185767,0.059706151485443115,-0.03657294437289238,0.010215118527412415,-0.006859123706817627,-0.03030303120613098,0.01842162013053894,-0.3186581237013775,2.080836443553614,1.7554839867081629,0.8287889957427979,0.313292533159256,0.46363401412963867, 191, 151, 77, 179
1731320660051,9i,13.709257033564649,1.2s : 0.1s,-4.333493483956403,0.12230362908548435,0.045876039299357026,0.023710368571395527,0.06252210587263107,-0.03585149347782135,0.00914396159350872,-0.011666297912597656,-0.01430058479309082,0.014885306358337402,-0.3189035116504417,2.0808219931565026,1.7548541659247605,0.8287288546562195,0.31352555751800537,0.46358463168144226, 191, 151, 77, 179
1731320660081,9i,13.709257033564649,1.2s : 0.1s,-4.333493483956403,0.12182767320544796,0.03875289173395407,0.040937990921323046,0.03077603131532669,-0.005747390910983086,-0.010973092168569565,-0.010668039321899414,-0.03930440545082092,0.0041564106941223145,-0.31876929771564716,2.0811125221132154,1.7537706788835794,0.828630805015564,0.3133980929851532,0.4638459086418152, 191, 151, 77, 179
1731320660091,9i,13.709257033564649,1.2s : 0.1s,-4.333493483956403,0.12162656342357346,0.04008016889599633,0.03805290732901609,0.0862852931022644,0.01172037236392498,-0.002131297020241618,-0.01641225814819336,-0.03387752175331116,0.005565524101257324,-0.318019663864735,2.081538643078925,1.7533497460721263,0.8286375999450684,0.31268614530563354,0.4643135666847229, 191, 151, 77, 179
1731320660101,9i,13.709257033564649,1.2s : 0.1s,-4.333493483956403,0.12141190429803411,0.07494642359434474,0.02267047087021112,0.24597536027431488,0.04703415557742119,0.006541819777339697,-0.01057344675064087,-0.019485533237457275,0.004739880561828613,-0.31775953693321285,2.0820082745868183,1.7518764050650169,0.8284903168678284,0.31243905425071716,0.46474242210388184, 191, 151, 77, 179
1731320660111,9i,13.709257033564649,1.2s : 0.1s,-4.333493483956403,0.12121693828157495,0.1306489950677472,0.008967653650453846,0.3862479627132416,0.06279900670051575,0.005654953885823488,-0.007652699947357178,0.00447392463684082,0.0013560950756072998,-0.31831845121045377,2.082383452199139,1.7490098159648704,0.8281635046005249,0.3129699230194092,0.46496763825416565, 191, 151, 77, 179
1731320660121,9i,13.709257033564649,1.2s : 0.1s,-4.333493483956403,0.12112479322389068,0.182727429639395,0.049224352270530555,0.44620877504348755,0.08869611471891403,-0.01264016330242157,-0.01162874698638916,0.04764285683631897,-0.004238784313201904,-0.31989142464936693,2.08222672447084,1.745065016971177,0.8278062343597412,0.3144634962081909,0.4645964503288269, 191, 151, 77, 179
1731320660171,9i,13.709257033564649,1.2s : 0.1s,-4.333493483956403,0.1258537538311002,0.28738926356267624,0.20224985395703604,0.6353474855422974,0.46898868680000305,-0.3565468490123749,0.0056517720222473145,0.19093579053878784,0.06645739078521729,-0.33809759904473147,2.0898202175296743,1.7290974294534296,0.8191468119621277,0.33169299364089966,0.46795108914375305, 191, 151, 77, 179
1731320660181,9i,13.709257033564649,1.2s : 0.1s,-4.333493483956403,0.12773490503469553,0.4298247134332606,0.252374292145094,0.8700239062309265,0.5850439667701721,-0.4750679135322571,0.0063880085945129395,0.24794140458106995,0.046658724546432495,-0.34541920924888675,2.0934901795357503,1.7241405724366217,0.8152977228164673,0.33859115839004517,0.46972915530204773, 191, 151, 77, 179
1731320660190,9i,13.709257033564649,1.2s : 0.1s,-4.333493483956403,0.1303344069423615,0.5750975168400071,0.3016276699483148,1.0009740591049194,0.6955411434173584,-0.627647876739502,-0.01078343391418457,0.3012414872646332,0.010795146226882935,-0.35487228223188527,2.0979552151538536,1.7184339693515527,0.8103895783424377,0.34747061133384705,0.47173336148262024, 191, 151, 77, 179
1731320660200,9i,13.709257033564649,1.2s : 0.1s,-4.333493483956403,0.13368714325859865,0.7182572756257258,0.3591519859011802,1.1286708116531372,0.8155871033668518,-0.7301841378211975,-0.035931408405303955,0.35652971267700195,0.024200141429901123,-0.36621622090905903,2.10326637333398,1.7120335376781546,0.8044249415397644,0.35808512568473816,0.4739992320537567, 191, 151, 77, 179
1731320660210,9i,13.709257033564649,1.2s : 0.1s,-4.333493483956403,0.13796237293144292,0.8692931820274202,0.41318073069092176,1.329140067100525,0.917210042476654,-0.8425450325012207,-0.05125325918197632,0.40393632650375366,0.07019162178039551,-0.3791619156218396,2.109372980625344,1.705012160030063,0.7974690198898315,0.37014204263687134,0.4764849543571472, 191, 151, 77, 179
1731320660230,9i,13.709257033564649,1.2s : 0.1s,-4.333493483956403,0.15013301098012893,1.1394705067335937,0.6213595874201665,2.088932991027832,1.1677782535552979,-1.118398666381836,-0.11557608842849731,0.5887660384178162,0.16150683164596558,-0.41328619677607953,2.1222178415631956,1.684251182721972,0.7800659537315369,0.401621013879776,0.47978952527046204, 191, 151, 77, 179
1731320660240,9i,13.709257033564649,1.2s : 0.1s,-4.333493483956403,0.1580267389265321,1.389993210602339,0.7166412314890271,2.3286960124969482,1.2848180532455444,-1.2624890804290771,-0.1706221103668213,0.6758573055267334,0.16637203097343445,-0.4350918722847103,2.1288153730797372,1.6703683810585876,0.769270122051239,0.4214937090873718,0.4801732897758484, 191, 151, 77, 179
1731320660280,9i,13.709257033564649,1.2s : 0.1s,-4.333493483956403,0.20173437515056217,1.845581950609602,1.0654964623824612,3.522146224975586,1.7013753652572632,-1.881604552268982,-0.44550400972366333,0.9459177851676941,0.20505714416503906,-0.5494721360406933,2.15273969308593,1.5946765838361991,0.7124260067939758,0.5222371220588684,0.4687403738498688, 191, 151, 77, 179
1731320660290,9i,13.709257033564649,1.2s : 0.1s,-4.333493483956403,0.21569006589810427,2.224522450748422,1.145006921200367,3.6888883113861084,1.8458869457244873,-2.1120522022247314,-0.5373758673667908,0.9887591004371643,0.21124267578125,-0.5860206071991482,2.1583522369137222,1.5720110209783895,0.6934275031089783,0.5530499815940857,0.4618377089500427, 191, 151, 77, 179
1731320660300,9i,13.709257033564649,1.2s : 0.1s,-4.333493483956403,0.23212286678131627,2.568290112604562,1.2474118254111188,3.994171380996704,1.9648237228393555,-2.3293261528015137,-0.603080689907074,1.0629158020019531,0.250079870223999,-0.6258434739740226,2.1639646988142456,1.548112105360844,0.672019898891449,0.5857810974121094,0.4530450403690338, 191, 151, 77, 179
1731320660310,9i,13.709257033564649,1.2s : 0.1s,-4.333493483956403,0.251211341169079,2.8820242990575693,1.325953485569273,4.2497358322143555,2.022731065750122,-2.6253514289855957,-0.6176900863647461,1.1358239650726318,0.2941352128982544,-0.6697607240960146,2.1687036075198693,1.5225072488410927,0.6479635238647461,0.6207984089851379,0.44130784273147583, 191, 151, 77, 179
1731320660330,9i,13.709257033564649,1.2s : 0.1s,-4.333493483956403,0.2953432878194762,3.2305962889082016,1.3598485089345675,4.594401836395264,2.124814748764038,-3.3026182651519775,-0.5537338256835938,1.1817598342895508,0.3821132183074951,-0.7690283142235894,2.1753044753486663,1.4693355754163946,0.5912397503852844,0.6954373121261597,0.40841394662857056, 191, 151, 77, 179
1731320660340,9i,13.709257033564649,1.2s : 0.1s,-4.333493483956403,0.31994001191443056,3.5183490100297217,1.3838592304144335,4.642838954925537,2.1352546215057373,-3.620718002319336,-0.500308096408844,1.2170666456222534,0.4283771216869354,-0.8237638797155306,2.1780164969168627,1.4430901275574275,0.5580015182495117,0.7337084412574768,0.3876933753490448, 191, 151, 77, 179
1731320660350,9i,13.709257033564649,1.2s : 0.1s,-4.333493483956403,0.34630068928128754,3.7641551084684153,1.3763193682846138,4.704802513122559,2.0744926929473877,-3.954897403717041,-0.39676088094711304,1.2382254600524902,0.45125770568847656,-0.881474477079479,2.1800125697611596,1.4174916037912233,0.5215930342674255,0.7716774940490723,0.36394304037094116, 191, 151, 77, 179
1731320660320,9i,13.709257033564649,1.2s : 0.1s,-4.333493483956403,0.26805897273114043,3.789837047797719,1.3318203645334328,4.46770715713501,2.057147979736328,-2.9611117839813232,-0.5892261266708374,1.1481413841247559,0.32913434505462646,-0.7175259702925866,2.172378365021136,1.4960819260827731,0.6211627721786499,0.6575226783752441,0.42640453577041626, 191, 151, 77, 179
1731320660360,9i,13.709257033564649,1.2s : 0.1s,-4.333493483956403,0.3767431198087136,3.9949152113487285,1.3509819634031537,4.765815258026123,2.006213665008545,-4.255058765411377,-0.2606046497821808,1.2493280172348022,0.4431895613670349,-0.9421220553920411,2.18075985430077,1.3924399521922282,0.4820248484611511,0.8088078498840332,0.33687007427215576, 191, 151, 77, 179
1731320660380,9i,13.709257033564649,1.2s : 0.1s,-4.333493483956403,0.4345888989301297,4.228320005175728,1.4133810672249953,4.766775608062744,1.8309204578399658,-5.050982475280762,-0.05438372492790222,1.3090715408325195,0.5301133394241333,-1.0731067080762333,2.1791740708844753,1.3448653646087987,0.39174026250839233,0.878687858581543,0.27284979820251465, 191, 151, 77, 179
1731320660390,9i,13.709257033564649,1.2s : 0.1s,-4.333493483956403,0.464758030826339,4.443722399297691,1.4789616123344735,4.864710807800293,1.7634267807006836,-5.3120927810668945,0.015125036239624023,1.3771264553070068,0.5390931367874146,-1.1429848604245072,2.177522634527172,1.3226254695444377,0.3408319652080536,0.9098759293556213,0.23655685782432556, 191, 151, 77, 179
1731320660450,9i,13.709257033564649,1.2s : 0.1s,-4.333493483956403,0.6593037370890696,4.838920460285231,1.817777739302448,5.091582298278809,1.2471619844436646,-6.993747234344482,0.4822338819503784,1.5073095560073853,0.8943066000938416,-1.5172170503949682,-0.7209604900255563,-1.6713761204666069,-0.03534972667694092,0.9985649585723877,-0.04022642970085144, 191, 151, 77, 179
1731320660460,9i,13.709257033564649,1.2s : 0.1s,-4.333493483956403,0.6933179539309567,5.144141821058978,1.8426729655269027,5.034368991851807,1.0775649547576904,-7.157701015472412,0.6076332926750183,1.5050647258758545,0.8723563551902771,-1.4312657408658729,-0.8541955168920011,-1.816916386643626,-0.104871466755867,0.9902814030647278,-0.09135057032108307, 191, 151, 77, 179
1731320660470,9i,13.709257033564649,1.2s : 0.1s,-4.333493483956403,0.7284388620317275,5.378961435952882,1.889478522860226,5.038512229919434,0.8450765609741211,-7.2757720947265625,0.7277289628982544,1.4717661142349243,0.9351171851158142,-1.3437018023373903,-0.8875833732753081,-1.8606367601576796,-0.1746131181716919,0.974324643611908,-0.1421332061290741, 191, 151, 77, 179
1731320660480,9i,13.709257033564649,1.2s : 0.1s,-4.333493483956403,0.7644638233211337,5.542262270261078,1.942511987448359,4.960267066955566,0.6747812628746033,-7.317586898803711,0.8341869711875916,1.4523746967315674,0.9839169979095459,-1.2556376039191546,-0.9037908267823176,-1.885290777197692,-0.24353450536727905,0.9507471919059753,-0.19175703823566437, 191, 151, 77, 179
1731320660490,9i,13.709257033564649,1.2s : 0.1s,-4.333493483956403,0.8015286468506153,5.676482280749436,2.0065369476040398,5.054570198059082,0.5709383487701416,-7.360501289367676,0.9100430011749268,1.4882910251617432,0.9914646148681641,-1.1671952121413478,-0.912804332924148,-1.9014971977489563,-0.31073880195617676,0.9196527004241943,-0.24016764760017395, 191, 151, 77, 179
1731320660500,9i,13.709257033564649,1.2s : 0.1s,-4.333493483956403,0.8399004618501545,5.802452596667847,2.0824277923572585,5.20554780960083,0.4243456721305847,-7.451624870300293,0.9524507522583008,1.5327627658843994,1.0392215251922607,-1.0773797815522683,-0.9171389107312395,-1.9117157616668543,-0.3760041892528534,0.880719780921936,-0.28801602125167847, 191, 151, 77, 179
1731320660510,9i,13.709257033564649,1.2s : 0.1s,-4.333493483956403,0.8791586386513655,5.900716416956088,2.081474634485278,5.2061638832092285,0.25426509976387024,-7.518651485443115,0.9855226278305054,1.4832983016967773,1.0775471925735474,-0.986415715673595,-0.9204639649498648,-1.9193585956525816,-0.439074844121933,0.8340539336204529,-0.33401694893836975, 191, 151, 77, 179
1731320660520,9i,13.709257033564649,1.2s : 0.1s,-4.333493483956403,0.9191417658820025,5.965600362232951,2.1037422959154903,5.13139009475708,0.08021287620067596,-7.550271034240723,1.028189778327942,1.4507343769073486,1.1242451667785645,-0.89526560356375,-0.9246608615441632,-1.9264385757790459,-0.4992591142654419,0.7803751826286316,-0.37650343775749207, 191, 151, 77, 179
1731320660540,9i,13.709257033564649,1.2s : 0.1s,-4.333493483956403,1.000753250703095,5.971651148379314,2.1369338484963056,4.993038177490234,-0.29213687777519226,-7.414179801940918,1.1484286785125732,1.475265383720398,1.0349830389022827,-0.7150498313137871,-0.9356441686362021,-1.93892075687544,-0.6078097820281982,0.655655026435852,-0.4479774832725525, 191, 151, 77, 179
1731320660550,9i,13.709257033564649,1.2s : 0.1s,-4.333493483956403,1.0419859548112287,5.935214914840975,2.1180691562831755,4.8424787521362305,-0.506494402885437,-7.259065628051758,1.2001293897628784,1.4238545894622803,1.0092296600341797,-0.6268701240480794,-0.9425967864376545,-1.943465132974518,-0.6552532315254211,0.58661288022995,-0.4759502410888672, 191, 151, 77, 179
1731320660560,9i,13.709257033564649,1.2s : 0.1s,-4.333493483956403,1.0833234581375475,5.869429886432647,2.0465593389871506,4.720312118530273,-0.6385852694511414,-7.083067417144775,1.2294340133666992,1.3171770572662354,0.9705368280410767,-0.540926545271076,-0.9503630454374199,-1.9470883129416243,-0.6974667310714722,0.5149304866790771,-0.49838411808013916, 191, 151, 77, 179
1731320660570,9i,13.709257033564649,1.2s : 0.1s,-4.333493483956403,1.1234046509463305,5.785777590295434,1.9549031415044154,4.516697883605957,-0.7947766184806824,-6.976327419281006,1.2460720539093018,1.1750558614730835,0.9424406886100769,-0.4569704157156109,-0.9590410231140846,-1.9502947285280001,-0.7346431612968445,0.4412313997745514,-0.5153777599334717, 191, 151, 77, 179
1731320660580,9i,13.709257033564649,1.2s : 0.1s,-4.333493483956403,1.1616795474426078,5.6630863233958815,1.848072474354867,4.213873386383057,-0.9457184672355652,-6.7719902992248535,1.2698478698730469,1.0314513444900513,0.8596315383911133,-0.37570142332827355,-0.9692365143458727,-1.9538666250278225,-0.7669486403465271,0.36692512035369873,-0.5264558792114258, 191, 151, 77, 179
1731320660590,9i,13.709257033564649,1.2s : 0.1s,-4.333493483956403,1.1981528612610035,5.512954935874043,1.7907241357058983,3.97409987449646,-1.1208946704864502,-6.516576290130615,1.3155653476715088,0.9736040830612183,0.7266882658004761,-0.29790303710420957,-0.980708801048803,-1.9573826887421848,-0.7942946553230286,0.29351624846458435,-0.5319251418113708, 191, 151, 77, 179
1731320660600,9i,13.709257033564649,1.2s : 0.1s,-4.333493483956403,1.2330906772893226,5.3525915044517545,1.7734730254816626,3.7283077239990234,-1.296722650527954,-6.310136795043945,1.3656508922576904,0.9454762935638428,0.621513307094574,-0.2233217625308785,-0.9936916413299313,-1.960593611532312,-0.8172347545623779,0.22147011756896973,-0.5320510268211365, 191, 151, 77, 179
1731320660610,9i,13.709257033564649,1.2s : 0.1s,-4.333493483956403,1.2664627643724053,5.167091832586177,1.7188089003332299,3.501518487930298,-1.3801599740982056,-5.991591930389404,1.3763935565948486,0.872917115688324,0.5457659959793091,-0.15209798486324877,-1.0075974030915062,-1.963314096543613,-0.8357900381088257,0.1515122354030609,-0.5277302265167236, 191, 151, 77, 179
1731320660620,9i,13.709257033564649,1.2s : 0.1s,-4.333493483956403,1.2982614752749022,4.967161588651495,1.6501664729094134,3.2349677085876465,-1.5026915073394775,-5.7065935134887695,1.3579754829406738,0.8091182708740234,0.4735816717147827,-0.08481269559079471,-1.022323351163093,-1.9655735688603226,-0.8502545356750488,0.08471105247735977,-0.5195107460021973, 191, 151, 77, 179
1731320660630,9i,13.709257033564649,1.2s : 0.1s,-4.333493483956403,1.3288040466862956,4.754839255597159,1.6184642892093504,2.9858522415161133,-1.6012346744537354,-5.395298957824707,1.3481359481811523,0.7832968831062317,0.43405312299728394,-0.021315938553739058,-1.0379459822835593,-1.9673095934707627,-0.8611670136451721,0.02131432481110096,-0.5078752040863037, 191, 151, 77, 179
1731320660640,9i,13.709257033564649,1.2s : 0.1s,-4.333493483956403,1.3583371115364582,4.529246771851855,1.574381956226433,2.654609203338623,-1.6700057983398438,-5.105137825012207,1.3146649599075317,0.7647824883460999,0.4067460298538208,0.038137704430914014,-1.0542126564164909,-1.9690854460058869,-0.8688793778419495,-0.03812846168875694,-0.4935533404350281, 191, 151, 77, 179
1731320660650,9i,13.709257033564649,1.2s : 0.1s,-4.333493483956403,1.386991477387147,4.300759029615087,1.5210658610949142,2.4209442138671875,-1.733048439025879,-4.7907562255859375,1.2702006101608276,0.7278585433959961,0.4128603935241699,0.0936570471876836,-1.0711055987838511,-1.9708961760009291,-0.8738840222358704,-0.09352018684148788,-0.4770541489124298, 191, 151, 77, 179
1731320660660,9i,13.709257033564649,1.2s : 0.1s,-4.333493483956403,1.4144344184841569,4.063299284279874,1.4372888718418524,2.105922222137451,-1.7751002311706543,-4.480187892913818,1.2277699708938599,0.6201141476631165,0.4169396162033081,0.14512866599151328,-1.088368684113208,-1.9726461352394324,-0.8765583634376526,-0.14461974799633026,-0.4590539336204529, 191, 151, 77, 179
1731320660670,9i,13.709257033564649,1.2s : 0.1s,-4.333493483956403,1.4401348384345805,3.82337919071481,1.3503991359132486,1.8057153224945068,-1.8227025270462036,-4.172250747680664,1.207069993019104,0.4786197245121002,0.37078702449798584,0.19246755369075558,-1.1059927288676195,-1.974959272364246,-0.8774037957191467,-0.19128146767616272,-0.439970463514328, 191, 151, 77, 179
1731320660680,9i,13.709257033564649,1.2s : 0.1s,-4.333493483956403,1.4639398683652478,3.5731091710232206,1.3021171459693945,1.5295859575271606,-1.8339667320251465,-3.80393123626709,1.2079267501831055,0.37414076924324036,0.3105490505695343,0.23550353494667117,-1.1236507992246176,-1.977558422001323,-0.876795768737793,-0.23333264887332916,-0.4204580783843994, 191, 151, 77, 179
1731320660690,9i,13.709257033564649,1.2s : 0.1s,-4.333493483956403,1.4858781061920099,3.3217122856330255,1.2852558200164133,1.335565447807312,-1.818829894065857,-3.4351248741149902,1.2291924953460693,0.2898448407649994,0.23865938186645508,0.27422594565297775,-1.141222656303546,-1.9799343307225628,-0.8751733303070068,-0.2708018720149994,-0.40092140436172485, 191, 151, 77, 179
1731320660700,9i,13.709257033564649,1.2s : 0.1s,-4.333493483956403,1.5063565450965133,3.0756628625345477,1.2956980001099003,1.1964871883392334,-1.771904468536377,-3.08833384513855,1.2550930976867676,0.253882497549057,0.1977834701538086,0.309136831815862,-1.158611842538577,-1.9817160193349184,-0.8728145956993103,-0.304236501455307,-0.38162142038345337, 191, 151, 77, 179
1731320660710,9i,13.709257033564649,1.2s : 0.1s,-4.333493483956403,1.525849970944588,2.840077653881541,1.3057672026855092,1.079576849937439,-1.736679196357727,-2.7653777599334717,1.270493507385254,0.24602359533309937,0.1742028295993805,0.34043689678146916,-1.175759412191791,-1.9826233965587055,-0.8700113296508789,-0.33389896154403687,-0.3627557158470154, 191, 151, 77, 179
1731320660720,9i,13.709257033564649,1.2s : 0.1s,-4.333493483956403,1.5453169115047731,2.6228116544440834,1.3167754649151124,0.9361099600791931,-1.7266374826431274,-2.5026426315307617,1.288374662399292,0.21304160356521606,0.1691201627254486,0.368495768359453,-1.1928095991928351,-1.98306085619095,-0.8670184016227722,-0.3602125942707062,-0.3442758023738861, 191, 151, 77, 179
1731320660730,9i,13.709257033564649,1.2s : 0.1s,-4.333493483956403,1.5646648885348329,2.4187134849575505,1.3233445054827202,0.7074926495552063,-1.6755720376968384,-2.2922122478485107,1.3025286197662354,0.1199750304222107,0.20066356658935547,0.39365955904916305,-1.2094382673564972,-1.9839820372012944,-0.8638689517974854,-0.3835706114768982,-0.32650282979011536, 191, 151, 77, 179
1731320660740,9i,13.709257033564649,1.2s : 0.1s,-4.333493483956403,1.5836459275876702,2.202310475250215,1.3062918112619923,0.5402711629867554,-1.5048543214797974,-1.992214560508728,1.2899348735809326,-0.002833634614944458,0.20605409145355225,0.415847865808988,-1.224717430019187,-1.9855618856104638,-0.8605372309684753,-0.40396568179130554,-0.310302197933197, 191, 151, 77, 179
1731320660749,9i,13.709257033564649,1.2s : 0.1s,-4.333493483956403,1.6005822509368997,1.9971957055149063,1.253181021894631,0.4006112813949585,-1.3563131093978882,-1.7924538850784302,1.236615777015686,-0.09570437669754028,0.1791222095489502,0.4351575914396743,-1.2381157964424105,-1.9877748929847547,-0.8570839166641235,-0.4215533137321472,-0.2961418926715851, 191, 151, 77, 179
1731320660759,9i,13.709257033564649,1.2s : 0.1s,-4.333493483956403,1.6158147356815376,1.7844085060457244,1.1919749360988174,0.40269094705581665,-1.1851011514663696,-1.4681389331817627,1.1755924224853516,-0.12296271324157715,0.15384042263031006,0.4518413863235317,-1.2501793676845998,-1.9892021159926596,-0.8537998199462891,-0.43662285804748535,-0.28352493047714233, 191, 151, 77, 179
1731320660769,9i,13.709257033564649,1.2s : 0.1s,-4.333493483956403,1.6296895393666646,1.5709291023815046,1.1254243304347704,0.3898654282093048,-1.0037002563476562,-1.1899017095565796,1.1074795722961426,-0.1336069107055664,0.14905741810798645,0.46561630325636977,-1.2608933156919802,-1.9896218761633058,-0.8509792685508728,-0.4489735960960388,-0.2725010812282562, 191, 151, 77, 179
1731320660779,9i,13.709257033564649,1.2s : 0.1s,-4.333493483956403,1.6424624506926153,1.3627600039782175,1.0798156639748597,0.3550509810447693,-0.8210947513580322,-0.9581448435783386,1.0582070350646973,-0.15234515070915222,0.1516268253326416,0.47695316105839036,-1.2702168029968046,-1.9891176486375248,-0.8485665321350098,-0.4590744972229004,-0.2630313038825989, 191, 151, 77, 179
1731320660789,9i,13.709257033564649,1.2s : 0.1s,-4.333493483956403,1.654123029718894,1.1577048499566425,1.0244691533852486,0.1656586080789566,-0.6812459230422974,-0.7415648102760315,0.9856566190719604,-0.20863202214241028,0.18571686744689941,0.48585673933804907,-1.2776132860828857,-1.9889066870842984,-0.8465421795845032,-0.4669661223888397,-0.2555563449859619, 191, 151, 77, 179
1731320660799,9i,13.709257033564649,1.2s : 0.1s,-4.333493483956403,1.6646277213370113,0.9370828720432949,0.9773410279975164,-0.004310715943574905,-0.2919839322566986,-0.5889939069747925,0.9127692580223083,-0.2702309787273407,0.2214113473892212,0.4926859891811801,-1.2827277834760986,-1.9906183584125754,-0.8447607755661011,-0.4729941189289093,-0.2503115236759186, 191, 151, 77, 179
1731320660809,9i,13.709257033564649,1.2s : 0.1s,-4.333493483956403,1.6741374246374459,0.7009520400455055,0.9476347371736271,-0.10388031601905823,-0.13183963298797607,-0.20947033166885376,0.8378205299377441,-0.31934112310409546,0.30674028396606445,0.49628335579845195,-1.2842855737915884,-1.9923846267729275,-0.8435119986534119,-0.47616058588027954,-0.24851277470588684, 191, 151, 77, 179
1731320660819,9i,13.709257033564649,1.2s : 0.1s,-4.333493483956403,1.682310309084378,0.4760264439078222,0.8578441033780801,-0.1818704605102539,0.032178062945604324,0.0381929874420166,0.7570685744285583,-0.3473603427410126,0.205145001411438,0.49672991405348044,-1.2837464146762498,-1.994205374064272,-0.8431738615036011,-0.47655320167541504,-0.24890729784965515, 191, 151, 77, 179
1731320660829,9i,13.709257033564649,1.2s : 0.1s,-4.333493483956403,1.6901296229093667,0.2571615100069275,0.800579782460443,-0.20729798078536987,0.21661244332790375,0.302359938621521,0.7040491700172424,-0.2517330050468445,0.2861350178718567,0.4945622256834866,-1.2817642216593854,-1.9957270524980615,-0.8436670303344727,-0.4746463894844055,-0.2508719861507416, 191, 151, 77, 179
1731320660839,9i,13.709257033564649,1.2s : 0.1s,-4.333493483956403,1.697699927363096,0.08289062681233896,0.7572727332614991,-0.30598488450050354,0.41297051310539246,0.5277501940727234,0.6519678831100464,-0.23434975743293762,0.30574509501457214,0.4898913867417388,-1.277974626261266,-1.9970165492480925,-0.8448237776756287,-0.47053006291389465,-0.2547045350074768, 191, 151, 77, 179
1731320660849,9i,13.709257033564649,1.2s : 0.1s,-4.333493483956403,1.7045507281076442,0.22121210961653298,0.738724206654933,-0.4948057234287262,0.6114603281021118,0.7538003921508789,0.6118021607398987,-0.30675679445266724,0.2780500650405884,0.48267218033527165,-1.2718306166818028,-1.9992184008807268,-0.8464670777320862,-0.46414774656295776,-0.26088398694992065, 191, 151, 77, 179
1731320660859,9i,13.709257033564649,1.2s : 0.1s,-4.333493483956403,1.710493250661295,0.441952038520764,0.7181755648738856,-0.6257461905479431,0.8037086129188538,1.0279879570007324,0.5702716112136841,-0.3537231981754303,0.2558248043060303,0.4725181341426687,-1.2632772409623825,-2.002268463310132,-0.8486528992652893,-0.4551299214363098,-0.26952722668647766, 191, 151, 77, 179
1731320660869,9i,13.709257033564649,1.2s : 0.1s,-4.333493483956403,1.7157590257045006,0.6567762721356304,0.6950388998002808,-0.662181556224823,0.9481605291366577,1.2949107885360718,0.5550632476806641,-0.3461548388004303,0.23486313223838806,0.4594689259658089,-1.2532053770345748,-2.0051627134738967,-0.851465106010437,-0.4434721767902374,-0.27989184856414795, 191, 151, 77, 179
1731320660879,9i,13.709257033564649,1.2s : 0.1s,-4.333493483956403,1.720692043331718,0.8607540855447643,0.6828587304471935,-0.6698378920555115,1.0772380828857422,1.5473332405090332,0.567306399345398,-0.31761908531188965,0.20875251293182373,0.44391880427050967,-1.242230890852212,-2.007084544687861,-0.8547666668891907,-0.42948174476623535,-0.291409432888031, 191, 151, 77, 179
1731320660889,9i,13.709257033564649,1.2s : 0.1s,-4.333493483956403,1.725549491948422,1.0648096085054068,0.6743945603638501,-0.7381927371025085,1.2146776914596558,1.809923768043518,0.5784363746643066,-0.28938180208206177,0.19099098443984985,0.42580775472324023,-1.2302462892371655,-2.0083026184838975,-0.8584046363830566,-0.41305655241012573,-0.30418071150779724, 191, 151, 77, 179
1731320660899,9i,13.709257033564649,1.2s : 0.1s,-4.333493483956403,1.730456658985079,1.2771085276243717,0.6822182725757083,-0.8557323813438416,1.345098853111267,2.109372854232788,0.5881483554840088,-0.2867467403411865,0.19307923316955566,0.40470704006249647,-1.217103346444363,-2.0092092109799617,-0.862318217754364,-0.393749475479126,-0.31838446855545044, 191, 151, 77, 179
1731320660909,9i,13.709257033564649,1.2s : 0.1s,-4.333493483956403,1.7354926176482488,1.4864825176404337,0.7162530962826863,-0.9339422583580017,1.4405248165130615,2.3942294120788574,0.619897186756134,-0.29976385831832886,0.19719940423965454,0.3804934867348464,-1.203003333865154,-2.0097318841009355,-0.866387665271759,-0.37137871980667114,-0.3338419497013092, 191, 151, 77, 179
1731320660919,9i,13.709257033564649,1.2s : 0.1s,-4.333493483956403,1.7407774438245711,1.692970587996241,0.7708419117281127,-0.9768103361129761,1.5450325012207031,2.680284261703491,0.6703798174858093,-0.320243239402771,0.20550528168678284,0.3534520873614904,-1.1882725541407733,-2.009146868122843,-0.8703766465187073,-0.3461385667324066,-0.3501891493797302, 191, 151, 77, 179
1731320660949,9i,13.709257033564649,1.2s : 0.1s,-4.333493483956403,1.7607519629573927,2.0394697894417186,0.9518631799265281,-1.075331449508667,1.8729339838027954,3.6695878505706787,0.8857824206352234,-0.2829010486602783,0.20346993207931519,0.254095626174226,-1.1398286391660786,-1.9988896220654644,-0.8793889880180359,-0.2513701617717743,-0.40433669090270996, 191, 151, 77, 179
1731320660939,9i,13.709257033564649,1.2s : 0.1s,-4.333493483956403,1.7536775243144647,2.2156405938110515,0.8725846863279131,-1.0345817804336548,1.763776421546936,3.3404080867767334,0.7939000129699707,-0.30705544352531433,0.19194728136062622,0.2902969798802625,-1.15663859462459,-2.0040608223899463,-0.8771519064903259,-0.28623679280281067,-0.385581374168396, 191, 151, 77, 179
1731320660959,9i,13.709257033564649,1.2s : 0.1s,-4.333493483956403,1.7704486457730748,2.475101323910926,1.0452442007965852,-1.159834623336792,1.9566104412078857,3.9929611682891846,0.9877835512161255,-0.2644912600517273,0.21647971868515015,0.21474018820081922,-1.1221652657349004,-1.9924037314297993,-0.880346417427063,-0.2130935937166214,-0.4237704277038574, 191, 151, 77, 179
1731320660969,9i,13.709257033564649,1.2s : 0.1s,-4.333493483956403,1.7806764642970985,2.7222726178975982,1.1404108510947006,-1.2766180038452148,2.012481451034546,4.3041276931762695,1.0935750007629395,-0.21772998571395874,0.23921597003936768,0.1722191846290012,-1.1038171834784,-1.9848093742291903,-0.879723072052002,-0.17136912047863007,-0.44353121519088745, 191, 151, 77, 179
1731320660979,9i,13.709257033564649,1.2s : 0.1s,-4.333493483956403,1.7929722878615568,2.965992073745348,1.2407876573884091,-1.3677698373794556,2.0876388549804688,4.64231014251709,1.1948747634887695,-0.1715674102306366,0.28704169392585754,0.1264530218831543,-1.0846816796227439,-1.9760069591999958,-0.877095103263855,-0.1261162906885147,-0.46346381306648254, 191, 151, 77, 179
1731320660989,9i,13.709257033564649,1.2s : 0.1s,-4.333493483956403,1.807467623736917,3.2062276418658944,1.337094981657168,-1.307797908782959,2.1983084678649902,5.001316070556641,1.2834937572479248,-0.14374898374080658,0.34612569212913513,0.07774960114393605,-1.0644023642690008,-1.9648215589424765,-0.8718573451042175,-0.07767128944396973,-0.4835616648197174, 191, 151, 77, 179
1731320660999,9i,13.709257033564649,1.2s : 0.1s,-4.333493483956403,1.8241356143695122,3.4403999789530797,1.422892726571575,-1.2587699890136719,2.3358185291290283,5.320680618286133,1.3659284114837646,-0.12142007052898407,0.37963199615478516,0.026654371369527672,-1.0425698295140164,-1.9503479097955938,-0.8633954524993896,-0.02665121480822563,-0.5038232803344727, 191, 151, 77, 179
1731320661009,9i,13.709257033564649,1.2s : 0.1s,-4.333493483956403,1.8430776322783298,3.6772262397702744,1.5038885777630941,-1.2079582214355469,2.4759836196899414,5.675243854522705,1.444333791732788,-0.06855778396129608,0.413377046585083,-0.0267824093434465,-1.0185471464691913,-1.9328967664220111,-0.8510414958000183,0.026779208332300186,-0.5244152545928955, 191, 151, 77, 179
1731320661019,9i,13.709257033564649,1.2s : 0.1s,-4.333493483956403,1.8645045532964306,3.9221136246725004,1.5962973585214961,-1.2336808443069458,2.597787618637085,6.0514349937438965,1.5263385772705078,0.000226631760597229,0.4673925042152405,-0.08256978510822569,-0.9919837702288574,-1.9118558220521622,-0.8342608213424683,0.08247599005699158,-0.5451666116714478, 191, 151, 77, 179
1731320661029,9i,13.709257033564649,1.2s : 0.1s,-4.333493483956403,1.8882936697528683,4.177742162211054,1.6989362981682719,-1.185867190361023,2.7666146755218506,6.451324939727783,1.6140413284301758,-0.009291380643844604,0.530253529548645,-0.1410759905644398,-0.9625207020471496,-1.8871044241274342,-0.8124818205833435,0.14060848951339722,-0.565775990486145, 191, 151, 77, 179
1731320661039,9i,13.709257033564649,1.2s : 0.1s,-4.333493483956403,1.914026950701223,4.434299998101117,1.795093571992903,-1.322026252746582,3.0215134620666504,6.736799716949463,1.693479061126709,-0.09167303144931793,0.5882904529571533,-0.2017423419027217,-0.9286555981651875,-1.8582890602262048,-0.7845740914344788,0.20037664473056793,-0.5867645740509033, 191, 151, 77, 179
1731320661049,9i,13.709257033564649,1.2s : 0.1s,-4.333493483956403,1.9411429795297839,4.702092975598717,1.8955728245588641,-1.6417086124420166,3.338087320327759,7.015503406524658,1.8012340068817139,-0.21102574467658997,0.5515618920326233,-0.2649414348188482,-0.8897092858295883,-1.8273237309180532,-0.7497814297676086,0.2618527412414551,-0.6076685190200806, 191, 151, 77, 179
1731320661059,9i,13.709257033564649,1.2s : 0.1s,-4.333493483956403,1.969958700672893,5.004078883932392,2.0299097527482868,-1.6332334280014038,3.6277856826782227,7.520817279815674,1.952310562133789,-0.2100270390510559,0.5146899223327637,-0.33086865846275787,-0.8444011773243086,-1.79163650043172,-0.7070255279541016,0.3248646855354309,-0.6281543374061584, 191, 151, 77, 179
1731320661069,9i,13.709257033564649,1.2s : 0.1s,-4.333493483956403,2.001080016362003,5.354585022571214,2.1815094022641133,-1.6758207082748413,3.9605250358581543,8.13216781616211,2.123734951019287,-0.140313059091568,0.4785868525505066,-0.3990498155900396,-0.7906373301330811,-1.7477376016165456,-0.6549544334411621,0.3885429799556732,-0.6481273174285889, 191, 151, 77, 179
1731320661079,9i,13.709257033564649,1.2s : 0.1s,-4.333493483956403,2.035067494875696,5.729439640885319,2.3309508004328303,-1.7672525644302368,4.26357364654541,8.692819595336914,2.2758822441101074,-0.05899357795715332,0.5002113580703735,-0.469347137514946,-0.7266580646341881,-1.6939020553913045,-0.5925325155258179,0.4523041248321533,-0.6665779948234558, 191, 151, 77, 179
1731320661089,9i,13.709257033564649,1.2s : 0.1s,-4.333493483956403,2.0728249339271856,6.087313101824486,2.507016661998602,-1.9459925889968872,4.521764278411865,9.065860748291016,2.4021458625793457,0.0408136248588562,0.7163532972335815,-0.5399612208534175,-0.6513689530752472,-1.6293392448786446,-0.5200199484825134,0.5141027569770813,-0.6821125745773315, 191, 151, 77, 179
1731320661099,9i,13.709257033564649,1.2s : 0.1s,-4.333493483956403,2.114808988897581,6.45383891697069,2.7463942503481036,-2.567476749420166,4.849771022796631,9.420555114746094,2.5807039737701416,0.02086174488067627,0.9392620325088501,-0.6109378375139547,-0.5637486177541298,-1.5549271981674377,-0.4376986026763916,0.5736358761787415,-0.6923595666885376, 191, 151, 77, 179
1731320661109,9i,13.709257033564649,1.2s : 0.1s,-4.333493483956403,2.1621134846204826,6.9082307856107095,3.1094911844483972,-3.2533576488494873,5.131264686584473,10.225512504577637,2.9180426597595215,0.06786662340164185,1.0720804929733276,-0.6841615563383794,-0.4599562738501009,-1.4664320228859635,-0.34400689601898193,0.6320234537124634,-0.6944102644920349, 191, 151, 77, 179
1731320661119,9i,13.709257033564649,1.2s : 0.1s,-4.333493483956403,2.217467274589457,7.443718348774508,3.6701445369557724,-4.157671928405762,5.174567699432373,11.172404289245605,3.4271113872528076,0.380725622177124,1.2569472789764404,-0.7594655577282767,-0.3340814695699147,-1.3545530347822086,-0.23779556155204773,0.6885339617729187,-0.6851089596748352, 191, 151, 77, 179
1731320661129,9i,13.709257033564649,1.2s : 0.1s,-4.333493483956403,2.283262447109059,8.035045102459968,4.268604868233955,-5.063096046447754,5.305712699890137,12.024079322814941,3.919799566268921,0.8477787375450134,1.461995244026184,-0.833531665137945,-0.1787860315082227,-1.210681664879443,-0.1195523738861084,0.7403101921081543,-0.6615496873855591, 191, 151, 77, 179
1731320661139,9i,13.709257033564649,1.2s : 0.1s,-4.333493483956403,2.359610682203106,8.67312510256046,4.659507002471554,-6.4790496826171875,5.548254489898682,12.629637718200684,4.207305431365967,1.295785903930664,1.5266058444976807,-0.9009890131096076,0.014698760354201106,-1.0288931333346656,0.009125174954533577,0.7839413285255432,-0.6207678318023682, 191, 151, 77, 179
1731320661149,9i,13.709257033564649,1.2s : 0.1s,-4.333493483956403,2.4449627833655265,9.29158308259692,4.865986251460274,-8.343940734863281,5.380980968475342,12.794023513793945,4.358286380767822,1.6496388912200928,1.400661826133728,-0.957125279036817,0.2522765329543827,-0.802048659450005,0.14374302327632904,0.8175394535064697,-0.5576443076133728, 191, 151, 77, 179
1731320661159,9i,13.709257033564649,1.2s : 0.1s,-4.333493483956403,2.5383588410112203,9.881983884799851,5.098454808824365,-11.021864891052246,4.580907821655273,12.424333572387695,4.490233421325684,1.9509538412094116,1.4233145713806152,-0.9981570771657,0.5305924318761839,-0.5278014397970827,0.27420130372047424,0.8404738306999207,-0.46735161542892456, 191, 151, 77, 179
1731320661169,9i,13.709257033564649,1.2s : 0.1s,-4.333493483956403,2.639098575395257,10.58043620445373,5.378350757991005,-14.606037139892578,3.152996778488159,11.824929237365723,4.770671844482422,2.064873695373535,1.3797259330749512,-1.0196407866883381,0.8479613863221581,-0.20012951482793803,0.39271920919418335,0.851919949054718,-0.34641608595848083, 191, 151, 77, 179
1731320661179,9i,13.709257033564649,1.2s : 0.1s,-4.333493483956403,2.7476415217066448,11.544482194389566,5.828334125005506,-18.065629959106445,1.2942289113998413,11.722212791442871,5.249435901641846,2.1870627403259277,1.276580572128296,-1.0045350431666866,1.1949008953933733,0.18072038232563611,0.49902305006980896,0.8439126014709473,-0.19694499671459198, 191, 151, 77, 179
1731320661189,9i,13.709257033564649,1.2s : 0.1s,-4.333493483956403,2.8655376210759242,12.568331874323674,6.379328593799259,-20.875198364257812,-0.7219235897064209,10.523300170898438,5.685820579528809,2.4719655513763428,1.5022196769714355,-0.9362358810236183,1.511961921480322,0.558902258839126,0.5917978286743164,0.805332362651825,-0.034858305007219315, 191, 151, 77, 179
1731320661199,9i,13.709257033564649,1.2s : 0.1s,-4.333493483956403,2.994690488572168,13.964592426377815,7.005039263132929,-24.77522087097168,-4.458004951477051,9.785151481628418,6.076642036437988,2.786346912384033,2.0931477546691895,-0.8190742998268766,1.7556157049942867,0.9050953658988006,0.671267569065094,0.7305139899253845,0.12549541890621185, 191, 151, 77, 179
1731320661219,9i,13.709257033564649,1.2s : 0.1s,-4.333493483956403,3.2823534876957208,15.792233520902142,8.556796863013354,-31.8158016204834,-7.936065673828125,1.8757951259613037,5.223705768585205,3.038058280944824,6.058207035064697,-0.5112877069080434,2.02098870171311,1.5424928834275051,0.7852206230163574,0.4893006682395935,0.3794911205768585, 191, 151, 77, 179
1731320661209,9i,13.709257033564649,1.2s : 0.1s,-4.333493483956403,3.1297357472232896,17.002485041344176,7.771233811482452,-28.485183715820312,-6.4678168296813965,6.283501148223877,6.036007404327393,3.283355712890625,3.63018798828125,-0.6683086017466291,1.9148270746260936,1.2232785415750325,0.7388797402381897,0.6196593642234802,0.2647247314453125, 191, 151, 77, 179
1731320661229,9i,13.709257033564649,1.2s : 0.1s,-4.333493483956403,3.443593353881457,17.228353190951758,9.5548534478933,-25.930063247680664,-11.115520477294922,-1.2134007215499878,3.867584705352783,1.9589369297027588,8.514668464660645,-0.37783968504614374,2.0501150576757,1.8325484769896592,0.8247219324111938,0.3689134120941162,0.4286453127861023, 191, 151, 77, 179
1731320661239,9i,13.709257033564649,1.2s : 0.1s,-4.333493483956403,3.612923569168978,15.985680029162552,11.910882474099246,-17.91770362854004,-9.66856575012207,-0.377182275056839,3.458163261413574,2.775947332382202,11.054607391357422,-0.2888274759259427,2.0105705426009157,2.042427559152544,0.8673676252365112,0.28482845425605774,0.40810057520866394, 191, 151, 77, 179
1731320661249,9i,13.709257033564649,1.2s : 0.1s,-4.333493483956403,3.7958663556443395,14.309110283600965,11.863162763353753,-14.165775299072266,-7.399953842163086,-1.6098177433013916,3.106612205505371,5.41015100479126,10.090285301208496,-0.2312321221609921,1.9668745971784196,2.193245208477881,0.8980262279510498,0.22917702794075012,0.37553489208221436, 191, 151, 77, 179
1731320661259,9i,13.709257033564649,1.2s : 0.1s,-4.333493483956403,3.971867036735998,13.120590970241357,8.417935922551003,-13.84189510345459,-7.483181953430176,-6.0467915534973145,2.0883352756500244,5.556150913238525,5.969060897827148,-0.21664279844065298,1.9240542441031236,2.3414068058787154,0.916318416595459,0.21495211124420166,0.33786943554878235, 191, 151, 77, 179
1731320661269,9i,13.709257033564649,1.2s : 0.1s,-4.333493483956403,4.120692188449536,12.126873580863407,4.441362098755929,-12.000711441040039,-7.479703426361084,-7.752448558807373,1.350274682044983,1.3890801668167114,3.996612548828125,-0.23956275022827356,1.8834300356931166,2.4911547513608263,0.9243529438972473,0.23727788031101227,0.29878222942352295, 191, 151, 77, 179
1731320661279,9i,13.709257033564649,1.2s : 0.1s,-4.333493483956403,4.250923641198676,11.208496859445804,5.294021448471139,-9.202230453491211,-7.780960559844971,-9.57082748413086,0.8776361346244812,1.0258054733276367,5.118998050689697,-0.29152349642782943,1.8411829593743063,2.621261567496786,0.9230077266693115,0.28741177916526794,0.2558341324329376, 191, 151, 77, 179
1731320661289,9i,13.709257033564649,1.2s : 0.1s,-4.333493483956403,4.371142037999775,10.718910361385909,5.797642992563825,-7.952609539031982,-7.920220851898193,-11.541940689086914,0.2997957468032837,3.200932502746582,4.824605464935303,-0.37276506739613346,1.7998876159581239,2.736370964450576,0.9069912433624268,0.36419200897216797,0.21149678528308868, 191, 151, 77, 179
1731320661299,9i,13.709257033564649,1.2s : 0.1s,-4.333493483956403,4.475619986191715,10.443155703297085,4.146342915625111,-6.0198283195495605,-8.115435600280762,-12.757179260253906,-0.006340980529785156,2.9100308418273926,2.9536147117614746,-0.47835012749766204,1.7630040316487836,2.83947761072851,0.8714075088500977,0.46031510829925537,0.16958476603031158, 191, 151, 77, 179
1731320661308,9i,13.709257033564649,1.2s : 0.1s,-4.333493483956403,4.564987651340944,10.187020555299775,3.198546621167916,-3.626358985900879,-8.031291961669922,-13.12739372253418,0.1634696125984192,2.5864105224609375,1.874688982963562,-0.6035281037803569,1.7281282267825266,2.9223824093146327,0.8131692409515381,0.5675508379936218,0.129003643989563, 191, 151, 77, 179
1731320661318,9i,13.709257033564649,1.2s : 0.1s,-4.333493483956403,4.645868158540537,9.788641975525746,3.137229539076001,-1.5714651346206665,-7.014585971832275,-12.55416202545166,0.8284911513328552,2.522486686706543,1.6711889505386353,-0.7325081994719355,1.692426724502005,2.9785345482094843,0.7380066514015198,0.6687365770339966,0.09020932763814926, 191, 151, 77, 179
1731320661328,9i,13.709257033564649,1.2s : 0.1s,-4.333493483956403,4.724226738981279,9.382597793030865,3.216769141779729,0.2766280770301819,-5.9491753578186035,-12.418335914611816,1.9829738140106201,1.4128795862197876,2.102186918258667,-0.8562556163280458,1.647718340100131,3.004404806151782,0.6533327698707581,0.7553942799568176,0.05035502836108208, 191, 151, 77, 179
1731320661338,9i,13.709257033564649,1.2s : 0.1s,-4.333493483956403,4.798532665303219,9.009016497870126,3.428014005882964,2.3402035236358643,-5.306892395019531,-12.044367790222168,2.3611197471618652,-0.28692954778671265,2.468616008758545,-0.978651810964658,1.5804956445955227,2.990779213080716,0.5581152439117432,0.8297456502914429,0.0054135071113705635, 191, 151, 77, 179
1731320661348,9i,13.709257033564649,1.2s : 0.1s,-4.333493483956403,4.863113839269795,8.670247932819551,3.1806523533775,4.2678375244140625,-4.801984786987305,-11.28853702545166,1.7004129886627197,-1.3510324954986572,2.323759078979492,-1.093618142726852,1.4653192471624916,2.9158130921952092,0.4567219614982605,0.8882944583892822,-0.048353150486946106, 191, 151, 77, 179
1731320661358,9i,13.709257033564649,1.2s : 0.1s,-4.333493483956403,4.918313320021977,8.417701714443693,3.0594664173885113,5.949262619018555,-4.521703243255615,-10.453579902648926,1.4991552829742432,-1.6494861841201782,2.0957250595092773,-1.1894316412816497,1.2589643330410953,2.7404937536844267,0.35423827171325684,0.9281575679779053,-0.11418823152780533, 191, 151, 77, 179
1731320661368,9i,13.709257033564649,1.2s : 0.1s,-4.333493483956403,4.970525462550925,8.226159298143552,2.9028749481600356,7.083708763122559,-4.300451755523682,-9.47209358215332,1.3828496932983398,-1.5612592697143555,2.0191283226013184,-1.248649368845166,0.9309515074974405,2.439069754040001,0.25397583842277527,0.9485578536987305,-0.18903487920761108, 191, 151, 77, 179
1731320661378,9i,13.709257033564649,1.2s : 0.1s,-4.333493483956403,5.016310881700321,8.060977615369186,2.6178576274894456,7.725881099700928,-3.979231595993042,-8.557548522949219,1.082707405090332,-1.2747911214828491,2.013909339904785,-1.2536519177439784,0.5356088320717918,2.06700546961451,0.1591595560312271,0.9501298069953918,-0.26818183064460754, 191, 151, 77, 179
1731320661388,9i,13.709257033564649,1.2s : 0.1s,-4.333493483956403,5.057546416061099,7.927656213068212,2.455773717186415,8.125920295715332,-3.562631368637085,-7.928826808929443,0.9397550821304321,-1.0907883644104004,1.989438533782959,-1.2083340436890913,0.2024863243318279,1.755775079992368,0.07130748778581619,0.9350265860557556,-0.3473333716392517, 191, 151, 77, 179
1731320661398,9i,13.709257033564649,1.2s : 0.1s,-4.333493483956403,5.094332709539563,7.791474592695789,2.0977281393747007,8.53160572052002,-3.5273005962371826,-6.998023986816406,0.7589539885520935,-0.9201605916023254,1.72561776638031,-1.1323333073474988,-0.024148033084838493,1.5511162774011213,-0.010251008905470371,0.9054052829742432,-0.42442449927330017, 191, 151, 77, 179
1731320661408,9i,13.709257033564649,1.2s : 0.1s,-4.333493483956403,5.126675958269054,7.6868525767257125,1.7054872639844376,8.79987621307373,-3.832655191421509,-6.2192230224609375,0.49846112728118896,-0.6636015176773071,1.4899182319641113,-1.0409129437528013,-0.17129114419163086,1.428194448098047,-0.08615338802337646,0.8628660440444946,-0.49803587794303894, 191, 151, 77, 179
1731320661418,9i,13.709257033564649,1.2s : 0.1s,-4.333493483956403,5.156482126571963,7.603124449762868,1.6908849263473045,8.670368194580078,-3.8530404567718506,-5.992945671081543,0.4394533634185791,-0.4784787893295288,1.5610991716384888,-0.9424737858977389,-0.2723758280008047,1.3536857421407598,-0.158127099275589,0.809014618396759,-0.5661193132400513, 191, 151, 77, 179
1731320661428,9i,13.709257033564649,1.2s : 0.1s,-4.333493483956403,5.185039401539291,7.443552315639003,1.798366151988258,8.245229721069336,-3.8754920959472656,-5.500814437866211,0.36161211133003235,-0.4008494019508362,1.715423345565796,-0.8447938383145888,-0.3473509446431345,1.3079054945660287,-0.22599202394485474,0.7478342652320862,-0.6242367625236511, 191, 151, 77, 179
1731320661438,9i,13.709257033564649,1.2s : 0.1s,-4.333493483956403,5.213184377081065,7.282983045891432,1.8173696543893954,8.268561363220215,-3.8649730682373047,-4.970401763916016,0.31128430366516113,-0.25097328424453735,1.7728358507156372,-0.7490391565323693,-0.40471558517168693,1.282126020412436,-0.2883656322956085,0.6809353828430176,-0.6731806993484497, 191, 151, 77, 179
1731320661448,9i,13.709257033564649,1.2s : 0.1s,-4.333493483956403,5.241482560791371,7.101510778316714,1.7540820250854803,8.043403625488281,-3.9708266258239746,-4.4905009269714355,0.4415021538734436,-0.19019019603729248,1.6869224309921265,-0.655354950968346,-0.4516871960138105,1.2708045437877944,-0.3460584580898285,0.6094406843185425,-0.7133201360702515, 191, 151, 77, 179
1731320661458,9i,13.709257033564649,1.2s : 0.1s,-4.333493483956403,5.269708929248847,6.917824024942634,1.6224785160540833,7.869159698486328,-3.977365732192993,-4.12082576751709,0.5145736336708069,-0.147663414478302,1.5316154956817627,-0.565113033155358,-0.4928151229197212,1.2687891192716567,-0.3995529115200043,0.5355112552642822,-0.7440330386161804, 191, 151, 77, 179
1731320661468,9i,13.709257033564649,1.2s : 0.1s,-4.333493483956403,5.298115993152798,6.69915810118788,1.605545502175754,7.467530727386475,-4.056760787963867,-3.7151124477386475,0.5448541641235352,-0.08243516087532043,1.50801682472229,-0.47869837105162755,-0.5308364853869534,1.2727657811919906,-0.44934940338134766,0.46062424778938293,-0.7654477953910828, 191, 151, 77, 179
1731320661478,9i,13.709257033564649,1.2s : 0.1s,-4.333493483956403,5.326171384592594,6.417847782544716,1.4986413888249766,6.771222114562988,-3.923318862915039,-3.584984302520752,0.551110565662384,-0.09318730235099792,1.3905104398727417,-0.39799966495089406,-0.5675340354276665,1.278578311380711,-0.49553805589675903,0.3875751197338104,-0.7773207426071167, 191, 151, 77, 179
1731320661488,9i,13.709257033564649,1.2s : 0.1s,-4.333493483956403,5.354147681524406,6.110904147675543,1.4409245110350628,6.227875232696533,-3.632434368133545,-3.5675060749053955,0.5652328133583069,0.048611223697662354,1.3245422840118408,-0.32358329903761895,-0.6039470005243915,1.286217358618043,-0.5384231209754944,0.31796592473983765,-0.7803834080696106, 191, 151, 77, 179
1731320661498,9i,13.709257033564649,1.2s : 0.1s,-4.333493483956403,5.381873803179075,5.814554980079541,1.322155266127952,5.864401817321777,-3.515267848968506,-3.4056382179260254,0.5509089827537537,0.23372840881347656,1.1789677143096924,-0.2545935156197814,-0.6390990132445917,1.295354424012137,-0.5772456526756287,0.25185203552246094,-0.7767612338066101, 191, 151, 77, 179
1731320661508,9i,13.709257033564649,1.2s : 0.1s,-4.333493483956403,5.409024135371378,5.530997194682828,1.202276705003448,5.583218574523926,-3.3951804637908936,-3.1638600826263428,0.5474803447723389,0.38168761134147644,1.0000245571136475,-0.18943542710764702,-0.6720983879470087,1.3051829010613654,-0.6114909648895264,0.18830445408821106,-0.7685181498527527, 191, 151, 77, 179
1731320661518,9i,13.709257033564649,1.2s : 0.1s,-4.333493483956403,5.43572641782447,5.241261193374392,1.1760091422168581,5.239754676818848,-3.194265604019165,-2.941826581954956,0.5725989937782288,0.45424884557724,0.9212957620620728,-0.12839429665402097,-0.7033623961245777,1.3166008925816441,-0.6414619088172913,0.1280418187379837,-0.7563940286636353, 191, 151, 77, 179
1731320661528,9i,13.709257033564649,1.2s : 0.1s,-4.333493483956403,5.46226437880549,4.948570939787392,1.209385113328603,4.871740818023682,-3.033630132675171,-2.738001823425293,0.5823948979377747,0.3930939733982086,0.9843300580978394,-0.07171969545792194,-0.7332321975952601,1.3291025635506477,-0.6675541996955872,0.07165822386741638,-0.7411049604415894, 191, 151, 77, 179
1731320661538,9i,13.709257033564649,1.2s : 0.1s,-4.333493483956403,5.48887478956304,4.660113365287167,1.2887375723306844,4.462432384490967,-2.93206524848938,-2.6142735481262207,0.5921387076377869,0.28263846039772034,1.1092032194137573,-0.019364712748068395,-0.7624603146773311,1.3418670385680376,-0.6905731558799744,0.01936350204050541,-0.7230032682418823, 191, 151, 77, 179
1731320661548,9i,13.709257033564649,1.2s : 0.1s,-4.333493483956403,5.515608748549418,4.380127490210878,1.3121992144268257,4.066461563110352,-2.7899961471557617,-2.5667316913604736,0.5833702683448792,0.2101437747478485,1.1564538478851318,0.029132877273699953,-0.79101548482593,1.353249371109926,-0.7107658982276917,-0.029128756374120712,-0.7028252482414246, 191, 151, 77, 179
1731320661558,9i,13.709257033564649,1.2s : 0.1s,-4.333493483956403,5.542316264265489,4.083017372963941,1.2670197899941402,3.5481743812561035,-2.6521713733673096,-2.4549643993377686,0.5913827419281006,0.19707205891609192,1.103072166442871,0.07361862183394305,-0.8186391198910616,1.3632953068926317,-0.7282388210296631,-0.07355213910341263,-0.6813650131225586, 191, 151, 77, 179
1731320661568,9i,13.709257033564649,1.2s : 0.1s,-4.333493483956403,5.568640387959911,3.7655896278421443,1.1933997539901513,2.9869463443756104,-2.490574359893799,-2.3270697593688965,0.6414596438407898,0.19786261022090912,0.9867030382156372,0.11314290240213792,-0.845094494990069,1.371308366167787,-0.7432510256767273,-0.11290165781974792,-0.6594172716140747, 191, 151, 77, 179
1731320661578,9i,13.709257033564649,1.2s : 0.1s,-4.333493483956403,5.594555046161346,3.4428995902401964,1.1577096190732288,2.5518863201141357,-2.2939846515655518,-2.11820912361145,0.7151047587394714,0.17219781875610352,0.8940160274505615,0.14800304217336316,-0.8698005694006455,1.377650478414377,-0.7558457255363464,-0.14746330678462982,-0.637927770614624, 191, 151, 77, 179
1731320661588,9i,13.709257033564649,1.2s : 0.1s,-4.333493483956403,5.619893947496085,3.1360963418101013,1.1360147024272744,2.25887131690979,-2.0827443599700928,-1.9190181493759155,0.7435687184333801,0.07404476404190063,0.855659008026123,0.1787239362573169,-0.8926039362862201,1.383430480920861,-0.7663043141365051,-0.17777398228645325,-0.6173930168151855, 191, 151, 77, 179
1731320661598,9i,13.709257033564649,1.2s : 0.1s,-4.333493483956403,5.644591895246022,2.846041968845359,1.132799989200483,2.0104763507843018,-1.8506062030792236,-1.7445560693740845,0.7311749458312988,-0.014920085668563843,0.8650990724563599,0.20626596512824183,-0.9132872509253577,1.3888794344490378,-0.7747387886047363,-0.20480644702911377,-0.5981923341751099, 191, 151, 77, 179
1731320661608,9i,13.709257033564649,1.2s : 0.1s,-4.333493483956403,5.668740876456009,2.568765568414214,1.1320567793189344,1.775244951248169,-1.6408302783966064,-1.545090913772583,0.6868536472320557,-0.0563439279794693,0.8981146812438965,0.23081041434865082,-0.9318331898546768,1.3941910582106412,-0.7814276218414307,-0.2287665158510208,-0.5805487036705017, 191, 151, 77, 179
1731320661618,9i,13.709257033564649,1.2s : 0.1s,-4.333493483956403,5.692738939789612,2.28821949828267,1.1458489262931015,1.4671436548233032,-1.429419755935669,-1.325361728668213,0.6424881815910339,-0.08119004964828491,0.9452972412109375,0.25194166806008467,-0.9482693121911092,1.3989278645647423,-0.7867600321769714,-0.2492848038673401,-0.5646819472312927, 191, 151, 77, 179
1731320661628,9i,13.709257033564649,1.2s : 0.1s,-4.333493483956403,5.716556357830333,2.0157276348285644,1.145719046333875,1.2280844449996948,-1.2309457063674927,-1.1045540571212769,0.6187539100646973,-0.11799916625022888,0.9570224285125732,0.2695297090476555,-0.9625829309122631,1.4030358716631317,-0.7910408973693848,-0.26627814769744873,-0.5507723689079285, 191, 151, 77, 179
1731320661638,9i,13.709257033564649,1.2s : 0.1s,-4.333493483956403,5.7394145922830315,1.756152644544227,1.1025439954658605,1.017071008682251,-1.0465340614318848,-0.9048265218734741,0.5874764919281006,-0.17126622796058655,0.9171382188796997,0.28414087975333435,-0.9749327888030931,1.4067321154757964,-0.7944772243499756,-0.28033289313316345,-0.5387202501296997, 191, 151, 77, 179
1731320661648,9i,13.709257033564649,1.2s : 0.1s,-4.333493483956403,5.760967175844265,1.4990292715834057,1.0334465017046943,0.7750110030174255,-0.8542234897613525,-0.6886757016181946,0.5402570962905884,-0.22965657711029053,0.8505244255065918,0.2956905910156303,-0.9853449833311572,1.4098943756141415,-0.7972913980484009,-0.2914005517959595,-0.528594434261322, 191, 151, 77, 179
1731320661658,9i,13.709257033564649,1.2s : 0.1s,-4.333493483956403,5.781228969715383,1.2432351943216227,0.9917963431053166,0.4731217622756958,-0.6870175004005432,-0.5074832439422607,0.4938659071922302,-0.25292640924453735,0.8220612406730652,0.3040595186727066,-0.9936084233126067,1.4119555095817646,-0.7995604872703552,-0.29939597845077515,-0.5206391215324402, 191, 151, 77, 179
1731320661668,9i,13.709257033564649,1.2s : 0.1s,-4.333493483956403,5.800413358501876,0.9890232896064978,0.9752497807572059,0.14286595582962036,-0.5327543616294861,-0.3322778046131134,0.45725154876708984,-0.2604139447212219,0.8211076259613037,0.3092500304014761,-0.9998172929264415,1.412284939025793,-0.8014593124389648,-0.3043443262577057,-0.5148179531097412, 191, 151, 77, 179
1731320661678,9i,13.709257033564649,1.2s : 0.1s,-4.333493483956403,5.818702746643899,0.7439680361241489,0.9561211664990091,-0.16788499057292938,-0.3791501820087433,-0.16554316878318787,0.41099750995635986,-0.24912017583847046,0.8265517950057983,0.31117524937112123,-1.003896306449184,1.4107339204748401,-0.8030568361282349,-0.30617764592170715,-0.5112289190292358, 191, 151, 77, 179
1731320661688,9i,13.709257033564649,1.2s : 0.1s,-4.333493483956403,5.836252542024653,0.5302889101109368,0.9243105047945213,-0.36389750242233276,-0.2533506155014038,-0.008213257417082787,0.3616577982902527,-0.2077963650226593,0.8248479962348938,0.31039313352732567,-1.006175642362668,1.407834554595371,-0.8044220805168152,-0.3054330050945282,-0.5095251202583313, 191, 151, 77, 179
1731320661698,9i,13.709257033564649,1.2s : 0.1s,-4.333493483956403,5.853045761131296,0.35990117106057934,0.8757328111166744,-0.4966616928577423,-0.12292522937059402,0.12218789011240005,0.31378233432769775,-0.17447969317436218,0.7987524271011353,0.30753309029837805,-1.0070225238732762,1.4043583322659505,-0.8055883646011353,-0.30270838737487793,-0.509308397769928, 191, 151, 77, 179
1731320661708,9i,13.709257033564649,1.2s : 0.1s,-4.333493483956403,5.868838256278003,0.2578359852390856,0.8009548173391539,-0.6484255194664001,0.0036961787845939398,0.2601020336151123,0.24834603071212769,-0.1556222140789032,0.7454090118408203,0.3027472393917791,-1.006422182970496,1.4003711082387191,-0.8064972758293152,-0.2981436252593994,-0.5105609893798828, 191, 151, 77, 179
1731320661718,9i,13.709257033564649,1.2s : 0.1s,-4.333493483956403,5.883538432284511,0.2754557033851227,0.7516659043705655,-0.797426164150238,0.1342160999774933,0.4191686511039734,0.18878954648971558,-0.15045467019081116,0.7118451595306396,0.295747641695457,-1.0044760306261395,1.3959191545036107,-0.8072435259819031,-0.29145511984825134,-0.5132367610931396, 191, 151, 77, 179
1731320661728,9i,13.709257033564649,1.2s : 0.1s,-4.333493483956403,5.897213279654463,0.3851153255601757,0.7359151999686563,-0.9397587180137634,0.26572033762931824,0.5504924654960632,0.15257412195205688,-0.17169442772865295,0.699151873588562,0.2862865478317326,-1.0012367160511726,1.3910550647400202,-0.8078628182411194,-0.28239187598228455,-0.5173128247261047, 191, 151, 77, 179
1731320661738,9i,13.709257033564649,1.2s : 0.1s,-4.333493483956403,5.90987070364774,0.5216942070430802,0.7105589075449821,-1.0683406591415405,0.37853795289993286,0.6625966429710388,0.12627077102661133,-0.19824987649917603,0.6705569624900818,0.27556117151074655,-0.9965804141404454,1.3857059962087928,-0.8079418540000916,-0.2720869779586792,-0.5226839780807495, 191, 151, 77, 179
1731320661748,9i,13.709257033564649,1.2s : 0.1s,-4.333493483956403,5.921477857490812,0.6650449895707292,0.6661113389818183,-1.2222307920455933,0.5030747652053833,0.7429300546646118,0.10160094499588013,-0.21035617589950562,0.6238043308258057,0.26336571165375916,-0.9906314503941424,1.379789225821468,-0.8075335621833801,-0.2603316903114319,-0.5292608141899109, 191, 151, 77, 179
1731320661758,9i,13.709257033564649,1.2s : 0.1s,-4.333493483956403,5.9321969289262855,0.8153963296985531,0.6302654405353352,-1.4108259677886963,0.613905131816864,0.8332218527793884,0.08649337291717529,-0.19282454252243042,0.5937778353691101,0.24951469953516792,-0.9833282526584417,1.372939142048531,-0.806570827960968,-0.246933713555336,-0.5370913743972778, 191, 151, 77, 179
1731320661768,9i,13.709257033564649,1.2s : 0.1s,-4.333493483956403,5.942406779843168,0.9636582840904133,0.6140664146012801,-1.5846036672592163,0.7040845155715942,0.9067690968513489,0.09191524982452393,-0.14830711483955383,0.5887564420700073,0.2338852963999358,-0.9748988072177863,1.3651832500419159,-0.8051109910011292,-0.23175877332687378,-0.5459707379341125, 191, 151, 77, 179
1731320661778,9i,13.709257033564649,1.2s : 0.1s,-4.333493483956403,5.952489126000592,1.1097210728528653,0.6061886038032098,-1.7632583379745483,0.7998299598693848,0.9676454663276672,0.12403285503387451,-0.10384829342365265,0.5842054486274719,0.21669114424823782,-0.9654584211255436,1.356446792772756,-0.8030794262886047,-0.21499933302402496,-0.5557324886322021, 191, 151, 77, 179
1731320661788,9i,13.709257033564649,1.2s : 0.1s,-4.333493483956403,5.962725424472067,1.2564636255682113,0.6111430874654918,-1.9424344301223755,0.8987113237380981,1.0509647130966187,0.1570855975151062,-0.06815962493419647,0.5866636633872986,0.19776002743856594,-0.9550146429381927,1.3468504188092172,-0.8004113435745239,-0.19647350907325745,-0.5663388967514038, 191, 151, 77, 179
1731320661798,9i,13.709257033564649,1.2s : 0.1s,-4.333493483956403,5.973136596224422,1.400330815834055,0.6429783857740264,-2.0900704860687256,1.02359139919281,1.1342962980270386,0.1868477463722229,-0.015455633401870728,0.6150367856025696,0.17716586199524062,-0.943571128004947,1.336684682943529,-0.7969856262207031,-0.17624050378799438,-0.577713668346405, 191, 151, 77, 179
1731320661808,9i,13.709257033564649,1.2s : 0.1s,-4.333493483956403,5.984415166947888,1.5519686367626,0.6873433698522383,-2.291165590286255,1.1538879871368408,1.2223209142684937,0.2175363302230835,0.04007880389690399,0.6507784128189087,0.1547706441509091,-0.9309420873394867,1.325931730189708,-0.792594313621521,-0.1541534960269928,-0.5899416208267212, 191, 151, 77, 179
1731320661818,9i,13.709257033564649,1.2s : 0.1s,-4.333493483956403,5.996664445233,1.7073325293786452,0.7220184461778774,-2.46183443069458,1.2687506675720215,1.360002875328064,0.25090354681015015,0.09525799751281738,0.6702864766120911,0.13006346001444227,-0.9174402857444114,1.3145439128778047,-0.7873414754867554,-0.1296970695257187,-0.6027204990386963, 191, 151, 77, 179
1731320661828,9i,13.709257033564649,1.2s : 0.1s,-4.333493483956403,6.009910034021003,1.8491413788843398,0.7517023307446229,-2.5720131397247314,1.445263385772705,1.3683128356933594,0.28150492906570435,0.15567487478256226,0.6793943643569946,0.1039668995631812,-0.9024667529199075,1.3031570848354643,-0.7806198596954346,-0.10377970337867737,-0.6163297295570374, 191, 151, 77, 179
1731320661838,9i,13.709257033564649,1.2s : 0.1s,-4.333493483956403,6.0240630653585745,2.0110746988247694,0.7773813005173692,-2.867457389831543,1.550622582435608,1.4347370862960815,0.3162609338760376,0.15317034721374512,0.6934259533882141,0.07604941231122708,-0.8864216436386898,1.2906179098748198,-0.7725750207901001,-0.07597612589597702,-0.6303613781929016, 191, 151, 77, 179
1731320661848,9i,13.709257033564649,1.2s : 0.1s,-4.333493483956403,6.038923598418821,2.165773528544894,0.7671182662817257,-3.015961170196533,1.671573281288147,1.5151711702346802,0.3600846529006958,0.18206164240837097,0.6524285674095154,0.04592358679646558,-0.8694851266751505,1.2773504213351945,-0.7631913423538208,-0.04590744525194168,-0.6445397734642029, 191, 151, 77, 179
1731320661857,9i,13.709257033564649,1.2s : 0.1s,-4.333493483956403,6.0543982809659544,2.2863185978208707,0.7711305907311105,-3.0318071842193604,1.7408740520477295,1.5571953058242798,0.39833933115005493,0.2198275923728943,0.6226106286048889,0.014460053137894252,-0.8521252247547155,1.2644695995479194,-0.7526026368141174,-0.014459549449384212,-0.6583161950111389, 191, 151, 77, 179
1731320661877,9i,13.709257033564649,1.2s : 0.1s,-4.333493483956403,6.084440750574051,2.419579323512048,0.6321344367433036,-3.1794376373291016,2.024022102355957,1.5505261421203613,0.3466782569885254,0.18515950441360474,0.49510008096694946,-0.04957150221710436,-0.8148945747091261,1.239793862928897,-0.7267594337463379,0.04955120384693146,-0.6851024627685547, 191, 151, 77, 179
1731320661887,9i,13.709257033564649,1.2s : 0.1s,-4.333493483956403,6.0990355083520065,2.5682587790414853,0.6154113752845815,-3.427905321121216,2.1673903465270996,1.5698063373565674,0.32720714807510376,0.2139199674129486,0.4752945303916931,-0.0835251269895839,-0.7947633915448424,1.2268234704130718,-0.711209774017334,0.0834280401468277,-0.6980116963386536, 191, 151, 77, 179
1731320661897,9i,13.709257033564649,1.2s : 0.1s,-4.333493483956403,6.113651737197814,2.7323462446742823,0.6723951967984999,-3.699220895767212,2.2760865688323975,1.6449002027511597,0.3405837416648865,0.2502307891845703,0.5229747295379639,-0.12011399896491905,-0.774017388493466,1.212953407275702,-0.6939773559570312,0.11982538551092148,-0.7099558711051941, 191, 151, 77, 179
1731320661907,9i,13.709257033564649,1.2s : 0.1s,-4.333493483956403,6.128689892812012,2.8918639198165508,0.7302350468087652,-3.900548219680786,2.3653244972229004,1.6921964883804321,0.36076682806015015,0.2953677773475647,0.5620039105415344,-0.15903713315792525,-0.7528145573183813,1.198634546450797,-0.6750673651695251,0.1583675593137741,-0.7205579876899719, 191, 151, 77, 179
1731320661917,9i,13.709257033564649,1.2s : 0.1s,-4.333493483956403,6.144187562753112,3.021250216512323,0.756058005410754,-3.934802770614624,2.443323850631714,1.7534137964248657,0.3742186427116394,0.3360407054424286,0.5645004510879517,-0.1996768436270273,-0.7313837533252153,1.1845322632527635,-0.6546294689178467,0.1983526051044464,-0.7294631600379944, 191, 151, 77, 179
1731320661927,9i,13.709257033564649,1.2s : 0.1s,-4.333493483956403,6.159695986442973,3.0862763316755686,0.7208761252550608,-3.716265916824341,2.563086986541748,1.7164866924285889,0.3496848940849304,0.38922804594039917,0.4958673119544983,-0.23989740568492207,-0.7091454159490607,1.1720597920953797,-0.6325370073318481,0.23760296404361725,-0.737185001373291, 191, 151, 77, 179
1731320661937,9i,13.709257033564649,1.2s : 0.1s,-4.333493483956403,6.174447601284817,3.1296391394912053,0.6331564680982225,-3.64524245262146,2.7027742862701416,1.6335481405258179,0.2860872745513916,0.4315280318260193,0.3644512891769409,-0.2787322162039502,-0.6856234661223599,1.1610165377015933,-0.6087191104888916,0.2751370072364807,-0.7441509962081909, 191, 151, 77, 179
1731320661947,9i,13.709257033564649,1.2s : 0.1s,-4.333493483956403,6.187782199266022,3.1552246656092637,0.5695884960661968,-3.6079025268554688,2.796520709991455,1.4898967742919922,0.21415090560913086,0.4836678206920624,0.21127206087112427,-0.3167692600022481,-0.6613119698334236,1.150130783136972,-0.5835967063903809,0.3114981949329376,-0.7499225735664368, 191, 151, 77, 179
1731320661957,9i,13.709257033564649,1.2s : 0.1s,-4.333493483956403,6.199450117658368,3.155080084115579,0.5797873841633177,-3.5717122554779053,2.7696192264556885,1.3327747583389282,0.18801569938659668,0.5455566644668579,0.056315481662750244,-0.35379140871596576,-0.6371022763287119,1.1390665412965035,-0.5580260157585144,0.3464568853378296,-0.7540388107299805, 191, 151, 77, 179
1731320661977,9i,13.709257033564649,1.2s : 0.1s,-4.333493483956403,6.2211227263976845,3.1233138706769883,0.563329788846949,-3.726095199584961,2.492497682571411,0.9188199043273926,0.19191676378250122,0.4848465323448181,-0.21314841508865356,-0.4261265204016246,-0.5935620082760995,1.114776360268169,-0.509299635887146,0.4133468270301819,-0.7548233866691589, 191, 151, 77, 179
1731320661987,9i,13.709257033564649,1.2s : 0.1s,-4.333493483956403,6.231007795109888,3.0894191096493833,0.5790468628236917,-3.787126302719116,2.4161720275878906,0.6042451858520508,0.09767204523086548,0.5307055115699768,-0.2100169062614441,-0.4617053121465017,-0.5760782865744573,1.098698767755892,-0.48770198225975037,0.4454755187034607,-0.7507985234260559, 191, 151, 77, 179
1731320661997,9i,13.709257033564649,1.2s : 0.1s,-4.333493483956403,6.23795413553495,3.0590800172441526,0.6565299970152662,-3.757327079772949,2.436910390853882,0.39587676525115967,-0.06673097610473633,0.6060740947723389,-0.24341899156570435,-0.4961040202984081,-0.5601778458319872,1.0805600057552704,-0.46728086471557617,0.47600287199020386,-0.7450300455093384, 191, 151, 77, 179
1731320661967,9i,13.709257033564649,1.2s : 0.1s,-4.333493483956403,6.218708846927226,3.0691484389302905,0.5566971484571225,-3.582601547241211,2.6548311710357666,1.1999235153198242,0.20315855741500854,0.5067909955978394,-0.10863333940505981,-0.3901470793962217,-0.6141127904712952,1.127697316829247,-0.5329314470291138,0.38032445311546326,-0.7558685541152954, 191, 151, 77, 179
1731320662007,9i,13.709257033564649,1.2s : 0.1s,-4.333493483956403,6.232910699454843,3.005529160574428,0.8375246443060234,-3.500326633453369,2.478651762008667,0.262131929397583,-0.21647074818611145,0.7182326316833496,-0.37246453762054443,-0.5288733324080578,-0.5448580283996531,1.06198889910251,-0.44748497009277344,0.5045609474182129,-0.7383599877357483, 191, 151, 77, 179
1731320662017,9i,13.709257033564649,1.2s : 0.1s,-4.333493483956403,6.233578191985725,2.8804294941766275,1.0775723379000957,-3.10294508934021,2.3503105640411377,0.08144522458314896,-0.29629483819007874,0.8600650429725647,-0.5776327848434448,-0.5578935338713686,-0.5301024909479671,1.043841692377819,-0.42895543575286865,0.5294002890586853,-0.7319375276565552, 191, 151, 77, 179
1731320662027,9i,13.709257033564649,1.2s : 0.1s,-4.333493483956403,6.230917959202285,2.7447935798032725,1.213112753808077,-2.9284260272979736,2.1777877807617188,-0.06827180087566376,-0.3285335600376129,0.8304615616798401,-0.8210005164146423,-0.5839558778415926,-0.5170067269743517,1.0261584791832161,-0.4123722016811371,0.5513285994529724,-0.7252488732337952, 191, 151, 77, 179
1731320662037,9i,13.709257033564649,1.2s : 0.1s,-4.333493483956403,6.2250871691405285,2.6062576797380737,1.1821045980595963,-2.8125078678131104,1.9554142951965332,-0.20199231803417206,-0.3627210557460785,0.676063060760498,-0.8993016481399536,-0.6082899482523424,-0.5067275108855517,1.0077020880826522,-0.3982653021812439,0.5714649558067322,-0.7175044417381287, 191, 151, 77, 179
1731320662047,9i,13.709257033564649,1.2s : 0.1s,-4.333493483956403,6.216600122750139,2.471102291838522,1.104036041042399,-2.6739444732666016,1.8016204833984375,-0.2804259657859802,-0.41013336181640625,0.5293722748756409,-0.877753496170044,-0.6311687294705177,-0.4990574977951995,0.9888340117189128,-0.38639071583747864,0.5900887250900269,-0.7088705897331238, 191, 151, 77, 179
1731320662057,9i,13.709257033564649,1.2s : 0.1s,-4.333493483956403,6.206068304107498,2.3357253799604614,1.0541010414814518,-2.4300804138183594,1.773409366607666,-0.40009963512420654,-0.4613274037837982,0.45309126377105713,-0.8324748277664185,-0.6520662247562704,-0.4925583834026229,0.9699980352673796,-0.3758613169193268,0.6068300008773804,-0.7003467679023743, 191, 151, 77, 179
1731320662067,9i,13.709257033564649,1.2s : 0.1s,-4.333493483956403,6.194422368933117,2.1862905013571483,1.029216388810576,-2.0827813148498535,1.744231104850769,-0.6257944703102112,-0.49170011281967163,0.49297648668289185,-0.7579522132873535,-0.6695397294992684,-0.4867995343621544,0.9508810477398623,-0.36680516600608826,0.6206251382827759,-0.6930212378501892, 191, 151, 77, 179
1731320662077,9i,13.709257033564649,1.2s : 0.1s,-4.333493483956403,6.182314608481186,2.0404152865314025,1.0337167165248766,-1.7316819429397583,1.7777986526489258,-0.8318246006965637,-0.5073854923248291,0.5547468662261963,-0.7094970941543579,-0.6829967962907388,-0.48162653224416546,0.9311611028906303,-0.3593137264251709,0.6311204433441162,-0.6874449849128723, 191, 151, 77, 179
1731320662087,9i,13.709257033564649,1.2s : 0.1s,-4.333493483956403,6.170219133876062,1.8996497939011796,0.9985155458341389,-1.3719671964645386,1.8013365268707275,-0.9307065606117249,-0.5083810091018677,0.5537756681442261,-0.6572020649909973,-0.6927066912379277,-0.4761504479936224,0.911688052890336,-0.3527182340621948,0.6386223435401917,-0.6839234232902527, 191, 151, 77, 179
1731320662117,9i,13.709257033564649,1.2s : 0.1s,-4.333493483956403,6.134609674426603,1.6250196136513693,0.8726142095741417,0.05889834463596344,1.6789628267288208,-1.2075620889663696,-0.2997303605079651,0.3979020118713379,-0.7164434790611267,-0.6958901660027532,-0.4562373898040233,0.8624471526838948,-0.3381327986717224,0.6410688757896423,-0.6889824867248535, 191, 151, 77, 179
1731320662127,9i,13.709257033564649,1.2s : 0.1s,-4.333493483956403,6.1232951071934485,1.4530598867226592,0.8290462158219032,0.3804931342601776,1.6194877624511719,-1.2920079231262207,-0.22834229469299316,0.38870686292648315,-0.6957617402076721,-0.6884104200160059,-0.44829969166366596,0.8491530407362069,-0.33472225069999695,0.6353104114532471,-0.6959465742111206, 191, 151, 77, 179
1731320662137,9i,13.709257033564649,1.2s : 0.1s,-4.333493483956403,6.112728383049281,1.420476752235354,0.7528112596325341,0.5253955125808716,1.6040440797805786,-1.3895915746688843,-0.16518673300743103,0.34852397441864014,-0.6465053558349609,-0.6785203317182348,-0.44054000169431423,0.8361035587342912,-0.33197516202926636,0.6276417970657349,-0.7041720747947693, 191, 151, 77, 179
1731320662187,9i,13.709257033564649,1.2s : 0.1s,-4.333493483956403,6.069331188028115,1.2669401116378018,0.5144069242542559,1.425203561782837,1.0255767107009888,-1.4440745115280151,0.04969453811645508,0.19475126266479492,-0.47351545095443726,-0.6121674369812891,-0.4105162066054826,0.7689117088638663,-0.32661107182502747,0.5746426582336426,-0.7504072785377502, 191, 151, 77, 179
1731320662197,9i,13.709257033564649,1.2s : 0.1s,-4.333493483956403,6.06173533468857,1.24272516716175,0.5177043048208994,1.5964717864990234,0.827053427696228,-1.5162354707717896,0.08294299244880676,0.09534811973571777,-0.5020427703857422,-0.5922895968028076,-0.406497485566504,0.7597848597983431,-0.32804495096206665,0.5582621097564697,-0.7620563507080078, 191, 151, 77, 179
1731320662207,9i,13.709257033564649,1.2s : 0.1s,-4.333493483956403,6.054653619942017,1.2761069305204629,0.49924690567929275,1.6596933603286743,0.7064307928085327,-1.4714570045471191,0.059707969427108765,0.044811785221099854,-0.49363380670547485,-0.5715392711538739,-0.4037090581213409,0.7509272111977802,-0.33039888739585876,0.5409273505210876,-0.7734560370445251, 191, 151, 77, 179
1731320662217,9i,13.709257033564649,1.2s : 0.1s,-4.333493483956403,6.048001943312337,1.3217010732976555,0.44950137527988215,1.7602827548980713,0.55637526512146,-1.4057778120040894,0.03155931830406189,0.03922009468078613,-0.44667357206344604,-0.5501582525253669,-0.40146142306287,0.743270058490239,-0.3331035375595093,0.5228221416473389,-0.7846649289131165, 191, 151, 77, 179
1731320662227,9i,13.709257033564649,1.2s : 0.1s,-4.333493483956403,6.041876109405457,1.3545631544709822,0.39531320901305245,1.7488129138946533,0.3829770088195801,-1.3663945198059082,0.047013431787490845,0.009408116340637207,-0.39239490032196045,-0.528617471898795,-0.4003382120947573,0.7363700633536324,-0.33653372526168823,0.5043399930000305,-0.7952271699905396, 191, 151, 77, 179
1731320662237,9i,13.709257033564649,1.2s : 0.1s,-4.333493483956403,6.0363712594794965,1.4026242007193954,0.3448587491031145,1.887220025062561,0.28162986040115356,-1.3592582941055298,0.05884307622909546,-0.0009203553199768066,-0.33980023860931396,-0.5066834454750037,-0.4001686298208129,0.730124535438753,-0.34062716364860535,0.4852800667285919,-0.805280327796936, 191, 151, 77, 179
1731320662247,9i,13.709257033564649,1.2s : 0.1s,-4.333493483956403,6.0316208372822535,1.4481747122916382,0.272204805421508,1.939610242843628,0.22905801236629486,-1.337287425994873,0.051246702671051025,0.012363076210021973,-0.2670512795448303,-0.4836954884898215,-0.4002860224595419,0.7245300722589111,-0.344978392124176,0.46505388617515564,-0.8153004050254822, 191, 151, 77, 179
1731320662257,9i,13.709257033564649,1.2s : 0.1s,-4.333493483956403,6.0275670690133465,1.5004391177616219,0.2147654173437962,2.079540252685547,0.1746368557214737,-1.2963823080062866,0.028305619955062866,0.022709399461746216,-0.21167725324630737,-0.46024067699240095,-0.40053037622665383,0.7196643205670323,-0.34933528304100037,0.4441637396812439,-0.8250353932380676, 191, 151, 77, 179
1731320662267,9i,13.709257033564649,1.2s : 0.1s,-4.333493483956403,6.024205871816873,1.5908391425890287,0.20215185052882223,2.370893716812134,0.21986301243305206,-1.3019734621047974,0.012841910123825073,0.08058932423591614,-0.1849481463432312,-0.43481398656591724,-0.40015435607773187,0.7160968246612277,-0.3533112704753876,0.4212417006492615,-0.8353002667427063, 191, 151, 77, 179
1731320662277,9i,13.709257033564649,1.2s : 0.1s,-4.333493483956403,6.021469805166714,1.668845436318272,0.18398879962848777,2.381143808364868,0.20675893127918243,-1.395344853401184,0.005607485771179199,0.09757396578788757,-0.1558837890625,-0.40760756633936585,-0.39941281401356726,0.7126480951790495,-0.3570174276828766,0.39641404151916504,-0.8458099365234375, 191, 151, 77, 179
1731320662287,9i,13.709257033564649,1.2s : 0.1s,-4.333493483956403,6.0195353452275615,1.7436876975577225,0.13669689878251753,2.4886040687561035,0.24305106699466705,-1.3966166973114014,-0.015074700117111206,0.11947458982467651,-0.06468862295150757,-0.3799255301903174,-0.39868005008852775,0.708858513993778,-0.3605204224586487,0.3708513081073761,-0.8558588624000549, 191, 151, 77, 179
1731320662297,9i,13.709257033564649,1.2s : 0.1s,-4.333493483956403,6.018523074450477,1.8175388290240515,0.16211006484182877,2.6200473308563232,0.29620108008384705,-1.368241548538208,-0.030507206916809082,0.15891537070274353,0.009741067886352539,-0.35107504737354417,-0.39695763856310656,0.7058485442303372,-0.3630322515964508,0.3439074754714966,-0.86598801612854, 191, 151, 77, 179
1731320662307,9i,13.709257033564649,1.2s : 0.1s,-4.333493483956403,6.017992108725076,1.8891985072033162,0.10520517804520683,2.656960964202881,0.2540680170059204,-1.5070747137069702,-0.012473583221435547,0.10379305481910706,-0.011812746524810791,-0.32129240540477016,-0.3958057647960384,0.7024251803539411,-0.36582234501838684,0.31579309701919556,-0.8754705786705017, 191, 151, 77, 179
1731320662317,9i,13.709257033564649,1.2s : 0.1s,-4.333493483956403,6.0177201505221705,1.9113031628145816,0.06489984478328514,2.4909329414367676,0.2904888689517975,-1.5060228109359741,-0.022001028060913086,0.06066995859146118,0.006862998008728027,-0.29144565386254084,-0.3942897207033752,0.6983292929208719,-0.3679525852203369,0.28733721375465393,-0.8843348622322083, 191, 151, 77, 179
1731320662327,9i,13.709257033564649,1.2s : 0.1s,-4.333493483956403,6.017572673806286,1.9086775146112918,0.09299032932495206,2.402398109436035,0.26774531602859497,-1.4577125310897827,-0.027027904987335205,0.08194038271903992,0.03467661142349243,-0.26352145300055724,-0.3927664175075438,0.6937913156167012,-0.3695327639579773,0.2604820430278778,-0.8919610977172852, 191, 151, 77, 179
1731320662337,9i,13.709257033564649,1.2s : 0.1s,-4.333493483956403,6.018193749487888,1.9178517464002256,0.1714864687533567,2.419577121734619,0.23498257994651794,-1.5660735368728638,0.0005637407302856445,0.1574408859014511,0.06796807050704956,-0.23533507453716151,-0.39147129908614536,0.6890527793193317,-0.37103191018104553,0.2331688404083252,-0.8988701701164246, 191, 151, 77, 179
1731320662347,9i,13.709257033564649,1.2s : 0.1s,-4.333493483956403,6.018929925847653,1.8758141837340407,0.12890778778530496,2.0791144371032715,0.2411486804485321,-1.6473748683929443,0.0004621744155883789,0.1203312873840332,0.046231865882873535,-0.20838302122909078,-0.39056121729910814,0.6825307694310986,-0.37247148156166077,0.2068781703710556,-0.9046913385391235, 191, 151, 77, 179
1731320662357,9i,13.709257033564649,1.2s : 0.1s,-4.333493483956403,6.019932644042185,1.8313801876423352,0.1505117689929603,1.953298807144165,0.3274953067302704,-1.6690289974212646,-0.0492439866065979,0.08386227488517761,0.11487358808517456,-0.1836632814945186,-0.38922449290709515,0.6746954673941044,-0.3730888068675995,0.1826324611902237,-0.9096428751945496, 191, 151, 77, 179
1731320662387,9i,13.709257033564649,1.2s : 0.1s,-4.333493483956403,6.0240100911221015,1.7894688468066464,0.2174623578976758,1.7103558778762817,0.4802466630935669,-1.8518770933151245,-0.07662665843963623,0.1564350575208664,0.13017797470092773,-0.11267833977911466,-0.38035897158676546,0.6460569293156935,-0.36889949440956116,0.11244005709886551,-0.9226431250572205, 191, 151, 77, 179
1731320662397,9i,13.709257033564649,1.2s : 0.1s,-4.333493483956403,6.025874999902799,1.7517310820653247,0.22460062899606675,1.5876089334487915,0.47549930214881897,-1.893585443496704,-0.035306721925735474,0.1755376011133194,0.13559287786483765,-0.09043950007215382,-0.37676580906322255,0.6347092597570042,-0.3664114475250244,0.09031625837087631,-0.9260591864585876, 191, 151, 77, 179
1731320662407,9i,13.709257033564649,1.2s : 0.1s,-4.333493483956403,6.02828073911893,1.7071649737587968,0.22288405528522773,1.4034117460250854,0.5037859082221985,-1.916330337524414,-0.006972789764404297,0.14171303808689117,0.1718897819519043,-0.06958577621356368,-0.37291467761002794,0.6224484707309432,-0.3634496033191681,0.06952963024377823,-0.9290156364440918, 191, 151, 77, 179
1731320662416,9i,13.709257033564649,1.2s : 0.1s,-4.333493483956403,6.031028844638669,1.6787348890134561,0.2167232542570234,1.3587937355041504,0.5382043123245239,-1.940645456314087,-0.00551527738571167,0.14668267965316772,0.15944510698318481,-0.049855896731489144,-0.36846290477325916,0.6094441041658986,-0.3597343862056732,0.04983524605631828,-0.9317229390144348, 191, 151, 77, 179
1731320662426,9i,13.709257033564649,1.2s : 0.1s,-4.333493483956403,6.03397738529674,1.6565716340918513,0.22744640060908666,1.313915491104126,0.542109489440918,-1.9444230794906616,-0.016855359077453613,0.17620697617530823,0.14282459020614624,-0.03041696135877902,-0.3635975269537153,0.5960913774125539,-0.3554743528366089,0.03041227161884308,-0.934191107749939, 191, 151, 77, 179
1731320662436,9i,13.709257033564649,1.2s : 0.1s,-4.333493483956403,6.037004895315821,1.6333005590535243,0.22625833585576827,1.2386716604232788,0.5522947311401367,-1.9392083883285522,-0.020675748586654663,0.1663120985031128,0.1520053744316101,-0.011681932471540927,-0.35843400390854835,0.5824601681752715,-0.3507842421531677,0.011681666597723961,-0.9363834261894226, 191, 151, 77, 179
1731320662446,9i,13.709257033564649,1.2s : 0.1s,-4.333493483956403,6.040358646755079,1.6236787714409864,0.2520593260259515,1.2543927431106567,0.581222414970398,-1.9532749652862549,-0.005079686641693115,0.18049420416355133,0.17586910724639893,0.006696652126807211,-0.3528190161243365,0.5685848740045029,-0.3455367982387543,-0.006696601863950491,-0.9383813142776489, 191, 151, 77, 179
1731320662456,9i,13.709257033564649,1.2s : 0.1s,-4.333493483956403,6.044129524743213,1.6267799332297554,0.2765368299245336,1.3068320751190186,0.603553056716919,-1.9797958135604858,0.018846064805984497,0.21400803327560425,0.17412066459655762,0.02544268696442951,-0.34667456882306563,0.5545290575609417,-0.3396621346473694,-0.025439942255616188,-0.9402033686637878, 191, 151, 77, 179
1731320662466,9i,13.709257033564649,1.2s : 0.1s,-4.333493483956403,6.048165948425744,1.627873122386517,0.26822716354524045,1.3054691553115845,0.5909372568130493,-1.9778441190719604,0.04086428880691528,0.2021723985671997,0.17147082090377808,0.04438057121674125,-0.3402299605269839,0.5402909622930326,-0.33337530493736267,-0.04436600208282471,-0.9417497515678406, 191, 151, 77, 179
1731320662476,9i,13.709257033564649,1.2s : 0.1s,-4.333493483956403,6.052283586240716,1.6254619484215116,0.2507922324369999,1.2829513549804688,0.5655549168586731,-1.9499101638793945,0.061194926500320435,0.18796059489250183,0.15434616804122925,0.06307872350228265,-0.33367452900024874,0.5260469901344784,-0.3268657326698303,-0.06303690373897552,-0.9429661631584167, 191, 151, 77, 179
1731320662486,9i,13.709257033564649,1.2s : 0.1s,-4.333493483956403,6.056470485163173,1.6134097468260025,0.2394769356286209,1.2517726421356201,0.5359514951705933,-1.9317623376846313,0.07977953553199768,0.17694342136383057,0.1402692198753357,0.08129932389715082,-0.3271709257915879,0.5117617402897339,-0.32030385732650757,-0.08120979368686676,-0.9438275098800659, 191, 151, 77, 179
1731320662496,9i,13.709257033564649,1.2s : 0.1s,-4.333493483956403,6.060709082755604,1.5950193528134595,0.21993792162789697,1.230640172958374,0.5141136050224304,-1.890173316001892,0.08783286809921265,0.14137545228004456,0.14377433061599731,0.09913359635672694,-0.3206462095359404,0.4975574247641242,-0.31363245844841003,-0.09897130727767944,-0.9443724751472473, 191, 151, 77, 179
1731320662516,9i,13.709257033564649,1.2s : 0.1s,-4.333493483956403,6.0690064622678745,1.5606866582758434,0.17630367794100363,1.2139407396316528,0.45358335971832275,-1.7859426736831665,0.11653047800064087,0.07477216422557831,0.10914558172225952,0.13350275642852386,-0.3077620203504828,0.4709273870295359,-0.30023103952407837,-0.1331065446138382,-0.9445337057113647, 191, 151, 77, 179
1731320662506,9i,13.709257033564649,1.2s : 0.1s,-4.333493483956403,6.064876205563919,1.5452516926268793,0.18323676219679008,1.2085665464401245,0.4844163954257965,-1.833888053894043,0.0968441367149353,0.0950140580534935,0.12316352128982544,0.11644095635124407,-0.31414598510625164,0.4840804049194791,-0.3069119155406952,-0.1161780059337616,-0.9446204304695129, 191, 151, 77, 179
1731320662526,9i,13.709257033564649,1.2s : 0.1s,-4.333493483956403,6.073147681688782,1.5123532827337187,0.18804212057367706,1.1374050378799438,0.42611950635910034,-1.7616194486618042,0.13279342651367188,0.07346555590629578,0.11103403568267822,0.1500318163622739,-0.30150432864423465,0.4578789988884736,-0.29362109303474426,-0.14946958422660828,-0.9441639184951782, 191, 151, 77, 179
1731320662536,9i,13.709257033564649,1.2s : 0.1s,-4.333493483956403,6.0772720337204245,1.4732509243319811,0.18335651645903134,1.0401149988174438,0.40370073914527893,-1.7330034971237183,0.14103460311889648,0.07322578132152557,0.09147042036056519,0.16561080985362248,-0.2952363302814368,0.4446382167118954,-0.286984920501709,-0.16485480964183807,-0.9436432123184204, 191, 151, 77, 179
