timestamp,club,max_speed,tempo,w.rotation,l.speed,t.spped,acc,rotation.x,rotation.y,rotation.z,userAcceleration.x,userAcceleration.y,userAcceleration.z,pitch,roll,yaw,gravity.x,gravity.y,gravity.z,impactIndex,minDownIndex,StartIndex,endIndex
1731319910860,9i,6.685635856992004,1.1s : 0.4s,14.181788177536774,0.00046325106358762055,0.17023350129781648,0.02857362279618568,-0.2452198714017868,-0.03735272213816643,0.03635714203119278,0.009728014469146729,-0.025612786412239075,-0.008111894130706787,-0.23735359847143545,2.1935864164471752,3.0194047293211774,0.7894816994667053,0.23513124883174896,0.5669501423835754, 154, 85, 5, 116
1731319910870,9i,6.685635856992004,1.1s : 0.4s,14.181788177536774,0.0013708215699086174,0.1585559658666215,0.06443201503805202,-0.24023357033729553,-0.03144005686044693,0.0528515949845314,0.006735682487487793,-0.06293055415153503,-0.012077271938323975,-0.23577858488598355,2.1936010876939105,3.0211543000225336,0.7897730469703674,0.23360009491443634,0.5671769380569458, 154, 85, 5, 116
1731319910880,9i,6.685635856992004,1.1s : 0.4s,14.181788177536774,0.0023031350968039477,0.12651520432592456,0.07417234108627871,-0.17690199613571167,-0.021482501178979874,0.058824531733989716,0.0015780329704284668,-0.07339340448379517,-0.010604441165924072,-0.23420481505272422,2.1936681157463522,3.0225884430892904,0.7900328040122986,0.23206958174705505,0.5674437284469604, 154, 85, 5, 116
1731319910890,9i,6.685635856992004,1.1s : 0.4s,14.181788177536774,0.003313310383182867,0.10100533114193472,0.07366570032130991,-0.10718230158090591,-0.02439315803349018,0.05920150503516197,0.00398099422454834,-0.07318121194839478,-0.007436215877532959,-0.23299855750518347,2.1936235950625087,3.0234287746524937,0.7902848720550537,0.23089608550071716,0.5675714612007141, 154, 85, 5, 116
1731319910900,9i,6.685635856992004,1.1s : 0.4s,14.181788177536774,0.004460006349776573,0.07493530857969884,0.0798573154899611,-0.041968945413827896,-0.023343872278928757,0.07171143591403961,0.011014163494110107,-0.07792888581752777,-0.013526558876037598,-0.23205991562998912,2.193447285314105,3.023657632908752,0.7905605435371399,0.22998270392417908,0.5675581693649292, 154, 85, 5, 116
1731319910910,9i,6.685635856992004,1.1s : 0.4s,14.181788177536774,0.005662947216796153,0.05315146771007318,0.07387450591494575,-0.0032397923059761524,-0.01950945146381855,0.06652858853340149,0.012599706649780273,-0.06705807149410248,-0.028317928314208984,-0.2313789848696198,2.1931846713005063,3.023432731943341,0.7908364534378052,0.2293199747800827,0.5674415826797485, 154, 85, 5, 116
1731319910920,9i,6.685635856992004,1.1s : 0.4s,14.181788177536774,0.006887267232391309,0.047468599738317525,0.06450773286408086,0.017987465485930443,-0.017851367592811584,0.057598747313022614,0.006315410137176514,-0.05939173698425293,-0.024371802806854248,-0.23093349454770684,2.192904720756729,3.023002007174085,0.7910783290863037,0.22888633608818054,0.5672796964645386, 154, 85, 5, 116
1731319910930,9i,6.685635856992004,1.1s : 0.4s,14.181788177536774,0.008133635588906096,0.042654719652969346,0.06592058289276752,0.021689392626285553,-0.022055257111787796,0.05829056724905968,0.006549060344696045,-0.06245434284210205,-0.02005213499069214,-0.23055284284877006,2.1926073291431045,3.022506513863588,0.791317880153656,0.22851577401161194,0.5670952200889587, 154, 85, 5, 116
1731319910940,9i,6.685635856992004,1.1s : 0.4s,14.181788177536774,0.009379274775329618,0.03851311494342244,0.05537424182033354,0.02311950922012329,-0.02376633882522583,0.04530659317970276,0.007716834545135498,-0.05232734978199005,-0.016389191150665283,-0.23022867468440159,2.1922433406887034,3.021992053915978,0.7915844321250916,0.22820016741752625,0.5668502449989319, 154, 85, 5, 116
1731319910950,9i,6.685635856992004,1.1s : 0.4s,14.181788177536774,0.010561190781402784,0.0345843834916778,0.033886012378988806,0.027281830087304115,-0.015429046005010605,0.04162187874317169,0.005695521831512451,-0.031208515167236328,-0.01191014051437378,-0.22991456200935126,2.1919297573223595,3.0215100871598994,0.7918204665184021,0.22789433598518372,0.5666437745094299, 154, 85, 5, 116
1731319910960,9i,6.685635856992004,1.1s : 0.4s,14.181788177536774,0.011538761329675408,0.030580725812368124,0.019700184339045707,0.03514428436756134,-0.01714785024523735,0.024376042187213898,0.0007785558700561523,-0.012854725122451782,-0.01490795612335205,-0.22966639507160821,2.1916273918534315,3.0210333332690915,0.7920376062393188,0.2276526838541031,0.5664371252059937, 154, 85, 5, 116
1731319910970,9i,6.685635856992004,1.1s : 0.4s,14.181788177536774,0.012356609246385004,0.026179605190113975,0.01479653571364077,0.047546688467264175,-0.011984247714281082,0.012797052040696144,0.000280916690826416,-0.005001887679100037,-0.013922631740570068,-0.22957798875001467,2.191370328952873,3.020562050226165,0.7921996712684631,0.22756659984588623,0.5662452578544617, 154, 85, 5, 116
1731319910980,9i,6.685635856992004,1.1s : 0.4s,14.181788177536774,0.012997756331883594,0.06675137633225214,0.005868576151913711,0.056687455624341965,-0.15422233939170837,0.21377062797546387,-0.0017635822296142578,0.0006881505250930786,-0.005554854869842529,-0.22932874702118397,2.190859233337258,3.01998521030312,0.7925348877906799,0.22732388973236084,0.5658730864524841, 154, 85, 5, 116
1731319910990,9i,6.685635856992004,1.1s : 0.4s,14.181788177536774,0.013527549068594385,0.0885387069613167,0.02278718292324251,-0.007590532302856445,-0.12447865307331085,0.16622819006443024,-0.014140665531158447,0.017555266618728638,0.003333151340484619,-0.22968289169961809,2.191062931129786,3.0199625881536427,0.7923542857170105,0.22766874730587006,0.5659878253936768, 154, 85, 5, 116
1731319911000,9i,6.685635856992004,1.1s : 0.4s,14.181788177536774,0.013954451340398709,0.07065890002818209,0.042228668854734724,-0.08060748875141144,-0.048256855458021164,-0.008901817724108696,0.023810505867004395,0.032882437109947205,0.01162177324295044,-0.2298163330900151,2.1906191756757543,3.019629704789443,0.7925804257392883,0.2277986854314804,0.5656183958053589, 154, 85, 5, 116
1731319911010,9i,6.685635856992004,1.1s : 0.4s,14.181788177536774,0.014257607694732125,0.04652549723550389,0.03761903561644076,0.0017166166799142957,-0.008122220635414124,-0.030868269503116608,-0.00566256046295166,0.03633740544319153,0.007919609546661377,-0.22941796941374176,2.190141310928887,3.0192453353281734,0.7929246425628662,0.22741077840328217,0.5652922987937927, 154, 85, 5, 116
1731319911020,9i,6.685635856992004,1.1s : 0.4s,14.181788177536774,0.014103779960793374,0.042021764191958765,0.05591423661102126,0.036303356289863586,0.00042759254574775696,0.030895762145519257,-0.03143644332885742,0.04527299106121063,0.009407877922058105,-0.22953385375003832,2.190208106892076,3.019239709272287,0.7928652763366699,0.22752362489700317,0.5653298497200012, 154, 85, 5, 116
1731319911030,9i,6.685635856992004,1.1s : 0.4s,14.181788177536774,0.0136171369628432,0.027741727434260406,0.059360928946234764,0.011612789705395699,0.007057531736791134,-0.0024320343509316444,-0.0282137393951416,0.052173420786857605,-0.0023746490478515625,-0.22951463324320756,2.190112091025829,3.0190194441737552,0.7929232120513916,0.2275049090385437,0.5652563571929932, 154, 85, 5, 116
1731319911040,9i,6.685635856992004,1.1s : 0.4s,14.181788177536774,0.012929068493978835,0.02066740804928129,0.06027518177076668,0.0023969211615622044,-0.0015085258055478334,0.002797348890453577,-0.030073881149291992,0.051830992102622986,-0.006496727466583252,-0.22956858236174987,2.190123857172924,3.0189748799657625,0.792906641960144,0.2275574505329132,0.5652586221694946, 154, 85, 5, 116
1731319911050,9i,6.685635856992004,1.1s : 0.4s,14.181788177536774,0.012195613402897152,0.017334917844730787,0.05359164382249975,0.00327396672219038,0.004613105207681656,0.0015558162704110146,-0.023258328437805176,0.047638311982154846,0.00785529613494873,-0.2295493216624344,2.1901481610523454,3.0189376286500056,0.7928963899612427,0.22753868997097015,0.5652803778648376, 154, 85, 5, 116
1731319911060,9i,6.685635856992004,1.1s : 0.4s,14.181788177536774,0.011436218808982705,0.015342285789807486,0.04916863599210164,-0.004198064096271992,0.005004057195037603,-0.0007696559187024832,-0.02791726589202881,0.03976002335548401,0.007571101188659668,-0.22955425419180803,2.1902186940806883,3.0189489891383365,0.7928557991981506,0.22754348814487457,0.565335750579834, 154, 85, 5, 116
1731319911070,9i,6.685635856992004,1.1s : 0.4s,14.181788177536774,0.01067425650455174,0.013450265209405971,0.042033390014611434,-0.0009255053009837866,0.0077536823228001595,1.4545395970344543e-05,-0.024475574493408203,0.034171611070632935,0.00023049116134643555,-0.22960499017415775,2.190324791235631,3.0189594223780967,0.7927860617637634,0.22759290039539337,0.5654129385948181, 154, 85, 5, 116
1731319911080,9i,6.685635856992004,1.1s : 0.4s,14.181788177536774,0.00992043924757067,0.01198952491982542,0.041723082218937,-0.006463015917688608,0.008833061903715134,0.004821284674108028,-0.027907133102416992,0.030831560492515564,-0.0033797025680541992,-0.2296502967893536,2.1904209026089845,3.0189754545640297,0.7927232384681702,0.22763702273368835,0.5654830932617188, 154, 85, 5, 116
1731319911090,9i,6.685635856992004,1.1s : 0.4s,14.181788177536774,0.009188164242049091,0.010504687096101467,0.041483829282272316,-0.006396770011633635,0.01259690709412098,0.003374755382537842,-0.028779447078704834,0.02853436768054962,-0.008856713771820068,-0.22975292641078585,2.190571649834209,3.0189902520637046,0.7926190495491028,0.2277369499206543,0.5655890703201294, 154, 85, 5, 116
1731319911100,9i,6.685635856992004,1.1s : 0.4s,14.181788177536774,0.008510468199237039,0.009229147815440772,0.03769701790951826,-0.006378660444170237,0.013411302119493484,0.003354515414685011,-0.025426149368286133,0.02068692445755005,-0.01861792802810669,-0.23002394893691944,2.1908809293062808,3.0190535249226715,0.7923940420150757,0.22800083458423615,0.5657984614372253, 154, 85, 5, 116
1731319911110,9i,6.685635856992004,1.1s : 0.4s,14.181788177536774,0.007913555992416998,0.008106980496667634,0.029952993281150864,-0.0023361153434962034,0.01246144063770771,0.002518615685403347,-0.022021770477294922,0.01077204942703247,-0.017210066318511963,-0.23052197655377632,2.191151781394721,3.0191077031458864,0.7921479940414429,0.22848571836948395,0.5659467577934265, 154, 85, 5, 116
1731319911120,9i,6.685635856992004,1.1s : 0.4s,14.181788177536774,0.007413464633228386,0.007719715908110966,0.01988250596582692,0.0036354907788336277,0.0019001431064680219,0.008677974343299866,-0.018292725086212158,-0.000550001859664917,-0.007770955562591553,-0.23103925347141982,2.1913426120297705,3.0190805031892185,0.7919437289237976,0.22898928821086884,0.5660291314125061, 154, 85, 5, 116
1731319911130,9i,6.685635856992004,1.1s : 0.4s,14.181788177536774,0.007007957878757384,0.06325491813936474,0.014457341363485504,0.033850718289613724,-0.15259799361228943,0.24290063977241516,-0.0134199857711792,-0.005372911691665649,0.00022476911544799805,-0.23122859417656047,2.191181587056842,3.018691160878938,0.7919998168945312,0.22917358577251434,0.5658765435218811, 154, 85, 5, 116
1731319911140,9i,6.685635856992004,1.1s : 0.4s,14.181788177536774,0.006694816583558703,0.1630356332993124,0.01988183475224733,0.017200367525219917,-0.35771840810775757,0.47021153569221497,-0.018740177154541016,-0.006218165159225464,-0.002329707145690918,-0.23201863359520764,2.1916310002202586,3.018682481646444,0.791597843170166,0.22994253039360046,0.5661268830299377, 154, 85, 5, 116
1731319911150,9i,6.685635856992004,1.1s : 0.4s,14.181788177536774,0.006479117230892389,0.24163053357320358,0.020242796133481396,0.005111015401780605,-0.47125133872032166,0.43285849690437317,0.01589787006378174,-0.011412352323532104,-0.005175590515136719,-0.23340495883013626,2.1924931461334745,3.018933330482229,0.7908495664596558,0.2312914878129959,0.5666229128837585, 154, 85, 5, 116
1731319911160,9i,6.685635856992004,1.1s : 0.4s,14.181788177536774,0.006352943568786284,0.19686598672524783,0.0169738702155911,0.03850865364074707,-0.1306692659854889,0.0635792464017868,-0.0027201175689697266,-0.015117555856704712,-0.007223069667816162,-0.23357471384235257,2.1923519904356508,3.0185039398169358,0.7908974885940552,0.23145663738250732,0.5664883852005005, 154, 85, 5, 116
1731319911170,9i,6.685635856992004,1.1s : 0.4s,14.181788177536774,0.006300860298284862,0.14549092254241885,0.017152927256546248,0.04164525866508484,-0.023324964568018913,0.025590544566512108,-0.004165291786193848,-0.01570776104927063,-0.005489945411682129,-0.23380494601096108,2.192148477219591,3.0182008998238743,0.7909693717956543,0.23168061673641205,0.5662963390350342, 154, 85, 5, 116
1731319911180,9i,6.685635856992004,1.1s : 0.4s,14.181788177536774,0.00631427582630605,0.10220048563433384,0.02351293185692106,0.009950976818799973,0.0017817211337387562,0.0025102603249251842,-0.0004985332489013672,-0.02343156933784485,-0.0018897056579589844,-0.23398047729379098,2.1920444339123555,3.017996412412748,0.7909953594207764,0.23185136914253235,0.5661904215812683, 154, 85, 5, 116
1731319911190,9i,6.685635856992004,1.1s : 0.4s,14.181788177536774,0.0063669790589218145,0.07058096905849556,0.028802483329334824,0.021042710170149803,0.007011281792074442,-0.004859538748860359,0.009019792079925537,-0.026753023266792297,0.0057010650634765625,-0.234147914727008,2.1920639880133432,3.017820487054168,0.790952742099762,0.2320142388343811,0.56618332862854, 154, 85, 5, 116
1731319911200,9i,6.685635856992004,1.1s : 0.4s,14.181788177536774,0.0064599435253792845,0.05660924342159646,0.03113357721589599,0.011349337175488472,0.07866975665092468,-0.07414726167917252,0.0011525750160217285,-0.030846282839775085,0.004059314727783203,-0.23424607227496733,2.1921501154476104,3.0176313341732066,0.7908853888511658,0.23210971057415009,0.5662381649017334, 154, 85, 5, 116
1731319911210,9i,6.685635856992004,1.1s : 0.4s,14.181788177536774,0.0066093588370048605,0.011548197541599987,0.03318540873079188,0.005132187157869339,0.1545981615781784,-0.15130290389060974,0.0010819435119628906,-0.033156320452690125,-0.0008713006973266602,-0.23428355075946808,2.192255483550346,3.0173822107624075,0.7908186912536621,0.23214617371559143,0.5663164258003235, 154, 85, 5, 116
1731319911220,9i,6.685635856992004,1.1s : 0.4s,14.181788177536774,0.006788966972976663,0.06795431699284865,0.02728271883267139,0.0005334406741894782,0.22710485756397247,-0.2225951999425888,0.006134688854217529,-0.025991931557655334,-0.005579590797424316,-0.2343067494173194,2.192386077554518,3.0171040560833755,0.7907404899597168,0.23216873407363892,0.5664166808128357, 154, 85, 5, 116
1731319911230,9i,6.685635856992004,1.1s : 0.4s,14.181788177536774,0.006998473575498111,0.11575471441367295,0.025805592722581584,0.007107053883373737,0.24448108673095703,-0.23505206406116486,0.003352344036102295,-0.024165257811546326,-0.008410155773162842,-0.23416999205085154,2.1923146544704157,3.016781248745828,0.7908064723014832,0.23203571140766144,0.5663784742355347, 154, 85, 5, 116
1731319911240,9i,6.685635856992004,1.1s : 0.4s,14.181788177536774,0.007216605210210008,0.13348466679493332,0.01919851282738467,0.031605739146471024,0.18652990460395813,-0.17963780462741852,-0.0031186938285827637,-0.018906131386756897,0.0011894702911376953,-0.23398708047525033,2.19218462373932,3.0163972927782012,0.7909147143363953,0.2318577915430069,0.5663004517555237, 154, 85, 5, 116
1731319911250,9i,6.685635856992004,1.1s : 0.4s,14.181788177536774,0.007427916768763943,0.10771294396908336,0.02508403204475651,0.050019700080156326,0.05633959546685219,-0.035156890749931335,0.0005552768707275391,-0.021696001291275024,0.0125771164894104,-0.2337963283199422,2.191972607792003,3.0159915527705743,0.791070818901062,0.2316722273826599,0.5661585330963135, 154, 85, 5, 116
1731319911260,9i,6.685635856992004,1.1s : 0.4s,14.181788177536774,0.007646721557422124,0.04312668726586577,0.02906637041720688,0.08525998145341873,-0.13761204481124878,0.1715286374092102,0.0003941655158996582,-0.027084410190582275,0.010541975498199463,-0.23346904289004317,2.1917698553306972,3.015602280995477,0.7912471890449524,0.23135383427143097,0.5660422444343567, 154, 85, 5, 116
1731319911270,9i,6.685635856992004,1.1s : 0.4s,14.181788177536774,0.007883107414926774,0.09765838225740771,0.02202462413786162,0.1003599688410759,-0.3645031452178955,0.4023633897304535,-0.009291231632232666,-0.019899293780326843,0.0016658902168273926,-0.2331572092369903,2.191691815389618,3.015273282598078,0.7913500666618347,0.23105044662952423,0.5660224556922913, 154, 85, 5, 116
1731319911280,9i,6.685635856992004,1.1s : 0.4s,14.181788177536774,0.008147493393516647,0.240595932522465,0.025392848926628075,0.11635225266218185,-0.5867130160331726,0.6279488801956177,-0.019895493984222412,-0.012996479868888855,-0.008947491645812988,-0.23285325401652185,2.191766727007168,3.0150182609410154,0.7913647890090942,0.23075470328330994,0.5661225914955139, 154, 85, 5, 116
1731319911290,9i,6.685635856992004,1.1s : 0.4s,14.181788177536774,0.008440392456754039,0.3861315472961677,0.02642731601322805,0.09977234899997711,-0.7445183992385864,0.7834869623184204,-0.019823312759399414,-0.013942480087280273,-0.010537862777709961,-0.2328374717468251,2.191845502672525,3.0148935554341163,0.7913229465484619,0.23073935508728027,0.5661869049072266, 154, 85, 5, 116
1731319911300,9i,6.685635856992004,1.1s : 0.4s,14.181788177536774,0.008757986735284051,0.47707018161009584,0.023687791686280504,0.05865180492401123,-0.7165000438690186,0.73710697889328,-0.011833608150482178,-0.018491148948669434,-0.008896887302398682,-0.23274494106389074,2.1919735886635774,3.0149124511006944,0.7912676930427551,0.23064932227134705,0.566300630569458, 154, 85, 5, 116
1731319911310,9i,6.685635856992004,1.1s : 0.4s,14.181788177536774,0.009070972365056742,0.49850472260775874,0.012673944597437205,0.033721353858709335,-0.5722566843032837,0.5844727754592896,-0.00020569562911987305,-0.012283533811569214,-0.0031147003173828125,-0.23259093693467717,2.192025738155356,3.0148892956770346,0.7912670969963074,0.23049946129322052,0.5663625597953796, 154, 85, 5, 116
1731319911319,9i,6.685635856992004,1.1s : 0.4s,14.181788177536774,0.009372810653610137,0.4493532497228879,0.010834748029538278,0.0028473283164203167,-0.3431023359298706,0.3636269271373749,0.002768099308013916,-0.005426764488220215,-0.00895988941192627,-0.23244409888814402,2.191963644395203,3.014725441798114,0.7913298010826111,0.23035657405853271,0.5663331151008606, 154, 85, 5, 116
1731319911329,9i,6.685635856992004,1.1s : 0.4s,14.181788177536774,0.009659057788783783,0.33720728734619215,0.01786703872546548,-0.0288954209536314,-0.06374987959861755,0.09707115590572357,0.005871117115020752,0.001586034893989563,-0.0168001651763916,-0.23227807480014934,2.1918935002082516,3.0144389039572084,0.7914007902145386,0.23019501566886902,0.5663000345230103, 154, 85, 5, 116
1731319911339,9i,6.685635856992004,1.1s : 0.4s,14.181788177536774,0.009916899455601666,0.18346055739127357,0.016266229548312236,-0.022717153653502464,0.21042786538600922,-0.16149967908859253,-0.00311356782913208,0.01034778356552124,-0.012158095836639404,-0.2322119328705622,2.1918394406663664,3.0139767058394122,0.791443407535553,0.2301306426525116,0.5662658214569092, 154, 85, 5, 116
1731319911349,9i,6.685635856992004,1.1s : 0.4s,14.181788177536774,0.010124199094380624,0.026398504402535404,0.023922918627192806,0.023545948788523674,0.446588933467865,-0.36970987915992737,-0.006207644939422607,0.022224918007850647,-0.006310641765594482,-0.23239425075110015,2.191866044908583,3.013118300044771,0.7913945317268372,0.23030807077884674,0.5662627220153809, 154, 85, 5, 116
1731319911359,9i,6.685635856992004,1.1s : 0.4s,14.181788177536774,0.010179536597499837,0.15911807377564358,0.04373694227058054,0.10082182288169861,0.6085684895515442,-0.5359257459640503,-0.006863296031951904,0.04027251899242401,-0.015618562698364258,-0.2330564739812599,2.1919978408745204,3.011803832061682,0.7911955118179321,0.2309524416923523,0.5662779808044434, 154, 85, 5, 116
1731319911369,9i,6.685635856992004,1.1s : 0.4s,14.181788177536774,0.010031460765228912,0.30301622664047256,0.0724599894491024,0.19697532057762146,0.7036963701248169,-0.6127705574035645,-0.01608377695083618,0.0669936090707779,-0.022441446781158447,-0.23451217670836438,2.192422444555917,3.0100927363988905,0.7906808257102966,0.23236854374408722,0.5664174556732178, 154, 85, 5, 116
1731319911379,9i,6.685635856992004,1.1s : 0.4s,14.181788177536774,0.009644855603401607,0.4020712516103994,0.1122973343874256,0.2892346680164337,0.7150589823722839,-0.5495700240135193,-0.03298908472061157,0.10652515292167664,-0.013221323490142822,-0.23654053620392118,2.193442564807878,3.007910207233198,0.7897180914878845,0.23434090614318848,0.5669476985931396, 154, 85, 5, 116
1731319911389,9i,6.685635856992004,1.1s : 0.4s,14.181788177536774,0.008920212255444444,0.4488676522348322,0.17677207408750606,0.40302684903144836,0.6183966398239136,-0.41895925998687744,-0.05081069469451904,0.16621814668178558,0.03222060203552246,-0.23898921734645945,2.1949312316494565,3.0050492097690507,0.7884052991867065,0.23672069609165192,0.5677857398986816, 154, 85, 5, 116
1731319911399,9i,6.685635856992004,1.1s : 0.4s,14.181788177536774,0.008147195735512047,0.46117074492289006,0.2349907696813082,0.5527420043945312,0.5086975693702698,-0.2358485460281372,-0.06430840492248535,0.20548604428768158,0.09413063526153564,-0.24202996400884905,2.196916006752883,3.0013697775558517,0.7866901755332947,0.239673912525177,0.568925142288208, 154, 85, 5, 116
1731319911409,9i,6.685635856992004,1.1s : 0.4s,14.181788177536774,0.00837002262873475,0.47192067361464857,0.25531833384764085,0.7093093991279602,0.4479435086250305,-0.058128420263528824,-0.07790517807006836,0.21366487443447113,0.11604118347167969,-0.24585079582988445,2.1998607420276612,2.9965721593976835,0.7842650413513184,0.24338161945343018,0.5706961750984192, 154, 85, 5, 116
1731319911419,9i,6.685635856992004,1.1s : 0.4s,14.181788177536774,0.010542475546344373,0.5162941040806834,0.2786004806665544,0.8922957181930542,0.48245781660079956,0.06400387734174728,-0.10920834541320801,0.2282816767692566,0.11653000116348267,-0.25084208232287825,2.2044907784289594,2.9907532353891524,0.7806255221366882,0.24821977317333221,0.5735946297645569, 154, 85, 5, 116
1731319911429,9i,6.685635856992004,1.1s : 0.4s,14.181788177536774,0.014667322771149065,0.6133004879020693,0.3412936749549568,1.1200687885284424,0.6432371139526367,0.12441829591989517,-0.15404927730560303,0.26576223969459534,0.14873003959655762,-0.25755301770203476,2.2114446774884775,2.9836999081823765,0.775265097618103,0.25471505522727966,0.5780004858970642, 154, 85, 5, 116
1731319911439,9i,6.685635856992004,1.1s : 0.4s,14.181788177536774,0.02057496940874512,0.7595978066933113,0.4313235045881402,1.4250295162200928,0.8344581723213196,0.12624149024486542,-0.19321388006210327,0.33052098751068115,0.1986560821533203,-0.26641524798233535,2.2205898830948767,2.9748124617083906,0.7681194543838501,0.2632748484611511,0.5836776494979858, 154, 85, 5, 116
1731319911449,9i,6.685635856992004,1.1s : 0.4s,14.181788177536774,0.02823522646025924,0.913109871810782,0.5231256277337725,1.5189287662506104,1.1354888677597046,0.042016856372356415,-0.20670819282531738,0.41555055975914,0.24135011434555054,-0.2777657483496272,2.2316157827052763,2.9642518888609724,0.7592288255691528,0.2742077112197876,0.5902387499809265, 154, 85, 5, 116
1731319911459,9i,6.685635856992004,1.1s : 0.4s,14.181788177536774,0.03761003759035134,1.0712443235651412,0.6056295597020507,1.620922565460205,1.4184242486953735,-0.04062742367386818,-0.22184407711029053,0.47546467185020447,0.30249911546707153,-0.2898850304444309,2.244977930953286,2.953822380059897,0.7486231923103333,0.28584206104278564,0.5982121229171753, 154, 85, 5, 116
1731319911469,9i,6.685635856992004,1.1s : 0.4s,14.181788177536774,0.04888872373744787,1.2742664908722365,0.7138852946776518,1.9403327703475952,1.7418971061706543,-0.137827068567276,-0.259315550327301,0.5462217926979065,0.37951207160949707,-0.3038931896267257,2.259359989675515,2.9416015919652487,0.7367784380912781,0.2992372512817383,0.6063128709793091, 154, 85, 5, 116
1731319911479,9i,6.685635856992004,1.1s : 0.4s,14.181788177536774,0.062081502425836786,1.541051789824824,0.7958538605933112,2.467588186264038,2.065434694290161,-0.22873540222644806,-0.3264692425727844,0.5839598178863525,0.431036114692688,-0.32079067411997936,2.2741634964730073,2.9260724450438764,0.7237624526023865,0.3153170049190521,0.6137945652008057, 154, 85, 5, 116
1731319911489,9i,6.685635856992004,1.1s : 0.4s,14.181788177536774,0.07791494925342723,1.8501446857341293,0.9863754360966323,2.979123830795288,2.3863468170166016,-0.37000414729118347,-0.4604135751724243,0.7078698873519897,0.5097804069519043,-0.34141879912993733,2.2890713864874477,2.9063697409358507,0.7094829082489014,0.3348243236541748,0.6201027631759644, 154, 85, 5, 116
1731319911499,9i,6.685635856992004,1.1s : 0.4s,14.181788177536774,0.09741307418210056,2.177789746844673,1.2571599752841147,3.425929069519043,2.6853508949279785,-0.5711507797241211,-0.613010585308075,0.9025551080703735,0.6245506405830383,-0.365998654123622,2.3047316717885176,2.8837957154441867,0.6933634877204895,0.35788199305534363,0.6254344582557678, 154, 85, 5, 116
1731319911509,9i,6.685635856992004,1.1s : 0.4s,14.181788177536774,0.12094125615889083,2.4931510424428986,1.4780574581164112,3.698305130004883,2.9847891330718994,-0.8034111857414246,-0.7462811470031738,1.0420548915863037,0.7360977530479431,-0.3944397361058602,2.321779170298122,2.859543957573141,0.6748854517936707,0.38429099321365356,0.6299610137939453, 154, 85, 5, 116
1731319911519,9i,6.685635856992004,1.1s : 0.4s,14.181788177536774,0.14810565936242928,2.7874488188959097,1.6096895980612613,3.852367401123047,3.3157196044921875,-1.0469136238098145,-0.8663756847381592,1.0608844757080078,0.8455873131752014,-0.4260558366322461,2.3415702617600274,2.8355851954697866,0.6532410383224487,0.41328245401382446,0.6344088315963745, 154, 85, 5, 116
1731319911529,9i,6.685635856992004,1.1s : 0.4s,14.181788177536774,0.1783741803974966,3.075240444351322,1.7033538153749994,4.072910308837891,3.6206891536712646,-1.2719504833221436,-0.9684476852416992,1.045393943786621,0.9330995678901672,-0.46097899590078584,2.3646302005254687,2.8123920240874676,0.6279324293136597,0.44482511281967163,0.6386169195175171, 154, 85, 5, 116
1731319911539,9i,6.685635856992004,1.1s : 0.4s,14.181788177536774,0.21113927550641123,3.3729274599212706,1.7486287765209425,4.3779144287109375,3.9382927417755127,-1.4768273830413818,-1.0189931392669678,1.053070306777954,0.9541480541229248,-0.49998868763585697,2.390850574112198,2.7895556007260867,0.5986743569374084,0.479415625333786,0.6416772603988647, 154, 85, 5, 116
1731319911549,9i,6.685635856992004,1.1s : 0.4s,14.181788177536774,0.24561807758512766,3.6795763313530654,1.732384201642524,4.681431293487549,4.283332824707031,-1.6489206552505493,-1.0048863887786865,1.0725501775741577,0.9170575141906738,-0.543204267292837,2.4203099532033403,2.7670832295528904,0.565295934677124,0.5168817043304443,0.6428639888763428, 154, 85, 5, 116
1731319911559,9i,6.685635856992004,1.1s : 0.4s,14.181788177536774,0.28123514400803823,3.972462232061172,1.7153689596905917,4.832348346710205,4.575385093688965,-2.0105204582214355,-0.9455419182777405,1.1007039546966553,0.9148179888725281,-0.5911499256179914,2.4538035637854563,2.746374314451045,0.527100145816803,0.5573161840438843,0.6415330171585083, 154, 85, 5, 116
1731319911569,9i,6.685635856992004,1.1s : 0.4s,14.181788177536774,0.3178539047942859,4.257945141422159,1.7517574841871213,4.983091354370117,4.830239295959473,-2.45292329788208,-0.8631850481033325,1.1241705417633057,1.0294690132141113,-0.6432675677423335,2.4919296282126293,2.730313265353895,0.48401930928230286,0.5998131632804871,0.6371418237686157, 154, 85, 5, 116
1731319911579,9i,6.685635856992004,1.1s : 0.4s,14.181788177536774,0.3559111858047375,4.5018735359599535,1.8788681510096727,4.963628768920898,4.950584888458252,-2.9156806468963623,-0.775946855545044,1.2274603843688965,1.1922218799591064,-0.699256247983663,2.5351240535150676,2.720603802782962,0.4362097978591919,0.6436486840248108,0.6288385391235352, 154, 85, 5, 116
1731319911589,9i,6.685635856992004,1.1s : 0.4s,14.181788177536774,0.39583039333604353,4.72519220090438,2.029898654544558,5.018983364105225,4.991376876831055,-3.428219795227051,-0.6582344770431519,1.409848928451538,1.3036648035049438,-0.7581277155318603,2.5841867520333026,2.7192597339000653,0.3841102421283722,0.6875631213188171,0.6162114143371582, 154, 85, 5, 116
1731319911599,9i,6.685635856992004,1.1s : 0.4s,14.181788177536774,0.4381092664532256,4.976640945563334,2.216761831769784,5.313938140869141,5.035459518432617,-4.0004377365112305,-0.5559167861938477,1.6403616666793823,1.383547306060791,-0.8212510271733018,2.64013322080949,2.7277381459548904,0.32750794291496277,0.7319987416267395,0.5974252820014954, 154, 85, 5, 116
1731319911609,9i,6.685635856992004,1.1s : 0.4s,14.181788177536774,0.48322805174590544,5.280144653149556,2.4179403112991533,5.666003704071045,5.218122482299805,-4.604554176330566,-0.4894883632659912,1.8237428665161133,1.5102312564849854,-0.8896123564090587,2.70699429777988,2.7485810580900836,0.2651382386684418,0.7768276929855347,0.5711744427680969, 154, 85, 5, 116
1731319911619,9i,6.685635856992004,1.1s : 0.4s,14.181788177536774,0.5316713602613506,5.674102957511965,2.635782933682005,6.185322284698486,5.667072772979736,-5.176235675811768,-0.43968042731285095,1.967261552810669,1.698209285736084,-0.9627193617261847,2.7912012034675024,2.786242962984687,0.1961042582988739,0.8207481503486633,0.5365778207778931, 154, 85, 5, 116
1731319911629,9i,6.685635856992004,1.1s : 0.4s,14.181788177536774,0.5834960734255613,6.039214786148056,2.828248985337276,6.074248790740967,5.908880233764648,-5.885634422302246,-0.3362853229045868,2.0228817462921143,1.9477818012237549,-1.0379506519606039,2.9037465297884597,2.8509402860287896,0.11968668550252914,0.861365020275116,0.49368560314178467, 154, 85, 5, 116
1731319911639,9i,6.685635856992004,1.1s : 0.4s,14.181788177536774,0.6381812911362427,6.326535910795542,2.9552832161946614,6.016118049621582,5.906914234161377,-6.200547695159912,-0.1644873321056366,2.023465156555176,2.147610664367676,-1.1068077292421237,3.0551928393239804,2.9561698528137272,0.03861745446920395,0.8942746520042419,0.4458495080471039, 154, 85, 5, 116
1731319911649,9i,6.685635856992004,1.1s : 0.4s,14.181788177536774,0.6954270497672915,6.604400961212481,3.0901460718144067,6.62918758392334,5.72355842590332,-6.3697428703308105,0.08488841354846954,2.226937770843506,2.140687942504883,-1.169144933986526,-3.032705145133005,3.1071171463259852,-0.04248436912894249,0.9204166531562805,0.38862431049346924, 154, 85, 5, 116
1731319911659,9i,6.685635856992004,1.1s : 0.4s,14.181788177536774,0.7539623020469705,6.869966597417257,3.095704915900522,7.049656867980957,5.44525671005249,-6.783730983734131,0.390281617641449,2.27671480178833,2.0609800815582275,-1.2204620144975213,-2.773938364384086,-2.9577571547755155,-0.12335975468158722,0.9392580389976501,0.3202759921550751, 154, 85, 5, 116
1731319911669,9i,6.685635856992004,1.1s : 0.4s,14.181788177536774,0.813281742238458,7.138783988776987,3.113786067686165,7.355485916137695,5.4575958251953125,-7.118382453918457,0.5774405598640442,2.235757350921631,2.0889267921447754,-1.2473858573253447,-2.4435565931633376,-2.6653459045740173,-0.20425653457641602,0.9481570720672607,0.24347074329853058, 154, 85, 5, 116
1731319911679,9i,6.685635856992004,1.1s : 0.4s,14.181788177536774,0.8743968287996438,7.37501636097686,3.3121264204663587,7.349831581115723,5.503176212310791,-7.460625171661377,0.6929703950881958,2.2775676250457764,2.3027503490448,-1.2383799339172383,-2.083781265264337,-2.343454068220449,-0.2843249440193176,0.9452565908432007,0.16015572845935822, 154, 85, 5, 116
1731319911689,9i,6.685635856992004,1.1s : 0.4s,14.181788177536774,0.9371199433176335,7.526524316464219,3.397815142453001,7.234378814697266,5.342431545257568,-7.576578617095947,0.8466924428939819,2.1917104721069336,2.454519271850586,-1.1929868570582776,-1.774416230738037,-2.07146350002581,-0.36126476526260376,0.9294748902320862,0.07459448277950287, 154, 85, 5, 116
1731319911699,9i,6.685635856992004,1.1s : 0.4s,14.181788177536774,1.0009305946208875,7.620568869481625,3.448291302013054,7.236884593963623,4.987033367156982,-7.732644557952881,1.0516722202301025,2.113764762878418,2.5133039951324463,-1.1229977410289296,-1.5422862294527064,-1.8745780610193794,-0.43280649185180664,0.901402473449707,-0.012342698872089386, 154, 85, 5, 116
1731319911709,9i,6.685635856992004,1.1s : 0.4s,14.181788177536774,1.065163253019331,7.637515984995607,3.476506828872886,6.995656490325928,4.531456470489502,-7.887624263763428,1.296815037727356,2.019160747528076,2.5154244899749756,-1.0373462243642335,-1.3786255945230532,-1.7429059057498657,-0.4991467595100403,0.8610578179359436,-0.09711988270282745, 154, 85, 5, 116
1731319911719,9i,6.685635856992004,1.1s : 0.4s,14.181788177536774,1.129953457691657,7.608054556240319,3.5410213677334794,7.04502010345459,4.145675182342529,-7.7524027824401855,1.478219985961914,2.0386874675750732,2.4894680976867676,-0.9441888736320517,-1.261663106294568,-1.6547419139375896,-0.5586035251617432,0.8100215792655945,-0.1784023493528366, 154, 85, 5, 116
1731319911729,9i,6.685635856992004,1.1s : 0.4s,14.181788177536774,1.1954238500482384,7.563664525752823,3.5920298013629584,7.273055553436279,3.6351702213287354,-7.644646167755127,1.6493475437164307,2.1395554542541504,2.367410659790039,-0.8473725419652189,-1.171999429465349,-1.5896621594433857,-0.61001056432724,0.7495437264442444,-0.25704365968704224, 154, 85, 5, 116
1731319911739,9i,6.685635856992004,1.1s : 0.4s,14.181788177536774,1.260582488849328,7.486703827971868,3.5210806385592854,7.29746675491333,2.9290719032287598,-7.634230136871338,1.8225138187408447,2.103189468383789,2.1570920944213867,-0.7475105537242636,-1.1042447406731415,-1.5405643376097589,-0.6550029516220093,0.6798151731491089,-0.32988259196281433, 154, 85, 5, 116
1731319911749,9i,6.685635856992004,1.1s : 0.4s,14.181788177536774,1.3251841437646454,7.369443537363288,3.480416387774077,7.23422908782959,2.2702600955963135,-7.494410037994385,1.9277784824371338,2.0500221252441406,2.048017978668213,-0.6466165755781725,-1.0546459075907073,-1.5032969007287527,-0.6941512823104858,0.6024894714355469,-0.39390408992767334, 154, 85, 5, 116
1731319911759,9i,6.685635856992004,1.1s : 0.4s,14.181788177536774,1.3904291045167723,7.22402434762231,3.4435889688097494,7.083669662475586,1.7092714309692383,-7.348867893218994,1.985225796699524,1.9993305206298828,1.9798638820648193,-0.546460628733708,-1.018656367432386,-1.4739651228217456,-0.7274134159088135,0.5196665525436401,-0.44812554121017456, 154, 85, 5, 116
1731319911769,9i,6.685635856992004,1.1s : 0.4s,14.181788177536774,1.4540832089195435,7.080717076065434,3.307852705585561,7.038931369781494,1.315403699874878,-7.167452812194824,1.9990921020507812,1.8922361135482788,1.834383487701416,-0.44750212119848215,-0.9924668034685281,-1.4501010402752574,-0.7549211978912354,0.43271496891975403,-0.49280011653900146, 154, 85, 5, 116
1731319911779,9i,6.685635856992004,1.1s : 0.4s,14.181788177536774,1.5157882907992206,6.950992226656313,3.1422948730447104,7.125415802001953,0.9574071764945984,-6.920639991760254,1.9606599807739258,1.7928118705749512,1.6779913902282715,-0.34975841878950015,-0.9728250515801006,-1.4282435772837596,-0.7764406800270081,0.34267085790634155,-0.5288824439048767, 154, 85, 5, 116
1731319911789,9i,6.685635856992004,1.1s : 0.4s,14.181788177536774,1.5757769811737494,6.823360016864834,3.0345148278371044,7.188206195831299,0.5149625539779663,-6.644937992095947,1.907651662826538,1.708599328994751,1.627830982208252,-0.25339300680906107,-0.9590848411027686,-1.4064621982500856,-0.7925242781639099,0.2506900429725647,-0.555931568145752, 154, 85, 5, 116
1731319911799,9i,6.685635856992004,1.1s : 0.4s,14.181788177536774,1.6342533565955626,6.65567919480755,2.949995499536547,6.92875862121582,0.04165652394294739,-6.373793125152588,1.8732188940048218,1.6068556308746338,1.6160258054733276,-0.15949036609383177,-0.9520980023942226,-1.3852850419872864,-0.804295003414154,0.15881505608558655,-0.5726144313812256, 154, 85, 5, 116
1731319911809,9i,6.685635856992004,1.1s : 0.4s,14.181788177536774,1.6909812597298812,6.4116064203809415,2.8457904840460544,6.290148735046387,-0.35835427045822144,-6.114152431488037,1.8651621341705322,1.4453957080841064,1.5907623767852783,-0.0703329387601862,-0.9515549985498022,-1.3668584549993863,-0.812305748462677,0.0702749639749527,-0.5789825320243835, 154, 85, 5, 116
1731319911819,9i,6.685635856992004,1.1s : 0.4s,14.181788177536774,1.7452649894317587,6.0917655048644175,2.6984380609014225,5.391326904296875,-0.7322756052017212,-5.937968730926514,1.869570255279541,1.2301377058029175,1.5076591968536377,0.012441015447697325,-0.9566494595658719,-1.35363657075342,-0.817202091217041,-0.012440694496035576,-0.5762168765068054, 154, 85, 5, 116
1731319911829,9i,6.685635856992004,1.1s : 0.4s,14.181788177536774,1.7965739933117564,5.7321893003381295,2.5520607565114846,4.5435333251953125,-0.9774613976478577,-5.755508899688721,1.8706763982772827,1.0335190296173096,1.3947839736938477,0.08868912455656942,-0.9656350482044512,-1.3458165145383112,-0.8191781044006348,-0.0885729044675827,-0.5666588544845581, 154, 85, 5, 116
1731319911839,9i,6.685635856992004,1.1s : 0.4s,14.181788177536774,1.8445668157359476,5.345825334062655,2.3991606849046816,3.75417423248291,-1.0918598175048828,-5.486706256866455,1.8568583726882935,0.9066523909568787,1.2190284729003906,0.1584437630835116,-0.9763026712368515,-1.342951885702313,-0.8180553317070007,-0.1577816605567932,-0.5530737042427063, 154, 85, 5, 116
1731319911849,9i,6.685635856992004,1.1s : 0.4s,14.181788177536774,1.8892911357001285,4.951869584818176,2.2743746771805453,3.1790950298309326,-1.1468408107757568,-5.087911128997803,1.8424859046936035,0.8852486610412598,0.9971763491630554,0.22149766891305564,-0.9872380296977423,-1.343093537002437,-0.8141199350357056,-0.2196909487247467,-0.5375357270240784, 154, 85, 5, 116
1731319911859,9i,6.685635856992004,1.1s : 0.4s,14.181788177536774,1.931460621470669,4.564497117101173,2.256129938633913,2.619359254837036,-1.3336468935012817,-4.726315975189209,1.8733799457550049,0.8990308046340942,0.8788136839866638,0.2783435278801618,-0.998933988909482,-1.345174376905038,-0.8085300922393799,-0.2747633159160614,-0.520369291305542, 154, 85, 5, 116
1731319911869,9i,6.685635856992004,1.1s : 0.4s,14.181788177536774,1.971403811535024,4.184448135747427,2.257262098618968,2.059828758239746,-1.5426658391952515,-4.343002796173096,1.9429216384887695,0.8015025854110718,0.8233354687690735,0.32906139067523277,-1.0119743560884327,-1.3495838503989808,-0.8023881912231445,-0.32315492630004883,-0.5017411112785339, 154, 85, 5, 116
1731319911878,9i,6.685635856992004,1.1s : 0.4s,14.181788177536774,2.008870943415826,3.8466255988216846,2.235705866890281,1.7073419094085693,-1.679807186126709,-4.026683807373047,2.0158376693725586,0.6321927309036255,0.7315132021903992,0.3745139071603431,-1.0258854527184713,-1.355233357901234,-0.7958976626396179,-0.36582016944885254,-0.48241332173347473, 154, 85, 5, 116
1731319911888,9i,6.685635856992004,1.1s : 0.4s,14.181788177536774,2.043466306378314,3.509096685928983,2.189435999774421,1.1469202041625977,-1.7284109592437744,-3.6601123809814453,2.0548577308654785,0.44367867708206177,0.6118324398994446,0.41479124589887506,-1.0397163721446065,-1.3630497549992961,-0.7891412973403931,-0.4029988944530487,-0.46351686120033264, 154, 85, 5, 116
1731319911898,9i,6.685635856992004,1.1s : 0.4s,14.181788177536774,2.0756738287921426,3.1838304450445603,2.1400814669685198,0.862738311290741,-1.6668733358383179,-3.2268002033233643,2.0232326984405518,0.3075939118862152,0.6259905099868774,0.4493321053288524,-1.052694508434069,-1.372147570218143,-0.782525360584259,-0.4343640208244324,-0.4460739493370056, 154, 85, 5, 116
1731319911908,9i,6.685635856992004,1.1s : 0.4s,14.181788177536774,2.105539587142793,2.9452814745774254,2.072469771212148,0.8030685186386108,-1.547868251800537,-3.1780612468719482,1.9758107662200928,0.1495770514011383,0.6073956489562988,0.4810415248980042,-1.0646009540502994,-1.3810895890084267,-0.775340735912323,-0.46270275115966797,-0.4298289716243744, 154, 85, 5, 116
1731319911918,9i,6.685635856992004,1.1s : 0.4s,14.181788177536774,2.132138954181398,2.748786038852524,1.9520815497278299,0.6794086694717407,-1.2780506610870361,-3.1331534385681152,1.8599982261657715,-0.1675553023815155,0.5682905912399292,0.5124479656262635,-1.0740691235723157,-1.3904724441747438,-0.7662177085876465,-0.49031221866607666,-0.41533637046813965, 154, 85, 5, 116
1731319911928,9i,6.685635856992004,1.1s : 0.4s,14.181788177536774,2.1555773033993884,2.5403818389938873,1.8508373277608816,0.5109520554542542,-1.1330546140670776,-2.8302578926086426,1.7225675582885742,-0.35432761907577515,0.5768983960151672,0.5415551008332612,-1.080714859176748,-1.400413297357404,-0.7560452818870544,-0.5154691934585571,-0.4033447206020355, 154, 85, 5, 116
1731319911938,9i,6.685635856992004,1.1s : 0.4s,14.181788177536774,2.177535831004414,2.3272658896409273,1.85278401476192,0.3767918348312378,-1.249436616897583,-2.432126760482788,1.7258391380310059,-0.2738282084465027,0.6158782243728638,0.5667786404995435,-1.0872832549450435,-1.4100177195547894,-0.7469267845153809,-0.5369172096252441,-0.3921995162963867, 154, 85, 5, 116
1731319911948,9i,6.685635856992004,1.1s : 0.4s,14.181788177536774,2.1997960647858275,2.1301466748308773,1.9278825042616854,0.2793126106262207,-1.322468638420105,-2.13820219039917,1.80349600315094,-0.22783297300338745,0.6420477032661438,0.5885146088301392,-1.0953956933729043,-1.4185209225107944,-0.7395312190055847,-0.5551261305809021,-0.38069501519203186, 154, 85, 5, 116
1731319911958,9i,6.685635856992004,1.1s : 0.4s,14.181788177536774,2.2210975667571042,1.9444143325221679,1.9012209569289178,-0.11922039091587067,-1.3066515922546387,-1.9342341423034668,1.767800211906433,-0.3533982038497925,0.6038486957550049,0.6070107613915173,-1.1028028891019808,-1.4283160362120477,-0.7330406308174133,-0.5704147815704346,-0.37051111459732056, 154, 85, 5, 116
1731319911968,9i,6.685635856992004,1.1s : 0.4s,14.181788177536774,2.2405580205865743,1.7644639106704332,1.7469058399679929,-0.7114877104759216,-1.1685774326324463,-1.7317228317260742,1.591139793395996,-0.477022647857666,0.5407435297966003,0.6215031594669319,-1.1068098150023347,-1.4425070887162528,-0.7270498275756836,-0.582257866859436,-0.3638329803943634, 154, 85, 5, 116
1731319911978,9i,6.685635856992004,1.1s : 0.4s,14.181788177536774,2.2577499814889572,1.6001018137874157,1.536741260590816,-1.2675021886825562,-0.9129065275192261,-1.4939686059951782,1.341930866241455,-0.5566733479499817,0.5009092092514038,0.6314864250375715,-1.1056660068154829,-1.4620952170555421,-0.7214016914367676,-0.5903452038764954,-0.36203885078430176, 154, 85, 5, 116
1731319911988,9i,6.685635856992004,1.1s : 0.4s,14.181788177536774,2.272160376533346,1.4602237532108773,1.3356882330401534,-1.7976921796798706,-0.5640823245048523,-1.1557449102401733,1.0939327478408813,-0.636260449886322,0.4272550046443939,0.6364328629976339,-1.0985177323339939,-1.4863794868518956,-0.7161861062049866,-0.5943304896354675,-0.3658534586429596, 154, 85, 5, 116
1731319911998,9i,6.685635856992004,1.1s : 0.4s,14.181788177536774,2.283893343445622,1.3336341242143375,1.1269830714549043,-1.9188265800476074,-0.2727609872817993,-0.6989632248878479,0.8749035596847534,-0.6145200729370117,0.35637015104293823,0.6359923995299032,-1.0870317777766552,-1.5123598292244291,-0.7121686339378357,-0.5939761996269226,-0.3741770386695862, 154, 85, 5, 116
1731319912008,9i,6.685635856992004,1.1s : 0.4s,14.181788177536774,2.2935483638876777,1.1835630330242384,0.9220944234159448,-1.6249895095825195,-0.10577456653118134,-0.23327217996120453,0.731918215751648,-0.48945873975753784,0.2738320529460907,0.6316561422682397,-1.0756242679008206,-1.5343849410033172,-0.7101134061813354,-0.5904821753501892,-0.38349682092666626, 154, 85, 5, 116
1731319912018,9i,6.685635856992004,1.1s : 0.4s,14.181788177536774,2.3013152983270717,1.019103539399704,0.7947172178450433,-1.2681753635406494,-0.07211141288280487,0.11666000634431839,0.6457518339157104,-0.42959386110305786,0.17328917980194092,0.6252109634975486,-1.0671174929742584,-1.5500740720437527,-0.7101439237594604,-0.5852683186531067,-0.39135241508483887, 154, 85, 5, 116
1731319912028,9i,6.685635856992004,1.1s : 0.4s,14.181788177536774,2.307191703412808,0.8783285324339308,0.7349752885781858,-1.1256064176559448,0.010435663163661957,0.4801366627216339,0.5674439072608948,-0.4527878761291504,0.11480081081390381,0.616991972847775,-1.0611990393868829,-1.560729821036561,-0.7119904160499573,-0.5785843729972839,-0.39788171648979187, 154, 85, 5, 116
1731319912038,9i,6.685635856992004,1.1s : 0.4s,14.181788177536774,2.3111720260758424,0.8282784379860804,0.7007378153341334,-1.2327868938446045,0.2160777598619461,1.028739094734192,0.46936988830566406,-0.5109065771102905,0.09848788380622864,0.604811567666357,-1.0554833991559394,-1.5685607943034932,-0.7157840132713318,-0.5686070919036865,-0.4053877294063568, 154, 85, 5, 116
1731319912048,9i,6.685635856992004,1.1s : 0.4s,14.181788177536774,2.313287179310192,0.91356920076332,0.6995095600301261,-1.3252323865890503,0.42096957564353943,1.63270902633667,0.3948061466217041,-0.5722370147705078,0.07737267017364502,0.5868853181652225,-1.0492959585288817,-1.573673656624681,-0.7219850420951843,-0.5537701845169067,-0.41482070088386536, 154, 85, 5, 116
1731319912058,9i,6.685635856992004,1.1s : 0.4s,14.181788177536774,2.3138805409524648,1.1095335701835818,0.7262344982959918,-1.410766363143921,0.6689788699150085,2.088850498199463,0.3925110697746277,-0.6082730293273926,0.05792692303657532,0.5638660774112215,-1.042230310285422,-1.5764275401098358,-0.7298523187637329,-0.534457802772522,-0.42622819542884827, 154, 85, 5, 116
1731319912068,9i,6.685635856992004,1.1s : 0.4s,14.181788177536774,2.3135279685007357,1.340537524200904,0.7366566915683952,-1.3886014223098755,0.8290383219718933,2.467783212661743,0.43572402000427246,-0.5928311944007874,0.03686237335205078,0.5371348104885508,-1.0343479804862072,-1.5767922110793098,-0.7384889721870422,-0.5116763710975647,-0.43911442160606384, 154, 85, 5, 116
1731319912078,9i,6.685635856992004,1.1s : 0.4s,14.181788177536774,2.313062055559916,1.5679972131464393,0.7083639987225764,-1.3109718561172485,0.9081578254699707,2.7954320907592773,0.5091784000396729,-0.49216488003730774,0.017048239707946777,0.5076291636732029,-1.0267661526964815,-1.5742758369354044,-0.7477343082427979,-0.4861067533493042,-0.4523203372955322, 154, 85, 5, 116
1731319912088,9i,6.685635856992004,1.1s : 0.4s,14.181788177536774,2.313017787354659,1.7863976608098988,0.7224235264876637,-1.215627670288086,1.0103462934494019,3.1067941188812256,0.6207374930381775,-0.3692910373210907,-0.014312446117401123,0.47594428975976716,-1.0196834754056199,-1.5687956692639153,-0.7572579383850098,-0.45817798376083374,-0.4654390513896942, 154, 85, 5, 116
1731319912098,9i,6.685635856992004,1.1s : 0.4s,14.181788177536774,2.313971772503697,2.0140631434688676,0.7920263484923712,-1.1968553066253662,1.1442253589630127,3.459522247314453,0.7179093956947327,-0.3345111012458801,-0.0037629008293151855,0.44179050902641354,-1.0124304361964658,-1.56069213610291,-0.7666918039321899,-0.4275587499141693,-0.47893354296684265, 154, 85, 5, 116
1731319912108,9i,6.685635856992004,1.1s : 0.4s,14.181788177536774,2.31603472345557,2.2561623155777912,0.8912359847737626,-1.2309978008270264,1.2929167747497559,3.8342456817626953,0.7961438894271851,-0.39389723539352417,0.07281109690666199,0.4045542045374752,-1.0043770679050865,-1.5504289352679688,-0.7757123708724976,-0.3936089873313904,-0.49329739809036255, 154, 85, 5, 116
1731319912118,9i,6.685635856992004,1.1s : 0.4s,14.181788177536774,2.319492992973538,2.504234591251854,1.0098449193544035,-1.2429351806640625,1.3892176151275635,4.217892646789551,0.8858441710472107,-0.45006537437438965,0.1802998185157776,0.36402823688196084,-0.9955064009953929,-1.5382386845458542,-0.7840529084205627,-0.3560413718223572,-0.5084248185157776, 154, 85, 5, 116
1731319912128,9i,6.685635856992004,1.1s : 0.4s,14.181788177536774,2.324976008463869,2.7436166859522118,1.1227323806916927,-1.2034252882003784,1.4159389734268188,4.572128772735596,0.9951534867286682,-0.4255438446998596,0.29851293563842773,0.3206291338680057,-0.9864001983044246,-1.523466242148657,-0.791540265083313,-0.3151637017726898,-0.5235799551010132, 154, 85, 5, 116
1731319912138,9i,6.685635856992004,1.1s : 0.4s,14.181788177536774,2.332869160656948,2.9780075867955387,1.2269068112724733,-1.2226370573043823,1.4383121728897095,4.912342548370361,1.1166260242462158,-0.3591233193874359,0.35982924699783325,0.27457836807223085,-0.9771488614936757,-1.5063855602942866,-0.7978547811508179,-0.2711411118507385,-0.538433313369751, 154, 85, 5, 116
1731319912148,9i,6.685635856992004,1.1s : 0.4s,14.181788177536774,2.34316015234622,3.222378524928544,1.3227555090062988,-1.3206936120986938,1.5007182359695435,5.291255474090576,1.2233037948608398,-0.3187282085418701,0.3893870711326599,0.22538097644315067,-0.9671246573002059,-1.487459301952036,-0.8024359345436096,-0.22347772121429443,-0.5533121228218079, 154, 85, 5, 116
1731319912158,9i,6.685635856992004,1.1s : 0.4s,14.181788177536774,2.3558121286772775,3.4746526964626754,1.4284650032905737,-1.5463112592697144,1.5465041399002075,5.647427082061768,1.319258689880371,-0.3160400986671448,0.4474231004714966,0.1724694299892938,-0.9558773074772884,-1.467398608282179,-0.8047018647193909,-0.17161566019058228,-0.568333625793457, 154, 85, 5, 116
1731319912168,9i,6.685635856992004,1.1s : 0.4s,14.181788177536774,2.37082212705305,3.728846023471026,1.5448829116928888,-1.8404573202133179,1.5811212062835693,5.968659400939941,1.4142322540283203,-0.33429038524627686,0.5242711901664734,0.1154595011033093,-0.9431419515970438,-1.4470910413204534,-0.8040181398391724,-0.1152031421661377,-0.5833379030227661, 154, 85, 5, 116
1731319912178,9i,6.685635856992004,1.1s : 0.4s,14.181788177536774,2.3883172489784332,3.9789217494724696,1.6594604106282778,-2.0481810569763184,1.6321529150009155,6.277631759643555,1.5097957849502563,-0.3272266089916229,0.6060101389884949,0.05465191098575599,-0.9288877177749086,-1.4265758614217177,-0.7997586727142334,-0.054624710232019424,-0.5978313088417053, 154, 85, 5, 116
1731319912188,9i,6.685635856992004,1.1s : 0.4s,14.181788177536774,2.408528131058632,4.218870364086361,1.7737676331062213,-1.915245532989502,1.675786018371582,6.652069091796875,1.6150233745574951,-0.27871063351631165,0.6784331202507019,-0.008782656816498884,-0.912820812837276,-1.403387886838531,-0.7912013530731201,0.008782544173300266,-0.6114926934242249, 154, 85, 5, 116
1731319912198,9i,6.685635856992004,1.1s : 0.4s,14.181788177536774,2.4316311720774157,4.438202906621724,1.8846084594371812,-1.6784263849258423,1.6783593893051147,6.991938591003418,1.7330384254455566,-0.1930432766675949,0.714885413646698,-0.07346505458139456,-0.8948176742601827,-1.3753141045172559,-0.7779908180236816,0.07339899241924286,-0.6239734292030334, 154, 85, 5, 116
1731319912208,9i,6.685635856992004,1.1s : 0.4s,14.181788177536774,2.4576501163074935,4.627417771540641,1.9830043296758324,-1.4998012781143188,1.6103384494781494,7.2391533851623535,1.8594651222229004,-0.05859114229679108,0.686485767364502,-0.1384395590391212,-0.8749384751773341,-1.3423344328149065,-0.7601610422134399,0.13799777626991272,-0.6349109411239624, 154, 85, 5, 116
1731319912218,9i,6.685635856992004,1.1s : 0.4s,14.181788177536774,2.486790430699922,4.815745937511712,2.093393993306288,-1.4574629068374634,1.6518754959106445,7.524662971496582,1.971280813217163,0.09589935839176178,0.6979639530181885,-0.20395833179980094,-0.8523283738933378,-1.3051288540111425,-0.7372111082077026,0.20254719257354736,-0.6445886492729187, 154, 85, 5, 116
1731319912228,9i,6.685635856992004,1.1s : 0.4s,14.181788177536774,2.519122584531053,5.022125555579372,2.2049782519320935,-1.6270520687103271,1.7406152486801147,7.849768161773682,2.0552144050598145,0.1594334840774536,0.7826901078224182,-0.27126439021513504,-0.8258061438603057,-1.2641532153447916,-0.708214282989502,0.26794981956481934,-0.6531733870506287, 154, 85, 5, 116
1731319912238,9i,6.685635856992004,1.1s : 0.4s,14.181788177536774,2.554375519600192,5.241579983825604,2.295072571716323,-1.872812271118164,1.9380055665969849,8.139227867126465,2.1208958625793457,0.15079328417778015,0.8639561533927917,-0.34118494032703195,-0.7941436510316491,-1.2199225059580892,-0.6721503138542175,0.3346039652824402,-0.660495400428772, 154, 85, 5, 116
1731319912248,9i,6.685635856992004,1.1s : 0.4s,14.181788177536774,2.592357232582909,5.457742257426437,2.3790235642310833,-2.1124563217163086,2.103255271911621,8.371718406677246,2.1784896850585938,0.1510012447834015,0.943999171257019,-0.4130419982412809,-0.7561503557741173,-1.171788121139288,-0.6284255385398865,0.40139734745025635,-0.666304349899292, 154, 85, 5, 116
1731319912258,9i,6.685635856992004,1.1s : 0.4s,14.181788177536774,2.6333537468132553,5.6846191009101315,2.5041886774868636,-2.365751028060913,2.277712106704712,8.662969589233398,2.253568410873413,0.19277837872505188,1.074814796447754,-0.4865640062696038,-0.7109793089815691,-1.118536359878014,-0.5768412947654724,0.46759143471717834,-0.6697854399681091, 154, 85, 5, 116
1731319912268,9i,6.685635856992004,1.1s : 0.4s,14.181788177536774,2.6779361104655264,5.932781403950433,2.6689570189458447,-2.5979106426239014,2.5343737602233887,9.006841659545898,2.360252618789673,0.3145182132720947,1.2056605815887451,-0.5615299620209537,-0.6565694888097019,-1.057957559264683,-0.5166705250740051,0.532481849193573,-0.6704585552215576, 154, 85, 5, 116
1731319912278,9i,6.685635856992004,1.1s : 0.4s,14.181788177536774,2.726267971456625,6.195557084856612,2.8275409558106612,-2.863325834274292,2.803678512573242,9.33162784576416,2.503556966781616,0.4881736636161804,1.2201954126358032,-0.6370402909005755,-0.58995535072452,-0.9874112995952082,-0.4472064673900604,0.5948188304901123,-0.6679798364639282, 154, 85, 5, 116
1731319912288,9i,6.685635856992004,1.1s : 0.4s,14.181788177536774,2.7785456424376664,6.489081320310719,2.996330506063341,-3.5912363529205322,3.0310935974121094,9.633885383605957,2.6348259449005127,0.6570709943771362,1.2664700746536255,-0.7135995144618843,-0.5092779913081974,-0.9055085226755797,-0.368590772151947,0.6545592546463013,-0.660070538520813, 154, 85, 5, 116
1731319912298,9i,6.685635856992004,1.1s : 0.4s,14.181788177536774,2.835561719256533,6.86630024847985,3.2322925995225735,-4.901270866394043,3.1864700317382812,10.053625106811523,2.7548513412475586,0.822033703327179,1.4774200916290283,-0.7952273627847589,-0.4131739029058974,-0.8109711347915636,-0.2811118960380554,0.7140228152275085,-0.6412079334259033, 154, 85, 5, 116
1731319912308,9i,6.685635856992004,1.1s : 0.4s,14.181788177536774,2.8983943843827613,7.333747618529201,3.5528246641449504,-6.791475296020508,3.1084346771240234,10.347297668457031,2.9125492572784424,0.9807197451591492,1.7826409339904785,-0.8848616513126835,-0.2971443639276363,-0.6978439018730475,-0.18545277416706085,0.7738273739814758,-0.6056389808654785, 154, 85, 5, 116
1731319912318,9i,6.685635856992004,1.1s : 0.4s,14.181788177536774,2.9670311362766024,7.988878865822002,3.8315821357870163,-10.208873748779297,2.754070997238159,10.28686237335205,3.1697981357574463,1.0265655517578125,1.8919737339019775,-0.989894483420673,-0.15575043372616712,-0.5597836101080544,-0.08512729406356812,0.8359680771827698,-0.5421354174613953, 154, 85, 5, 116
1731319912328,9i,6.685635856992004,1.1s : 0.4s,14.181788177536774,3.0411734785224716,8.894922574873876,4.115052353678614,-14.83962345123291,1.2967729568481445,9.363449096679688,3.5193207263946533,1.0194059610366821,1.8731921911239624,-1.1212706655446607,0.02429437278955877,-0.3771897065742026,0.010555805638432503,0.9006533026695251,-0.43441042304039, 154, 85, 5, 116
1731319912338,9i,6.685635856992004,1.1s : 0.4s,14.181788177536774,3.121903550526382,10.133912231961816,4.584771025632574,-18.733253479003906,-0.9769173860549927,8.740316390991211,3.9949305057525635,1.0568060874938965,1.9859044551849365,-1.2729852384144993,0.3302101880280124,-0.05246982495492982,0.0951419323682785,0.9559810757637024,-0.27757617831230164, 154, 85, 5, 116
1731319912348,9i,6.685635856992004,1.1s : 0.4s,14.181788177536774,3.211130222410376,11.464574744434515,5.300492102296811,-20.5499210357666,-3.322781801223755,8.789178848266602,4.756765842437744,1.0684646368026733,2.0800909996032715,-1.3723741302824568,1.1071116428298147,0.7673957799115938,0.1763090342283249,0.9803788065910339,-0.08816269040107727, 154, 85, 5, 116
1731319912358,9i,6.685635856992004,1.1s : 0.4s,14.181788177536774,3.31220446792402,12.3766502256495,6.342644206918638,-19.64583396911621,-5.22582483291626,8.819268226623535,5.814120769500732,1.1891727447509766,2.2385270595550537,-1.2864483118668542,1.9361106220009106,1.660488399864704,0.2620202898979187,0.9598447680473328,0.10021811723709106, 154, 85, 5, 116
1731319912368,9i,6.685635856992004,1.1s : 0.4s,14.181788177536774,3.431568847881688,12.928300973832771,7.599452423056814,-19.06678581237793,-7.072843074798584,7.68085241317749,6.610262870788574,2.0702574253082275,3.1257216930389404,-1.119008253340805,2.2062335249822302,2.0142810171828907,0.3513614237308502,0.8996679186820984,0.25912046432495117, 154, 85, 5, 116
1731319912378,9i,6.685635856992004,1.1s : 0.4s,14.181788177536774,3.572915629974977,13.296888059993359,8.624870134787368,-19.983522415161133,-7.027295112609863,4.673160076141357,6.466118335723877,3.2731356620788574,4.6759257316589355,-0.9454705595785589,2.318068129150059,2.227362171050974,0.42938947677612305,0.8107724785804749,0.3978351056575775, 154, 85, 5, 116
1731319912388,9i,6.685635856992004,1.1s : 0.4s,14.181788177536774,3.729256419431613,14.018530629810748,8.587978803234888,-23.130264282226562,-7.779485702514648,0.918118417263031,5.2302165031433105,3.3559746742248535,5.927533149719238,-0.7723605923191608,2.3969478354583735,2.4272287926068126,0.485420823097229,0.6978279948234558,0.5266906023025513, 154, 85, 5, 116
1731319912398,9i,6.685635856992004,1.1s : 0.4s,14.181788177536774,3.893227597641365,14.961345640410077,8.567485893699978,-24.41514778137207,-10.741832733154297,-1.995328426361084,4.312239646911621,2.1138086318969727,7.094943046569824,-0.5968057532911846,2.440703568818929,2.6402013371946333,0.5334175229072571,0.5620032548904419,0.6321540474891663, 154, 85, 5, 116
1731319912408,9i,6.685635856992004,1.1s : 0.4s,14.181788177536774,4.072027697965168,14.67882900338208,10.585502597754278,-18.02429962158203,-12.28555965423584,-2.007795810699463,4.122882843017578,2.243788480758667,9.487893104553223,-0.44489175998077135,2.410820153614405,2.8207444901955716,0.6024743914604187,0.43036016821861267,0.6721721291542053, 154, 85, 5, 116
1731319912418,9i,6.685635856992004,1.1s : 0.4s,14.181788177536774,4.2680030973347005,13.160292153615984,12.318391223875912,-10.72661304473877,-11.02778434753418,-2.734833002090454,3.0179781913757324,3.3305699825286865,11.469170570373535,-0.360230262170204,2.3426778375846493,2.9443414994958625,0.670605480670929,0.35248973965644836,0.6527174711227417, 154, 85, 5, 116
1731319912428,9i,6.685635856992004,1.1s : 0.4s,14.181788177536774,4.463826677909334,12.207490251825671,11.290705356886651,-10.551146507263184,-11.283872604370117,-3.0132641792297363,0.42715179920196533,4.344175815582275,10.412766456604004,-0.3129300362822995,2.265082409518234,3.044882789183877,0.7311886548995972,0.3078477084636688,0.6087638735771179, 154, 85, 5, 116
1731319912437,9i,6.685635856992004,1.1s : 0.4s,14.181788177536774,4.643004559079872,11.89377184696139,8.960113047466493,-12.058058738708496,-11.141105651855469,-5.438882350921631,-1.0372307300567627,4.019836902618408,7.9403204917907715,-0.27675830484789227,2.1862134316426953,-3.1186496318366053,0.7854607701301575,0.27323874831199646,0.5553308725357056, 154, 85, 5, 116
1731319912447,9i,6.685635856992004,1.1s : 0.4s,14.181788177536774,4.798849508191699,11.814683323719102,6.644721003663391,-13.184520721435547,-9.164684295654297,-8.577886581420898,-0.2826921343803406,0.08953294157981873,6.638101100921631,-0.2652827454707172,2.124117580696719,-2.9689108838885847,0.8210223317146301,0.2621821463108063,0.5071325898170471, 154, 85, 5, 116
1731319912457,9i,6.685635856992004,1.1s : 0.4s,14.181788177536774,4.930746477473527,11.695484768114893,6.826695484051837,-10.664750099182129,-8.060697555541992,-11.481439590454102,-0.8144901990890503,-1.9933438301086426,6.478190898895264,-0.29010531511789434,2.0791546168261967,-2.8103576838038054,0.8370428681373596,0.2860531508922577,0.4664047360420227, 154, 85, 5, 116
1731319912467,9i,6.685635856992004,1.1s : 0.4s,14.181788177536774,5.044392881769004,11.329071858872489,6.353343283096786,-8.28642749786377,-7.942882061004639,-13.684977531433105,-2.4142818450927734,0.8589285612106323,5.813643932342529,-0.35242301342395027,2.0372049463978192,-2.6671024397841916,0.8382930159568787,0.3451729118824005,0.42204368114471436, 154, 85, 5, 116
1731319912477,9i,6.685635856992004,1.1s : 0.4s,14.181788177536774,5.1473718765193235,11.366900789005419,5.845252130577881,-7.429940700531006,-7.587377548217773,-15.514304161071777,-1.9957094192504883,2.7670187950134277,4.746337890625,-0.44464789500751245,2.0108515741104194,-2.5248430500818677,0.8167545795440674,0.43014004826545715,0.3845672905445099, 154, 85, 5, 116
1731319912487,9i,6.685635856992004,1.1s : 0.4s,14.181788177536774,5.24493637445738,11.541464126690077,5.464169171512458,-5.720138072967529,-6.673965930938721,-17.238317489624023,-1.1951539516448975,3.3191945552825928,4.172732830047607,-0.5648601674199654,2.0095096893115785,-2.377508845934464,0.7646732330322266,0.535297691822052,0.35879209637641907, 154, 85, 5, 116
1731319912497,9i,6.685635856992004,1.1s : 0.4s,14.181788177536774,5.337873269893698,11.6976554803851,4.81374013440448,-3.7018823623657227,-5.19435977935791,-18.33611297607422,-0.49776601791381836,3.3513245582580566,3.419495105743408,-0.7050809669537214,2.038631584564622,-2.228896578896186,0.6797271370887756,0.6480954885482788,0.3434291481971741, 154, 85, 5, 116
1731319912507,9i,6.685635856992004,1.1s : 0.4s,14.181788177536774,5.429253771086855,11.740048901563727,4.373983197322251,-1.085475206375122,-3.72094988822937,-18.69756317138672,0.9182758927345276,3.2666711807250977,2.759956121444702,-0.8559975340057189,2.1032949849163893,-2.0747137491613614,0.5647106170654297,0.7552251219749451,0.33277177810668945, 154, 85, 5, 116
1731319912517,9i,6.685635856992004,1.1s : 0.4s,14.181788177536774,5.519933977574114,11.62002395485953,4.035442642916997,1.8254376649856567,-2.6119110584259033,-18.10541343688965,2.2175841331481934,2.351431131362915,2.416172504425049,-1.0124043295689524,2.2061221908700546,-1.9089718284227704,0.4264436662197113,0.848108172416687,0.3144185245037079, 154, 85, 5, 116
1731319912527,9i,6.685635856992004,1.1s : 0.4s,14.181788177536774,5.609911769288686,11.53271260310526,4.09985553721253,3.687983274459839,-2.4026901721954346,-17.512561798095703,2.8042473793029785,0.5709350109100342,2.935821056365967,-1.1661033160876952,2.361022828018359,-1.705740258312247,0.27706682682037354,0.9192233085632324,0.2797553837299347, 154, 85, 5, 116
1731319912537,9i,6.685635856992004,1.1s : 0.4s,14.181788177536774,5.696279938538146,11.335104982775796,4.2696326403802205,6.166595935821533,-1.607757806777954,-16.276824951171875,2.8084185123443604,-0.8657456636428833,3.097262144088745,-1.3070343738706733,2.6566078140352563,-1.3726839528969736,0.1215437799692154,0.9654160141944885,0.2306494265794754, 154, 85, 5, 116
1731319912547,9i,6.685635856992004,1.1s : 0.4s,14.181788177536774,5.771475691473743,11.263520121356263,4.4213063049871915,10.423410415649414,-1.2138959169387817,-15.183908462524414,2.4688475131988525,-2.652829647064209,2.5328316688537598,-1.4146669457495473,-2.9044154131619355,-0.6225855120666665,-0.03653547167778015,0.9878365397453308,0.15114355087280273, 154, 85, 5, 116
1731319912557,9i,6.685635856992004,1.1s : 0.4s,14.181788177536774,5.828717162376026,11.650395476628953,4.363530809373099,14.38162612915039,-1.3833789825439453,-14.812700271606445,2.163027763366699,-3.604769468307495,1.1693370342254639,-1.3769206075060174,-1.7342245116563675,0.5720155258808307,-0.1900966912508011,0.9812648892402649,0.03134673461318016, 154, 85, 5, 116
1731319912567,9i,6.685635856992004,1.1s : 0.4s,14.181788177536774,5.868212149026489,12.26434130104395,2.875721120427473,16.789981842041016,-1.6782857179641724,-13.970720291137695,1.5321100950241089,-2.4328837394714355,-0.05905361473560333,-1.2136467357669958,-1.2321348069297575,1.1048940621263976,-0.3297480046749115,0.9368971586227417,-0.11614766716957092, 154, 85, 5, 116
1731319912577,9i,6.685635856992004,1.1s : 0.4s,14.181788177536774,5.8989312807978,12.833352823908953,1.5111931527251459,17.7016544342041,-2.5463638305664062,-12.885605812072754,1.2682040929794312,-0.8208595514297485,0.03940457105636597,-1.0180528342747446,-1.0448666261694972,1.3352556547687355,-0.4540713131427765,0.8510873317718506,-0.26357129216194153, 154, 85, 5, 116
1731319912587,9i,6.685635856992004,1.1s : 0.4s,14.181788177536774,5.928388409866423,13.164177689593938,1.322976107365282,17.263498306274414,-3.83451247215271,-11.863048553466797,1.1636242866516113,0.19903606176376343,0.5971841812133789,-0.8197228704521059,-0.9689972893260329,1.4699195128939697,-0.5625346899032593,0.7309567332267761,-0.3863382041454315, 154, 85, 5, 116
1731319912597,9i,6.685635856992004,1.1s : 0.4s,14.181788177536774,5.96001166303983,13.114484379165916,1.7738234593598714,15.756733894348145,-4.786245346069336,-10.758641242980957,1.1046288013458252,1.1139616966247559,0.8278491497039795,-0.6320831242279584,-0.9500045708047492,1.5644477270956436,-0.65626460313797,0.590826690196991,-0.4692980647087097, 154, 85, 5, 116
1731319912607,9i,6.685635856992004,1.1s : 0.4s,14.181788177536774,5.996624820613372,12.689497864253823,2.587963338818138,14.019182205200195,-5.239326000213623,-9.363747596740723,1.3994369506835938,1.9769518375396729,0.9114778637886047,-0.4641406970829017,-0.9618364821816281,1.6390328143912278,-0.7334671020507812,0.4476545751094818,-0.5114992260932922, 154, 85, 5, 116
1731319912617,9i,6.685635856992004,1.1s : 0.4s,14.181788177536774,6.040323199250226,12.1232671659693,3.209711924966015,12.968289375305176,-5.370414733886719,-8.243396759033203,1.913362741470337,2.339632034301758,1.080470085144043,-0.3166335002951382,-0.9896485879112527,1.7067792986575394,-0.7942830920219421,0.3113691806793213,-0.5216931700706482, 154, 85, 5, 116
1731319912627,9i,6.685635856992004,1.1s : 0.4s,14.181788177536774,6.090250378683635,11.582108235181249,3.2841078408814526,12.497481346130371,-5.035213470458984,-7.629120826721191,2.193233013153076,2.1166298389434814,1.222690224647522,-0.18489806736500458,-1.0267348672116638,1.7769512464574895,-0.8410295844078064,0.1838463395833969,-0.5087925791740417, 154, 85, 5, 116
1731319912637,9i,6.685635856992004,1.1s : 0.4s,14.181788177536774,6.143924866556962,11.039720573210882,3.09467104511698,12.304444313049316,-4.329348087310791,-6.6827168464660645,2.254751443862915,1.7273274660110474,1.2285864353179932,-0.06599441980597864,-1.0709984609122611,1.8532732424460259,-0.8757689595222473,0.06594652682542801,-0.4782049357891083, 154, 85, 5, 116
1731319912647,9i,6.685635856992004,1.1s : 0.4s,14.181788177536774,6.198917325075667,10.507592843092338,2.8918127403232043,11.95903205871582,-4.414495468139648,-5.617151737213135,2.2436952590942383,1.4572213888168335,1.0976877212524414,0.041034084473034124,-1.1209293065123223,1.9341882587503094,-0.8997468948364258,-0.04102256894111633,-0.4344797432422638, 154, 85, 5, 116
1731319912657,9i,6.685635856992004,1.1s : 0.4s,14.181788177536774,6.25269690195965,10.031475225679166,2.6652180604861497,11.546043395996094,-4.32320499420166,-5.189840793609619,2.1961958408355713,1.2959784269332886,0.7749522924423218,0.1378142686703423,-1.1744341026363687,2.0191936825587553,-0.9137252569198608,-0.13737843930721283,-0.38240474462509155, 154, 85, 5, 116
1731319912667,9i,6.685635856992004,1.1s : 0.4s,14.181788177536774,6.303682219748686,9.550250726240893,2.356857799341616,11.019067764282227,-3.787992000579834,-4.811456680297852,1.9319216012954712,1.1967016458511353,0.6247901916503906,0.22503973282237832,-1.2312625140334348,2.1082235195722743,-0.9191349148750305,-0.22314509749412537,-0.3246499001979828, 154, 85, 5, 116
1731319912677,9i,6.685635856992004,1.1s : 0.4s,14.181788177536774,6.352433059554382,9.00183794579471,2.229349056564083,10.028315544128418,-3.419464588165283,-4.532451152801514,1.6534737348556519,1.3142013549804688,0.7133699059486389,0.30150629817193236,-1.2905941050380954,2.1977784546208743,-0.9176492094993591,-0.29695889353752136,-0.2640749216079712, 154, 85, 5, 116
1731319912687,9i,6.685635856992004,1.1s : 0.4s,14.181788177536774,6.401368578373422,8.29164820936094,2.466371230567341,8.472311973571777,-3.020922899246216,-4.107482433319092,1.5019137859344482,1.6572757959365845,1.0395570993423462,0.3663103607939527,-1.3501369157264442,2.281616406338412,-0.9110173583030701,-0.3581730127334595,-0.20435205101966858, 154, 85, 5, 116
1731319912697,9i,6.685635856992004,1.1s : 0.4s,14.181788177536774,6.452678588213423,7.453081613883814,2.7341924013677117,6.729044437408447,-2.6773321628570557,-3.847208023071289,1.3684483766555786,1.867091417312622,1.4550349712371826,0.4195607403591035,-1.4064677635912464,2.3542464828298493,-0.9009649157524109,-0.4073593318462372,-0.1494015008211136, 154, 85, 5, 116
1731319912707,9i,6.685635856992004,1.1s : 0.4s,14.181788177536774,6.5069571737369465,6.486812626929033,2.869321155035631,4.845564842224121,-2.150904893875122,-3.5125155448913574,1.3318727016448975,1.8255689144134521,1.7681677341461182,0.46427710738624817,-1.4550467366991606,2.411902504312287,-0.8881625533103943,-0.44777655601501465,-0.10326604545116425, 154, 85, 5, 116
1731319912717,9i,6.685635856992004,1.1s : 0.4s,14.181788177536774,6.564325127000472,5.551755729945663,2.9351336138495023,3.559128761291504,-1.726818561553955,-3.256829261779785,1.400787115097046,1.5529338121414185,2.059417724609375,0.5016602041562621,-1.4943045526628462,2.4547181048453472,-0.8742218017578125,-0.48088183999061584,-0.06700150668621063, 154, 85, 5, 116
1731319912727,9i,6.685635856992004,1.1s : 0.4s,14.181788177536774,6.623836606708336,4.73108778418221,2.917378369949474,2.7620620727539062,-1.1932969093322754,-3.1306893825531006,1.4493767023086548,1.470723032951355,2.0609166622161865,0.535449889302221,-1.525747700737573,2.488817918957799,-0.8591668009757996,-0.5102280378341675,-0.03873048722743988, 154, 85, 5, 116
1731319912737,9i,6.685635856992004,1.1s : 0.4s,14.181788177536774,6.6834650797491335,4.003382345172785,2.7387218257715245,2.0998435020446777,-0.5667297840118408,-2.9129323959350586,1.309368371963501,1.371774673461914,1.975951910018921,0.5665296191221171,-1.5487322053266157,2.515942038301587,-0.8435635566711426,-0.5367071032524109,-0.01861550845205784, 154, 85, 5, 116
1731319912747,9i,6.685635856992004,1.1s : 0.4s,14.181788177536774,6.742869675668256,3.4151202427803335,2.6360731759373834,1.7573573589324951,-0.07089798152446747,-2.7740631103515625,1.424201488494873,0.9989362359046936,1.9805701971054077,0.5949961132670041,-1.5640774809660798,2.538362373667705,-0.8281322717666626,-0.5605055093765259,-0.005564176943153143, 154, 85, 5, 116
1731319912757,9i,6.685635856992004,1.1s : 0.4s,14.181788177536774,6.800371876714495,2.9812880647905855,2.4042726403990025,1.733428955078125,0.41066890954971313,-2.64082670211792,1.5072940587997437,0.5721851587295532,1.7835906744003296,0.6220451983909511,-1.5742999099230797,2.559458896281174,-0.8126835227012634,-0.5826984643936157,0.002847315976396203, 154, 85, 5, 116
1731319912767,9i,6.685635856992004,1.1s : 0.4s,14.181788177536774,6.853300413196273,2.627321386143083,1.948169436946605,1.6053264141082764,0.794499933719635,-2.328840494155884,1.2886030673980713,0.31040728092193604,1.4277652502059937,0.6468097167958526,-1.5806242454038308,2.5804162937659187,-0.7979720234870911,-0.602643609046936,0.007842657156288624, 154, 85, 5, 116
1731319912777,9i,6.685635856992004,1.1s : 0.4s,14.181788177536774,6.900655464837659,2.3065834869947466,1.636382766327009,1.3521658182144165,0.9132673144340515,-1.9305877685546875,1.1681568622589111,0.11095786094665527,1.1405465602874756,0.6670211061576156,-1.583598080360669,2.599609159890838,-0.7856038808822632,-0.6186482906341553,0.010057656094431877, 154, 85, 5, 116
1731319912787,9i,6.685635856992004,1.1s : 0.4s,14.181788177536774,6.9427714409289925,1.927896584599678,1.5216479412822699,0.7152540683746338,0.8835893273353577,-1.3542921543121338,1.1112887859344482,-0.12570983171463013,1.0318171977996826,0.6832402305847848,-1.5830115886672205,2.6132199603703636,-0.775473415851593,-0.6313092112541199,0.009473082609474659, 154, 85, 5, 116
1731319912797,9i,6.685635856992004,1.1s : 0.4s,14.181788177536774,6.9808534572432785,1.5274986723283162,1.6074174318537457,0.17094312608242035,0.8330249190330505,-0.8242146968841553,1.0460410118103027,-0.40497350692749023,1.1513407230377197,0.693915047568658,-1.5780756474145243,2.6189352172230187,-0.7687279582023621,-0.6395517587661743,0.005595915950834751, 154, 85, 5, 116
1731319912807,9i,6.685635856992004,1.1s : 0.4s,14.181788177536774,7.015328343100326,1.1533509592499753,1.605341599435186,-0.24318508803844452,0.8181575536727905,-0.4026024341583252,0.9772402048110962,-0.5834447741508484,1.1321287155151367,0.699958310844352,-1.5694759268027123,2.618330827808511,-0.7648683190345764,-0.6441857814788818,-0.0010099327191710472, 154, 85, 5, 116
1731319912817,9i,6.685635856992004,1.1s : 0.4s,14.181788177536774,7.045799507411752,0.848875924744371,1.4347309556451324,-0.414241224527359,0.8332164287567139,-0.03200440853834152,0.838119387626648,-0.6493544578552246,0.9666165709495544,0.7020059226808678,-1.5582822866937336,2.6136999767006865,-0.7634887099266052,-0.6457505822181702,-0.009554826654493809, 154, 85, 5, 116
1731319912827,9i,6.685635856992004,1.1s : 0.4s,14.181788177536774,7.072600013064794,0.6464232756532257,1.2565914275723344,-0.25326603651046753,0.8158542513847351,0.2497798502445221,0.7172684073448181,-0.588106095790863,0.8477495312690735,0.7007270722693618,-1.5470763271140202,2.609072457757496,-0.7641588449478149,-0.6447736024856567,-0.018129248172044754, 154, 85, 5, 116
1731319912837,9i,6.685635856992004,1.1s : 0.4s,14.181788177536774,7.095687702602248,0.5426930281086693,1.031652088272708,-0.10247489809989929,0.8073462247848511,0.40072542428970337,0.5985286831855774,-0.5130089521408081,0.6655007600784302,0.6973894462540142,-1.5376606252715097,2.60703737279642,-0.7661008834838867,-0.642218828201294,-0.025394584983587265, 154, 85, 5, 116
1731319912847,9i,6.685635856992004,1.1s : 0.4s,14.181788177536774,7.115091788907328,0.5006970307684915,0.830983206923513,-0.12694981694221497,0.7540035843849182,0.4887833893299103,0.4667742848396301,-0.45428693294525146,0.5160215497016907,0.6928474621733918,-1.5290792117039718,2.605819462777729,-0.7687610387802124,-0.6387307047843933,-0.03208911046385765, 154, 85, 5, 116
1731319912857,9i,6.685635856992004,1.1s : 0.4s,14.181788177536774,7.131465888215817,0.5018011768561029,0.7093588703403979,-0.288713663816452,0.727502167224884,0.5638107657432556,0.3691461682319641,-0.3873007893562317,0.46574586629867554,0.6874654345712011,-1.520288636982814,2.603461308875834,-0.7718715071678162,-0.6345803737640381,-0.03901863098144531, 154, 85, 5, 116
1731319912867,9i,6.685635856992004,1.1s : 0.4s,14.181788177536774,7.145472576672424,0.5396629043848716,0.6218822440047144,-0.5188645720481873,0.7353178858757019,0.5996420383453369,0.26646697521209717,-0.3197326064109802,0.46206486225128174,0.6814024167726733,-1.5100159804258866,2.598651662448411,-0.7752560973167419,-0.6298828721046448,-0.047178443521261215, 154, 85, 5, 116
1731319912877,9i,6.685635856992004,1.1s : 0.4s,14.181788177536774,7.157916669118038,0.6113385792398572,0.5772120218629843,-0.7755624055862427,0.7589353322982788,0.6565588712692261,0.18749243021011353,-0.22628527879714966,0.4968050718307495,0.6746658881498979,-1.4977192348650983,2.5907946402326565,-0.7788317203521729,-0.6246364116668701,-0.0570162869989872, 154, 85, 5, 116
1731319912887,9i,6.685635856992004,1.1s : 0.4s,14.181788177536774,7.169210925463296,0.6958022863437682,0.5104800984569005,-0.9317618012428284,0.7768241763114929,0.6826627850532532,0.12437200546264648,-0.11645442247390747,0.4812067151069641,0.6672990416630884,-1.4836324214752874,2.5803642014027144,-0.7825141549110413,-0.6188666820526123,-0.06838025152683258, 154, 85, 5, 116
1731319912897,9i,6.685635856992004,1.1s : 0.4s,14.181788177536774,7.179512597245391,0.7634450914210813,0.4528183293106627,-0.9191661477088928,0.7852194905281067,0.6956587433815002,0.08577311038970947,-0.050892174243927,0.4416983127593994,0.6595270007624631,-1.4690773480309096,2.569379413912322,-0.7861973643302917,-0.6127431392669678,-0.0802481546998024, 154, 85, 5, 116
1731319912907,9i,6.685635856992004,1.1s : 0.4s,14.181788177536774,7.188951889358254,0.8155858883287842,0.41475173097155954,-0.9627003073692322,0.7654346823692322,0.689589262008667,0.08143967390060425,-0.03784668445587158,0.4049125909805298,0.6515953497811776,-1.4547329959411577,2.558487893080542,-0.7897679805755615,-0.6064556837081909,-0.09207692742347717, 154, 85, 5, 116
1731319912917,9i,6.685635856992004,1.1s : 0.4s,14.181788177536774,7.197701399353966,0.8574977671458024,0.3746008361574973,-1.0245164632797241,0.7344810366630554,0.685640275478363,0.08781212568283081,9.846687316894531e-05,0.3641631603240967,0.6435555095624718,-1.4404401032697847,2.5471487872989647,-0.7931801080703735,-0.600043535232544,-0.10398562997579575, 154, 85, 5, 116
1731319912927,9i,6.685635856992004,1.1s : 0.4s,14.181788177536774,7.205860801084794,0.9082795507870142,0.35163758808119266,-1.17848801612854,0.6945124864578247,0.7225750088691711,0.0740785002708435,0.021692872047424316,0.3430609107017517,0.635079177153133,-1.425974536144476,2.5347520314163976,-0.7965974807739258,-0.593241274356842,-0.11617802083492279, 154, 85, 5, 116
1731319912937,9i,6.685635856992004,1.1s : 0.4s,14.181788177536774,7.213356150456186,0.9676344014541395,0.3192462337728917,-1.3234531879425049,0.6443673372268677,0.7843313217163086,0.07436752319335938,-0.015809178352355957,0.3100607991218567,0.6257151519167437,-1.4110787904727118,2.520756816632022,-0.8002281785011292,-0.5856770873069763,-0.12890848517417908, 154, 85, 5, 116
1731319912947,9i,6.685635856992004,1.1s : 0.4s,14.181788177536774,7.220323149368454,1.0225865067442188,0.31289306538484096,-1.390696406364441,0.6006262302398682,0.8357393741607666,0.09566617012023926,-0.0449293851852417,0.2945019602775574,0.6154662514270968,-1.3962729930360076,2.505873197861824,-0.8041013479232788,-0.5773392915725708,-0.14177680015563965, 154, 85, 5, 116
1731319912957,9i,6.685635856992004,1.1s : 0.4s,14.181788177536774,7.226663042087068,1.0644439146839513,0.29196975168239636,-1.401326060295105,0.5533397197723389,0.8758071660995483,0.09506988525390625,-0.08570599555969238,0.2624167203903198,0.604513669449408,-1.3820017002189258,2.490941467697765,-0.8081589341163635,-0.5683619976043701,-0.1544150561094284, 154, 85, 5, 116
1731319912967,9i,6.685635856992004,1.1s : 0.4s,14.181788177536774,7.2321564177528606,1.0896159047386946,0.25610090518145256,-1.3545358180999756,0.5221518278121948,0.9194381237030029,0.07997798919677734,-0.12337416410446167,0.20969027280807495,0.5930123513015393,-1.3686125306057693,2.4766192316009956,-0.8123694658279419,-0.5588615536689758,-0.16652320325374603, 154, 85, 5, 116
1731319912977,9i,6.685635856992004,1.1s : 0.4s,14.181788177536774,7.236830871082195,1.102611484338148,0.23172101085224245,-1.2916185855865479,0.5154292583465576,0.9667409658432007,0.0790872573852539,-0.13571399450302124,0.1703571081161499,0.5810684610872113,-1.3561634298634493,2.463402129928266,-0.8166971802711487,-0.5489173531532288,-0.17803233861923218, 154, 85, 5, 116
1731319912987,9i,6.685635856992004,1.1s : 0.4s,14.181788177536774,7.240974912524785,1.1086631785747874,0.22568305585635068,-1.2499678134918213,0.5182740688323975,0.9964113831520081,0.08749198913574219,-0.12419140338897705,0.16689664125442505,0.5686896093521934,-1.3443924579995434,2.4511985728621632,-0.821104109287262,-0.5385283827781677,-0.18914400041103363, 154, 85, 5, 116
1731319912996,9i,6.685635856992004,1.1s : 0.4s,14.181788177536774,7.245000150705263,1.127855163437136,0.23158249367063208,-1.310941457748413,0.5314964056015015,1.0294203758239746,0.11077916622161865,-0.09164458513259888,0.18154805898666382,0.5559019485475079,-1.332820327704339,2.4392795505663196,-0.8254856467247009,-0.5277096629142761,-0.20024016499519348, 154, 85, 5, 116
1731319913006,9i,6.685635856992004,1.1s : 0.4s,14.181788177536774,7.249101324289288,1.1660918013760364,0.2573569491766926,-1.4565672874450684,0.5459738373756409,1.0408134460449219,0.14245617389678955,-0.05920064449310303,0.20599544048309326,0.54254258669045,-1.320785546101922,2.4265380719491345,-0.8297731280326843,-0.5163151025772095,-0.21188539266586304, 154, 85, 5, 116
1731319913016,9i,6.685635856992004,1.1s : 0.4s,14.181788177536774,7.253791920092871,1.2275591989125054,0.31376120976967825,-1.6354295015335083,0.5790308117866516,1.0826151371002197,0.16310358047485352,-0.04909557104110718,0.2635013163089752,0.5283709615093851,-1.3078998206247612,2.412282111416811,-0.8339564204216003,-0.5041271448135376,-0.22443887591362, 154, 85, 5, 116
1731319913026,9i,6.685635856992004,1.1s : 0.4s,14.181788177536774,7.25935801832982,1.3008647807866325,0.3946545843565392,-1.7645025253295898,0.6363003253936768,1.1393024921417236,0.17721086740493774,-0.05451694130897522,0.34839123487472534,0.5131672264457346,-1.2941523151209708,2.39668079145159,-0.8380690217018127,-0.4909389615058899,-0.2379481941461563, 154, 85, 5, 116
1731319913036,9i,6.685635856992004,1.1s : 0.4s,14.181788177536774,7.266011519663889,1.3563738305873343,0.4552611449153596,-1.690515398979187,0.7199971079826355,1.2375712394714355,0.20537912845611572,-0.02045336365699768,0.405787855386734,0.49688912083972914,-1.2799846696357906,2.381321129658272,-0.842158854007721,-0.47669318318367004,-0.2520555853843689, 154, 85, 5, 116
1731319913046,9i,6.685635856992004,1.1s : 0.4s,14.181788177536774,7.273891163821702,1.381435542628539,0.5024422110381005,-1.5362863540649414,0.792214035987854,1.2843040227890015,0.2632976770401001,0.0404791533946991,0.42600932717323303,0.48011492013112156,-1.26623059468761,2.368005603397781,-0.8461223840713501,-0.4618811011314392,-0.2659751772880554, 154, 85, 5, 116
1731319913056,9i,6.685635856992004,1.1s : 0.4s,14.181788177536774,7.282858024747846,1.4042167859646113,0.5295856411916517,-1.4810398817062378,0.8752623200416565,1.343562126159668,0.3285059332847595,0.06420716643333435,0.41039279103279114,0.46305558818014525,-1.2526994419818995,2.3564594609551857,-0.8498073816299438,-0.44668400287628174,-0.2798233926296234, 154, 85, 5, 116
1731319913066,9i,6.685635856992004,1.1s : 0.4s,14.181788177536774,7.292628848037903,1.4482022377620813,0.5399568748007616,-1.5427639484405518,0.9664568305015564,1.4373103380203247,0.3559509515762329,0.05424237251281738,0.4023805558681488,0.4451071441869269,-1.2387026924849827,2.3454936229948014,-0.8532501459121704,-0.43055459856987,-0.2942568063735962, 154, 85, 5, 116
1731319913076,9i,6.685635856992004,1.1s : 0.4s,14.181788177536774,7.303212514336722,1.5290134010775993,0.5839927833762049,-1.756005883216858,1.0379939079284668,1.5486129522323608,0.388433039188385,0.04011443257331848,0.4342328608036041,0.42560450009322026,-1.2238712477129745,2.3338901492997004,-0.8565270900726318,-0.41287142038345337,-0.3096754252910614, 154, 85, 5, 116
1731319913086,9i,6.685635856992004,1.1s : 0.4s,14.181788177536774,7.314806036914004,1.6465530521555207,0.6590891681637795,-2.034904956817627,1.1213734149932861,1.6720373630523682,0.44916027784347534,0.027789652347564697,0.4815405607223511,0.4039345366705439,-1.2077169082303283,2.3204921329752923,-0.8595759868621826,-0.3930392563343048,-0.32657238841056824, 154, 85, 5, 116
1731319913096,9i,6.685635856992004,1.1s : 0.4s,14.181788177536774,7.327531635322433,1.7800549281496718,0.7237068948497083,-2.2404837608337402,1.187888503074646,1.8124163150787354,0.4935867190361023,0.037872880697250366,0.5279104709625244,0.37997357316481783,-1.1905604962682619,2.3057367934505146,-0.8623459339141846,-0.3708959221839905,-0.3446677625179291, 154, 85, 5, 116
1731319913106,9i,6.685635856992004,1.1s : 0.4s,14.181788177536774,7.341399804574267,1.9126863339807314,0.7672519090934846,-2.3411061763763428,1.2868088483810425,1.9566216468811035,0.5103021264076233,0.07427367568016052,0.5681114792823792,0.35384346284161367,-1.1728103434886985,2.2907392648347447,-0.8647333383560181,-0.34650570154190063,-0.3635522425174713, 154, 85, 5, 116
1731319913116,9i,6.685635856992004,1.1s : 0.4s,14.181788177536774,7.35641006823305,2.0412638246283623,0.8071398710001857,-2.4611828327178955,1.3659923076629639,2.0612707138061523,0.5279505848884583,0.13316670060157776,0.5958268046379089,0.32594997424028094,-1.1546180860104849,2.275964920061761,-0.866482138633728,-0.320208877325058,-0.3829819858074188, 154, 85, 5, 116
1731319913126,9i,6.685635856992004,1.1s : 0.4s,14.181788177536774,7.372352512784329,2.1913149056562413,0.8211802345628294,-2.6925153732299805,1.5667150020599365,2.1559088230133057,0.5537286400794983,0.19040006399154663,0.5757337808609009,0.2962302714235241,-1.135538456378404,2.260699749080275,-0.8672662973403931,-0.29191675782203674,-0.40327903628349304, 154, 85, 5, 116
1731319913136,9i,6.685635856992004,1.1s : 0.4s,14.181788177536774,7.388971093818983,2.3259974204586435,0.8225958742724919,-2.8653407096862793,1.5692239999771118,2.1946356296539307,0.560388445854187,0.2433050274848938,0.5508460998535156,0.2646481774782751,-1.115138736860697,2.2442597869569303,-0.8667086362838745,-0.26156970858573914,-0.4247322976589203, 154, 85, 5, 116
1731319913146,9i,6.685635856992004,1.1s : 0.4s,14.181788177536774,7.405616526929701,2.4426314986967093,0.7702710453997922,-2.9300429821014404,1.777600646018982,2.158257246017456,0.5454915165901184,0.2847210168838501,0.4633469879627228,0.2320963821849451,-1.0941658310005384,2.227767812094842,-0.8647206425666809,-0.23001819849014282,-0.4464860260486603, 154, 85, 5, 116
1731319913156,9i,6.685635856992004,1.1s : 0.4s,14.181788177536774,7.422233048523586,2.5484834389624456,0.7367153770007799,-3.0769171714782715,1.8702690601348877,2.1078169345855713,0.49337053298950195,0.2303214818239212,0.4962731897830963,0.1993515995162533,-1.0723674743909455,2.210974087443654,-0.8609395027160645,-0.19803380966186523,-0.4685785472393036, 154, 85, 5, 116
1731319913166,9i,6.685635856992004,1.1s : 0.4s,14.181788177536774,7.438135155813553,2.6586650333701316,0.6466680579079402,-3.183955669403076,2.0021424293518066,2.184025526046753,0.4537881016731262,0.17669084668159485,0.4254835844039917,0.16540477758031563,-1.0500583038925204,2.193819845080542,-0.855613112449646,-0.16465160250663757,-0.4907302260398865, 154, 85, 5, 116
1731319913176,9i,6.685635856992004,1.1s : 0.4s,14.181788177536774,7.45340948794931,2.7542934795907996,0.62516629848958,-3.1761398315429688,2.1219570636749268,2.2637991905212402,0.4276198744773865,0.2170446813106537,0.4010807275772095,0.13013128572670443,-1.0270655560516413,2.177646377077208,-0.8485488295555115,-0.12976431846618652,-0.5129582285881042, 154, 85, 5, 116
1731319913186,9i,6.685635856992004,1.1s : 0.4s,14.181788177536774,7.46852645360095,2.8240184042766474,0.6602440856964654,-3.114060163497925,2.2420144081115723,2.2657980918884277,0.43276089429855347,0.2833264172077179,0.41032475233078003,0.09431816704811001,-1.0035809492848276,2.1628538810605624,-0.8396517634391785,-0.09417838603258133,-0.53489750623703, 154, 85, 5, 116
1731319913196,9i,6.685635856992004,1.1s : 0.4s,14.181788177536774,7.483505866116782,2.8824225605229126,0.6571543762138683,-3.186784505844116,2.2889416217803955,2.2080678939819336,0.4198666214942932,0.33313220739364624,0.38024574518203735,0.05846141825571565,-0.9798321681217559,2.148913380721295,-0.8289852738380432,-0.05842812359333038,-0.5562101006507874, 154, 85, 5, 116
1731319913206,9i,6.685635856992004,1.1s : 0.4s,14.181788177536774,7.49768975311145,2.940751091951851,0.5872261727424456,-3.340763807296753,2.396591901779175,2.0502307415008545,0.3489130139350891,0.3590508699417114,0.3068823218345642,0.022382716851433566,-0.9558942984984742,2.1342659153776444,-0.8166253566741943,-0.022380847483873367,-0.5767340064048767, 154, 85, 5, 116
1731319913216,9i,6.685635856992004,1.1s : 0.4s,14.181788177536774,7.510581081123518,2.985754661404867,0.5000324325964777,-3.3941688537597656,2.5267322063446045,1.8614906072616577,0.24006807804107666,0.3677286207675934,0.23911380767822266,-0.01314648049419274,-0.9312690635185487,2.1185001660339497,-0.8023086786270142,0.013146101497113705,-0.5967646241188049, 154, 85, 5, 116
1731319913226,9i,6.685635856992004,1.1s : 0.4s,14.181788177536774,7.521989564446156,3.028694851358157,0.411811990116895,-3.4564294815063477,2.6161394119262695,1.7608832120895386,0.14486247301101685,0.31606820225715637,0.22069180011749268,-0.048208359147839254,-0.9060747885835911,2.1023812474488555,-0.7861741781234741,0.048189688473939896,-0.6161233186721802, 154, 85, 5, 116
1731319913236,9i,6.685635856992004,1.1s : 0.4s,14.181788177536774,7.532202791423311,3.0675468119487603,0.38362941404269874,-3.4972035884857178,2.6514475345611572,1.7278845310211182,0.12990975379943848,0.29266414046287537,0.21128815412521362,-0.08354699935962281,-0.8807886681518978,2.086260495589652,-0.7685510516166687,0.0834498405456543,-0.6343228220939636, 154, 85, 5, 116
1731319913246,9i,6.685635856992004,1.1s : 0.4s,14.181788177536774,7.541650820530363,3.067917686915996,0.43110647306282246,-3.354408025741577,2.593580722808838,1.7341327667236328,0.16671520471572876,0.361852765083313,0.16468578577041626,-0.11892672380343444,-0.8560446643710172,2.071308298474439,-0.7499213218688965,0.11864657700061798,-0.6508002877235413, 154, 85, 5, 116
1731319913256,9i,6.685635856992004,1.1s : 0.4s,14.181788177536774,7.550501448067371,3.014003962178892,0.49461585117254364,-3.1087098121643066,2.4889347553253174,1.642048954963684,0.19433516263961792,0.45212844014167786,0.04958385229110718,-0.15300591755523674,-0.8325167159296497,2.058443267259385,-0.7309867143630981,0.1524096131324768,-0.6651538610458374, 154, 85, 5, 116
1731319913266,9i,6.685635856992004,1.1s : 0.4s,14.181788177536774,7.5581697400095535,2.9306561935484616,0.5380420453451628,-2.9450197219848633,2.453214168548584,1.4146695137023926,0.14281940460205078,0.5156806111335754,-0.05626159906387329,-0.1847243532774703,-0.8099433750180794,2.046883583691797,-0.7119265198707581,0.1836755871772766,-0.6778082847595215, 154, 85, 5, 116
1731319913276,9i,6.685635856992004,1.1s : 0.4s,14.181788177536774,7.564412044913343,2.8651221961820106,0.5748939167669987,-2.919776201248169,2.5606536865234375,1.1870675086975098,-0.0011069178581237793,0.5677471160888672,-0.09036040306091309,-0.21445642190040934,-0.7873451008539056,2.034869591549063,-0.6922524571418762,0.21281632781028748,-0.6895621418952942, 154, 85, 5, 116
1731319913286,9i,6.685635856992004,1.1s : 0.4s,14.181788177536774,7.569237499786238,2.8225410720081867,0.6216186806448621,-2.9509658813476562,2.6407923698425293,0.99562007188797,-0.15187472105026245,0.5983060598373413,-0.07330560684204102,-0.24288117836762457,-0.7642974982694299,2.0218903637893604,-0.6717183589935303,0.24050022661685944,-0.700681209564209, 154, 85, 5, 116
1731319913296,9i,6.685635856992004,1.1s : 0.4s,14.181788177536774,7.572601445347869,2.7794332024577253,0.6233273149619348,-2.9020400047302246,2.5592222213745117,1.0187700986862183,-0.21538162231445312,0.5746947526931763,-0.10896623134613037,-0.27125568852254167,-0.7416401263665042,2.0085624685836394,-0.6507987380027771,0.267941415309906,-0.7104001641273499, 154, 85, 5, 116
1731319913306,9i,6.685635856992004,1.1s : 0.4s,14.181788177536774,7.57425945840497,2.6633882741628367,0.5779866313151788,-2.4187862873077393,2.485147476196289,0.8936543464660645,-0.20182812213897705,0.49440282583236694,-0.22113299369812012,-0.297519070206394,-0.7196829888160641,1.9976409511945221,-0.6301878690719604,0.2931491732597351,-0.7189762592315674, 154, 85, 5, 116
1731319913316,9i,6.685635856992004,1.1s : 0.4s,14.181788177536774,7.573853058931083,2.538275106756294,0.5596094757769001,-2.218641519546509,2.468310832977295,0.6215762495994568,-0.20300602912902832,0.34550562500953674,-0.39061129093170166,-0.31983148946072,-0.6978238894102307,1.9881510705622487,-0.6099669933319092,0.3144066035747528,-0.7273849248886108, 154, 85, 5, 116
1731319913326,9i,6.685635856992004,1.1s : 0.4s,14.181788177536774,7.570671493086286,2.456712301038682,0.6157715833479777,-2.285456895828247,2.5059754848480225,0.38074055314064026,-0.2894567847251892,0.24947330355644226,-0.48285865783691406,-0.34027701827625473,-0.6766401795545306,1.9771356496384884,-0.590273380279541,0.3337482511997223,-0.7349758148193359, 154, 85, 5, 116
1731319913336,9i,6.685635856992004,1.1s : 0.4s,14.181788177536774,7.565577512986382,2.423292422073805,0.6453192475180315,-2.403075695037842,2.54980206489563,0.3193858563899994,-0.3678256869316101,0.29701730608940125,-0.43922877311706543,-0.36078328136169147,-0.6557087902063892,1.9646470575910528,-0.5704677104949951,0.3530071973800659,-0.7415878176689148, 154, 85, 5, 116
1731319913346,9i,6.685635856992004,1.1s : 0.4s,14.181788177536774,7.559272844937864,2.4060877194228274,0.642713525780109,-2.430955648422241,2.5559258460998535,0.29000845551490784,-0.3721300959587097,0.31433072686195374,-0.41928040981292725,-0.3820281815675109,-0.6348782578249494,1.9517084085084706,-0.5503246784210205,0.3728032112121582,-0.7471014261245728, 154, 85, 5, 116
1731319913356,9i,6.685635856992004,1.1s : 0.4s,14.181788177536774,7.552069679180921,2.36881351848255,0.6394039026917688,-2.326941728591919,2.487210988998413,0.20087218284606934,-0.3105863332748413,0.2999729812145233,-0.4715821146965027,-0.4027028308410556,-0.6146463754435908,1.9388959488561952,-0.5305390357971191,0.39190638065338135,-0.7516233921051025, 154, 85, 5, 116
1731319913366,9i,6.685635856992004,1.1s : 0.4s,14.181788177536774,7.5439082637681,2.300667320976072,0.6633260266377967,-2.061211585998535,2.4606173038482666,0.061946555972099304,-0.2613038420677185,0.2528340518474579,-0.5547942519187927,-0.42165979690919425,-0.5950229383047553,1.9265100197049272,-0.5114316344261169,0.40927544236183167,-0.7555999755859375, 154, 85, 5, 116
1731319913376,9i,6.685635856992004,1.1s : 0.4s,14.181788177536774,7.534724950960445,2.211621151530194,0.6742998929714054,-1.7465254068374634,2.466129779815674,-0.10158777981996536,-0.2594393491744995,0.1840994954109192,-0.5945409536361694,-0.4373284747875535,-0.5754999636190694,1.9147360699317266,-0.4930325150489807,0.42352089285850525,-0.7599664330482483, 154, 85, 5, 116
1731319913386,9i,6.685635856992004,1.1s : 0.4s,14.181788177536774,7.525313708683193,2.129167596577088,0.6252308632244038,-1.4814759492874146,2.532830238342285,-0.29145127534866333,-0.2941953241825104,0.12367674708366394,-0.5376493334770203,-0.44975984875063785,-0.555362555345975,1.9035423175926929,-0.47481706738471985,0.4347492754459381,-0.765207052230835, 154, 85, 5, 116
1731319913396,9i,6.685635856992004,1.1s : 0.4s,14.181788177536774,7.5157533837045625,2.0839682744259447,0.6106516598453323,-1.2516323328018188,2.728825569152832,-0.41996532678604126,-0.3130580484867096,0.1507694125175476,-0.5021540522575378,-0.45966967512343754,-0.5341842676554667,1.8921738457500072,-0.45629003643989563,0.44365209341049194,-0.7713444828987122, 154, 85, 5, 116
1731319913406,9i,6.685635856992004,1.1s : 0.4s,14.181788177536774,7.506224414226703,2.0717820804616505,0.5981579387380135,-1.1447086334228516,2.8244450092315674,-0.4236755669116974,-0.28959038853645325,0.24117553234100342,-0.46450477838516235,-0.46779296287494915,-0.5111243538156297,1.8813306807418295,-0.436605840921402,0.45091745257377625,-0.7784913778305054, 154, 85, 5, 116
1731319913416,9i,6.685635856992004,1.1s : 0.4s,14.181788177536774,7.497512392321623,2.000492850826965,0.49756462811305346,-1.0935229063034058,2.512770891189575,-0.3175714910030365,-0.20752787590026855,0.24728703498840332,-0.37861835956573486,-0.47609283600136537,-0.48876447069237633,1.8714727794479358,-0.41731947660446167,0.4583100378513336,-0.7847269773483276, 154, 85, 5, 116
1731319913426,9i,6.685635856992004,1.1s : 0.4s,14.181788177536774,7.489364880370466,1.8981501059035832,0.5253366795444515,-0.784580409526825,2.3589723110198975,-0.3697008490562439,-0.093436598777771,0.23172405362129211,-0.462117075920105,-0.48266107146873183,-0.46829609408858,1.8634192716741418,-0.3998037278652191,0.46413788199424744,-0.7904005646705627, 154, 85, 5, 116
1731319913436,9i,6.685635856992004,1.1s : 0.4s,14.181788177536774,7.480897266312994,1.7746209644015631,0.6432539032666758,-0.5042773485183716,2.1777875423431396,-0.37483566999435425,-0.053392231464385986,0.1813873052597046,-0.6148361563682556,-0.4867631583172561,-0.4488671160810671,1.8564746349368484,-0.38354310393333435,0.4677674472332001,-0.7962965965270996, 154, 85, 5, 116
1731319913446,9i,6.685635856992004,1.1s : 0.4s,14.181788177536774,7.471593010927722,1.6423744893582097,0.6938546345875767,-0.34053853154182434,1.9506067037582397,-0.4981558620929718,-0.07651197910308838,0.10120490193367004,-0.6821566820144653,-0.4886775959231436,-0.43129990799014195,1.8500154469588206,-0.36912089586257935,0.469458669424057,-0.8020962476730347, 154, 85, 5, 116
1731319913456,9i,6.685635856992004,1.1s : 0.4s,14.181788177536774,7.461668040828779,1.5358825300448176,0.6595847366954,-0.18601474165916443,1.8881793022155762,-0.5535983443260193,-0.10844168066978455,0.06590121984481812,-0.6472630500793457,-0.4889137165474346,-0.41542280716497787,1.8432510283123864,-0.3562951982021332,0.46966713666915894,-0.8077539801597595, 154, 85, 5, 116
1731319913466,9i,6.685635856992004,1.1s : 0.4s,14.181788177536774,7.451285588131387,1.3956724355183492,0.6519675581432521,0.17116908729076385,1.6104601621627808,-0.49348142743110657,-0.15230369567871094,0.05462151765823364,-0.6315708756446838,-0.48734547329422384,-0.40101024960416354,1.8374898106145923,-0.3449038863182068,0.4682820439338684,-0.8134822249412537, 154, 85, 5, 116
1731319913476,9i,6.685635856992004,1.1s : 0.4s,14.181788177536774,7.440116909001315,1.2587321989018607,0.7263521777226353,0.5511471033096313,1.417515754699707,-0.42354121804237366,-0.15942427515983582,0.061037540435791016,-0.7060069441795349,-0.4818879436501271,-0.38736397903547964,1.834316901234316,-0.3347315490245819,0.46345293521881104,-0.8204670548439026, 154, 85, 5, 116
1731319913486,9i,6.685635856992004,1.1s : 0.4s,14.181788177536774,7.428381062749661,1.1423817104857485,0.7718692555480918,0.8061982989311218,1.2385483980178833,-0.31789451837539673,-0.12149947881698608,0.09302490949630737,-0.7565490007400513,-0.47450925091448204,-0.37460194223769244,1.8332844453789552,-0.32547616958618164,0.4569019675254822,-0.827832043170929, 154, 85, 5, 116
1731319913496,9i,6.685635856992004,1.1s : 0.4s,14.181788177536774,7.417085262426925,1.114438608147982,0.6557216034502523,1.2904270887374878,1.0778684616088867,-0.3262310028076172,-0.09167435765266418,0.17528679966926575,-0.6251729130744934,-0.46357634076166365,-0.3626984633789833,1.8342023910711376,-0.31735268235206604,0.4471498429775238,-0.8362681269645691, 154, 85, 5, 116
1731319913506,9i,6.685635856992004,1.1s : 0.4s,14.181788177536774,7.406672091192792,1.0874141064512681,0.5476534618046295,1.6095919609069824,1.0190603733062744,-0.39784756302833557,-0.09968745708465576,0.152500718832016,-0.5164593458175659,-0.44862477723236366,-0.3514510713023165,1.8362007641560796,-0.3101940453052521,0.43372681736946106,-0.8459673523902893, 154, 85, 5, 116
1731319913516,9i,6.685635856992004,1.1s : 0.4s,14.181788177536774,7.396980025847534,1.1409043098192462,0.4659274305609031,1.848112940788269,0.9894305467605591,-0.4523392915725708,-0.13209646940231323,0.08992427587509155,-0.4376671314239502,-0.4309853872585704,-0.340625150671178,1.8382807736190065,-0.3035266101360321,0.417766273021698,-0.8563544750213623, 154, 85, 5, 116
1731319913526,9i,6.685635856992004,1.1s : 0.4s,14.181788177536774,7.388228540557306,1.2575379130257496,0.3877619134503927,2.178349494934082,1.0022475719451904,-0.44196847081184387,-0.15690040588378906,0.10840734839439392,-0.3376231789588928,-0.41056845754671206,-0.32967920425080693,1.8409703073628612,-0.2968348562717438,0.39913061261177063,-0.8675158619880676, 154, 85, 5, 116
1731319913536,9i,6.685635856992004,1.1s : 0.4s,14.181788177536774,7.380603215588407,1.3921437905958012,0.3360283009180847,2.3754634857177734,1.0115725994110107,-0.4639930725097656,-0.15335559844970703,0.14316412806510925,-0.2624902129173279,-0.387618517445528,-0.31844936825302295,1.8442244148144296,-0.2898663878440857,0.3779846727848053,-0.8792639374732971, 154, 85, 5, 116
1731319913545,9i,6.685635856992004,1.1s : 0.4s,14.181788177536774,7.374309800585843,1.5230055798572515,0.30061741832140537,2.4869120121002197,1.0620671510696411,-0.5380221009254456,-0.14704284071922302,0.19052764773368835,-0.18013453483581543,-0.3629027554818586,-0.3070734698691477,1.8472042222288299,-0.2825835347175598,0.3549894392490387,-0.8911392092704773, 154, 85, 5, 116
1731319913555,9i,6.685635856992004,1.1s : 0.4s,14.181788177536774,7.369158908680751,1.6148367735003615,0.32551422860043594,2.428820848464966,1.0881078243255615,-0.6357002258300781,-0.14617931842803955,0.24040821194648743,-0.16369181871414185,-0.3377706404023981,-0.29575542653240977,1.8490056606587646,-0.2749937176704407,0.331384539604187,-0.9025313258171082, 154, 85, 5, 116
1731319913565,9i,6.685635856992004,1.1s : 0.4s,14.181788177536774,7.365134810055783,1.6711268528698906,0.2686734337436338,2.3135595321655273,1.1129359006881714,-0.8213604688644409,-0.14408326148986816,0.21109718084335327,-0.08284568786621094,-0.3129691140885065,-0.28492455878260514,1.8489086626190725,-0.26743096113204956,0.3078848719596863,-0.9130649566650391, 154, 85, 5, 116
1731319913575,9i,6.685635856992004,1.1s : 0.4s,14.181788177536774,7.362512612083088,1.69124355714388,0.2146208071747325,2.126483201980591,1.1463814973831177,-0.9823160767555237,-0.146681010723114,0.12902042269706726,0.08888477087020874,-0.2892415033425267,-0.27460718075581836,1.8461864898581557,-0.2599046528339386,0.2852253317832947,-0.9225487112998962, 154, 85, 5, 116
1731319913585,9i,6.685635856992004,1.1s : 0.4s,14.181788177536774,7.360586707274369,1.7096264632586462,0.22947782138812814,2.0810444355010986,1.2057844400405884,-1.0562819242477417,-0.1427011489868164,0.15799695253372192,0.08563536405563354,-0.2665186799269145,-0.2641554582290585,1.841763995816488,-0.2518758177757263,0.2633746266365051,-0.931231677532196, 154, 85, 5, 116
1731319913595,9i,6.685635856992004,1.1s : 0.4s,14.181788177536774,7.359865116146829,1.7370237093155756,0.3177737120579479,2.130460739135742,1.2021516561508179,-1.128437876701355,-0.11945211887359619,0.2850361764431,0.07393038272857666,-0.24342283112954755,-0.25356700448817765,1.8364908297749039,-0.24346284568309784,0.24102595448493958,-0.9394851326942444, 154, 85, 5, 116
1731319913605,9i,6.685635856992004,1.1s : 0.4s,14.181788177536774,7.360396758213683,1.7641709194771655,0.38530448213148494,2.1347978115081787,1.2096799612045288,-1.2008765935897827,-0.09096156060695648,0.3622381091117859,0.09470528364181519,-0.22000744651632753,-0.24311044559622957,1.8303252716556795,-0.23492033779621124,0.21823689341545105,-0.9471985697746277, 154, 85, 5, 116
1731319913615,9i,6.685635856992004,1.1s : 0.4s,14.181788177536774,7.361894052337837,1.781255174606519,0.40916268107739867,2.0533766746520996,1.2051401138305664,-1.3310776948928833,-0.07447241246700287,0.3937707543373108,0.0825381875038147,-0.19668259277189545,-0.2326964496670167,1.8228450039848627,-0.22615619003772736,0.19541695713996887,-0.9542880058288574, 154, 85, 5, 116
1731319913625,9i,6.685635856992004,1.1s : 0.4s,14.181788177536774,7.363946651324432,1.7642486743118297,0.3633859461710763,1.8185011148452759,1.1480809450149536,-1.456745982170105,-0.06760883331298828,0.34902000427246094,0.07525575160980225,-0.17466346852655223,-0.22277761741516305,1.8134835774647033,-0.21757787466049194,0.17377673089504242,-0.9604486227035522, 154, 85, 5, 116
1731319913635,9i,6.685635856992004,1.1s : 0.4s,14.181788177536774,7.3663660032534555,1.7120279005344918,0.2732016244723989,1.5504417419433594,1.0699118375778198,-1.4965304136276245,-0.062076032161712646,0.23362964391708374,0.1272905468940735,-0.15517608799831303,-0.2136698807563232,1.8025644449678235,-0.20949985086917877,0.1545540690422058,-0.9655168652534485, 154, 85, 5, 116
1731319913645,9i,6.685635856992004,1.1s : 0.4s,14.181788177536774,7.3690129600084795,1.6693258623248175,0.22609222610425794,1.5495389699935913,1.015550136566162,-1.4533675909042358,-0.039048731327056885,0.17970655858516693,0.13152354955673218,-0.13722161135022057,-0.20500516224519244,1.7911783313872787,-0.20165860652923584,0.1367913782596588,-0.9698566794395447, 154, 85, 5, 116
1731319913655,9i,6.685635856992004,1.1s : 0.4s,14.181788177536774,7.371712320580924,1.6507474535952802,0.2048909919144376,1.6770250797271729,0.9376705884933472,-1.4398943185806274,-0.001663804054260254,0.19116660952568054,0.07370805740356445,-0.11860540583711705,-0.19671523969259685,1.7802084983538506,-0.19407588243484497,0.11832752823829651,-0.9738239645957947, 154, 85, 5, 116
1731319913665,9i,6.685635856992004,1.1s : 0.4s,14.181788177536774,7.374498395000432,1.6496544004542497,0.2253920689207117,1.7782355546951294,0.8708299398422241,-1.4443819522857666,0.02368597686290741,0.2159082144498825,0.06020134687423706,-0.09901190099664063,-0.18902951525605188,1.7693860580909668,-0.18698547780513763,0.09885020554065704,-0.9773766398429871, 154, 85, 5, 116
1731319913675,9i,6.685635856992004,1.1s : 0.4s,14.181788177536774,7.377364037543207,1.6521471515527026,0.26863181521493273,1.8517682552337646,0.8235055208206177,-1.4419928789138794,0.029675424098968506,0.26210275292396545,0.0508386492729187,-0.07853900481882697,-0.1815884886685007,1.7585820887998127,-0.18003547191619873,0.0784582868218422,-0.9805261492729187, 154, 85, 5, 116
1731319913685,9i,6.685635856992004,1.1s : 0.4s,14.181788177536774,7.380261435212055,1.6359885928301565,0.2606151454294604,1.7459826469421387,0.7490419745445251,-1.4504469633102417,0.03369024395942688,0.2565035820007324,0.0314822793006897,-0.05824196991200696,-0.1745951396958609,1.7475300240973386,-0.1734149008989334,0.058209046721458435,-0.9831271171569824, 154, 85, 5, 116
1731319913695,9i,6.685635856992004,1.1s : 0.4s,14.181788177536774,7.383214602510132,1.5991124268438297,0.19898768138781542,1.5837241411209106,0.6749472618103027,-1.4711579084396362,0.03769741952419281,0.18552792072296143,0.06127309799194336,-0.03944275696942422,-0.16813517963549932,1.7360578352697484,-0.16721396148204803,0.03943252936005592,-0.9851317405700684, 154, 85, 5, 116
1731319913705,9i,6.685635856992004,1.1s : 0.4s,14.181788177536774,7.386182130566702,1.54664641791564,0.15696263913877812,1.3879492282867432,0.5998747944831848,-1.5135680437088013,0.04855024814605713,0.12642592191696167,0.07935130596160889,-0.022425558929724424,-0.16221633038855404,1.7238308479129814,-0.16146522760391235,0.022423679009079933,-0.9866236448287964, 154, 85, 5, 116
1731319913715,9i,6.685635856992004,1.1s : 0.4s,14.181788177536774,7.389050748051104,1.4938302281790503,0.12171536015620961,1.3259186744689941,0.5508217215538025,-1.4676942825317383,0.06713227927684784,0.0723472386598587,0.07123035192489624,-0.0068460515313748605,-0.15673556258963925,1.7113048318733208,-0.15609095990657806,0.006845998112112284,-0.987718939781189, 154, 85, 5, 116
1731319913725,9i,6.685635856992004,1.1s : 0.4s,14.181788177536774,7.391767753694232,1.4569156025544285,0.12800843366881218,1.380113959312439,0.497687429189682,-1.4292114973068237,0.09764815866947174,0.07827410101890564,0.026910245418548584,0.008663498495647116,-0.15153197028887433,1.6991478486954523,-0.15094706416130066,-0.008663389831781387,-0.9885038733482361, 154, 85, 5, 116
1731319913735,9i,6.685635856992004,1.1s : 0.4s,14.181788177536774,7.394452510100908,1.4355383628602252,0.17994111248952369,1.4664357900619507,0.44480371475219727,-1.3919386863708496,0.1273850053548813,0.12643353641033173,-0.012900590896606445,0.02476663450717037,-0.146662264752428,1.687338879376402,-0.1460922360420227,-0.024764101952314377,-0.9889609813690186, 154, 85, 5, 116
1731319913745,9i,6.685635856992004,1.1s : 0.4s,14.181788177536774,7.3971191578476105,1.4154413120921159,0.20770528600177565,1.4864776134490967,0.40743228793144226,-1.3430067300796509,0.14110760390758514,0.14947514235973358,-0.029787778854370117,0.0413477592254932,-0.14211854028416457,1.6760018359550404,-0.14151954650878906,-0.041335977613925934,-0.9890720844268799, 154, 85, 5, 116
1731319913755,9i,6.685635856992004,1.1s : 0.4s,14.181788177536774,7.399771550062807,1.3887190626423678,0.18414479673044165,1.4320529699325562,0.3610032796859741,-1.3191155195236206,0.1393854171037674,0.11895519495010376,-0.018184423446655273,0.05761610085920919,-0.1377751760937285,1.6648840174193424,-0.1371118277311325,-0.05758422985672951,-0.9888803958892822, 154, 85, 5, 116
1731319913765,9i,6.685635856992004,1.1s : 0.4s,14.181788177536774,7.402375751370573,1.3465361998219585,0.1448001916502366,1.2729583978652954,0.3034542202949524,-1.3287250995635986,0.13540223240852356,0.051304660737514496,-0.0010783076286315918,0.07282274102360993,-0.133773937812283,1.653605087159511,-0.13302180171012878,-0.07275839149951935,-0.9884389042854309, 154, 85, 5, 116
1731319913775,9i,6.685635856992004,1.1s : 0.4s,14.181788177536774,7.4049084600322095,1.2860941386098526,0.1376846278459528,1.0781306028366089,0.24350832402706146,-1.3146103620529175,0.130837082862854,-0.024816200137138367,0.03496956825256348,0.08608402825710151,-0.13018985507338676,1.6420100469914694,-0.12934166193008423,-0.08597774803638458,-0.987865686416626, 154, 85, 5, 116
1731319913785,9i,6.685635856992004,1.1s : 0.4s,14.181788177536774,7.407395022891385,1.2326638757983448,0.15951307183131586,1.044324517250061,0.21395647525787354,-1.269378423690796,0.14366529881954193,-0.05402921140193939,0.0434228777885437,0.09815149919167644,-0.1269456028106083,1.6305992192252425,-0.12599557638168335,-0.09799398481845856,-0.9871789813041687, 154, 85, 5, 116
1731319913795,9i,6.685635856992004,1.1s : 0.4s,14.181788177536774,7.409867294189017,1.2161004678648972,0.17127183706038607,1.1940346956253052,0.18527397513389587,-1.276647686958313,0.16599327325820923,-0.02677437663078308,0.03260993957519531,0.11068894448468336,-0.12371350583635997,1.6193269219857558,-0.12264300882816315,-0.11046305298805237,-0.9862842559814453, 154, 85, 5, 116
1731319913805,9i,6.685635856992004,1.1s : 0.4s,14.181788177536774,7.4125598626497275,1.200309811280565,0.18593218867844494,1.26139497756958,0.22030757367610931,-1.1742416620254517,0.17910410463809967,0.023485586047172546,0.044055938720703125,0.12443808988130207,-0.12055715430099874,1.608686789858151,-0.11933539062738419,-0.12411718815565109,-0.9850654602050781, 154, 85, 5, 116
1731319913815,9i,6.685635856992004,1.1s : 0.4s,14.181788177536774,7.415645303555976,1.196609294991529,0.20589652674220874,1.3245850801467896,0.2494867742061615,-1.1346352100372314,0.18561816215515137,0.048521384596824646,0.07473254203796387,0.13851764164801883,-0.11698005983207237,1.5987160541021561,-0.11559553444385529,-0.1380751132965088,-0.9836528301239014, 154, 85, 5, 116
1731319913825,9i,6.685635856992004,1.1s : 0.4s,14.181788177536774,7.419008291524789,1.1813484305953852,0.19906466602403272,1.2350950241088867,0.2606624662876129,-1.150682806968689,0.15624943375587463,0.06349729001522064,0.1057400107383728,0.15269767467177595,-0.11293983523952206,1.5888713800908143,-0.11138854920864105,-0.15210497379302979,-0.9820675253868103, 154, 85, 5, 116
1731319913835,9i,6.685635856992004,1.1s : 0.4s,14.181788177536774,7.422411039119648,1.1365342084119652,0.19394661335075897,1.0221105813980103,0.2343948930501938,-1.1273932456970215,0.14686405658721924,-0.022565335035324097,0.12464767694473267,0.16511927853220865,-0.10886866723673577,1.5785531323866577,-0.10717590898275375,-0.16436998546123505,-0.9805589318275452, 154, 85, 5, 116
1731319913845,9i,6.685635856992004,1.1s : 0.4s,14.181788177536774,7.425845045424151,1.0681260115321813,0.24108162369782457,0.8045154213905334,0.2659015357494354,-1.068548560142517,0.16268542408943176,-0.10365864634513855,0.1445983648300171,0.17537607399701255,-0.10469561714855437,1.56854539124404,-0.10290146619081497,-0.1744784563779831,-0.9792693853378296, 154, 85, 5, 116
1731319913855,9i,6.685635856992004,1.1s : 0.4s,14.181788177536774,7.429126224571602,0.9662619145769994,0.2372844996200614,0.5669518709182739,0.41658636927604675,-0.8680713772773743,0.1657695174217224,-0.12344619631767273,0.11655658483505249,0.1832880486428303,-0.10010570787968331,1.5597578569882065,-0.09826459735631943,-0.18226352334022522,-0.978327214717865, 154, 85, 5, 116
1731319913865,9i,6.685635856992004,1.1s : 0.4s,14.181788177536774,7.432292523862679,0.9087472817096017,0.18230921897588598,0.3419242799282074,0.5287407636642456,-1.0696505308151245,0.13684973120689392,-0.09484560787677765,0.07425034046173096,0.18869702917315603,-0.09374185076399541,1.550506303247543,-0.09194308519363403,-0.1875792145729065,-0.977936863899231, 154, 85, 5, 116
1731319913875,9i,6.685635856992004,1.1s : 0.4s,14.181788177536774,7.434889243816338,0.8653566152441251,0.12224606663940214,0.14861178398132324,0.5833105444908142,-1.086713433265686,0.08418478071689606,-0.07261918485164642,0.05082792043685913,0.1920167393424339,-0.08613163450034673,1.539656460369695,-0.08444415032863617,-0.19083896279335022,-0.9779824614524841, 154, 85, 5, 116
1731319913885,9i,6.685635856992004,1.1s : 0.4s,14.181788177536774,7.437012726657555,0.8293043701945392,0.11278695521796685,0.1257491558790207,0.5779137015342712,-1.006646990776062,0.053452618420124054,-0.07727079093456268,0.0623934268951416,0.19419579313793806,-0.0783187000394636,1.5292853474497081,-0.07676801830530167,-0.19297750294208527,-0.9781954884529114, 154, 85, 5, 116
1731319913895,9i,6.685635856992004,1.1s : 0.4s,14.181788177536774,7.439014928469789,0.8109701591751837,0.10834563185499153,0.12039858847856522,0.5483121871948242,-1.030425786972046,0.09296288341283798,-0.029930874705314636,0.04691290855407715,0.19614734027878772,-0.07075692923515134,1.5190320111486704,-0.0693422481417656,-0.1948920041322708,-0.9783704876899719, 154, 85, 5, 116
1731319913905,9i,6.685635856992004,1.1s : 0.4s,14.181788177536774,7.440892971042768,0.809769531493521,0.09720427705872381,0.25367894768714905,0.4501344561576843,-1.076928973197937,0.09442567825317383,-0.0025283098220825195,0.022936224937438965,0.19863484501548842,-0.06367644777666814,1.5084673111212428,-0.06238219514489174,-0.19733120501041412,-0.978350043296814, 154, 85, 5, 116
1731319913915,9i,6.685635856992004,1.1s : 0.4s,14.181788177536774,7.442556621453918,0.7924523767278117,0.07965839195636679,0.39828193187713623,0.275880366563797,-1.026111364364624,0.07755661010742188,0.01817016303539276,0.000526130199432373,0.20255086837779035,-0.057944680272922836,1.497859709804959,-0.056728336960077286,-0.2011687010526657,-0.9779126048088074, 154, 85, 5, 116
1731319913925,9i,6.685635856992004,1.1s : 0.4s,14.181788177536774,7.4441716184830256,0.759310742849548,0.10472976685349934,0.5102304220199585,0.15022426843643188,-0.9035863280296326,0.10157915949821472,0.01813681423664093,-0.017917990684509277,0.2075976346495663,-0.05390339392295785,1.4883255198997671,-0.052720487117767334,-0.20610971748828888,-0.9771076440811157, 154, 85, 5, 116
1731319913935,9i,6.685635856992004,1.1s : 0.4s,14.181788177536774,7.445752908965384,0.7263884105003262,0.14855705661941143,0.5813469886779785,0.027363335713744164,-0.8326772451400757,0.14433534443378448,0.016662344336509705,-0.030965685844421387,0.21351710397658794,-0.05126793204827495,1.4797578302614387,-0.050081778317689896,-0.21189844608306885,-0.9760076403617859, 154, 85, 5, 116
1731319913945,9i,6.685635856992004,1.1s : 0.4s,14.181788177536774,7.447263611895101,0.6932639812030829,0.14943776125268268,0.6369593143463135,-0.04051291570067406,-0.7299376726150513,0.14547403156757355,0.0009737163782119751,-0.0341760516166687,0.21999859571033964,-0.049769791538870845,1.4719661017133174,-0.04855017736554146,-0.21822825074195862,-0.9746893644332886, 154, 85, 5, 116
1731319913955,9i,6.685635856992004,1.1s : 0.4s,14.181788177536774,7.448718746850037,0.6612110439287107,0.12264887104488245,0.6441871523857117,-0.04003008455038071,-0.6419225931167603,0.11814606189727783,-0.0056609660387039185,-0.03243774175643921,0.22677696554484328,-0.04874957273350287,1.4653165815537457,-0.04748258367180824,-0.22483818233013153,-0.9732385277748108, 154, 85, 5, 116
1731319913965,9i,6.685635856992004,1.1s : 0.4s,14.181788177536774,7.450061872888061,0.6290299077882442,0.09889905515308825,0.5978251695632935,-0.020189978182315826,-0.592704713344574,0.0898352563381195,-0.006312578916549683,-0.04087543487548828,0.2332853348515123,-0.047718941289350496,1.4594278034919024,-0.046408720314502716,-0.23117510974407196,-0.971804678440094, 154, 85, 5, 116
1731319913975,9i,6.685635856992004,1.1s : 0.4s,14.181788177536774,7.451062759184674,0.5913169058951483,0.06684536976308866,0.5305665135383606,-0.03140348568558693,-0.5406388640403748,0.05890071764588356,-0.02165842056274414,-0.023020029067993164,0.23915976522453836,-0.046665032568018294,1.4539448224439602,-0.04532036930322647,-0.2368863970041275,-0.9704797267913818, 154, 85, 5, 116
1731319913985,9i,6.685635856992004,1.1s : 0.4s,14.181788177536774,7.451797077075351,0.5407637837222069,0.06550234621376227,0.4410945773124695,-0.041590165346860886,-0.45455825328826904,0.048598822206258774,-0.03735116124153137,-0.023099839687347412,0.24422898169232868,-0.04591828434289126,1.4491356129641244,-0.044539958238601685,-0.24180826544761658,-0.9693012833595276, 154, 85, 5, 116
1731319913995,9i,6.685635856992004,1.1s : 0.4s,14.181788177536774,7.45245310075016,0.491549183698124,0.07944921320317022,0.37172216176986694,-0.07908321171998978,-0.4204564690589905,0.0626676082611084,-0.03359284996986389,-0.03544670343399048,0.24845044558743562,-0.04549451663750392,1.4448542653052274,-0.04408238083124161,-0.24590228497982025,-0.968291699886322, 154, 85, 5, 116
1731319914005,9i,6.685635856992004,1.1s : 0.4s,14.181788177536774,7.453048415808316,0.45972820315201224,0.08983847996529891,0.4309091866016388,-0.10393325239419937,-0.3804576098918915,0.07328759878873825,-0.03776322305202484,-0.03569060564041138,0.2525249145519896,-0.04544722327425167,1.4409676310257769,-0.04399070143699646,-0.2498495876789093,-0.9672848582267761, 154, 85, 5, 116
1731319914015,9i,6.685635856992004,1.1s : 0.4s,14.181788177536774,7.453598847523043,0.44498574706161326,0.0921201259930473,0.5031170845031738,-0.15340174734592438,-0.3477763533592224,0.07863199710845947,-0.01912403106689453,-0.04401588439941406,0.2573901034816047,-0.04588796554161329,1.4373841548226758,-0.04436073452234268,-0.2545574903488159,-0.9660396575927734, 154, 85, 5, 116
1731319914025,9i,6.685635856992004,1.1s : 0.4s,14.181788177536774,7.454160976764584,0.4431633231586079,0.09741465688456777,0.5337668061256409,-0.17974475026130676,-0.3358544707298279,0.08568865060806274,0.023291677236557007,-0.04005706310272217,0.2626283764400094,-0.04670278966319597,1.4341230667133178,-0.04508500173687935,-0.25961968302726746,-0.9646579623222351, 154, 85, 5, 116
