timestamp,club,max_speed,tempo,w.rotation,l.speed,t.spped,acc,rotation.x,rotation.y,rotation.z,userAcceleration.x,userAcceleration.y,userAcceleration.z,pitch,roll,yaw,gravity.x,gravity.y,gravity.z,impactIndex,minDownIndex,StartIndex,endIndex
1731319922704,9i,6.1988088072737195,1.5s : 0.4s,3.7061408056099197,0.000530138020005335,0.18211147831275978,0.03252427081224887,-0.00023368268739432096,-0.027285706251859665,0.03861822932958603,-0.017904281616210938,-0.010926946997642517,-0.024856925010681152,-0.21434671519666318,2.231731865269266,3.0364385506055602,0.7713527083396912,0.21270914375782013,0.5998077392578125, 191, 118, 0, 151
1731319922714,9i,6.1988088072737195,1.5s : 0.4s,3.7061408056099197,0.001479802592034556,0.11884824688401005,0.03037041902167977,-0.009563468396663666,-0.03577399626374245,0.050551887601614,-0.012156426906585693,-0.01730555295944214,-0.021796822547912598,-0.21401927527138148,2.231408537019257,3.0361871674387415,0.771601676940918,0.21238918602466583,0.599601149559021, 191, 118, 0, 151
1731319922724,9i,6.1988088072737195,1.5s : 0.4s,3.7061408056099197,0.0023361509462774747,0.07452039726733296,0.02330172872656983,-0.01782539300620556,-0.041175954043865204,0.06349112093448639,-0.009594976902008057,-0.01641117036342621,-0.013475179672241211,-0.21354126350244665,2.231004305053954,3.0359604471873936,0.7719241380691528,0.2119220495223999,0.5993514060974121, 191, 118, 0, 151
1731319922734,9i,6.1988088072737195,1.5s : 0.4s,3.7061408056099197,0.0030659026811821954,0.06162803244147969,0.015365143921099434,-0.030930275097489357,-0.0480053648352623,0.06561259180307388,-0.011488854885101318,-0.008863374590873718,-0.005053162574768066,-0.21289098154665448,2.2305206374961255,3.0357380306837607,0.7723226547241211,0.2112865000963211,0.5990623235702515, 191, 118, 0, 151
1731319922744,9i,6.1988088072737195,1.5s : 0.4s,3.7061408056099197,0.0037026469885961563,0.05477521768389974,0.013332285336410364,-0.04275950416922569,-0.05046426132321358,0.07177647948265076,-0.012552440166473389,-0.004099562764167786,0.001838386058807373,-0.21210736295074634,2.229981801839056,3.035616521786992,0.7727760076522827,0.21052050590515137,0.5987473130226135, 191, 118, 0, 151
1731319922754,9i,6.1988088072737195,1.5s : 0.4s,3.7061408056099197,0.004257806978061391,0.04895029336931003,0.011440098686991985,-0.033984120935201645,-0.05733814463019371,0.07429423183202744,-0.01117795705795288,-0.0019313544034957886,-0.0014829039573669434,-0.21135665968380132,2.22937650303505,3.0354618216744145,0.7732628583908081,0.2097865641117096,0.5983758568763733, 191, 118, 0, 151
1731319922764,9i,6.1988088072737195,1.5s : 0.4s,3.7061408056099197,0.00474906827861204,0.04134642579928283,0.016222344537927633,-0.036924783140420914,-0.061644479632377625,0.07922587543725967,-0.010763585567474365,-0.005696356296539307,-0.010717332363128662,-0.2106192925431734,2.2286662537112036,3.0352501788727806,0.7738100290298462,0.2090655416250229,0.5979210138320923, 191, 118, 0, 151
1731319922774,9i,6.1988088072737195,1.5s : 0.4s,3.7061408056099197,0.005181219851635963,0.04449454568048904,0.02339710994003722,-0.034040313214063644,-0.0734231024980545,0.08885267376899719,-0.014782607555389404,-0.007337659597396851,-0.01658487319946289,-0.20981673149237032,2.227933591912198,3.0350227532389007,0.7743804454803467,0.20828065276145935,0.597456157207489, 191, 118, 0, 151
1731319922784,9i,6.1988088072737195,1.5s : 0.4s,3.7061408056099197,0.0055551354304402365,0.05577733135067695,0.02508205641649952,-0.029971538111567497,-0.0896071344614029,0.10298047214746475,-0.01865553855895996,-0.008143514394760132,-0.014654815196990967,-0.20887784407793425,2.2270216648851746,3.034682774214759,0.7750794887542725,0.20736226439476013,0.5968687534332275, 191, 118, 0, 151
1731319922794,9i,6.1988088072737195,1.5s : 0.4s,3.7061408056099197,0.005867606704580725,0.07016422772187776,0.028478304038382238,-0.02553364634513855,-0.10352081805467606,0.12260104715824127,-0.024114370346069336,-0.007184639573097229,-0.01333761215209961,-0.20777303288773213,2.2259503710341315,3.0341905356585963,0.7758997082710266,0.20628134906291962,0.596177339553833, 191, 118, 0, 151
1731319922804,9i,6.1988088072737195,1.5s : 0.4s,3.7061408056099197,0.0061154007577693525,0.08577379137887227,0.03726392656895287,-0.0568726621568203,-0.10983899235725403,0.13463999330997467,-0.030718564987182617,-0.008748292922973633,-0.019194722175598145,-0.20648630321387088,2.2247964301879946,3.0336955387040514,0.7767971158027649,0.20502211153507233,0.595442533493042, 191, 118, 0, 151
1731319922814,9i,6.1988088072737195,1.5s : 0.4s,3.7061408056099197,0.006243900886947353,0.10282229685114527,0.04461975369375105,-0.08606643229722977,-0.11881189793348312,0.15477845072746277,-0.03784459829330444,-0.005558103322982788,-0.022974252700805664,-0.20491084913533256,2.223635791895238,3.033383370925528,0.7777433395385742,0.20347987115383148,0.5947360396385193, 191, 118, 0, 151
1731319922824,9i,6.1988088072737195,1.5s : 0.4s,3.7061408056099197,0.006287992764458181,0.1424316280890009,0.048066723549769354,-0.09362848103046417,-0.18926234543323517,0.2817486524581909,-0.04177051782608032,-0.011603504419326782,-0.02076035737991333,-0.20298166968198406,2.2222509991431423,3.0330245101385636,0.7788768410682678,0.2015906721353531,0.5938953757286072, 191, 118, 0, 151
1731319922834,9i,6.1988088072737195,1.5s : 0.4s,3.7061408056099197,0.00634262365198096,0.12318238715687731,0.044705792980345216,-0.18994362652301788,0.14209648966789246,0.10949629545211792,-0.03599703311920166,-0.013450980186462402,-0.022844970226287842,-0.20140966935314178,2.2214497941141835,3.0331477764275316,0.7796036005020142,0.2000506967306137,0.593462347984314, 191, 118, 0, 151
1731319922844,9i,6.1988088072737195,1.5s : 0.4s,3.7061408056099197,0.0061401025706888665,0.1324596696151152,0.09052295675528249,-0.293323814868927,0.25001096725463867,0.011649629101157188,-0.08810442686080933,0.0015357732772827148,-0.02072817087173462,-0.19880688516239198,2.2194702798569326,3.032827401319465,0.7811890840530396,0.1974998563528061,0.592230498790741, 191, 118, 0, 151
1731319922854,9i,6.1988088072737195,1.5s : 0.4s,3.7061408056099197,0.005973326843774503,0.15486572979924165,0.055633381348386794,-0.29001563787460327,0.011543537490069866,0.1226351410150528,-0.03528392314910889,0.010777071118354797,0.0416409969329834,-0.19593378819734897,2.218441309054796,3.033536823701356,0.7822474837303162,0.1946825385093689,0.5917662978172302, 191, 118, 0, 151
1731319922864,9i,6.1988088072737195,1.5s : 0.4s,3.7061408056099197,0.0057541321653574815,0.1786492553439896,0.06709348813448125,-0.30339962244033813,-0.09681329131126404,0.18475016951560974,-0.01442950963973999,0.001335740089416504,0.0655098557472229,-0.1931771521764816,2.2178887875727153,3.0351539922259945,0.7829996347427368,0.19197791814804077,0.591655433177948, 191, 118, 0, 151
1731319922874,9i,6.1988088072737195,1.5s : 0.4s,3.7061408056099197,0.005567273708992453,0.19719712897426087,0.031132643166151466,-0.31874626874923706,-0.1179581731557846,0.1466948390007019,-0.007952094078063965,0.02011798322200775,0.022389113903045654,-0.19006984270065935,2.216946176676661,3.036680611667679,0.7840295433998108,0.18892748653888702,0.5912734270095825, 191, 118, 0, 151
1731319922884,9i,6.1988088072737195,1.5s : 0.4s,3.7061408056099197,0.005405057078467162,0.20734936789558647,0.048696947766668656,-0.3043103516101837,-0.11393652856349945,0.12936191260814667,0.012320280075073242,0.045473143458366394,-0.01232057809829712,-0.18723205432127998,2.216182622039832,3.0383667587990137,0.7849057912826538,0.1861400455236435,0.590994656085968, 191, 118, 0, 151
1731319922894,9i,6.1988088072737195,1.5s : 0.4s,3.7061408056099197,0.005248073958105984,0.21755420690117275,0.051616093087236636,-0.32367753982543945,-0.11138531565666199,0.11931627243757248,-0.027457118034362793,0.039967671036720276,-0.01768934726715088,-0.18448090408032783,2.215479535482952,3.040218476245315,0.7857274413108826,0.18343627452850342,0.590748131275177, 191, 118, 0, 151
1731319922904,9i,6.1988088072737195,1.5s : 0.4s,3.7061408056099197,0.005105167153660144,0.2260963041141966,0.04926813668201868,-0.33124303817749023,-0.11807969957590103,0.1110314428806305,-0.029437661170959473,0.03947095572948456,-0.0016784071922302246,-0.18169624197569711,2.214775968420274,3.0421999305166505,0.7865484356880188,0.18069815635681152,0.5904996395111084, 191, 118, 0, 151
1731319922914,9i,6.1988088072737195,1.5s : 0.4s,3.7061408056099197,0.004988869441094933,0.22750784545837277,0.049226371158329764,-0.31785550713539124,-0.11946951597929001,0.11241898685693741,-0.022366642951965332,0.04383529722690582,0.0011981725692749023,-0.17885758581557779,2.213951215774838,3.044181607981205,0.7874425649642944,0.17790549993515015,0.5901560187339783, 191, 118, 0, 151
1731319922924,9i,6.1988088072737195,1.5s : 0.4s,3.7061408056099197,0.004942180886112399,0.2260740784053278,0.04725481126313908,-0.27533653378486633,-0.10512333363294601,0.12149690091609955,-0.023572564125061035,0.03950724005699158,-0.010794878005981445,-0.1761390989195812,2.2131014914979934,3.045906251186762,0.7883278727531433,0.1752297282218933,0.5897741317749023, 191, 118, 0, 151
1731319922934,9i,6.1988088072737195,1.5s : 0.4s,3.7061408056099197,0.0050515087663660346,0.21348200679298734,0.05375832501982938,-0.22975097596645355,-0.09709789603948593,0.1172100156545639,-0.029037654399871826,0.026006758213043213,-0.037019193172454834,-0.17370272696481004,2.2123276383906907,3.047207612333074,0.7891235947608948,0.17283053696155548,0.5894175171852112, 191, 118, 0, 151
1731319922944,9i,6.1988088072737195,1.5s : 0.4s,3.7061408056099197,0.00545724725188038,0.19545609429610594,0.06705255532685617,-0.17331086099147797,-0.07673057913780212,0.1373581439256668,-0.026638329029083252,0.01850847899913788,-0.058684587478637695,-0.1714786935344217,2.2116103760443067,3.0480943278032138,0.7898526787757874,0.1706395447254181,0.5890799760818481, 191, 118, 0, 151
1731319922954,9i,6.1988088072737195,1.5s : 0.4s,3.7061408056099197,0.00616488603259358,0.17190221738301856,0.07496146766570472,-0.11180255562067032,-0.06297623366117477,0.1327403336763382,-0.004719674587249756,-0.0033186525106430054,-0.07473909854888916,-0.1695504303127963,2.210979544655531,3.0483983374027566,0.7904865145683289,0.16873924434185028,0.5887770056724548, 191, 118, 0, 151
1731319922964,9i,6.1988088072737195,1.5s : 0.4s,3.7061408056099197,0.007036415083719587,0.14518828382465468,0.07636497198634003,-0.044510867446660995,-0.07256121933460236,0.11888790130615234,0.010734379291534424,-0.03697209060192108,-0.06595033407211304,-0.16810329393655446,2.2102946269029835,3.0482712633596165,0.7910844087600708,0.16731268167495728,0.5883803367614746, 191, 118, 0, 151
1731319922974,9i,6.1988088072737195,1.5s : 0.4s,3.7061408056099197,0.007947071248209637,0.14664629204962817,0.06973605883630861,0.015049466863274574,-0.1329345554113388,0.2604333758354187,0.019040942192077637,-0.039022281765937805,-0.05456942319869995,-0.1667780022530203,2.2092825820902555,3.047472732276357,0.7918568849563599,0.1660059243440628,0.5877110958099365, 191, 118, 0, 151
1731319922984,9i,6.1988088072737195,1.5s : 0.4s,3.7061408056099197,0.008856866894331098,0.15836860477177056,0.06894218346353484,0.04939598590135574,-0.020983511582016945,0.33470413088798523,0.035369277000427246,-0.016979962587356567,-0.056689679622650146,-0.1663051074898514,2.208587037643153,3.0463697164065024,0.7923285961151123,0.16553957760334015,0.5872069597244263, 191, 118, 0, 151
1731319922994,9i,6.1988088072737195,1.5s : 0.4s,3.7061408056099197,0.009856420526191127,0.20235562661086992,0.07001696516899061,0.17733950912952423,-0.16590198874473572,0.44144517183303833,-0.002102494239807129,-0.009598731994628906,-0.06932401657104492,-0.166726901620286,2.207561534958732,3.0443125952308843,0.7928739190101624,0.1659555286169052,0.5863524079322815, 191, 118, 0, 151
1731319923003,9i,6.1988088072737195,1.5s : 0.4s,3.7061408056099197,0.010854274614992547,0.21192403130969834,0.08201214914424727,0.36688441038131714,-0.12856394052505493,0.24325166642665863,0.03455895185470581,0.028111562132835388,-0.06885790824890137,-0.16699955359923185,2.2061616229531924,3.0406713202478612,0.793657660484314,0.1662243902683258,0.5852150917053223, 191, 118, 0, 151
1731319923013,9i,6.1988088072737195,1.5s : 0.4s,3.7061408056099197,0.01171714511725758,0.24973450625857163,0.11749199240775528,0.5238551497459412,-0.1379600167274475,0.22913691401481628,0.06692463159561157,0.074710413813591,-0.06118673086166382,-0.1679140821284495,2.2042053156410506,3.0358526266606534,0.7946780920028687,0.1671261340379715,0.5835710167884827, 191, 118, 0, 151
1731319923023,9i,6.1988088072737195,1.5s : 0.4s,3.7061408056099197,0.012518247235968824,0.3104522512891221,0.14370703010933072,0.6529942154884338,-0.23149530589580536,0.2024610936641693,0.0633242130279541,0.119832843542099,-0.04776865243911743,-0.16975384312929415,2.2012625362811757,3.029767897214135,0.7961422801017761,0.1689397394657135,0.581047773361206, 191, 118, 0, 151
1731319923033,9i,6.1988088072737195,1.5s : 0.4s,3.7061408056099197,0.013027603532619877,0.3941149565087363,0.20239099079380854,0.8408278822898865,-0.20486706495285034,0.2502530515193939,0.07036525011062622,0.18806469440460205,0.025347888469696045,-0.17231439369342502,2.1976639283987764,3.0222338617250326,0.7978752255439758,0.17146292328834534,0.5779234170913696, 191, 118, 0, 151
1731319923043,9i,6.1988088072737195,1.5s : 0.4s,3.7061408056099197,0.013350123915045321,0.45096937304956314,0.1889097586200946,0.8871615529060364,-0.11132672429084778,0.12230493873357773,0.01315009593963623,0.16867513954639435,0.08403968811035156,-0.17559441501511824,2.1941741015294363,3.013496750788684,0.7994264364242554,0.17469345033168793,0.5748041272163391, 191, 118, 0, 151
1731319923053,9i,6.1988088072737195,1.5s : 0.4s,3.7061408056099197,0.013915489177810164,0.45399369204228435,0.09690778569726824,0.7232693433761597,-0.019799383357167244,-0.007229186594486237,-0.004308104515075684,0.06189891695976257,0.07443845272064209,-0.17899991292960912,2.1910303010412613,3.0056522631646465,0.800740659236908,0.17804555594921112,0.5719388723373413, 191, 118, 0, 151
1731319923063,9i,6.1988088072737195,1.5s : 0.4s,3.7061408056099197,0.014252681299324117,0.41475866938980976,0.08092741110452852,0.5170013904571533,0.04272471368312836,-0.12196935713291168,0.006462454795837402,-0.03423301875591278,0.07304507493972778,-0.18168478179615616,2.188414319628423,2.9996782141457237,0.8018413782119751,0.18068687617778778,0.5695632100105286, 191, 118, 0, 151
1731319923073,9i,6.1988088072737195,1.5s : 0.4s,3.7061408056099197,0.01452433376234456,0.351766965784894,0.10529655412581942,0.3151230216026306,0.011727206408977509,-0.1727195531129837,0.011516332626342773,-0.08012783527374268,0.06733697652816772,-0.18377590039451253,2.186103330116828,2.995813865585683,0.8028451204299927,0.18274317681789398,0.5674892663955688, 191, 118, 0, 151
1731319923083,9i,6.1988088072737195,1.5s : 0.4s,3.7061408056099197,0.014757207244444265,0.29898762520396927,0.0720464026069435,0.2482355833053589,-0.10275116562843323,-0.09401807934045792,0.006639242172241211,-0.04446403682231903,0.056298792362213135,-0.18527748018389056,2.183668557879313,2.9932819355858684,0.8039991855621338,0.18421927094459534,0.5653744339942932, 191, 118, 0, 151
1731319923093,9i,6.1988088072737195,1.5s : 0.4s,3.7061408056099197,0.01506785956872573,0.29159414565609004,0.0851233328065597,0.28721535205841064,-0.34584876894950867,0.10406964272260666,0.019690215587615967,0.04811576008796692,0.0674028992652893,-0.1865458743894125,2.1805231127167994,2.9909504510240312,0.8055815696716309,0.18546581268310547,0.5627086162567139, 191, 118, 0, 151
1731319923103,9i,6.1988088072737195,1.5s : 0.4s,3.7061408056099197,0.01583522632447538,0.31516764588980695,0.1853772778358598,0.3495141267776489,-0.48695582151412964,0.45854198932647705,0.02981036901473999,0.15021462738513947,0.10445880889892578,-0.18733547088193817,2.1770796780704953,2.988140679344402,0.8073935508728027,0.18624164164066315,0.5598474740982056, 191, 118, 0, 151
1731319923113,9i,6.1988088072737195,1.5s : 0.4s,3.7061408056099197,0.017337567982684557,0.4613802948214059,0.24048687871273383,0.7945770621299744,-0.6321749091148376,0.7096874713897705,0.015516936779022217,0.19423368573188782,0.1409483551979065,-0.18856513576784886,2.173496187726668,2.982391130693822,0.8092053532600403,0.18744966387748718,0.5568203926086426, 191, 118, 0, 151
1731319923123,9i,6.1988088072737195,1.5s : 0.4s,3.7061408056099197,0.01903579493860553,0.6729821193816441,0.16559756145212343,1.3597368001937866,-0.7664733529090881,0.7684264183044434,-0.035290658473968506,0.06251904368400574,0.14922630786895752,-0.19301060518049737,2.169666697503772,2.97330300947234,0.810635507106781,0.19181446731090546,0.5532423257827759, 191, 118, 0, 151
1731319923133,9i,6.1988088072737195,1.5s : 0.4s,3.7061408056099197,0.020350546167639386,0.8717473182366151,0.10871101539777361,1.5213996171951294,-0.6547266244888306,1.1373493671417236,-0.08092600107192993,-0.0234086811542511,0.06871026754379272,-0.19950368511111025,2.1664749632753435,2.95976751656792,0.8113491535186768,0.1981828808784485,0.5499418377876282, 191, 118, 0, 151
1731319923143,9i,6.1988088072737195,1.5s : 0.4s,3.7061408056099197,0.02163940576483286,0.8686317953145153,0.10431507312169402,0.691941499710083,-0.6633970737457275,0.9087350964546204,-0.09851539134979248,-0.028791412711143494,-0.01863884925842285,-0.2032064789561104,2.165115598445626,2.949057468760279,0.8114825487136841,0.20181086659431458,0.5484237670898438, 191, 118, 0, 151
1731319923153,9i,6.1988088072737195,1.5s : 0.4s,3.7061408056099197,0.020745818118645235,0.7093851608870814,0.3222833806908686,0.018992675468325615,-0.4850865602493286,0.4800604581832886,-0.16504496335983276,-0.27035045623779297,0.05947577953338623,-0.20376438408072658,2.1649429140298664,2.9456367413969837,0.8114835023880005,0.20235726237297058,0.5482203364372253, 191, 118, 0, 151
1731319923163,9i,6.1988088072737195,1.5s : 0.4s,3.7061408056099197,0.016883062174067768,0.5107420152740667,0.52012284584342,-0.18789233267307281,-0.2643997073173523,0.06652479618787766,-0.0768733024597168,-0.5111038684844971,0.05823320150375366,-0.20345307985368963,2.1657727730030736,2.947339399564849,0.8110806345939636,0.20205238461494446,0.54892897605896, 191, 118, 0, 151
1731319923173,9i,6.1988088072737195,1.5s : 0.4s,3.7061408056099197,0.012895258481076675,0.3269512775588715,0.24387591044863519,-0.09078894555568695,0.05473707988858223,-0.11822867393493652,0.030267775058746338,-0.2393723875284195,0.03549903631210327,-0.20307609125200984,2.166904018643873,2.9485634396753295,0.8105220198631287,0.2016831636428833,0.5498888492584229, 191, 118, 0, 151
1731319923183,9i,6.1988088072737195,1.5s : 0.4s,3.7061408056099197,0.01051693814849994,0.1352384403415877,0.04125300979471351,-0.12315727770328522,0.30614855885505676,-0.41723135113716125,0.021379411220550537,0.028199121356010437,-0.021202385425567627,-0.2027090205643043,2.1683591633691877,2.9492700579976545,0.8097822666168213,0.20132361352443695,0.5511093735694885, 191, 118, 0, 151
1731319923193,9i,6.1988088072737195,1.5s : 0.4s,3.7061408056099197,0.009004957314548864,0.10286542529167855,0.022988266966832573,-0.22278013825416565,0.43250852823257446,-0.6363716125488281,-0.017843961715698242,-0.010542869567871094,-0.009944915771484375,-0.20264659898902546,2.169580066848672,2.950817677064492,0.8091190457344055,0.2012624740600586,0.5521045923233032, 191, 118, 0, 151
1731319923203,9i,6.1988088072737195,1.5s : 0.4s,3.7061408056099197,0.007843921139798458,0.23319485644679036,0.08749929408685167,-0.23864857852458954,0.5037416815757751,-0.6401394605636597,0.03571957349777222,-0.06939762830734253,0.039550065994262695,-0.20213421120861785,2.1702683441886776,2.9527554026139855,0.8088239431381226,0.20076054334640503,0.5527195334434509, 191, 118, 0, 151
1731319923213,9i,6.1988088072737195,1.5s : 0.4s,3.7061408056099197,0.007157177771891902,0.3204391999945086,0.07756498039030246,-0.14955565333366394,0.5266352891921997,-0.5665377974510193,0.07601398229598999,0.00296628475189209,0.015146017074584961,-0.20139526856542367,2.1704545106886317,2.954003017577692,0.8088430762290955,0.20003660023212433,0.5529535412788391, 191, 118, 0, 151
1731319923223,9i,6.1988088072737195,1.5s : 0.4s,3.7061408056099197,0.00681130959574187,0.3558756379189462,0.09521474202163051,-0.06896467506885529,0.47361788153648376,-0.4526769816875458,0.050833702087402344,0.05500505864620209,-0.05878967046737671,-0.20098401613191372,2.170405649854744,2.954470600176864,0.808938205242157,0.1996336430311203,0.5529605746269226, 191, 118, 0, 151
1731319923233,9i,6.1988088072737195,1.5s : 0.4s,3.7061408056099197,0.006484271896338666,0.340353219447748,0.09425073949209901,-0.07115020602941513,0.34877535700798035,-0.2878815829753876,0.028048813343048096,0.017158031463623047,-0.08832931518554688,-0.20083359652200913,2.170251001643443,2.9547720083113607,0.8090484142303467,0.19948624074459076,0.5528523325920105, 191, 118, 0, 151
1731319923243,9i,6.1988088072737195,1.5s : 0.4s,3.7061408056099197,0.005852126068489714,0.2826207661217548,0.09416204204520016,-0.12956345081329346,0.1917729675769806,-0.09121619910001755,0.033791422843933105,-0.0400572270154953,-0.07823073863983154,-0.20043902023151908,2.170350410545012,2.9556391646245013,0.8090583682060242,0.1990995854139328,0.5529771447181702, 191, 118, 0, 151
1731319923253,9i,6.1988088072737195,1.5s : 0.4s,3.7061408056099197,0.0053801011200402,0.19621728707292535,0.08364185293558873,-0.1405772715806961,-0.008716370910406113,0.06598816812038422,0.034381330013275146,-0.0626019835472107,-0.043530166149139404,-0.1999173133967818,2.170633876951989,2.9571850887800455,0.8089871406555176,0.1985882967710495,0.5532649755477905, 191, 118, 0, 151
1731319923263,9i,6.1988088072737195,1.5s : 0.4s,3.7061408056099197,0.005278587517575449,0.1617848043316676,0.07347547632129955,-0.09928283840417862,-0.1774987280368805,0.22940053045749664,0.03210914134979248,-0.06561264395713806,-0.00791388750076294,-0.19954849432522004,2.1709383994900366,2.9589072576069833,0.8088791370391846,0.19822680950164795,0.5535527467727661, 191, 118, 0, 151
1731319923273,9i,6.1988088072737195,1.5s : 0.4s,3.7061408056099197,0.0054734732954776835,0.04810139684257283,0.047403748307429446,0.026483748108148575,-0.3114796280860901,0.37453117966651917,0.04703342914581299,0.00034449994564056396,-0.005903661251068115,-0.1993217304092531,2.171062683199914,2.9597656898563325,0.8088474869728088,0.19800452888011932,0.5536786317825317, 191, 118, 0, 151
1731319923283,9i,6.1988088072737195,1.5s : 0.4s,3.7061408056099197,0.0054753785076298465,0.11913761759369748,0.08968416862801286,0.19047081470489502,-0.3882249891757965,0.450682669878006,0.04743701219558716,0.07327406108379364,-0.02058863639831543,-0.1995005313864977,2.1707742623641666,2.959127344657381,0.8089778423309326,0.19817979633808136,0.5534253120422363, 191, 118, 0, 151
1731319923293,9i,6.1988088072737195,1.5s : 0.4s,3.7061408056099197,0.005006294556364594,0.22615243174267194,0.09224909580483424,0.40025168657302856,-0.43457552790641785,0.4549693763256073,0.022096216678619385,0.08412419259548187,-0.03073716163635254,-0.20030894785565176,2.1699073581043113,2.956627692045523,0.8093246817588806,0.19897210597991943,0.5526332855224609, 191, 118, 0, 151
1731319923303,9i,6.1988088072737195,1.5s : 0.4s,3.7061408056099197,0.004420196090264921,0.3131430503479526,0.06776363618172843,0.47310778498649597,-0.45922842621803284,0.4250759184360504,0.0015354156494140625,0.0660872608423233,-0.014900565147399902,-0.20168038289014745,2.168046241258553,2.952446817084788,0.8101254105567932,0.2003159373998642,0.550972044467926, 191, 118, 0, 151
1731319923313,9i,6.1988088072737195,1.5s : 0.4s,3.7061408056099197,0.003664746490857649,0.39560588958418097,0.11738454347820572,0.6647645831108093,-0.43661853671073914,0.42205682396888733,-0.00018960237503051758,0.1099136620759964,0.04120779037475586,-0.2029543999520727,2.1650220787816794,2.9465881046268527,0.8115756511688232,0.2015639692544937,0.5483761429786682, 191, 118, 0, 151
1731319923323,9i,6.1988088072737195,1.5s : 0.4s,3.7061408056099197,0.003185063878231679,0.45699519131434707,0.14450430077019735,0.8054372668266296,-0.3529859483242035,0.3166334629058838,0.010322213172912598,0.13481345772743225,0.05099290609359741,-0.2047333482078445,2.1611514192565515,2.938597896114492,0.8133931756019592,0.20330607891082764,0.545030415058136, 191, 118, 0, 151
1731319923333,9i,6.1988088072737195,1.5s : 0.4s,3.7061408056099197,0.003567830819614193,0.49786445970073906,0.08496893323046302,0.8540236353874207,-0.2398705780506134,0.2565442621707916,-0.006161153316497803,0.07946258783340454,0.029452621936798096,-0.20676708455444873,2.156968722109757,2.9297789503469414,0.8153194785118103,0.20529691874980927,0.541393518447876, 191, 118, 0, 151
1731319923343,9i,6.1988088072737195,1.5s : 0.4s,3.7061408056099197,0.004469200452362396,0.5248590122210636,0.05063663591059976,0.9001466035842896,-0.1416255086660385,0.14983725547790527,-0.03256404399871826,0.03075428307056427,0.023618340492248535,-0.20903058120802082,2.1527298727515203,2.92004460361254,0.8172166347503662,0.20751167833805084,0.5376757979393005, 191, 118, 0, 151
1731319923353,9i,6.1988088072737195,1.5s : 0.4s,3.7061408056099197,0.005466907250373257,0.5484317861315133,0.05667906938909646,0.9331164956092834,-0.04266306385397911,0.11633732169866562,-0.05363720655441284,-0.017823323607444763,0.004230380058288574,-0.211411181048755,2.148821255437325,2.9103505446096483,0.8188958764076233,0.2098398655653,0.5342060923576355, 191, 118, 0, 151
1731319923363,9i,6.1988088072737195,1.5s : 0.4s,3.7061408056099197,0.006336967162450535,0.5453922393797673,0.07794526019724783,0.791347086429596,0.0022985516116023064,0.11163471639156342,-0.05231630802154541,-0.057203203439712524,-0.008140087127685547,-0.21359345462830817,2.145305469624006,2.901118795270175,0.8203826546669006,0.21197305619716644,0.5310736298561096, 191, 118, 0, 151
1731319923373,9i,6.1988088072737195,1.5s : 0.4s,3.7061408056099197,0.007082719122513733,0.529317430740743,0.06922854678729008,0.7411145567893982,0.010322478599846363,0.11441542208194733,-0.04039335250854492,-0.053428441286087036,0.017503440380096436,-0.2153677843608106,2.142124616373903,2.8928220828895603,0.8217501640319824,0.21370673179626465,0.5282573103904724, 191, 118, 0, 151
1731319923383,9i,6.1988088072737195,1.5s : 0.4s,3.7061408056099197,0.007536832453878996,0.49774720267854217,0.07196868249080629,0.6188344359397888,0.007398327812552452,0.15574954450130463,-0.028429269790649414,-0.058288246393203735,0.031204938888549805,-0.2167657956886678,2.139186713059369,2.885365500565519,0.8230459094047546,0.21507222950458527,0.5256794095039368, 191, 118, 0, 151
1731319923393,9i,6.1988088072737195,1.5s : 0.4s,3.7061408056099197,0.007557713221849874,0.4732354196446407,0.06359402030933455,0.593056321144104,-0.03412816300988197,0.18284015357494354,-0.01708841323852539,-0.05972568690776825,-0.013602495193481445,-0.21789413799386906,2.1366498266075338,2.878770919815796,0.8241716027259827,0.21617403626441956,0.5234593749046326, 191, 118, 0, 151
1731319923403,9i,6.1988088072737195,1.5s : 0.4s,3.7061408056099197,0.007187416152465171,0.4709852059067678,0.062219982726847624,0.6441930532455444,-0.0880286768078804,0.20475903153419495,-0.02433300018310547,-0.045583948493003845,-0.034660279750823975,-0.21931973215861691,2.133964948501943,2.87230684487524,0.8253124952316284,0.21756570041179657,0.5210795402526855, 191, 118, 0, 151
1731319923413,9i,6.1988088072737195,1.5s : 0.4s,3.7061408056099197,0.0068588441021048135,0.49122280533827967,0.021637640757251043,0.7534738779067993,-0.11919823288917542,0.2545475661754608,-0.02091372013092041,-0.0035534799098968506,-0.004263401031494141,-0.22109436144532635,2.131017126356176,2.8650891824803613,0.8265167474746704,0.21929748356342316,0.5184385776519775, 191, 118, 0, 151
1731319923423,9i,6.1988088072737195,1.5s : 0.4s,3.7061408056099197,0.006651611713156063,0.48878788172956067,0.03605211493301188,0.6423004865646362,-0.11845654249191284,0.27639666199684143,-0.006174147129058838,0.03507609665393829,0.005594849586486816,-0.22274269534346242,2.128001614907387,2.857661460951709,0.8277685642242432,0.2209053933620453,0.5157520771026611, 191, 118, 0, 151
1731319923433,9i,6.1988088072737195,1.5s : 0.4s,3.7061408056099197,0.0065274372077642065,0.4711505826462218,0.03851650238403574,0.5946474671363831,-0.1008715033531189,0.2193385809659958,-0.014373600482940674,0.034097954630851746,-0.01068878173828125,-0.2239334012066558,2.12539091561345,2.850929748742678,0.8288877010345459,0.22206652164459229,0.5134501457214355, 191, 118, 0, 151
1731319923443,9i,6.1988088072737195,1.5s : 0.4s,3.7061408056099197,0.006050010764738718,0.43218127640304066,0.07589687363373684,0.4909737706184387,-0.05933259055018425,0.12228472530841827,-0.03684401512145996,-0.049534574151039124,-0.04414951801300049,-0.22537252883588196,2.1232920679242815,2.8452225510706692,0.8296907544136047,0.22346948087215424,0.5115411877632141, 191, 118, 0, 151
1731319923453,9i,6.1988088072737195,1.5s : 0.4s,3.7061408056099197,0.005185396937999895,0.3890670048952165,0.12215757167119913,0.42441245913505554,0.014062533155083656,0.09508579969406128,-0.05994445085525513,-0.07724158465862274,-0.07323163747787476,-0.2269508840139988,2.121988167387228,2.84070404719208,0.8300555348396301,0.22500765323638916,0.5102735161781311, 191, 118, 0, 151
1731319923463,9i,6.1988088072737195,1.5s : 0.4s,3.7061408056099197,0.004531323508396309,0.3361068968360398,0.0837620059014276,0.28226596117019653,0.026824932545423508,0.16762365400791168,-0.041836678981781006,-0.022267937660217285,-0.06906449794769287,-0.22784750174466445,2.121102972523799,2.8365995904178893,0.8303346037864685,0.2258811891078949,0.5094329118728638, 191, 118, 0, 151
1731319923473,9i,6.1988088072737195,1.5s : 0.4s,3.7061408056099197,0.004196895229944705,0.268867544683564,0.055860376689085625,0.1720125824213028,0.056137457489967346,0.01683034375309944,-0.003594696521759033,-0.017266377806663513,-0.053003132343292236,-0.2281642381278453,2.1209899998813393,2.834054422519052,0.8303312659263611,0.2261897176504135,0.5093017220497131, 191, 118, 0, 151
1731319923483,9i,6.1988088072737195,1.5s : 0.4s,3.7061408056099197,0.0038921943658095414,0.1818883743083557,0.15220018202062038,-0.0252019502222538,0.03530195355415344,-0.02657278999686241,-0.001706540584564209,-0.14570914208889008,-0.0439411997795105,-0.22862833438884167,2.1213156272618985,2.8335703520013116,0.8300758004188538,0.22664175927639008,0.5095170736312866, 191, 118, 0, 151
1731319923493,9i,6.1988088072737195,1.5s : 0.4s,3.7061408056099197,0.004333810142408057,0.13300594069452357,0.10886309124007186,0.024948369711637497,0.014039896428585052,0.013387175276875496,-0.0010183453559875488,-0.10859435796737671,-0.007576346397399902,-0.2286071419944336,2.1215662371014767,2.8336480025985646,0.8299522399902344,0.2266211211681366,0.5097276568412781, 191, 118, 0, 151
1731319923503,9i,6.1988088072737195,1.5s : 0.4s,3.7061408056099197,0.004921478918734804,0.10348311462409936,0.029886922754624068,0.04950670897960663,0.004509241785854101,0.013806357979774475,0.023609936237335205,0.002711579203605652,-0.018123090267181396,-0.22870822338777452,2.12152898408562,2.8331800561297933,0.8299516439437866,0.22671957314014435,0.509684681892395, 191, 118, 0, 151
1731319923513,9i,6.1988088072737195,1.5s : 0.4s,3.7061408056099197,0.005687350366304282,0.07807015188172838,0.040140058967148555,0.03094600699841976,-0.010537529364228249,-0.005462844856083393,0.012143552303314209,-0.01638665795326233,-0.03457218408584595,-0.2289059208692362,2.121410363511729,2.8327736967402806,0.8299737572669983,0.22691212594509125,0.5095627307891846, 191, 118, 0, 151
1731319923523,9i,6.1988088072737195,1.5s : 0.4s,3.7061408056099197,0.006602859945933892,0.06217970370351152,0.05045280288070616,0.037475280463695526,-0.03198050335049629,-0.0002915188670158386,-0.009411036968231201,-0.047756269574165344,-0.013276159763336182,-0.22909141516822187,2.1211122809789726,2.8325160710476855,0.8300897479057312,0.22709277272224426,0.509293258190155, 191, 118, 0, 151
1731319923533,9i,6.1988088072737195,1.5s : 0.4s,3.7061408056099197,0.007548232155381647,0.06293134048268839,0.029366876670147344,0.100594662129879,-0.040567245334386826,0.009118528105318546,-0.014694571495056152,-0.022709086537361145,-0.011435925960540771,-0.22942847226531565,2.1206164407043753,2.831912984899546,0.8302770256996155,0.22742101550102234,0.5088416934013367, 191, 118, 0, 151
1731319923543,9i,6.1988088072737195,1.5s : 0.4s,3.7061408056099197,0.008488010700779132,0.08526462448890784,0.03594143436661077,0.1966455578804016,-0.04492151364684105,0.0380745455622673,-0.020973026752471924,0.0026565492153167725,-0.029066503047943115,-0.23000258689076022,2.119843092135208,2.830476162482073,0.830558717250824,0.22798004746437073,0.508131206035614, 191, 118, 0, 151
1731319923553,9i,6.1988088072737195,1.5s : 0.4s,3.7061408056099197,0.009406766902834386,0.10281494468816639,0.04418588339627271,0.20666897296905518,-0.03499200567603111,0.044297054409980774,-0.026414453983306885,0.008128687739372253,-0.03447598218917847,-0.2307137843810695,2.118980968785742,2.828475362596696,0.8308579325675964,0.22867245972156525,0.5073303580284119, 191, 118, 0, 151
1731319923562,9i,6.1988088072737195,1.5s : 0.4s,3.7061408056099197,0.010329255193512719,0.11220532309966165,0.05131926646849755,0.19721448421478271,-0.008234960027039051,0.03728681802749634,-0.029759526252746582,-0.004706054925918579,-0.04154384136199951,-0.23138994744247798,2.118292113928879,2.826483725818285,0.8310748934745789,0.2293306440114975,0.5066772103309631, 191, 118, 0, 151
1731319923572,9i,6.1988088072737195,1.5s : 0.4s,3.7061408056099197,0.011360063023800904,0.1152291490151151,0.0703319282765127,0.19415676593780518,0.033429041504859924,0.011874466203153133,-0.03621548414230347,-0.04139415919780731,-0.04383540153503418,-0.2321956884003456,2.118007347397579,2.8246504318409444,0.8310611248016357,0.23011484742164612,0.5063442587852478, 191, 118, 0, 151
1731319923582,9i,6.1988088072737195,1.5s : 0.4s,3.7061408056099197,0.01243471817510621,0.12483887344189788,0.06707467176818409,0.21999076008796692,0.07307339459657669,-0.0009124348871409893,-0.05020546913146973,-0.03476835787296295,-0.02774137258529663,-0.2331800621372891,2.118080945234499,2.822786462701833,0.8308299779891968,0.23107267916202545,0.5062872767448425, 191, 118, 0, 151
1731319923592,9i,6.1988088072737195,1.5s : 0.4s,3.7061408056099197,0.013446805410368447,0.1334959590819788,0.04998984003044716,0.21668797731399536,0.10799764096736908,-0.02119130827486515,-0.049135029315948486,0.00890512764453888,-0.002330601215362549,-0.2343849195060245,2.1184887784074857,2.8209259406719194,0.830385148525238,0.23224475979804993,0.5064807534217834, 191, 118, 0, 151
1731319923602,9i,6.1988088072737195,1.5s : 0.4s,3.7061408056099197,0.013845218511245004,0.14378598305252696,0.0990993684714486,0.21536625921726227,0.15162953734397888,-0.0164926927536726,-0.04976189136505127,0.07915952801704407,0.032836079597473145,-0.23551161016847982,2.1193393455745526,2.8192018546517805,0.8297303915023804,0.23334050178527832,0.5070502161979675, 191, 118, 0, 151
1731319923612,9i,6.1988088072737195,1.5s : 0.4s,3.7061408056099197,0.013505373022617197,0.18839785722928912,0.17915870402892273,0.3717019259929657,0.23656253516674042,-0.020269520580768585,-0.06094157695770264,0.15998588502407074,0.052806079387664795,-0.2371275886866415,2.1206676908492805,2.816753341160431,0.828733503818512,0.23491156101226807,0.5079541802406311, 191, 118, 0, 151
1731319923622,9i,6.1988088072737195,1.5s : 0.4s,3.7061408056099197,0.012727534600421947,0.2747613572277843,0.22678599548727277,0.6171785593032837,0.3475460410118103,-0.061434801667928696,-0.07143664360046387,0.2021375298500061,0.07395344972610474,-0.2400099276047958,2.1225927526856885,2.8126470221137634,0.8271738886833191,0.23771226406097412,0.5091913938522339, 191, 118, 0, 151
1731319923632,9i,6.1988088072737195,1.5s : 0.4s,3.7061408056099197,0.011898531233986605,0.38315182360949884,0.31261729604453514,0.7975394129753113,0.5003021359443665,-0.13316655158996582,-0.0762166976928711,0.2615652084350586,0.1533108949661255,-0.24457360003846118,2.1254549012918065,2.8069025782110977,0.8247824311256409,0.24214263260364532,0.5109801888465881, 191, 118, 0, 151
1731319923642,9i,6.1988088072737195,1.5s : 0.4s,3.7061408056099197,0.012176011712895547,0.5139994601006856,0.4643288028411557,0.9612820148468018,0.7273606061935425,-0.23821626603603363,-0.07161951065063477,0.3624494671821594,0.2812512516975403,-0.25071885977891206,2.1298762502843185,2.8003005541402763,0.8212380409240723,0.2481004148721695,0.5138227939605713, 191, 118, 0, 151
1731319923652,9i,6.1988088072737195,1.5s : 0.4s,3.7061408056099197,0.015963408954607995,0.6913948938015669,0.6308443852793667,1.2144420146942139,1.065775990486145,-0.37070557475090027,-0.06831103563308716,0.4669269323348999,0.41866153478622437,-0.2591386494254976,2.136827629172164,2.7924597684508994,0.8158543109893799,0.2562480568885803,0.5183804035186768, 191, 118, 0, 151
1731319923662,9i,6.1988088072737195,1.5s : 0.4s,3.7061408056099197,0.02432429920403061,0.9192190634076574,0.7730447293647029,1.520416498184204,1.4670259952545166,-0.4993048310279846,-0.07173508405685425,0.5717589855194092,0.5153095126152039,-0.2701217842860954,2.1469531977595966,2.783072309595198,0.8081549406051636,0.2668488025665283,0.5250497460365295, 191, 118, 0, 151
1731319923672,9i,6.1988088072737195,1.5s : 0.4s,3.7061408056099197,0.03664364478194371,1.2006625354154563,0.9036364180889205,1.8774938583374023,1.9079325199127197,-0.7355919480323792,-0.07698172330856323,0.7010102272033691,0.564993143081665,-0.28448575990963243,2.1607285091370843,2.771944269361716,0.7975780963897705,0.2806639075279236,0.5339446067810059, 191, 118, 0, 151
1731319923682,9i,6.1988088072737195,1.5s : 0.4s,3.7061408056099197,0.05247117319474989,1.5284592447158631,1.0424135079128032,2.255000352859497,2.369354486465454,-1.0157737731933594,-0.12420386075973511,0.8007799386978149,0.6557063460350037,-0.3033538208414252,2.1784459028096963,2.7593291294260864,0.7835055589675903,0.2987225651741028,0.544870138168335, 191, 118, 0, 151
1731319923692,9i,6.1988088072737195,1.5s : 0.4s,3.7061408056099197,0.07192778091470069,1.8705416899151444,1.2336281605626902,2.5797903537750244,2.7337887287139893,-1.3217271566390991,-0.19505006074905396,0.9225337505340576,0.7954403758049011,-0.3268135906441064,2.199788796105024,2.745808790173658,0.7658202648162842,0.32102692127227783,0.55718994140625, 191, 118, 0, 151
1731319923702,9i,6.1988088072737195,1.5s : 0.4s,3.7061408056099197,0.09502754362685122,2.1982408113516145,1.4027277042174424,2.7635855674743652,3.08891224861145,-1.5431766510009766,-0.2770426869392395,1.0950419902801514,0.8317303657531738,-0.3542619936413771,2.2244201299406443,2.7324602660324278,0.7445873022079468,0.34689828753471375,0.5703079104423523, 191, 118, 0, 151
1731319923712,9i,6.1988088072737195,1.5s : 0.4s,3.7061408056099197,0.1215785832264215,2.5287362122739614,1.5450460564604578,3.1920056343078613,3.3266794681549072,-1.7153855562210083,-0.4286308288574219,1.2005488872528076,0.8729978799819946,-0.38534857503632763,2.2513799248397937,2.718309357385613,0.7202109098434448,0.37588217854499817,0.5831022262573242, 191, 118, 0, 151
1731319923722,9i,6.1988088072737195,1.5s : 0.4s,3.7061408056099197,0.15146833606228954,2.8868727487100356,1.6988954519826744,3.7267098426818848,3.5837361812591553,-2.0241799354553223,-0.61538165807724,1.239612340927124,0.9853488802909851,-0.4216678538629958,2.2796151886675746,2.702563883787197,0.6926369071006775,0.40928277373313904,0.5939202308654785, 191, 118, 0, 151
1731319923732,9i,6.1988088072737195,1.5s : 0.4s,3.7061408056099197,0.18554801812662777,3.266291046915655,1.9934607216950653,4.124354839324951,3.963010311126709,-2.3696515560150146,-0.819407045841217,1.3605051040649414,1.204775333404541,-0.46418243111241747,2.31023164277859,2.686215405562483,0.6606699824333191,0.4476918876171112,0.6025670766830444, 191, 118, 0, 151
1731319923742,9i,6.1988088072737195,1.5s : 0.4s,3.7061408056099197,0.22417890427088688,3.6667602000708115,2.238462269134757,4.558914661407471,4.343797206878662,-2.7241270542144775,-0.9681122303009033,1.4939035177230835,1.3571014404296875,-0.5125780572311815,2.344516341460924,2.670372934784118,0.6233857870101929,0.49042561650276184,0.6089932322502136, 191, 118, 0, 151
1731319923752,9i,6.1988088072737195,1.5s : 0.4s,3.7061408056099197,0.26635150236997857,4.0793750506947495,2.2861300902904573,5.071941375732422,4.590007781982422,-3.127714157104492,-1.0242588520050049,1.5286891460418701,1.3566112518310547,-0.5672746322153133,2.381506060113063,2.655382644273811,0.5810675024986267,0.5373355746269226,0.6112534403800964, 191, 118, 0, 151
1731319923762,9i,6.1988088072737195,1.5s : 0.4s,3.7061408056099197,0.31089801040785314,4.5054061340031435,2.262244171112465,5.653207302093506,4.759299278259277,-3.5761210918426514,-1.0303537845611572,1.5820351839065552,1.2463083267211914,-0.6293307714711284,2.4204975423504913,2.641550253819462,0.533726155757904,0.5886038541793823,0.6071919202804565, 191, 118, 0, 151
1731319923772,9i,6.1988088072737195,1.5s : 0.4s,3.7061408056099197,0.35709205763611934,4.911158756459247,2.252749901856809,5.983843803405762,4.794878959655762,-4.2329277992248535,-1.0009737014770508,1.6155285835266113,1.2095458507537842,-0.6989483866839612,2.4621344354713846,2.6317681258625965,0.4810306131839752,0.6434130072593689,0.5955076217651367, 191, 118, 0, 151
1731319923782,9i,6.1988088072737195,1.5s : 0.4s,3.7061408056099197,0.40401233261244146,5.2660829998413226,2.1839816434551564,6.047292232513428,4.829295635223389,-4.82533597946167,-0.945065975189209,1.5847806930541992,1.1683733463287354,-0.7742999226458225,2.509583154702696,2.630732915120981,0.4223458170890808,0.6992157697677612,0.576819896697998, 191, 118, 0, 151
1731319923792,9i,6.1988088072737195,1.5s : 0.4s,3.7061408056099197,0.4509540424646273,5.564969555152482,2.0981547947885315,6.100593090057373,4.707137107849121,-5.350270748138428,-0.8004199862480164,1.597214698791504,1.1002211570739746,-0.8529417357350416,2.5651571020181203,2.641614974751858,0.3585103452205658,0.7532186508178711,0.5514815449714661, 191, 118, 0, 151
1731319923802,9i,6.1988088072737195,1.5s : 0.4s,3.7061408056099197,0.4968329605486764,5.8255069020798045,1.963710331691537,6.114639759063721,4.567041397094727,-5.8988752365112305,-0.5624203085899353,1.6209969520568848,0.9550971388816833,-0.9342329193020734,2.631977465799249,2.667903107262261,0.28999003767967224,0.8041433095932007,0.5189015865325928, 191, 118, 0, 151
1731319923812,9i,6.1988088072737195,1.5s : 0.4s,3.7061408056099197,0.5415619414295071,6.073203681222972,1.9494725735692044,6.1496381759643555,4.42692232131958,-6.493980407714844,-0.3411189913749695,1.7098541259765625,0.8720550537109375,-1.016518156668196,2.718145446233565,2.7177096808726717,0.2162717580795288,0.8502805829048157,0.4798429608345032, 191, 118, 0, 151
1731319923822,9i,6.1988088072737195,1.5s : 0.4s,3.7061408056099197,0.585988257088671,6.348224796006708,2.100257022248506,6.464115619659424,4.278277397155762,-7.05131196975708,-0.17662107944488525,1.9336776733398438,0.8004843592643738,-1.0996751526110713,2.833857354179649,2.800592358508555,0.13748247921466827,0.891059935092926,0.43256303668022156, 191, 118, 0, 151
1731319923832,9i,6.1988088072737195,1.5s : 0.4s,3.7061408056099197,0.631732711760406,6.6193886532196675,2.392221067947589,6.6811628341674805,4.187058448791504,-7.461170196533203,-0.015090148895978928,2.224722385406494,0.8792634606361389,-1.179864602070797,2.9983073451755504,2.935050555595133,0.054412249475717545,0.9245544075965881,0.3771452009677887, 191, 118, 0, 151
1731319923842,9i,6.1988088072737195,1.5s : 0.4s,3.7061408056099197,0.6803670316026293,6.9002126915378925,2.7524603538397545,7.129029273986816,4.138771057128906,-7.7124199867248535,0.16840191185474396,2.5626907348632812,0.9900984764099121,-1.2506215469262016,-3.0428992004313042,-3.1344927193989616,-0.03101157210767269,0.9491804242134094,0.31320029497146606, 191, 118, 0, 151
1731319923852,9i,6.1988088072737195,1.5s : 0.4s,3.7061408056099197,0.7320980944489547,7.186378602986146,2.9655482218633638,7.575779438018799,3.976264476776123,-8.028728485107422,0.39721986651420593,2.728640556335449,1.091427206993103,-1.3005174920367963,-2.686247366011522,-2.804160779989955,-0.11741923540830612,0.9636964797973633,0.23979514837265015, 191, 118, 0, 151
1731319923862,9i,6.1988088072737195,1.5s : 0.4s,3.7061408056099197,0.7868443907811765,7.443112868258298,3.11721360702529,7.97034215927124,3.928034782409668,-8.071515083312988,0.6361939907073975,2.7633461952209473,1.2946797609329224,-1.3100859166210463,-2.2337583805991157,-2.3763243992013248,-0.20316456258296967,0.9662070870399475,0.15864349901676178, 191, 118, 0, 151
1731319923872,9i,6.1988088072737195,1.5s : 0.4s,3.7061408056099197,0.8445262568630008,7.658010523309567,3.2874700662898086,8.327990531921387,3.581130266189575,-8.148679733276367,0.8929100632667542,2.776395797729492,1.517167568206787,-1.2723066667501928,-1.8143635814248673,-1.9797427883206207,-0.28539639711380005,0.9557817578315735,0.07092126458883286, 191, 118, 0, 151
1731319923882,9i,6.1988088072737195,1.5s : 0.4s,3.7061408056099197,0.9041135801476455,7.773499977333166,3.3149433734089113,8.318538665771484,2.9470789432525635,-8.18018913269043,1.124307632446289,2.6005568504333496,1.721013069152832,-1.1983101717012896,-1.5206165763669313,-1.702864617465933,-0.36347368359565735,0.9314254522323608,-0.018254343420267105, 191, 118, 0, 151
1731319923892,9i,6.1988088072737195,1.5s : 0.4s,3.7061408056099197,0.9645073051496806,7.78470546060589,3.2908551026641155,8.06640911102295,2.4486446380615234,-8.096794128417969,1.3129605054855347,2.3928987979888916,1.8384497165679932,-1.105983516881882,-1.337075586088445,-1.5314716428507105,-0.43606826663017273,0.8939054608345032,-0.10381543636322021, 191, 118, 0, 151
1731319923902,9i,6.1988088072737195,1.5s : 0.4s,3.7061408056099197,1.024728780443901,7.7082864049956745,3.246237723469677,7.700748443603516,2.0172035694122314,-7.974465370178223,1.5175220966339111,2.2628695964813232,1.7648249864578247,-1.0063557800379563,-1.2222761575769563,-1.4248902805862245,-0.502781867980957,0.8448880314826965,-0.18268698453903198, 191, 118, 0, 151
1731319923912,9i,6.1988088072737195,1.5s : 0.4s,3.7061408056099197,1.0844760227363344,7.597441623631235,3.213672354591352,7.556878566741943,1.6450015306472778,-7.793550968170166,1.650141716003418,2.1874489784240723,1.679222822189331,-0.904757759261216,-1.146327647966267,-1.3539324737919904,-0.5630443096160889,0.7862755060195923,-0.2544640302658081, 191, 118, 0, 151
1731319923922,9i,6.1988088072737195,1.5s : 0.4s,3.7061408056099197,1.143862079377785,7.480053079952856,3.1853805699249023,7.506597518920898,1.2770544290542603,-7.63314151763916,1.7115559577941895,2.141740322113037,1.6217811107635498,-0.8026372349619847,-1.0926069701564205,-1.301519009782847,-0.6168749332427979,0.7191909551620483,-0.3197334408760071, 191, 118, 0, 151
1731319923932,9i,6.1988088072737195,1.5s : 0.4s,3.7061408056099197,1.2031141359266786,7.338443850697086,3.1732120045589003,7.354852676391602,0.9886954426765442,-7.400461196899414,1.7571598291397095,2.1248576641082764,1.5705552101135254,-0.7011952751094201,-1.053853518722772,-1.260944056674941,-0.6642336249351501,0.6451314091682434,-0.3776231110095978, 191, 118, 0, 151
1731319923942,9i,6.1988088072737195,1.5s : 0.4s,3.7061408056099197,1.2624927183655397,7.157687282192269,3.2024740013804265,7.1240692138671875,0.5713932514190674,-7.1091718673706055,1.8353204727172852,2.0769026279449463,1.6043422222137451,-0.6020665652265542,-1.0262928169576828,-1.2279799283699206,-0.704979658126831,0.5663468837738037,-0.4269130527973175, 191, 118, 0, 151
1731319923952,9i,6.1988088072737195,1.5s : 0.4s,3.7061408056099197,1.3216024851427217,6.937572329830011,3.1854290601960877,6.807894706726074,0.12704554200172424,-6.801382541656494,1.934987187385559,1.8902591466903687,1.682172179222107,-0.5064159977447098,-1.0086879817763656,-1.20072252460099,-0.7399339079856873,0.4850462079048157,-0.4660773277282715, 191, 118, 0, 151
1731319923962,9i,6.1988088072737195,1.5s : 0.4s,3.7061408056099197,1.3805456625983572,6.650301275794435,3.1216869691897307,6.122187614440918,-0.21627825498580933,-6.545567035675049,1.9936742782592773,1.6840312480926514,1.7129597663879395,-0.41548156668907765,-0.999924094820138,-1.1791967265451966,-0.7698428630828857,0.4036305844783783,-0.49439293146133423, 191, 118, 0, 151
1731319923972,9i,6.1988088072737195,1.5s : 0.4s,3.7061408056099197,1.438082197481373,6.302650102921127,3.0356905722927627,5.344465255737305,-0.4071848392486572,-6.255566596984863,1.995652675628662,1.5355274677276611,1.6955657005310059,-0.33077737049583783,-0.9979110533171044,-1.1643180370147939,-0.794785737991333,0.32477834820747375,-0.5126739740371704, 191, 118, 0, 151
1731319923982,9i,6.1988088072737195,1.5s : 0.4s,3.7061408056099197,1.493591990870863,5.9547009642518685,2.8583663557575165,4.858159065246582,-0.4596991539001465,-5.962543964385986,1.955067753791809,1.3844538927078247,1.559248447418213,-0.2520095830524687,-0.999229694228246,-1.1536372977631486,-0.8144883513450623,0.24935056269168854,-0.5238634943962097, 191, 118, 0, 151
1731319923992,9i,6.1988088072737195,1.5s : 0.4s,3.7061408056099197,1.546319733313211,5.60955915402626,2.625554755940973,4.363316059112549,-0.5828843116760254,-5.698247909545898,1.8886481523513794,1.2589004039764404,1.3197407722473145,-0.1781365059623369,-1.0028602629349752,-1.145647814333653,-0.8296727538108826,0.17719587683677673,-0.5293814539909363, 191, 118, 0, 151
1731319924002,9i,6.1988088072737195,1.5s : 0.4s,3.7061408056099197,1.596449450591063,5.273228571995743,2.4968689451326753,3.9552152156829834,-0.7169811129570007,-5.395091533660889,1.8526763916015625,1.2442073822021484,1.119773507118225,-0.10914347540931965,-1.0084791900984966,-1.1397130216596867,-0.8409879207611084,0.1089269146323204,-0.5299755930900574, 191, 118, 0, 151
1731319924012,9i,6.1988088072737195,1.5s : 0.4s,3.7061408056099197,1.6439206085318434,4.927857551938939,2.4253359009170303,3.430814743041992,-0.9420326948165894,-5.073145866394043,1.9037445783615112,1.1548736095428467,0.9613936543464661,-0.045215143919048975,-1.016453180752483,-1.1355667804517846,-0.8493773341178894,0.045199740678071976,-0.5258468985557556, 191, 118, 0, 151
1731319924022,9i,6.1988088072737195,1.5s : 0.4s,3.7061408056099197,1.688528695963534,4.576462836041385,2.387592523671289,2.8929831981658936,-1.1255284547805786,-4.740947723388672,1.9968397617340088,0.9598819017410278,0.8898627758026123,0.012982691059163037,-1.026797623262365,-1.1337999293433791,-0.855573832988739,-0.012982326559722424,-0.5175179839134216, 191, 118, 0, 151
1731319924032,9i,6.1988088072737195,1.5s : 0.4s,3.7061408056099197,1.7299724276642783,4.243022937232874,2.312536982009662,2.451507806777954,-1.2196695804595947,-4.462527275085449,2.03515625,0.7540013194084167,0.7984036207199097,0.06604562117835715,-1.0385121763294771,-1.134043299842455,-0.8597714304924011,-0.06599761545658112,-0.5063962936401367, 191, 118, 0, 151
1731319924042,9i,6.1988088072737195,1.5s : 0.4s,3.7061408056099197,1.7683119604535258,3.941865155753814,2.210614260035882,2.153383731842041,-1.3459060192108154,-4.185701370239258,2.001800775527954,0.6061843633651733,0.7156462669372559,0.11484410206172321,-1.0510515481125475,-1.135415992212719,-0.8622284531593323,-0.1145918220281601,-0.4933869540691376, 191, 118, 0, 151
1731319924052,9i,6.1988088072737195,1.5s : 0.4s,3.7061408056099197,1.8041229491618427,3.673580631908582,2.149111165954594,1.9675333499908447,-1.4891607761383057,-3.8860690593719482,1.967822551727295,0.5237959623336792,0.6870160102844238,0.16002165772051302,-1.0649204487336406,-1.136910820855649,-0.8635743856430054,-0.15933959186077118,-0.47838276624679565, 191, 118, 0, 151
1731319924062,9i,6.1988088072737195,1.5s : 0.4s,3.7061408056099197,1.8375811757264657,3.4238683472720814,2.1219567702079853,1.7099511623382568,-1.701241374015808,-3.572613000869751,1.9833126068115234,0.3965957760810852,0.6417814493179321,0.20153061678070372,-1.080600749024609,-1.138035584603517,-0.8643854260444641,-0.20016920566558838,-0.46127012372016907, 191, 118, 0, 151
1731319924072,9i,6.1988088072737195,1.5s : 0.4s,3.7061408056099197,1.8687941589227315,3.1797160736467727,2.14863236703105,1.3236478567123413,-1.853818655014038,-3.274873733520508,2.03714656829834,0.21127542853355408,0.6496288180351257,0.23883858217194043,-1.0978656687432464,-1.1400935221330295,-0.8649663925170898,-0.23657433688640594,-0.44256719946861267, 191, 118, 0, 151
1731319924082,9i,6.1988088072737195,1.5s : 0.4s,3.7061408056099197,1.897787577470966,2.9470163720024263,2.142176964064773,0.9636374711990356,-1.9320322275161743,-2.998365640640259,2.035010814666748,0.020713627338409424,0.668748140335083,0.2718998414839993,-1.1158218872288426,-1.143566100182308,-0.8652718663215637,-0.2685619592666626,-0.42329540848731995, 191, 118, 0, 151
1731319924092,9i,6.1988088072737195,1.5s : 0.4s,3.7061408056099197,1.9241509833173198,2.7312503326671393,2.0266991297379353,0.6725327372550964,-1.964108943939209,-2.733624219894409,1.9276230335235596,-0.1531844437122345,0.6068882346153259,0.3010971654424783,-1.1338229024700062,-1.1483752322755467,-0.865275502204895,-0.2965681850910187,-0.40416017174720764, 191, 118, 0, 151
1731319924102,9i,6.1988088072737195,1.5s : 0.4s,3.7061408056099197,1.9474643644160503,2.526541153034826,1.8461557366487196,0.46384450793266296,-1.9137839078903198,-2.4571759700775146,1.7564257383346558,-0.2814542353153229,0.4940072298049927,0.3270034733244169,-1.1514251413316623,-1.154308795925549,-0.8649461269378662,-0.3212067484855652,-0.3856090307235718, 191, 118, 0, 151
1731319924111,9i,6.1988088072737195,1.5s : 0.4s,3.7061408056099197,1.967691610067185,2.345931537074114,1.6681233711814243,0.15723390877246857,-1.9209632873535156,-2.2695510387420654,1.5663586854934692,-0.37656477093696594,0.43284526467323303,0.3500533877083453,-1.1685065672184132,-1.1600409866205423,-0.8643627166748047,-0.34294795989990234,-0.36778193712234497, 191, 118, 0, 151
1731319924121,9i,6.1988088072737195,1.5s : 0.4s,3.7061408056099197,1.9856620253756692,2.136964444443092,1.5099595113499278,-0.26245468854904175,-1.7161158323287964,-1.936188817024231,1.3606551885604858,-0.3948548138141632,0.5221923589706421,0.36919739816174985,-1.1833194075780191,-1.1689377467172033,-0.8634779453277588,-0.3608670234680176,-0.3523927330970764, 191, 118, 0, 151
1731319924131,9i,6.1988088072737195,1.5s : 0.4s,3.7061408056099197,2.0021205848252674,1.9261740737398914,1.3785737245204068,-0.4882199466228485,-1.496296763420105,-1.6455472707748413,1.18333101272583,-0.3725384771823883,0.6011724472045898,0.38430311566891984,-1.1953492356257842,-1.1793626331841958,-0.8624844551086426,-0.37491318583488464,-0.33994224667549133, 191, 118, 0, 151
1731319924141,9i,6.1988088072737195,1.5s : 0.4s,3.7061408056099197,2.0169426600985645,1.734916282420895,1.285204629110744,-0.6943156123161316,-1.2904629707336426,-1.452948808670044,1.079084873199463,-0.41831162571907043,0.5588757991790771,0.39653337479958983,-1.2047044789924373,-1.1908615923944672,-0.8612807393074036,-0.38622304797172546,-0.330192506313324, 191, 118, 0, 151
1731319924151,9i,6.1988088072737195,1.5s : 0.4s,3.7061408056099197,2.030212665205802,1.557391677813189,1.158175383824619,-0.7545082569122314,-1.0123292207717896,-1.3078559637069702,0.9619300961494446,-0.4057742953300476,0.5014059543609619,0.4068227861990743,-1.211226237442584,-1.2032251339546969,-0.8596503734588623,-0.39569342136383057,-0.32315298914909363, 191, 118, 0, 151
1731319924161,9i,6.1988088072737195,1.5s : 0.4s,3.7061408056099197,2.042001690363339,1.3722631516551214,1.0032708801493124,-0.5558093190193176,-0.7362229824066162,-1.116598129272461,0.8356963396072388,-0.3611534833908081,0.42158302664756775,0.41585012239339925,-1.2153046425717522,-1.2141633135135612,-0.857577383518219,-0.4039677381515503,-0.3183880150318146, 191, 118, 0, 151
1731319924171,9i,6.1988088072737195,1.5s : 0.4s,3.7061408056099197,2.052130268721205,1.1926559908782945,0.883414680250849,-0.4266509711742401,-0.5304262638092041,-0.9630703926086426,0.7327150702476501,-0.36509793996810913,0.3320446014404297,0.4238960971785635,-1.2179849866433823,-1.2225591574402628,-0.8553498387336731,-0.41131484508514404,-0.3149549663066864, 191, 118, 0, 151
1731319924181,9i,6.1988088072737195,1.5s : 0.4s,3.7061408056099197,2.0605455894119404,1.0273259952429121,0.8156022689667224,-0.4865337610244751,-0.330718994140625,-0.8197142481803894,0.6420043706893921,-0.40486079454421997,0.2985384166240692,0.4307720838136252,-1.2190286260839196,-1.2300857811350272,-0.8530028462409973,-0.4175724685192108,-0.31308022141456604, 191, 118, 0, 151
1731319924191,9i,6.1988088072737195,1.5s : 0.4s,3.7061408056099197,2.067276915772499,0.8630158093090836,0.7987657746214291,-0.6946914792060852,-0.10008463263511658,-0.5418286323547363,0.5574079155921936,-0.47705337405204773,0.3158215582370758,0.43522313373782834,-1.2175074075365089,-1.2382962470270464,-0.8507732152938843,-0.4216127395629883,-0.31373125314712524, 191, 118, 0, 151
1731319924201,9i,6.1988088072737195,1.5s : 0.4s,3.7061408056099197,2.072571897079395,0.7396253887435268,0.7971202018839237,-1.0209147930145264,0.035318996757268906,-0.23631742596626282,0.5176198482513428,-0.5163236856460571,0.31761637330055237,0.43586920423463754,-1.2134533143802677,-1.248134085650501,-0.8492391705513,-0.42219850420951843,-0.3170825242996216, 191, 118, 0, 151
1731319924211,9i,6.1988088072737195,1.5s : 0.4s,3.7061408056099197,2.0769885270364004,0.7211372045874894,0.7707592594407274,-1.4369672536849976,0.10772538185119629,0.008497045375406742,0.5052348375320435,-0.48772600293159485,0.31769630312919617,0.43257556499637717,-1.2071762841124025,-1.2608565808923207,-0.848527193069458,-0.4192105233669281,-0.3228997588157654, 191, 118, 0, 151
1731319924221,9i,6.1988088072737195,1.5s : 0.4s,3.7061408056099197,2.080868644365554,0.7778347731324933,0.7143771055866397,-1.640892505645752,0.22080504894256592,0.27948272228240967,0.46367955207824707,-0.4446324110031128,0.3124707043170929,0.42564829661970865,-1.1991627500607591,-1.2758905916101067,-0.8485976457595825,-0.4129113256931305,-0.33073556423187256, 191, 118, 0, 151
1731319924231,9i,6.1988088072737195,1.5s : 0.4s,3.7061408056099197,2.0840439620457216,0.8208418891911321,0.6480465153886672,-1.4738844633102417,0.4130697548389435,0.5907816886901855,0.4088308811187744,-0.4341089129447937,0.25371450185775757,0.4158300417133854,-1.1901971863607146,-1.2897901409071726,-0.8493215441703796,-0.4039493799209595,-0.3398200273513794, 191, 118, 0, 151
1731319924241,9i,6.1988088072737195,1.5s : 0.4s,3.7061408056099197,2.0864665373115217,0.8555434148680361,0.5588360428637494,-1.2649033069610596,0.6313943862915039,0.8339980244636536,0.3672688603401184,-0.38755685091018677,0.16495755314826965,0.4040480174148673,-1.1807253896036063,-1.3002245733561786,-0.8504077792167664,-0.3931436240673065,-0.3496348261833191, 191, 118, 0, 151
1731319924251,9i,6.1988088072737195,1.5s : 0.4s,3.7061408056099197,2.0887707075974276,0.8870277553812868,0.45469523252813526,-1.0160605907440186,0.8349912166595459,1.0180983543395996,0.36096030473709106,-0.2495191991329193,0.1191452145576477,0.39106380996724954,-1.170346198615047,-1.3074812882511768,-0.8513624668121338,-0.3811721205711365,-0.36040210723876953, 191, 118, 0, 151
1731319924261,9i,6.1988088072737195,1.5s : 0.4s,3.7061408056099197,2.091277013632047,0.9183675498966851,0.423318985009111,-0.7634778618812561,0.9303914904594421,1.1736387014389038,0.39139652252197266,-0.1502954363822937,0.058472275733947754,0.37754612690753725,-1.159980133168112,-1.311161029525353,-0.8522271513938904,-0.3686405420303345,-0.3712317943572998, 191, 118, 0, 151
1731319924271,9i,6.1988088072737195,1.5s : 0.4s,3.7061408056099197,2.093781250090175,0.9822438659661582,0.48045638512608246,-0.7551588416099548,0.9557929635047913,1.321280598640442,0.45719051361083984,-0.14238181710243225,-0.03927582502365112,0.363151964107837,-1.1498330930664478,-1.3127600310662695,-0.8531714081764221,-0.3552224040031433,-0.3819890320301056, 191, 118, 0, 151
1731319924281,9i,6.1988088072737195,1.5s : 0.4s,3.7061408056099197,2.096347018045411,1.0753217929195775,0.5469102527386956,-0.8557315468788147,0.9585621356964111,1.4989923238754272,0.5221720933914185,-0.1420428454875946,-0.07918938994407654,0.3470601170816566,-1.139740683701121,-1.3139802273480594,-0.8543558716773987,-0.3401346802711487,-0.3929176926612854, 191, 118, 0, 151
1731319924291,9i,6.1988088072737195,1.5s : 0.4s,3.7061408056099197,2.098997278023309,1.1954504556370549,0.5967899955445416,-1.0646425485610962,0.9603779315948486,1.6873985528945923,0.5655848383903503,-0.17583242058753967,-0.07317820191383362,0.32859949127623755,-1.129506081752179,-1.3157012500298082,-0.8558222055435181,-0.3227177560329437,-0.4042541980743408, 191, 118, 0, 151
1731319924301,9i,6.1988088072737195,1.5s : 0.4s,3.7061408056099197,2.1017900305465615,1.327472832890177,0.6235529206730238,-1.2531565427780151,0.960655689239502,1.8663285970687866,0.5865507125854492,-0.20722559094429016,-0.042825937271118164,0.30758038422859646,-1.1189947946469496,-1.318372499749232,-0.8574399352073669,-0.3027534782886505,-0.4160975217819214, 191, 118, 0, 151
1731319924311,9i,6.1988088072737195,1.5s : 0.4s,3.7061408056099197,2.104821977962378,1.4602857788490329,0.6227912245900644,-1.2247942686080933,1.064329981803894,2.0908350944519043,0.5819001793861389,-0.22190526127815247,0.004375576972961426,0.2843683344111097,-1.1081573035644827,-1.32086547088141,-0.8589386940002441,-0.2805511951446533,-0.42838698625564575, 191, 118, 0, 151
1731319924321,9i,6.1988088072737195,1.5s : 0.4s,3.7061408056099197,2.1082314028844835,1.5735725785457118,0.6278914602342289,-0.8614912033081055,1.1820768117904663,2.3682966232299805,0.589972734451294,-0.21230751276016235,0.03324723243713379,0.25975010463653847,-1.0970350010386376,-1.3200046134177061,-0.8600075244903564,-0.2568390369415283,-0.4409317374229431, 191, 118, 0, 151
1731319924331,9i,6.1988088072737195,1.5s : 0.4s,3.7061408056099197,2.1123314025901374,1.6772231338449655,0.6650370614231921,-0.5381345748901367,1.2568528652191162,2.5931007862091064,0.6403842568397522,-0.17258313298225403,0.04896283149719238,0.23460747475198365,-1.086214808164725,-1.3141612585877915,-0.8606295585632324,-0.23246122896671295,-0.4530767798423767, 191, 118, 0, 151
1731319924341,9i,6.1988088072737195,1.5s : 0.4s,3.7061408056099197,2.117484262093564,1.806632304612764,0.734571763553561,-0.47846752405166626,1.3987971544265747,2.8247649669647217,0.7153736352920532,-0.14181260764598846,0.08789438009262085,0.2084951339968768,-1.074878284071094,-1.305335800575335,-0.8604846596717834,-0.20698785781860352,-0.4655342996120453, 191, 118, 0, 151
1731319924351,9i,6.1988088072737195,1.5s : 0.4s,3.7061408056099197,2.123857054831749,1.9724205818134282,0.8486875127149147,-0.5602176785469055,1.522430181503296,3.140321969985962,0.8069019317626953,-0.19531796872615814,0.1761552095413208,0.17996505679359598,-1.0622169426098484,-1.2950496256361423,-0.8593310117721558,-0.17899519205093384,-0.47907283902168274, 191, 118, 0, 151
1731319924361,9i,6.1988088072737195,1.5s : 0.4s,3.7061408056099197,2.1313749088890943,2.16329542927947,1.0027775985333618,-0.7690630555152893,1.65048348903656,3.4372873306274414,0.9132844805717468,-0.3159058690071106,0.26772719621658325,0.14813611199873025,-1.0481475737955348,-1.2842033708626979,-0.857010006904602,-0.14759491384029388,-0.4937099814414978, 191, 118, 0, 151
1731319924371,9i,6.1988088072737195,1.5s : 0.4s,3.7061408056099197,2.1403549411851572,2.3750400620937713,1.1314172591098612,-1.0551505088806152,1.8364288806915283,3.714731454849243,1.0109771490097046,-0.3515660762786865,0.3666490316390991,0.1127072547517136,-1.0321191117167765,-1.2736407740331355,-0.8529418110847473,-0.11246878653764725,-0.5097461342811584, 191, 118, 0, 151
1731319924381,9i,6.1988088072737195,1.5s : 0.4s,3.7061408056099197,2.1515080544602285,2.597337360310798,1.240638583478851,-1.3106770515441895,1.9912160634994507,3.989271640777588,1.1101986169815063,-0.28159433603286743,0.4768099784851074,0.07372740263846564,-1.013917783371181,-1.2634297788120765,-0.8466029167175293,-0.07366062700748444,-0.5271031260490417, 191, 118, 0, 151
1731319924391,9i,6.1988088072737195,1.5s : 0.4s,3.7061408056099197,2.1652210911508276,2.8249582872295758,1.35396630110033,-1.5279189348220825,2.0939321517944336,4.282989978790283,1.2288975715637207,-0.20303720235824585,0.530859112739563,0.03128168360130704,-0.9940475873289607,-1.253067098988073,-0.8378298878669739,-0.031276583671569824,-0.5450347065925598, 191, 118, 0, 151
1731319924401,9i,6.1988088072737195,1.5s : 0.4s,3.7061408056099197,2.181443647204727,3.061773120807525,1.4735382664209233,-1.4618550539016724,2.2673301696777344,4.661551475524902,1.3550684452056885,-0.1794469952583313,0.5503665208816528,-0.014179686500520388,-0.9724199473417107,-1.2407650020589627,-0.8261682391166687,0.014179211109876633,-0.5632450580596924, 191, 118, 0, 151
1731319924411,9i,6.1988088072737195,1.5s : 0.4s,3.7061408056099197,2.199980499691446,3.2924315992796473,1.5954526555350543,-1.195633053779602,2.420377492904663,5.037983417510986,1.4707424640655518,-0.20508290827274323,0.5833753347396851,-0.06159783882834295,-0.9484163975773424,-1.2237451698520387,-0.8109524250030518,0.06155889108777046,-0.5818648934364319, 191, 118, 0, 151
1731319924421,9i,6.1988088072737195,1.5s : 0.4s,3.7061408056099197,2.2209086974118932,3.5152412458304387,1.7185506237676367,-0.9141056537628174,2.606823682785034,5.3628387451171875,1.585623025894165,-0.19645413756370544,0.632946789264679,-0.10957628062231298,-0.9213326978903731,-1.2011404639384213,-0.7916317582130432,0.10935713350772858,-0.6011322140693665, 191, 118, 0, 151
1731319924431,9i,6.1988088072737195,1.5s : 0.4s,3.7061408056099197,2.2444845437840355,3.7367265162467214,1.8313642565684192,-0.7148282527923584,2.744734287261963,5.694015026092529,1.6870629787445068,-0.14127320051193237,0.6983948945999146,-0.15801282473321862,-0.8908994156171506,-1.1731245373890513,-0.767949640750885,0.15735609829425812,-0.6208803057670593, 191, 118, 0, 151
1731319924441,9i,6.1988088072737195,1.5s : 0.4s,3.7061408056099197,2.270976346907119,3.9722762778673886,1.9826731622091003,-0.7007438540458679,2.8724896907806396,6.069957256317139,1.8200573921203613,-0.1113286167383194,0.778453528881073,-0.207448479337744,-0.8569024557847165,-1.140092760755135,-0.739612877368927,0.20596376061439514,-0.6407429575920105, 191, 118, 0, 151
1731319924451,9i,6.1988088072737195,1.5s : 0.4s,3.7061408056099197,2.3005535722559696,4.233923420600613,2.171336836868085,-0.8937153816223145,3.095338821411133,6.462561130523682,1.9715626239776611,-0.15246108174324036,0.8968835473060608,-0.25925268202277096,-0.8185254560265796,-1.1029167914540299,-0.7057390809059143,0.25635826587677,-0.6604639291763306, 191, 118, 0, 151
1731319924461,9i,6.1988088072737195,1.5s : 0.4s,3.7061408056099197,2.333343241902203,4.501983282356247,2.3618809091177133,-1.346321702003479,3.370530128479004,6.727319240570068,2.1164655685424805,-0.2057967483997345,1.0279604196548462,-0.3140528145805239,-0.7750886788256346,-1.0630899265209828,-0.6655527949333191,0.30891576409339905,-0.6794192790985107, 191, 118, 0, 151
1731319924471,9i,6.1988088072737195,1.5s : 0.4s,3.7061408056099197,2.3696333196613373,4.815092772524381,2.5306442242845324,-1.9552102088928223,3.7347300052642822,7.13173770904541,2.2432141304016113,-0.1880154013633728,1.1562010049819946,-0.37319263965287736,-0.7255782955364654,-1.0214918959066812,-0.6178935170173645,0.3645901679992676,-0.6966215968132019, 191, 118, 0, 151
1731319924481,9i,6.1988088072737195,1.5s : 0.4s,3.7061408056099197,2.4101689323549462,5.1648432459373685,2.710523935932581,-2.3445098400115967,4.081511974334717,7.593581676483154,2.378941297531128,-0.04173889756202698,1.2983975410461426,-0.43695020949687574,-0.6683030314400074,-0.9752619056602648,-0.5614362359046936,0.42317819595336914,-0.7111326456069946, 191, 118, 0, 151
1731319924491,9i,6.1988088072737195,1.5s : 0.4s,3.7061408056099197,2.455882518723025,5.55026107324556,2.967890252651223,-2.8296091556549072,4.419759750366211,8.081260681152344,2.5781524181365967,0.12509390711784363,1.4648734331130981,-0.5039724056179481,-0.6015227224570503,-0.9218470016529513,-0.4955410361289978,0.48290786147117615,-0.7219688296318054, 191, 118, 0, 151
1731319924501,9i,6.1988088072737195,1.5s : 0.4s,3.7061408056099197,2.5082060824444885,6.0108532889787885,3.3472557606110867,-3.3318281173706055,4.755218029022217,8.843849182128906,2.859062910079956,0.3333250880241394,1.708442211151123,-0.5750627772811117,-0.5228220852736767,-0.8580260891745266,-0.41901448369026184,0.5438874959945679,-0.727057933807373, 191, 118, 0, 151
1731319924511,9i,6.1988088072737195,1.5s : 0.4s,3.7061408056099197,2.568572021695164,6.56276856060761,3.811334126289758,-3.736361265182495,5.153582572937012,9.82835578918457,3.231844425201416,0.5736455917358398,1.9371061325073242,-0.6490241352908488,-0.42652547799453244,-0.7766170374710579,-0.3295920491218567,0.6044092178344727,-0.7252988815307617, 191, 118, 0, 151
1731319924521,9i,6.1988088072737195,1.5s : 0.4s,3.7061408056099197,2.637717621926047,7.201071591922656,4.277607389334148,-4.4358015060424805,5.699139595031738,10.766767501831055,3.665229320526123,0.7668444514274597,2.0678415298461914,-0.7237334625063624,-0.3054793556032408,-0.6713997824223696,-0.22536389529705048,0.6621869206428528,-0.7146464586257935, 191, 118, 0, 151
1731319924531,9i,6.1988088072737195,1.5s : 0.4s,3.7061408056099197,2.716319895239466,7.883743416056147,4.75453109228787,-5.922101020812988,6.07528829574585,11.369443893432617,4.072075843811035,0.973472535610199,2.253023624420166,-0.7989461599953721,-0.15482319917477522,-0.5387189193108288,-0.10755246877670288,0.716621458530426,-0.689119815826416, 191, 118, 0, 151
1731319924541,9i,6.1988088072737195,1.5s : 0.4s,3.7061408056099197,2.8049772176362078,8.733983156283825,5.222883875707567,-8.520873069763184,6.416259288787842,12.159828186035156,4.420907497406006,1.2476041316986084,2.485473155975342,-0.8777725934569186,0.03369270228410214,-0.36974741844309333,0.021521059796214104,0.7693177461624146,-0.6385037302970886, 191, 118, 0, 151
1731319924551,9i,6.1988088072737195,1.5s : 0.4s,3.7061408056099197,2.904775203353001,9.70058408495265,5.824029226686905,-11.86112117767334,6.588532447814941,12.21626091003418,4.95524263381958,1.6289887428283691,2.5906143188476562,-0.9589909056935559,0.2784550184208964,-0.144911271622453,0.15787085890769958,0.8186123967170715,-0.5522232055664062, 191, 118, 0, 151
1731319924561,9i,6.1988088072737195,1.5s : 0.4s,3.7061408056099197,3.0163495532383298,10.734165550212882,6.491484676761136,-16.193424224853516,5.833652019500732,11.128239631652832,5.664086818695068,1.9714292287826538,2.4841418266296387,-1.0362706471461907,0.5985187045555996,0.1603990588691351,0.2870243489742279,0.8605103492736816,-0.4208787679672241, 191, 118, 0, 151
1731319924571,9i,6.1988088072737195,1.5s : 0.4s,3.7061408056099197,3.1414369689871204,11.96161578509052,7.350438786329676,-21.992658615112305,3.0552515983581543,8.858378410339355,6.502223014831543,2.2823448181152344,2.557527780532837,-1.0951145136905054,1.0210179756174662,0.5893153360622189,0.3904619812965393,0.8889806866645813,-0.23927521705627441, 191, 118, 0, 151
1731319924581,9i,6.1988088072737195,1.5s : 0.4s,3.7061408056099197,3.2863573895787006,13.7587711692502,8.834360020480768,-27.869688034057617,-0.5363819599151611,7.315308570861816,7.624937534332275,3.0672924518585205,3.240055799484253,-1.088646764773309,1.5479466084918314,1.165826678382747,0.4635637402534485,0.8860002756118774,-0.010594144463539124, 191, 118, 0, 151
1731319924591,9i,6.1988088072737195,1.5s : 0.4s,3.7061408056099197,3.458405305576506,15.212765612814058,10.607042098592043,-28.392797470092773,-3.5948235988616943,5.793604850769043,8.435969352722168,4.473891735076904,4.618230819702148,-0.9649255324729121,1.97236770132702,1.6833807441849782,0.5241748094558716,0.8220065236091614,0.22258912026882172, 191, 118, 0, 151
1731319924601,9i,6.1988088072737195,1.5s : 0.4s,3.7061408056099197,3.6543962860507837,15.865118308296548,11.265402698286865,-27.055217742919922,-7.693803787231445,0.27432548999786377,7.618057727813721,5.0430803298950195,6.5910420417785645,-0.797441281249561,2.1886495689846988,2.034928513364142,0.569396436214447,0.7155710458755493,0.40465471148490906, 191, 118, 0, 151
1731319924611,9i,6.1988088072737195,1.5s : 0.4s,3.7061408056099197,3.8631991288171377,17.084328327204975,11.651013491631447,-29.687185287475586,-11.345831871032715,-3.8318092823028564,4.741200923919678,4.806789398193359,9.495362281799316,-0.6380316520306457,2.2964162248696742,2.3483635509008924,0.6009164452552795,0.5956155061721802,0.5330491065979004, 191, 118, 0, 151
1731319924621,9i,6.1988088072737195,1.5s : 0.4s,3.7061408056099197,4.088777574090109,17.34764984084853,14.537893363745455,-24.35417938232422,-14.462201118469238,-2.9009013175964355,2.7040767669677734,6.647830009460449,12.642969131469727,-0.4782057846094842,2.309154231862147,2.6151457649874654,0.6566106677055359,0.4601869583129883,0.5975701212882996, 191, 118, 0, 151
1731319924631,9i,6.1988088072737195,1.5s : 0.4s,3.7061408056099197,4.33052711668366,16.600518858760296,15.420870484656355,-18.72502899169922,-13.596858024597168,-1.5533475875854492,2.13917875289917,7.614462852478027,13.238093376159668,-0.3573912977556214,2.2419992873969448,2.8080628246930965,0.733593761920929,0.34983155131340027,0.582630455493927, 191, 118, 0, 151
1731319924641,9i,6.1988088072737195,1.5s : 0.4s,3.7061408056099197,4.561327825420405,15.213331991117515,12.22229224730498,-14.740411758422852,-10.740270614624023,-3.1329145431518555,-0.067452073097229,6.3590593338012695,10.437540054321289,-0.27432750005984224,2.170827785468689,2.9601504266472745,0.7944570183753967,0.2708996534347534,0.5435539484024048, 191, 118, 0, 151
1731319924651,9i,6.1988088072737195,1.5s : 0.4s,3.7061408056099197,4.7544006228324,13.929513570927368,7.599780934973383,-11.872394561767578,-11.240066528320312,-7.4256768226623535,-1.8275398015975952,4.274778366088867,6.011908054351807,-0.24965772357567856,2.097898780190803,3.1046404261342264,0.8374731540679932,0.24707230925559998,0.48743560910224915, 191, 118, 0, 151
1731319924661,9i,6.1988088072737195,1.5s : 0.4s,3.7061408056099197,4.905073859401939,13.121380609301774,4.453487136402391,-10.487332344055176,-12.233622550964355,-8.738540649414062,-1.4753758907318115,0.8318443298339844,4.11884069442749,-0.27067669852264903,2.017943093374495,-3.036931499241861,0.8688540458679199,0.26738354563713074,0.41665104031562805, 191, 118, 0, 151
1731319924670,9i,6.1988088072737195,1.5s : 0.4s,3.7061408056099197,5.0344432621005355,12.411737426594149,5.213748033078752,-8.077108383178711,-12.379840850830078,-9.420050621032715,-0.1962544322013855,0.28907525539398193,5.202027320861816,-0.32269740711843126,1.9368360852437085,-2.909212911211259,0.8855547308921814,0.3171258866786957,0.3394456207752228, 191, 118, 0, 151
1731319924680,9i,6.1988088072737195,1.5s : 0.4s,3.7061408056099197,5.152686107929509,12.064227985838114,6.046188592930467,-6.246536731719971,-11.944555282592773,-12.93763542175293,-1.0579919815063477,2.0973081588745117,5.571207046508789,-0.4099924322558871,1.8625557077314938,-2.796238352232573,0.8783653378486633,0.3986023962497711,0.2637993395328522, 191, 118, 0, 151
1731319924690,9i,6.1988088072737195,1.5s : 0.4s,3.7061408056099197,5.255880635003533,12.099140153548596,5.549888051996345,-4.580935478210449,-11.476103782653809,-15.804020881652832,-2.12272310256958,2.6672799587249756,4.379602909088135,-0.5382702884289868,1.7933060789983213,-2.6972936891218673,0.8374293446540833,0.5126516222953796,0.18947353959083557, 191, 118, 0, 151
1731319924700,9i,6.1988088072737195,1.5s : 0.4s,3.7061408056099197,5.345330862940521,12.19188873998295,3.778210853068022,-2.513422727584839,-10.637977600097656,-16.84165382385254,-0.9866528511047363,2.193225383758545,2.913958787918091,-0.6917954372913195,1.7292328410536961,-2.6169870097361234,0.760456383228302,0.6379208564758301,0.12150242179632187, 191, 118, 0, 151
1731319924710,9i,6.1988088072737195,1.5s : 0.4s,3.7061408056099197,5.431613206988494,12.121525339127453,3.728147110323496,0.178140789270401,-9.519503593444824,-16.76158905029297,0.867723822593689,2.6268720626831055,2.499135732650757,-0.8574627840812362,1.6599131244780314,-2.571947791960117,0.651761531829834,0.7561847567558289,0.05823715031147003, 191, 118, 0, 151
1731319924720,9i,6.1988088072737195,1.5s : 0.4s,3.7061408056099197,5.519527691057251,11.899507059824414,4.0804238527500445,2.8516721725463867,-8.753212928771973,-15.853124618530273,1.7537811994552612,2.1888506412506104,2.9636199474334717,-1.0206337777323344,1.5560628770753855,-2.5881784723817454,0.5227688550949097,0.8524395227432251,-0.007702745962888002, 191, 118, 0, 151
1731319924730,9i,6.1988088072737195,1.5s : 0.4s,3.7061408056099197,5.607128510298808,11.715670721466473,4.10836899610609,5.569169521331787,-8.323759078979492,-15.235493659973145,1.8380402326583862,0.7346850633621216,3.6000752449035645,-1.1698186645971227,1.3538297498712035,-2.719777532462119,0.38116729259490967,0.9206798076629639,-0.08402317017316818, 191, 118, 0, 151
1731319924740,9i,6.1988088072737195,1.5s : 0.4s,3.7061408056099197,5.688183934725901,11.610237163093572,3.8572390214472434,7.449626922607422,-8.13497543334961,-14.393775939941406,1.5421593189239502,-0.7221828699111938,3.4609954357147217,-1.2790670873355108,0.9338726279077032,-3.0773915893391335,0.2312169075012207,0.9577479362487793,-0.17104806005954742, 191, 118, 0, 151
1731319924750,9i,6.1988088072737195,1.5s : 0.4s,3.7061408056099197,5.758643593106273,11.492806745750093,3.59771235823499,8.262099266052246,-7.713787078857422,-13.427268028259277,1.2739572525024414,-1.6108992099761963,2.9539077281951904,-1.2938580798929116,0.31180520078032026,2.643227172442642,0.08387647569179535,0.961897075176239,-0.26022806763648987, 191, 118, 0, 151
1731319924760,9i,6.1988088072737195,1.5s : 0.4s,3.7061408056099197,5.816479840653529,11.31331934973089,2.9820099765414922,9.08145809173584,-7.1886725425720215,-12.304795265197754,1.1934740543365479,-1.8366812467575073,2.023513078689575,-1.2140938734594022,-0.16109115713047928,2.229551318039315,-0.05600777268409729,0.937053382396698,-0.3446648418903351, 191, 118, 0, 151
1731319924770,9i,6.1988088072737195,1.5s : 0.4s,3.7061408056099197,5.861448335988877,11.0787773431358,2.0751969715920016,10.022306442260742,-7.098710060119629,-10.752154350280762,1.1894603967666626,-1.4432764053344727,0.8992105722427368,-1.0904478707557361,-0.4175459854466603,2.0325271274471963,-0.18738533556461334,0.8868339657783508,-0.42238879203796387, 191, 118, 0, 151
1731319924780,9i,6.1988088072737195,1.5s : 0.4s,3.7061408056099197,5.895472011725849,10.856950354387848,1.4500344755638803,10.526200294494629,-6.964809417724609,-9.691439628601074,1.2094426155090332,-0.7970216274261475,0.06786063313484192,-0.9523278633040255,-0.5588997765862588,1.95115557550621,-0.307434618473053,0.8147673606872559,-0.4915667176246643, 191, 118, 0, 151
1731319924790,9i,6.1988088072737195,1.5s : 0.4s,3.7061408056099197,5.923266040726912,10.633934077375764,1.2008054269729695,10.752172470092773,-6.862457275390625,-8.731423377990723,1.171932578086853,-0.25341689586639404,0.06547963619232178,-0.8126156606507199,-0.6462275042215044,1.9277844128527177,-0.4140591025352478,0.7260881662368774,-0.5489543676376343, 191, 118, 0, 151
1731319924800,9i,6.1988088072737195,1.5s : 0.4s,3.7061408056099197,5.95062713521466,10.397489123690477,1.308722349023715,10.437664985656738,-7.033095836639404,-7.989837646484375,1.1223652362823486,0.23711234331130981,0.6299430131912231,-0.6777847799864973,-0.7134953450468244,1.9305027642415136,-0.509816586971283,0.6270689964294434,-0.5889579653739929, 191, 118, 0, 151
1731319924810,9i,6.1988088072737195,1.5s : 0.4s,3.7061408056099197,5.981066152472087,10.073876300121507,1.7169146244796483,9.579254150390625,-7.103205680847168,-7.344943523406982,1.1179533004760742,0.897041380405426,0.9451417922973633,-0.5525194854924391,-0.7762763486866447,1.944616584111793,-0.5963774919509888,0.5248335003852844,-0.6073580384254456, 191, 118, 0, 151
1731319924820,9i,6.1988088072737195,1.5s : 0.4s,3.7061408056099197,6.015974713600213,9.634782954075346,2.184933583748469,8.616863250732422,-6.942036151885986,-6.634374618530273,1.4104194641113281,1.4016772508621216,0.9055123329162598,-0.4391788302548238,-0.837212789036512,1.9644647592444147,-0.6722909212112427,0.4251963794231415,-0.6059975028038025, 191, 118, 0, 151
1731319924830,9i,6.1988088072737195,1.5s : 0.4s,3.7061408056099197,6.055360730709313,9.118133273219428,2.4556403875607438,7.638561248779297,-6.869271755218506,-5.917323112487793,1.6915249824523926,1.5444892644882202,0.885136067867279,-0.338041089635311,-0.8973758371644881,1.9865553819615527,-0.7374539375305176,0.33163967728614807,-0.5883678197860718, 191, 118, 0, 151
1731319924840,9i,6.1988088072737195,1.5s : 0.4s,3.7061408056099197,6.098852844633757,8.643416851212619,2.5697332128885724,7.014980792999268,-6.875758171081543,-5.558524131774902,1.8034509420394897,1.5275938510894775,1.0087370872497559,-0.24492802898169336,-0.9561905605027232,2.008124112520059,-0.7926172018051147,0.24248650670051575,-0.5594266057014465, 191, 118, 0, 151
1731319924850,9i,6.1988088072737195,1.5s : 0.4s,3.7061408056099197,6.144312987769589,8.196139520152318,2.45286198340634,6.390185356140137,-6.446285247802734,-5.626727104187012,1.8770341873168945,1.3038619756698608,0.8906281590461731,-0.15820757368938862,-1.0099546399355162,2.031714784154989,-0.8362321257591248,0.15754841268062592,-0.525256335735321, 191, 118, 0, 151
1731319924860,9i,6.1988088072737195,1.5s : 0.4s,3.7061408056099197,6.191293758274349,7.691123816303764,2.502437888180196,6.0360565185546875,-5.326033115386963,-5.423363208770752,2.0031068325042725,1.2247234582901,0.8659161925315857,-0.07818197979055282,-1.0610203894277603,2.0580617658159306,-0.8701875805854797,0.07810235768556595,-0.48649105429649353, 191, 118, 0, 151
1731319924870,9i,6.1988088072737195,1.5s : 0.4s,3.7061408056099197,6.240374466960423,7.113326736525409,2.5727578651386587,5.545407295227051,-4.5489821434021,-4.735367298126221,2.0374414920806885,1.084181785583496,1.1368663311004639,-0.00601282276840902,-1.1083323164280208,2.0860942418467854,-0.8949397206306458,0.006012786645442247,-0.44614657759666443, 191, 118, 0, 151
1731319924880,9i,6.1988088072737195,1.5s : 0.4s,3.7061408056099197,6.291662285056262,6.455859738460555,2.6317187805349858,4.46199369430542,-4.038071155548096,-4.197417259216309,2.0365707874298096,0.8360315561294556,1.442003607749939,0.05580245774323815,-1.1518714706802997,2.1125666779172416,-0.9121048450469971,-0.055773500353097916,-0.4061453342437744, 191, 118, 0, 151
1731319924890,9i,6.1988088072737195,1.5s : 0.4s,3.7061408056099197,6.344782014126862,5.720158789951948,2.680291909610452,3.1681699752807617,-3.548356294631958,-3.65602970123291,1.9831255674362183,0.5616740584373474,1.713388442993164,0.10646136425974684,-1.1913646513776701,2.1327818276680417,-0.9236162304878235,-0.10626037418842316,-0.3682955503463745, 191, 118, 0, 151
1731319924900,9i,6.1988088072737195,1.5s : 0.4s,3.7061408056099197,6.398650284190654,5.002021416762452,2.6462808028833953,2.500284194946289,-2.842172861099243,-3.2569940090179443,1.9297994375228882,0.3376571536064148,1.7789502143859863,0.14872124475300885,-1.2252408221571203,2.1469402159412154,-0.9305012822151184,-0.14817361533641815,-0.33498039841651917, 191, 118, 0, 151
1731319924910,9i,6.1988088072737195,1.5s : 0.4s,3.7061408056099197,6.452196286263238,4.341674819718541,2.567008077579097,2.281132698059082,-1.998504877090454,-2.9205048084259033,1.906968116760254,0.18540693819522858,1.7083990573883057,0.1854768508485512,-1.251584807882069,2.1597382806751346,-0.9331979751586914,-0.18441522121429443,-0.3084355294704437, 191, 118, 0, 151
1731319924920,9i,6.1988088072737195,1.5s : 0.4s,3.7061408056099197,6.504213797338676,3.7539694579606566,2.3858204210423537,2.123380422592163,-1.2759976387023926,-2.6515700817108154,1.831504464149475,0.1257210075855255,1.5237863063812256,0.21862995701848326,-1.2704745312852335,2.172980013897198,-0.9325023293495178,-0.21689239144325256,-0.2887856066226959, 191, 118, 0, 151
1731319924930,9i,6.1988088072737195,1.5s : 0.4s,3.7061408056099197,6.553705367767514,3.242126508959501,2.169741894208565,2.0803678035736084,-0.5999884009361267,-2.3656816482543945,1.6177291870117188,0.022814348340034485,1.445756435394287,0.2487923268362013,-1.2828177235838183,2.1864635793806,-0.9292982816696167,-0.24623365700244904,-0.2752699553966522, 191, 118, 0, 151
1731319924940,9i,6.1988088072737195,1.5s : 0.4s,3.7061408056099197,6.6005344105216555,2.8157496975176923,2.109682705805776,2.028170108795166,-0.05162087082862854,-2.1402266025543213,1.4553501605987549,-0.19412705302238464,1.5149362087249756,0.27618285041141694,-1.2895920030712067,2.2006547907315093,-0.9243136048316956,-0.27268514037132263,-0.26699599623680115, 191, 118, 0, 151
1731319924950,9i,6.1988088072737195,1.5s : 0.4s,3.7061408056099197,6.644272683785918,2.4396997679719656,1.9623498999364988,1.8302712440490723,0.3133419156074524,-1.7928098440170288,1.2971428632736206,-0.30064186453819275,1.4414756298065186,0.30038218691801294,-1.2920717637459698,2.214570872412368,-0.918358564376831,-0.295885294675827,-0.26281028985977173, 191, 118, 0, 151
1731319924960,9i,6.1988088072737195,1.5s : 0.4s,3.7061408056099197,6.684446745993496,2.0877525528985226,1.7372811362689429,1.4777666330337524,0.5228970050811768,-1.4257512092590332,1.1313402652740479,-0.31166356801986694,1.281046748161316,0.3203920884731011,-1.2915477176541255,2.226952298117402,-0.9123461246490479,-0.3149387240409851,-0.26160702109336853, 191, 118, 0, 151
1731319924970,9i,6.1988088072737195,1.5s : 0.4s,3.7061408056099197,6.720862833599049,1.734503188913154,1.6074726412928702,1.0160478353500366,0.6742138266563416,-1.027356505393982,1.0168635845184326,-0.42640578746795654,1.169672966003418,0.33551477586156936,-1.2884868834064385,2.236337565240652,-0.9068628549575806,-0.32925528287887573,-0.2630413770675659, 191, 118, 0, 151
1731319924980,9i,6.1988088072737195,1.5s : 0.4s,3.7061408056099197,6.753310156444864,1.3951613932287927,1.5176553042676537,0.6094603538513184,0.7798761129379272,-0.664875864982605,0.907690167427063,-0.5873460173606873,1.0650825500488281,0.34572389884318777,-1.2831155067190156,2.2420947704689778,-0.9021664261817932,-0.3388778269290924,-0.2669409513473511, 191, 118, 0, 151
1731319924990,9i,6.1988088072737195,1.5s : 0.4s,3.7061408056099197,6.781686367101401,1.0944487362295372,1.3350454953319837,0.31897738575935364,0.8557212948799133,-0.35273978114128113,0.7614282965660095,-0.6043198108673096,0.9150797724723816,0.35170860238446294,-1.2761001866324204,2.245410799871522,-0.8983148336410522,-0.344502329826355,-0.27266940474510193, 191, 118, 0, 151
1731319925000,9i,6.1988088072737195,1.5s : 0.4s,3.7061408056099197,6.8063937500046485,0.8580466086359341,1.1529959649589023,0.22554625570774078,0.8930026292800903,-0.050172459334135056,0.625889003276825,-0.5336796045303345,0.807990550994873,0.3534397526059331,-1.2681840150502255,2.2475878121464685,-0.8955574631690979,-0.3461269736289978,-0.279593825340271, 191, 118, 0, 151
1731319925010,9i,6.1988088072737195,1.5s : 0.4s,3.7061408056099197,6.827539489300373,0.6918227862354946,0.9987537946030461,0.2546510100364685,0.8325607776641846,0.22173887491226196,0.49877190589904785,-0.520469605922699,0.6912648677825928,0.3531588784883603,-1.2604849108959602,2.2503860431342266,-0.8934708833694458,-0.3458634614944458,-0.2865101099014282, 191, 118, 0, 151
1731319925020,9i,6.1988088072737195,1.5s : 0.4s,3.7061408056099197,6.845099423989492,0.5887501563818401,0.8658000162300371,0.2485899180173874,0.7759802937507629,0.43653029203414917,0.3490731716156006,-0.5308982133865356,0.588136613368988,0.3506971046751837,-1.253765108101658,2.2541178833532265,-0.8923317790031433,-0.3435525596141815,-0.292772114276886, 191, 118, 0, 151
1731319925030,9i,6.1988088072737195,1.5s : 0.4s,3.7061408056099197,6.859833999939103,0.5359724873100792,0.7594096731023661,0.1860588937997818,0.7081442475318909,0.6215118765830994,0.21429336071014404,-0.44111964106559753,0.5798231363296509,0.3462119763246727,-1.2477176288451395,2.25816627257143,-0.8919971585273743,-0.33933699131011963,-0.29864928126335144, 191, 118, 0, 151
1731319925040,9i,6.1988088072737195,1.5s : 0.4s,3.7061408056099197,6.872438111421553,0.5201498314246452,0.6587785826619903,-0.00014746305532753468,0.6881418228149414,0.6958819627761841,0.10759496688842773,-0.3193742036819458,0.5660500526428223,0.34022799930827163,-1.2419686534130419,2.2615666145347544,-0.892171323299408,-0.333702027797699,-0.3044227063655853, 191, 118, 0, 151
1731319925050,9i,6.1988088072737195,1.5s : 0.4s,3.7061408056099197,6.883405134380263,0.5260541920769938,0.5775774384572664,-0.2739078402519226,0.6805582046508789,0.7093318700790405,0.012699723243713379,-0.19460195302963257,0.543658435344696,0.33301913400845917,-1.2354931605920838,2.262716530092932,-0.8924298882484436,-0.3268977701663971,-0.3109770715236664, 191, 118, 0, 151
1731319925060,9i,6.1988088072737195,1.5s : 0.4s,3.7061408056099197,6.892961486828156,0.5465944660212289,0.5133584040595497,-0.5178136825561523,0.6638335585594177,0.6432852149009705,-0.06398802995681763,-0.10121244192123413,0.499197781085968,0.3252532219030637,-1.2282690797492188,2.261090781096142,-0.8925243616104126,-0.31954875588417053,-0.31825894117355347, 191, 118, 0, 151
1731319925070,9i,6.1988088072737195,1.5s : 0.4s,3.7061408056099197,6.900953241619282,0.5856466701573756,0.43571299680874925,-0.6493747234344482,0.6640406847000122,0.6225338578224182,-0.11501038074493408,-0.08558332920074463,0.4114534258842468,0.31729712433329976,-1.2205635249624822,2.2575535368376882,-0.8924053311347961,-0.31199973821640015,-0.3259888291358948, 191, 118, 0, 151
1731319925080,9i,6.1988088072737195,1.5s : 0.4s,3.7061408056099197,6.9074408299247,0.6270711253018127,0.331765371437928,-0.6489464640617371,0.6508990526199341,0.6484813094139099,-0.09041261672973633,-0.08790165185928345,0.3068666160106659,0.30902212884172287,-1.2127168956287633,2.25340904370646,-0.8922075033187866,-0.30412721633911133,-0.33387455344200134, 191, 118, 0, 151
1731319925090,9i,6.1988088072737195,1.5s : 0.4s,3.7061408056099197,6.912696626542209,0.6535496632316948,0.22213543855993007,-0.6054041385650635,0.6261113286018372,0.6436957120895386,-0.020302534103393555,-0.07800459861755371,0.20699575543403625,0.3006818411992097,-1.2052289668662373,2.2496670305706177,-0.8920205235481262,-0.29617151618003845,-0.3414408266544342, 191, 118, 0, 151
1731319925100,9i,6.1988088072737195,1.5s : 0.4s,3.7061408056099197,6.917105356776369,0.6606173000282939,0.18616907949949893,-0.5479051470756531,0.5782825350761414,0.630370020866394,-0.006066501140594482,-0.04471784830093384,0.1806168258190155,0.2926317654667116,-1.1982901071698462,2.246574008462366,-0.891821563243866,-0.28847309947013855,-0.3484785854816437, 191, 118, 0, 151
1731319925110,9i,6.1988088072737195,1.5s : 0.4s,3.7061408056099197,6.920866756071882,0.6634074161261075,0.17062982843180183,-0.601136326789856,0.5084527134895325,0.6429786682128906,-0.009234368801116943,-0.03498849272727966,0.1667485237121582,0.284619445071311,-1.1919712700808496,2.2433683715333914,-0.8917207717895508,-0.280792236328125,-0.35495030879974365, 191, 118, 0, 151
1731319925120,9i,6.1988088072737195,1.5s : 0.4s,3.7061408056099197,6.924095564082515,0.6714813007718282,0.12927916784181007,-0.7118804454803467,0.4314924478530884,0.6465297341346741,0.017830729484558105,-0.028547614812850952,0.12482067942619324,0.27615777266836394,-1.1862725909674505,2.2394776667227982,-0.8918542265892029,-0.272661030292511,-0.3609045743942261, 191, 118, 0, 151
1731319925130,9i,6.1988088072737195,1.5s : 0.4s,3.7061408056099197,6.926893360431302,0.6865397678387397,0.11645294272362892,-0.8186041116714478,0.35273122787475586,0.6579883098602295,0.02138727903366089,-0.029756546020507812,0.11053696274757385,0.26720462325609035,-1.1810816479053583,2.234570924972662,-0.8921911716461182,-0.26403629779815674,-0.3664420247077942, 191, 118, 0, 151
1731319925140,9i,6.1988088072737195,1.5s : 0.4s,3.7061408056099197,6.929263662093017,0.7037128498344699,0.10619985510765428,-0.8785132169723511,0.2930804193019867,0.6588415503501892,0.014298856258392334,-0.04170885682106018,0.0966143012046814,0.25783027457638874,-1.176454253167578,2.2290702587981976,-0.8927320241928101,-0.25498315691947937,-0.37150129675865173, 191, 118, 0, 151
1731319925150,9i,6.1988088072737195,1.5s : 0.4s,3.7061408056099197,6.93114032293348,0.7178714792739856,0.08202906882743977,-0.8962166905403137,0.24706622958183289,0.6577857136726379,0.008474409580230713,-0.049365073442459106,0.06496185064315796,0.24829877736094796,-1.172332444733002,2.223109506999681,-0.8933925628662109,-0.24575527012348175,-0.3761036992073059, 191, 118, 0, 151
1731319925160,9i,6.1988088072737195,1.5s : 0.4s,3.7061408056099197,6.9326329762427115,0.7240656815952674,0.06676318196516509,-0.8618952035903931,0.22816497087478638,0.6614675521850586,0.014867782592773438,-0.043368756771087646,0.048532694578170776,0.2387546466217003,-1.1685846314490536,2.217293206046664,-0.8940944075584412,-0.23649278283119202,-0.38035017251968384, 191, 118, 0, 151
1731319925170,9i,6.1988088072737195,1.5s : 0.4s,3.7061408056099197,6.933998688867359,0.711083480173565,0.07128070082893115,-0.7394624948501587,0.21697242558002472,0.6663596630096436,0.036282479763031006,-0.029945001006126404,0.05355200171470642,0.22943265410655095,-1.1652366588264824,2.2122566558528898,-0.8948029279708862,-0.22742508351802826,-0.384194552898407, 191, 118, 0, 151
1731319925180,9i,6.1988088072737195,1.5s : 0.4s,3.7061408056099197,6.935262578211976,0.6878312745319078,0.06902251272840686,-0.6437322497367859,0.21379633247852325,0.6630176901817322,0.04071187973022461,-0.03244177997112274,0.045323073863983154,0.2205943273707331,-1.1622953401043241,2.2084432558550358,-0.8954787850379944,-0.2188095897436142,-0.3876081705093384, 191, 118, 0, 151
1731319925190,9i,6.1988088072737195,1.5s : 0.4s,3.7061408056099197,6.936521434067574,0.66841374680486,0.07746150368376316,-0.6095662713050842,0.24474802613258362,0.6604917645454407,0.0495719313621521,-0.029749080538749695,0.05155482888221741,0.2120246265253758,-1.1593593125791402,2.205176271519075,-0.8960226774215698,-0.21043962240219116,-0.39097121357917786, 191, 118, 0, 151
1731319925200,9i,6.1988088072737195,1.5s : 0.4s,3.7061408056099197,6.937937799124251,0.6592977220865237,0.11625852488634161,-0.6147346496582031,0.2894041836261749,0.6681107878684998,0.07003521919250488,-0.0053575485944747925,0.09264129400253296,0.20344047594481102,-1.156089074540313,2.2020946619118784,-0.8963597416877747,-0.20204004645347595,-0.39461269974708557, 191, 118, 0, 151
1731319925210,9i,6.1988088072737195,1.5s : 0.4s,3.7061408056099197,6.9397564080412435,0.6602194175554099,0.13379134852883548,-0.6703241467475891,0.3358500599861145,0.6586200594902039,0.07865506410598755,0.0005141347646713257,0.10822772979736328,0.194735880311592,-1.1523472897801827,2.1987509100824223,-0.8964498043060303,-0.19350741803646088,-0.39866340160369873, 191, 118, 0, 151
1731319925220,9i,6.1988088072737195,1.5s : 0.4s,3.7061408056099197,6.941884050504018,0.6787657660850784,0.1499089934256868,-0.7564574480056763,0.38699179887771606,0.6654369831085205,0.08917760848999023,-0.023256033658981323,0.11823374032974243,0.18577282287856456,-1.14801662383104,2.194750919556931,-0.896260678768158,-0.18470610678195953,-0.40323731303215027, 191, 118, 0, 151
1731319925229,9i,6.1988088072737195,1.5s : 0.4s,3.7061408056099197,6.944505128477069,0.7139930660893167,0.20214301207936217,-0.8340287804603577,0.4578179717063904,0.7147682309150696,0.11318475008010864,-0.03636951744556427,0.16348782181739807,0.17617997826726187,-1.143025643056129,2.1901808518759234,-0.8958079814910889,-0.1752699762582779,-0.40842175483703613, 191, 118, 0, 151
1731319925239,9i,6.1988088072737195,1.5s : 0.4s,3.7061408056099197,6.947889301229994,0.7555447305367909,0.2572137309409757,-0.880111575126648,0.5415685176849365,0.7467560172080994,0.1522318720817566,-0.01417890191078186,0.20684128999710083,0.16596435625503864,-1.1372549444858682,2.185289325616036,-0.8950143456459045,-0.1652035117149353,-0.4143148958683014, 191, 118, 0, 151
1731319925249,9i,6.1988088072737195,1.5s : 0.4s,3.7061408056099197,6.952225557484197,0.8002690687523378,0.315768180860472,-0.8956517577171326,0.624167263507843,0.7992952466011047,0.19609344005584717,0.00602547824382782,0.24742797017097473,0.15519210040540526,-1.1306504910515993,2.1803293863877173,-0.8938167095184326,-0.15456989407539368,-0.4209507703781128, 191, 118, 0, 151
1731319925259,9i,6.1988088072737195,1.5s : 0.4s,3.7061408056099197,6.957539039639005,0.8523676989123432,0.36604225132711793,-0.9054194092750549,0.7011941075325012,0.8999307751655579,0.24220490455627441,0.006604179739952087,0.2743721902370453,0.14364870612645803,-1.1233638718292938,2.1756854306810918,-0.8922750353813171,-0.14315518736839294,-0.42819592356681824, 191, 118, 0, 151
1731319925269,9i,6.1988088072737195,1.5s : 0.4s,3.7061408056099197,6.963769953860282,0.9093503999606058,0.4129739757954843,-0.9245030283927917,0.7702723741531372,0.989945113658905,0.28497010469436646,-0.012702003121376038,0.29862719774246216,0.1311521828871119,-1.1154439208670555,2.171471610534012,-0.8903930187225342,-0.130776509642601,-0.4360019564628601, 191, 118, 0, 151
1731319925279,9i,6.1988088072737195,1.5s : 0.4s,3.7061408056099197,6.97087424436517,0.9734595734840045,0.46083827511267383,-0.9847118258476257,0.8263790607452393,1.075644612312317,0.3146318793296814,-0.03571050614118576,0.3348185420036316,0.11769840221599152,-1.1070139569341502,2.167397472901836,-0.8881793022155762,-0.11742684245109558,-0.4442392885684967, 191, 118, 0, 151
1731319925289,9i,6.1988088072737195,1.5s : 0.4s,3.7061408056099197,6.9787349723639895,1.046622616275728,0.4846343366525617,-1.0497912168502808,0.9137983322143555,1.1666232347488403,0.3187698721885681,-0.03857467323541641,0.362998902797699,0.10311809934636913,-1.097907111033111,2.163303497363429,-0.8855270147323608,-0.10293544828891754,-0.4530409276485443, 191, 118, 0, 151
1731319925299,9i,6.1988088072737195,1.5s : 0.4s,3.7061408056099197,6.987378755626885,1.1300940630816934,0.5111841036226138,-1.1450767517089844,1.0054271221160889,1.256825566291809,0.32399600744247437,-0.008824862539768219,0.3952946960926056,0.0873096831421703,-1.0879424339422563,2.1590109457739803,-0.8822997808456421,-0.08719880133867264,-0.46254003047943115, 191, 118, 0, 151
1731319925309,9i,6.1988088072737195,1.5s : 0.4s,3.7061408056099197,6.996864028035955,1.2184040453668445,0.5437661013589776,-1.239044427871704,1.0863349437713623,1.3387515544891357,0.3423352837562561,0.028298936784267426,0.42152971029281616,0.07024218497520368,-1.0771784664470894,2.1545085785928193,-0.8784528374671936,-0.07018443942070007,-0.4726465344429016, 191, 118, 0, 151
1731319925319,9i,6.1988088072737195,1.5s : 0.4s,3.7061408056099197,7.007131259705696,1.30758511922221,0.5735249407234593,-1.2831988334655762,1.186976671218872,1.4318455457687378,0.3655720353126526,0.03126901015639305,0.4408062994480133,0.052075134360304746,-1.0655893580898028,2.1499632300519083,-0.8738880157470703,-0.0520516000688076,-0.48333245515823364, 191, 118, 0, 151
1731319925329,9i,6.1988088072737195,1.5s : 0.4s,3.7061408056099197,7.018278273780998,1.400709735626173,0.6269836040085537,-1.342226505279541,1.28189218044281,1.5406173467636108,0.3896560072898865,0.03208569437265396,0.49015012383461,0.03268674535469684,-1.0530584935265916,2.145705742126591,-0.8684767484664917,-0.032680924981832504,-0.49465131759643555, 191, 118, 0, 151
1731319925339,9i,6.1988088072737195,1.5s : 0.4s,3.7061408056099197,7.030440866904442,1.4940715028620115,0.6742698344367984,-1.4411635398864746,1.3867398500442505,1.5849549770355225,0.3976166844367981,0.0863935723900795,0.5376587510108948,0.012266816400369581,-1.0396665810077421,2.141544180182593,-0.8621705174446106,-0.012266508303582668,-0.5064696669578552, 191, 118, 0, 151
1731319925349,9i,6.1988088072737195,1.5s : 0.4s,3.7061408056099197,7.043391336355379,1.584073958478995,0.6745300326662836,-1.434728741645813,1.6167020797729492,1.5864876508712769,0.36692148447036743,0.14546987414360046,0.5469898581504822,-0.008781191363736193,-1.0247113244574628,2.1372012573738863,-0.8545313477516174,0.008781078271567822,-0.5193255543708801, 191, 118, 0, 151
1731319925359,9i,6.1988088072737195,1.5s : 0.4s,3.7061408056099197,7.056683083954762,1.6549308235729472,0.6444705544432491,-1.4097493886947632,1.7752959728240967,1.5149171352386475,0.336906373500824,0.13754352927207947,0.5319005250930786,-0.02946805314330427,-1.0078401431048571,2.1331442051061895,-0.8453139662742615,0.029463788494467735,-0.5334568023681641, 191, 118, 0, 151
1731319925369,9i,6.1988088072737195,1.5s : 0.4s,3.7061408056099197,7.069567808178003,1.72271359733938,0.5417594794632072,-1.3387250900268555,2.018622875213623,1.4626727104187012,0.305344820022583,0.1256929337978363,0.42949873208999634,-0.04931469133918643,-0.9890787105582487,2.129446637678191,-0.8345043063163757,0.04929470643401146,-0.5487918257713318, 191, 118, 0, 151
1731319925379,9i,6.1988088072737195,1.5s : 0.4s,3.7061408056099197,7.081797453930646,1.8135827690682076,0.4811234056030035,-1.4797667264938354,2.214918375015259,1.4613800048828125,0.26280874013900757,0.15283656120300293,0.3728971481323242,-0.06924927602257457,-0.9681165890514032,2.125894595769986,-0.8218450546264648,0.06919394433498383,-0.5654935240745544, 191, 118, 0, 151
1731319925389,9i,6.1988088072737195,1.5s : 0.4s,3.7061408056099197,7.0937203878294355,1.9206087414907191,0.5018408772919747,-1.7682156562805176,2.3534390926361084,1.3859130144119263,0.29528409242630005,0.18561674654483795,0.36082959175109863,-0.09021649399981492,-0.9457334530376997,2.1206297680958004,-0.8076285123825073,0.09009416401386261,-0.5827686190605164, 191, 118, 0, 151
1731319925399,9i,6.1988088072737195,1.5s : 0.4s,3.7061408056099197,7.105630940895608,2.0215651584081744,0.5294867359624078,-1.8110004663467407,2.4859731197357178,1.3918743133544922,0.3348138928413391,0.19444048404693604,0.36117690801620483,-0.11205288174980477,-0.9221781264142264,2.114139390339578,-0.7919214963912964,0.11181854456663132,-0.6002973318099976, 191, 118, 0, 151
1731319925409,9i,6.1988088072737195,1.5s : 0.4s,3.7061408056099197,7.117416976187115,2.099974880088969,0.5082820045695906,-1.7023390531539917,2.6305487155914307,1.3575037717819214,0.3412533402442932,0.19495601952075958,0.32231801748275757,-0.1337195655375487,-0.8974172329959991,2.108592372471133,-0.7747402787208557,0.13332141935825348,-0.6180638074874878, 191, 118, 0, 151
1731319925419,9i,6.1988088072737195,1.5s : 0.4s,3.7061408056099197,7.128720401298872,2.1446269248932386,0.47104029272311243,-1.541895866394043,2.7698326110839844,1.167550802230835,0.3145219683647156,0.2465394288301468,0.2493455410003662,-0.15384686323667127,-0.871032284478819,2.103849033443149,-0.7559587955474854,0.15324068069458008,-0.6364304423332214, 191, 118, 0, 151
1731319925429,9i,6.1988088072737195,1.5s : 0.4s,3.7061408056099197,7.139037790651589,2.181048425125631,0.42059701072340727,-1.4574804306030273,2.934990167617798,0.966526210308075,0.21855252981185913,0.3263896107673645,0.15035444498062134,-0.17158227036345253,-0.8433410363641459,2.0993029384596515,-0.7359018325805664,0.17074160277843475,-0.6552066802978516, 191, 118, 0, 151
1731319925439,9i,6.1988088072737195,1.5s : 0.4s,3.7061408056099197,7.148462452078183,2.235358741067023,0.43308890500823216,-1.508636474609375,3.10274338722229,0.8530038595199585,0.13231462240219116,0.4025534391403198,0.0894961953163147,-0.18816976626628298,-0.8140267028344871,2.0942662676614807,-0.7142238616943359,0.18706128001213074,-0.6744570732116699, 191, 118, 0, 151
1731319925449,9i,6.1988088072737195,1.5s : 0.4s,3.7061408056099197,7.157224080441587,2.2885298934374148,0.5036110708009882,-1.6646325588226318,3.125868082046509,0.7406848669052124,0.13838976621627808,0.4765835404396057,0.08567678928375244,-0.2049319639884174,-0.7839722204692497,2.088148905538813,-0.6913225650787354,0.20350055396556854,-0.6932969689369202, 191, 118, 0, 151
1731319925459,9i,6.1988088072737195,1.5s : 0.4s,3.7061408056099197,7.165548653431514,2.3076663479224413,0.5139504188698079,-1.6851961612701416,3.0165915489196777,0.6675906777381897,0.1664358377456665,0.4818795919418335,0.06508612632751465,-0.2219491458797591,-0.7547663702913466,2.0809808093421105,-0.6683127284049988,0.22013136744499207,-0.7105633616447449, 191, 118, 0, 151
1731319925469,9i,6.1988088072737195,1.5s : 0.4s,3.7061408056099197,7.173641327224817,2.297688314466295,0.44836547191252313,-1.638450026512146,2.9334287643432617,0.5244368314743042,0.1293470859527588,0.42738664150238037,0.04051649570465088,-0.23823624622771938,-0.7267242097434486,2.07391460283469,-0.6456587910652161,0.2359890639781952,-0.7262464165687561, 191, 118, 0, 151
1731319925479,9i,6.1988088072737195,1.5s : 0.4s,3.7061408056099197,7.181176522299835,2.294891068474604,0.42754112039902803,-1.520983338356018,3.0528883934020996,0.27446267008781433,0.01081782579421997,0.4271107316017151,0.015836894512176514,-0.2528356604218819,-0.6987807327134117,2.0660758694398895,-0.6228326559066772,0.2501504719257355,-0.7412854433059692, 191, 118, 0, 151
1731319925489,9i,6.1988088072737195,1.5s : 0.4s,3.7061408056099197,7.186819163642626,2.2901293499341473,0.5225600684368548,-1.2624046802520752,3.1956381797790527,0.05616400018334389,-0.13159197568893433,0.498790979385376,-0.08342742919921875,-0.2646164344578599,-0.6695684093053741,2.058048905514691,-0.599044680595398,0.2615390717983246,-0.756797730922699, 191, 118, 0, 151
1731319925499,9i,6.1988088072737195,1.5s : 0.4s,3.7061408056099197,7.190488840148859,2.2663359599576354,0.610942906070836,-1.1063892841339111,3.1786274909973145,0.024843629449605942,-0.16264653205871582,0.5462667346000671,-0.2199772596359253,-0.2740924706190605,-0.6395844455993485,2.0505796672341976,-0.5745819211006165,0.27067339420318604,-0.7723933458328247, 191, 118, 0, 151
1731319925509,9i,6.1988088072737195,1.5s : 0.4s,3.7061408056099197,7.192416884463159,2.172889510498438,0.6180662321494127,-0.6704810857772827,2.912731885910034,-0.032819367945194244,-0.10547161102294922,0.5144001245498657,-0.32599711418151855,-0.28158839189817847,-0.6106205890236975,2.044914810942123,-0.5507937669754028,0.27788183093070984,-0.787024736404419, 191, 118, 0, 151
1731319925519,9i,6.1988088072737195,1.5s : 0.4s,3.7061408056099197,7.191978460410871,2.0609449004528133,0.560312673954033,-0.45876485109329224,2.7194814682006836,-0.3214471638202667,-0.07317256927490234,0.29171064496040344,-0.4727588891983032,-0.28507161654914653,-0.5837829199096047,2.0400718628587367,-0.5289393067359924,0.28122618794441223,-0.800709068775177, 191, 118, 0, 151
1731319925529,9i,6.1988088072737195,1.5s : 0.4s,3.7061408056099197,7.188591917506589,1.968091669304857,0.5860218243163218,-0.7343802452087402,2.512725591659546,-0.37600257992744446,-0.11569780111312866,0.041618019342422485,-0.5729777812957764,-0.2878882671449926,-0.5595581731900252,2.0333295596176533,-0.5089665651321411,0.2839280366897583,-0.8126117587089539, 191, 118, 0, 151
1731319925539,9i,6.1988088072737195,1.5s : 0.4s,3.7061408056099197,7.183121569926151,1.870065910527325,0.5668025321102232,-0.9191284775733948,2.2626659870147705,-0.34554266929626465,-0.11180299520492554,-0.004181861877441406,-0.5556507110595703,-0.29347135882923403,-0.5379394434420859,2.0253321868208607,-0.4904614984989166,0.2892768979072571,-0.8220500946044922, 191, 118, 0, 151
1731319925549,9i,6.1988088072737195,1.5s : 0.4s,3.7061408056099197,7.176336542172774,1.7536859484055285,0.5116232612595435,-0.6682850122451782,2.0785934925079346,-0.4638136327266693,-0.11406081914901733,-0.05598205327987671,-0.4955950975418091,-0.2983810807254577,-0.5186069401887907,2.0174047431888615,-0.47376886010169983,0.2939732074737549,-0.8301342129707336, 191, 118, 0, 151
1731319925559,9i,6.1988088072737195,1.5s : 0.4s,3.7061408056099197,7.168056251932038,1.6585050127827408,0.570225742962643,-0.5170073509216309,2.0267841815948486,-0.5951207876205444,-0.21150800585746765,-0.0798586905002594,-0.5234924554824829,-0.30088490143782526,-0.5005011862270666,2.0092016336991265,-0.4583071768283844,0.2963654696941376,-0.8379272222518921, 191, 118, 0, 151
1731319925569,9i,6.1988088072737195,1.5s : 0.4s,3.7061408056099197,7.158552638363027,1.5740788907683088,0.6370913469117111,-0.20726104080677032,1.999616265296936,-0.6168208122253418,-0.2948139011859894,0.04819044470787048,-0.562714695930481,-0.3013510023922316,-0.48264440056241914,2.001480140447016,-0.4432080388069153,0.2968105971813202,-0.845854640007019, 191, 118, 0, 151
1731319925579,9i,6.1988088072737195,1.5s : 0.4s,3.7061408056099197,7.148209504574103,1.4849404434776208,0.6774500097245589,0.14573723077774048,1.890596628189087,-0.6034786105155945,-0.2942083775997162,0.11814415454864502,-0.5986834764480591,-0.29878763036194517,-0.4648389787114506,1.9955634402224696,-0.428417444229126,0.29436177015304565,-0.8542889356613159, 191, 118, 0, 151
1731319925589,9i,6.1988088072737195,1.5s : 0.4s,3.7061408056099197,7.137267875651076,1.4001658964754202,0.6546643108227416,0.26410889625549316,1.707572102546692,-0.7427592873573303,-0.2887304425239563,0.07569101452827454,-0.5826585292816162,-0.29389302644723814,-0.4484797659187773,1.9900738668099072,-0.41500499844551086,0.28968051075935364,-0.8624708652496338, 191, 118, 0, 151
1731319925599,9i,6.1988088072737195,1.5s : 0.4s,3.7061408056099197,7.1262091790872075,1.3235560906140462,0.5972652262163174,0.377204567193985,1.5849069356918335,-0.7129505276679993,-0.3398004174232483,0.004281163215637207,-0.49116504192352295,-0.2881891980719515,-0.43377605825549886,1.9840932473885518,-0.4029669761657715,0.2842165529727936,-0.8699646592140198, 191, 118, 0, 151
1731319925609,9i,6.1988088072737195,1.5s : 0.4s,3.7061408056099197,7.114956606433123,1.2774387319904086,0.5674548388273759,0.46143853664398193,1.5558433532714844,-0.787624716758728,-0.3594985008239746,-0.1131395697593689,-0.4242231249809265,-0.2805471269971898,-0.4194380241135607,1.97908076559474,-0.39132553339004517,0.2768814265727997,-0.8776109218597412, 191, 118, 0, 151
1731319925619,9i,6.1988088072737195,1.5s : 0.4s,3.7061408056099197,7.1035219196735255,1.1969792735451499,0.5929211873153901,0.521497368812561,1.3438594341278076,-0.5642619132995605,-0.34608030319213867,-0.15956759452819824,-0.4542269706726074,-0.27410131449648034,-0.4066018858985584,1.9741141274663885,-0.3807264268398285,0.2706819176673889,-0.8841824531555176, 191, 118, 0, 151
1731319925629,9i,6.1988088072737195,1.5s : 0.4s,3.7061408056099197,7.091641197473318,1.1876895204471536,0.640112108845399,1.243615984916687,1.382439374923706,-0.5538461804389954,-0.32589083909988403,0.004258155822753906,-0.5509269833564758,-0.26382132920198603,-0.3933599110581019,1.9723906102248796,-0.37003210186958313,0.26077157258987427,-0.8916694521903992, 191, 118, 0, 151
1731319925639,9i,6.1988088072737195,1.5s : 0.4s,3.7061408056099197,7.079327063336933,1.2458567127294815,0.6971046111892353,1.5754280090332031,1.4261895418167114,-0.6477822661399841,-0.29498785734176636,0.05340595543384552,-0.6293526887893677,-0.24839573783370916,-0.37937488854918444,1.9720318990383063,-0.3589734435081482,0.24584925174713135,-0.9003866910934448, 191, 118, 0, 151
1731319925649,9i,6.1988088072737195,1.5s : 0.4s,3.7061408056099197,7.067104913487027,1.3459876814399436,0.6980692329249302,1.9724019765853882,1.3747278451919556,-0.6929115056991577,-0.261807918548584,0.15151312947273254,-0.6291272044181824,-0.2297287048326308,-0.3655655509868931,1.9719218904914777,-0.3480859696865082,0.22771336138248444,-0.9093859195709229, 191, 118, 0, 151
1731319925659,9i,6.1988088072737195,1.5s : 0.4s,3.7061408056099197,7.055367236380351,1.4042896818737052,0.6085017802313248,1.9853018522262573,1.0993503332138062,-0.7863783240318298,-0.20195910334587097,0.11909739673137665,-0.5615182518959045,-0.20847432124400225,-0.35305395555838814,1.97204157570833,-0.3382784426212311,0.20696750283241272,-0.9180044531822205, 191, 118, 0, 151
1731319925669,9i,6.1988088072737195,1.5s : 0.4s,3.7061408056099197,7.043607456548899,1.4690441662913885,0.6270331115281673,2.111981153488159,1.0259082317352295,-0.81389981508255,-0.19612643122673035,-0.008506044745445251,-0.5955103635787964,-0.18627807192095697,-0.3425927100962179,1.9713299310082124,-0.3301187753677368,0.18520264327526093,-0.9255925416946411, 191, 118, 0, 151
1731319925679,9i,6.1988088072737195,1.5s : 0.4s,3.7061408056099197,7.032024960860148,1.5178401529501622,0.5789792554520519,2.126782178878784,0.9715418219566345,-0.7985509634017944,-0.17443633079528809,-0.023075029253959656,-0.5515944957733154,-0.16396048003558403,-0.33273923164676034,1.9706237143078336,-0.3222526013851166,0.16322684288024902,-0.9324753284454346, 191, 118, 0, 151
1731319925689,9i,6.1988088072737195,1.5s : 0.4s,3.7061408056099197,7.021520204611481,1.5844748801355757,0.4493600603081933,2.3100075721740723,0.9134562611579895,-0.8525761365890503,-0.13003945350646973,0.04811146855354309,-0.4274336099624634,-0.14052176425866925,-0.32366338311238546,1.969799870352115,-0.31490692496299744,0.14005975425243378,-0.9387315511703491, 191, 118, 0, 151
1731319925699,9i,6.1988088072737195,1.5s : 0.4s,3.7061408056099197,7.012203336240216,1.678718296247865,0.46380390071413163,2.5974888801574707,0.8292721509933472,-0.8811992406845093,-0.10667496919631958,0.1631513088941574,-0.4208517074584961,-0.11520991967658639,-0.31550773438968754,1.9690774641984266,-0.3082421123981476,0.11495521664619446,-0.9443368315696716, 191, 118, 0, 151
1731319925709,9i,6.1988088072737195,1.5s : 0.4s,3.7061408056099197,7.004353019977988,1.7929004310223335,0.4639305733730375,2.8748509883880615,0.7040987610816956,-0.9451041221618652,-0.0746580958366394,0.2664053738117218,-0.3724055886268616,-0.08659266328625133,-0.30809955355907953,1.9686636920883798,-0.30211201310157776,0.08648448437452316,-0.9493412375450134, 191, 118, 0, 151
1731319925719,9i,6.1988088072737195,1.5s : 0.4s,3.7061408056099197,6.997610134300169,1.9150403109027134,0.46329171862833085,3.0867249965667725,0.6139180064201355,-1.0216553211212158,-0.07222104072570801,0.30881017446517944,-0.3377271294593811,-0.05533838046936015,-0.3016698828982406,1.9681548235341932,-0.29666027426719666,0.055310141295194626,-0.9533800482749939, 191, 118, 0, 151
1731319925729,9i,6.1988088072737195,1.5s : 0.4s,3.7061408056099197,6.992051010958054,2.0125985121564987,0.3925199722384006,3.077850580215454,0.5987769961357117,-1.191573977470398,-0.10075387358665466,0.2796975076198578,-0.2563003897666931,-0.022535083904559397,-0.2957324706268039,1.966655875294404,-0.2913666069507599,0.022533176466822624,-0.9563460350036621, 191, 118, 0, 151
1731319925739,9i,6.1988088072737195,1.5s : 0.4s,3.7061408056099197,6.987656275248268,2.038333128954807,0.24559134670719232,2.796445369720459,0.5081677436828613,-1.352081060409546,-0.11170697212219238,0.1825181394815445,-0.12051469087600708,0.009270137032716267,-0.2902041277991013,1.9628035890062001,-0.2861355245113373,-0.009270003996789455,-0.9581443071365356, 191, 118, 0, 151
1731319925749,9i,6.1988088072737195,1.5s : 0.4s,3.7061408056099197,6.983976226669108,2.007358838877658,0.17671468571835805,2.5228383541107178,0.45910781621932983,-1.3568390607833862,-0.06825798749923706,0.09888091683387756,-0.1295819878578186,0.0383130557517115,-0.2853538656880539,1.9571623061021413,-0.2812904417514801,-0.0383036844432354,-0.9588578939437866, 191, 118, 0, 151
1731319925759,9i,6.1988088072737195,1.5s : 0.4s,3.7061408056099197,6.981003808341879,1.9799985023828623,0.153373703835973,2.464907646179199,0.3866722285747528,-1.4239802360534668,-0.00638735294342041,0.0839204490184784,-0.12821877002716064,0.06605481868629924,-0.2809016453747844,1.9507918956628167,-0.27661749720573425,-0.06600679457187653,-0.9587105512619019, 191, 118, 0, 151
1731319925769,9i,6.1988088072737195,1.5s : 0.4s,3.7061408056099197,6.979184647087331,1.9316105016408187,0.12009556276919355,2.2355868816375732,0.3567050099372864,-1.537499189376831,0.011094897985458374,0.11749827861785889,-0.022226154804229736,0.09259100214808141,-0.2766284841384773,1.942866362499968,-0.27194398641586304,-0.09245876222848892,-0.957861065864563, 191, 118, 0, 151
1731319925779,9i,6.1988088072737195,1.5s : 0.4s,3.7061408056099197,6.977745055879308,1.9135594635145234,0.221628576833817,2.260444402694702,0.418895423412323,-1.6067677736282349,-0.021540403366088867,0.22009895741939545,0.014549434185028076,0.11829350504117832,-0.27188164076817295,1.933641192267963,-0.2666676938533783,-0.11801780760288239,-0.9565354585647583, 191, 118, 0, 151
1731319925788,9i,6.1988088072737195,1.5s : 0.4s,3.7061408056099197,6.976713150898205,1.8825226213390576,0.22793661826757686,2.0874922275543213,0.46278342604637146,-1.6782187223434448,-0.0286729633808136,0.2260417640209198,0.006171226501464844,0.14375762620125618,-0.2661418945133163,1.923680542350864,-0.26029807329177856,-0.14326298236846924,-0.9548406004905701, 191, 118, 0, 151
1731319925798,9i,6.1988088072737195,1.5s : 0.4s,3.7061408056099197,6.976027393226847,1.83379380689436,0.18989254507647718,1.8248075246810913,0.4896898567676544,-1.78759765625,-0.026990294456481934,0.17196868360042572,0.07587802410125732,0.16692941060770203,-0.2596530521943367,1.9118697845256503,-0.25317639112472534,-0.16615523397922516,-0.9530446529388428, 191, 118, 0, 151
1731319925808,9i,6.1988088072737195,1.5s : 0.4s,3.7061408056099197,6.9759044315942065,1.783187695180136,0.21567901409872042,1.6202384233474731,0.5587718486785889,-1.857084035873413,-0.04923383891582489,0.13987593352794647,0.1566147804260254,0.18811804443180277,-0.25209419478210554,1.8983017984917716,-0.24503199756145477,-0.18701046705245972,-0.9513077139854431, 191, 118, 0, 151
1731319925818,9i,6.1988088072737195,1.5s : 0.4s,3.7061408056099197,6.976038915686018,1.7356564499763811,0.18699077946225828,1.519748330116272,0.5994119644165039,-1.829603672027588,-0.05847713351249695,0.10779647529125214,0.14115911722183228,0.20769046358118015,-0.2434907618224196,1.8839242109544956,-0.23591075837612152,-0.20620055496692657,-0.9496459364891052, 191, 118, 0, 151
1731319925828,9i,6.1988088072737195,1.5s : 0.4s,3.7061408056099197,6.976389458496822,1.6929595889111186,0.15842328511716786,1.4956032037734985,0.5888229608535767,-1.766564965248108,-0.02414141595363617,0.12722454965114594,0.09126359224319458,0.22642937236731053,-0.23451360142807043,1.8697170343989227,-0.226438507437706,-0.22449947893619537,-0.9478003978729248, 191, 118, 0, 151
1731319925838,9i,6.1988088072737195,1.5s : 0.4s,3.7061408056099197,6.977004436420743,1.6542082470008164,0.1573235687032258,1.4543628692626953,0.5102027058601379,-1.7585121393203735,0.019279181957244873,0.11205326020717621,0.10873401165008545,0.24475403775689078,-0.22578665227374012,1.8555365804419144,-0.21720100939273834,-0.24231770634651184,-0.9455717206001282, 191, 118, 0, 151
1731319925848,9i,6.1988088072737195,1.5s : 0.4s,3.7061408056099197,6.977856232982575,1.6000793533353341,0.12767329863496812,1.2909032106399536,0.4602893590927124,-1.7306232452392578,0.03748486936092377,0.07321637868881226,0.09764587879180908,0.26199454340977385,-0.21742302244843115,1.841110781316366,-0.20835286378860474,-0.2590075433254242,-0.9431353211402893, 191, 118, 0, 151
