timestamp,club,max_speed,tempo,w.rotation,l.speed,t.spped,acc,rotation.x,rotation.y,rotation.z,userAcceleration.x,userAcceleration.y,userAcceleration.z,pitch,roll,yaw,gravity.x,gravity.y,gravity.z,impactIndex,minDownIndex,StartIndex,endIndex
1731320670866,9i,6.790167628071913,1.8s : 0.4s,0.707922848717601,0.0003863433400669911,0.1340292428682186,0.011609119940910538,0.0038542028050869703,-0.006957442034035921,0.027301626279950142,-0.00048661231994628906,-0.011212766170501709,-0.0029679536819458008,-0.28565046979929826,2.0601723827480956,2.9690939773854677,0.8468611836433411,0.2817816138267517,0.4510272145271301, 225, 154, 0, 184
1731320670856,9i,6.790167628071913,1.8s : 0.4s,0.707922848717601,0.0003030293674382566,0.09227188437630236,0.01646955753519488,-0.0032377950847148895,-0.0012806477025151253,0.010147406719624996,-0.0027051568031311035,-0.015937060117721558,0.0031525492668151855,-0.28591467055451264,2.0602837779986536,2.9692018104572386,0.8467451930046082,0.28203511238098145,0.45108652114868164, 225, 154, 0, 184
1731320670876,9i,6.790167628071913,1.8s : 0.4s,0.707922848717601,0.0009355039166044516,0.0615479498236723,0.018924915854970678,0.017331330105662346,-0.007267877459526062,0.0261260736733675,-0.0028339624404907227,-0.01777791976928711,-0.005836665630340576,-0.28540010022016343,2.0600792141786974,2.9688678048430424,0.8469655513763428,0.2815413773059845,0.4509815275669098, 225, 154, 0, 184
1731320670886,9i,6.790167628071913,1.8s : 0.4s,0.707922848717601,0.0014930508556150405,0.040259449953793255,0.028135654112107878,0.022394530475139618,-0.0028249258175492287,0.02649305760860443,-0.005243420600891113,-0.026803672313690186,-0.006759047508239746,-0.2852332709197263,2.0599711782475323,2.9685703477907324,0.8470555543899536,0.2813813090324402,0.4509119987487793, 225, 154, 0, 184
1731320670896,9i,6.790167628071913,1.8s : 0.4s,0.707922848717601,0.0019963905562306577,0.035057247723985836,0.021701712911582405,0.02223340980708599,-6.837677210569382e-05,0.03426242992281914,-0.004983305931091309,-0.020511984825134277,-0.005038797855377197,-0.2850372109690619,2.0599453256606863,2.9682335234598245,0.8471159934997559,0.28119316697120667,0.450916051864624, 225, 154, 0, 184
1731320670906,9i,6.790167628071913,1.8s : 0.4s,0.707922848717601,0.0024611271303831804,0.028347586136183663,0.0076758099489017935,0.0050208671018481255,0.0014203302562236786,0.027192004024982452,0.002286672592163086,-0.0062677860260009766,-0.0037952661514282227,-0.2848542199735107,2.059925780515055,2.967964467254007,0.8471701741218567,0.281017541885376,0.4509236216545105, 225, 154, 0, 184
1731320670916,9i,6.790167628071913,1.8s : 0.4s,0.707922848717601,0.002885127746932872,0.02435872129547303,0.005825508543304705,-0.003952920436859131,0.003166742390021682,0.023790080100297928,0.0007406473159790039,-0.005767613649368286,0.0003501772880554199,-0.2845874077675717,2.0599261736892256,2.967857987382013,0.8472359776496887,0.2807614803314209,0.45095908641815186, 225, 154, 0, 184
1731320670926,9i,6.790167628071913,1.8s : 0.4s,0.707922848717601,0.003259970742411091,0.021171017505075388,0.003675225530781432,-0.012738422490656376,-0.004778798669576645,0.02153198793530464,-0.002833843231201172,0.0022138357162475586,0.0007586479187011719,-0.28420477378637693,2.059924829823524,2.967819767589801,0.8473315238952637,0.28039422631263733,0.45100849866867065, 225, 154, 0, 184
1731320670936,9i,6.790167628071913,1.8s : 0.4s,0.707922848717601,0.00360444358452288,0.01901987766555194,0.008916110614591848,-0.03635174036026001,-0.01363522931933403,0.009242897853255272,0.002962172031402588,0.005026727914810181,-0.006742000579833984,-0.2838176954206902,2.0599288408995697,2.9679854393933724,0.8474252223968506,0.28002265095710754,0.45106273889541626, 225, 154, 0, 184
1731320670946,9i,6.790167628071913,1.8s : 0.4s,0.707922848717601,0.00392531214365136,0.018149950690778585,0.00712497242675566,-0.05880192294716835,-0.019430801272392273,0.01055583544075489,0.0025231242179870605,-0.004772484302520752,-0.004649996757507324,-0.28342360799761995,2.059847815085581,2.968370356850285,0.8475592732429504,0.27964431047439575,0.451045960187912, 225, 154, 0, 184
1731320670956,9i,6.790167628071913,1.8s : 0.4s,0.707922848717601,0.004230247791546275,0.030307314080079088,0.013419582947069533,-0.09069207310676575,-0.03703252226114273,-0.005989917553961277,0.002386808395385742,-0.011079251766204834,-0.007185995578765869,-0.282920206232317,2.059719472090449,2.969017638013581,0.8477414846420288,0.2791609466075897,0.4510033428668976, 225, 154, 0, 184
1731320670966,9i,6.790167628071913,1.8s : 0.4s,0.707922848717601,0.004519768396557848,0.043474741973851795,0.017795591486873208,-0.1068611890077591,-0.037411224097013474,-0.009184379130601883,0.0021346211433410645,-0.017499953508377075,0.002424478530883789,-0.2822653404081404,2.059585408054169,2.969972483852903,0.8479630351066589,0.2785320580005646,0.45097535848617554, 225, 154, 0, 184
1731320670976,9i,6.790167628071913,1.8s : 0.4s,0.707922848717601,0.004797806902484979,0.055941828703715585,0.019090307147961644,-0.12001295387744904,-0.04515942186117172,0.008382496424019337,0.0023697614669799805,-0.01875576376914978,0.0026543140411376953,-0.281634667877297,2.0594690702454095,2.9710168130917047,0.8481703996658325,0.2779262959957123,0.4509590268135071, 225, 154, 0, 184
1731320670986,9i,6.790167628071913,1.8s : 0.4s,0.707922848717601,0.005073747176363624,0.12760578798505454,0.0192517692278436,-0.15502899885177612,0.2755240797996521,-0.49737444519996643,0.0039400458335876465,-0.018432319164276123,-0.003918707370758057,-0.28169508453560804,2.059636161643081,2.972425897088809,0.8480803370475769,0.2779843211174011,0.4510929584503174, 225, 154, 0, 184
1731320670996,9i,6.790167628071913,1.8s : 0.4s,0.707922848717601,0.005215923259946238,0.2586937350151409,0.044472487192335396,-0.24075448513031006,0.4392065405845642,-0.6944044828414917,-0.03344106674194336,-0.025949418544769287,-0.013642758131027222,-0.28049815081064444,2.0587021866405477,2.97326745350325,0.8487943410873413,0.2768343687057495,0.4504561722278595, 225, 154, 0, 184
1731320671006,9i,6.790167628071913,1.8s : 0.4s,0.707922848717601,0.005418500557598579,0.23620159959761944,0.0286764833290678,-0.055623505264520645,0.15259821712970734,-0.22544634342193604,0.026842892169952393,-0.009356051683425903,-0.0037767887115478516,-0.28039559039350365,2.0587839625982736,2.9741734051118804,0.8487827181816101,0.2767358124256134,0.4505389928817749, 225, 154, 0, 184
1731320671016,9i,6.790167628071913,1.8s : 0.4s,0.707922848717601,0.005620239402693283,0.1712453518924602,0.011360217552448447,0.03766443207859993,0.021921876817941666,-0.036617401987314224,0.00460505485534668,-0.007402777671813965,0.007283329963684082,-0.28128477499644416,2.059066956271532,2.974983883123293,0.8484376072883606,0.27759015560150146,0.45066356658935547, 225, 154, 0, 184
1731320671026,9i,6.790167628071913,1.8s : 0.4s,0.707922848717601,0.005456702638729445,0.13321547860153793,0.052380603615264365,0.06588807702064514,0.043047402054071426,-0.06967335194349289,-0.047501206398010254,0.0031226277351379395,0.02185434103012085,-0.2820346709691938,2.0592734461700175,2.974932671584915,0.8481605648994446,0.27831050753593445,0.4507409930229187, 225, 154, 0, 184
1731320671036,9i,6.790167628071913,1.8s : 0.4s,0.707922848717601,0.005169050888436124,0.12417815445070333,0.05397555993956575,0.16185656189918518,0.050781045109033585,-0.06349515914916992,-0.0007722377777099609,0.028977960348129272,0.04553067684173584,-0.2829648467344565,2.0594232316430565,2.974161970746375,0.8478639125823975,0.2792038023471832,0.45074623823165894, 225, 154, 0, 184
1731320671046,9i,6.790167628071913,1.8s : 0.4s,0.707922848717601,0.004748162693886748,0.11803300906102406,0.0769453589918752,0.17476490139961243,0.06087975203990936,-0.07300077378749847,-0.012604475021362305,0.02579188346862793,0.07138973474502563,-0.28428091761667923,2.059668696881105,2.9730099405875383,0.8474282026290894,0.28046730160713196,0.4507814347743988, 225, 154, 0, 184
1731320671056,9i,6.790167628071913,1.8s : 0.4s,0.707922848717601,0.004283395555780637,0.11094730050726435,0.08202590379832445,0.2007647305727005,0.06206956133246422,-0.07339948415756226,-0.029391467571258545,0.027238905429840088,0.07157117128372192,-0.2856828117973198,2.0599072054754344,2.9716600999634823,0.8469727635383606,0.2818126678466797,0.4507983922958374, 225, 154, 0, 184
1731320671066,9i,6.790167628071913,1.8s : 0.4s,0.707922848717601,0.004030203687690094,0.11516416499554075,0.07078434743283352,0.1922503411769867,0.05599675700068474,-0.08472298085689545,-0.02630794048309326,0.040341466665267944,0.05187371373176575,-0.2871987721648352,2.0600528698122975,2.9702137436721836,0.8465287685394287,0.2832668423652649,0.45072031021118164, 225, 154, 0, 184
1731320671076,9i,6.790167628071913,1.8s : 0.4s,0.707922848717601,0.004052448443849988,0.11571845165977546,0.05709400025913899,0.1606474071741104,0.04928647726774216,-0.08979257196187973,-0.03154098987579346,0.030506432056427002,0.0365273654460907,-0.2886557253291063,2.0602598697119654,2.9690384407536605,0.846070408821106,0.2846638262271881,0.4507010579109192, 225, 154, 0, 184
1731320671086,9i,6.790167628071913,1.8s : 0.4s,0.707922848717601,0.004329073814456081,0.11278266738070357,0.061525945454011376,0.11519737541675568,0.03726816177368164,-0.0837346762418747,-0.04818832874298096,0.020760387182235718,0.03212994337081909,-0.28995672824664387,2.060379464966688,2.968219551446093,0.845689058303833,0.2859107553958893,0.45062780380249023, 225, 154, 0, 184
1731320671096,9i,6.790167628071913,1.8s : 0.4s,0.707922848717601,0.004791175729600169,0.10318178394429176,0.06966781860646137,0.10148376226425171,0.02361973188817501,-0.06732704490423203,-0.06355917453765869,0.01864638924598694,0.021590471267700195,-0.29103241658924645,2.060509612994035,2.9675795250343797,0.8453584909439087,0.28694137930870056,0.45059290528297424, 225, 154, 0, 184
1731320671106,9i,6.790167628071913,1.8s : 0.4s,0.707922848717601,0.005343617251823579,0.09104704195129981,0.07121476921559138,0.0602489709854126,0.017459306865930557,-0.07181952893733978,-0.06831216812133789,0.0195673406124115,-0.004702150821685791,-0.2920463108934355,2.0608363864824235,2.9672502797011138,0.8449538946151733,0.2879124879837036,0.45073187351226807, 225, 154, 0, 184
1731320671116,9i,6.790167628071913,1.8s : 0.4s,0.707922848717601,0.005889018739940549,0.07507698624547773,0.07427908054499964,0.008211067877709866,0.01684296317398548,-0.06590171903371811,-0.07059067487716675,0.01483878493309021,-0.01772424578666687,-0.2928890897200704,2.061196077796656,2.967304788295734,0.8445773720741272,0.2887194752693176,0.45092132687568665, 225, 154, 0, 184
1731320671126,9i,6.790167628071913,1.8s : 0.4s,0.707922848717601,0.0064830925572307236,0.05724603928864472,0.06189692867342203,-0.01669374853372574,0.019828099757432938,-0.033934734761714935,-0.05762141942977905,0.017577677965164185,-0.014213621616363525,-0.29335945553685056,2.061740410794835,2.967694938290347,0.8442121148109436,0.2891697883605957,0.4513170123100281, 225, 154, 0, 184
1731320671136,9i,6.790167628071913,1.8s : 0.4s,0.707922848717601,0.007103910561717931,0.11545943111073563,0.03542913218070937,-0.08360893279314041,0.2023550271987915,-0.34666937589645386,-0.02800297737121582,0.016195952892303467,-0.014448106288909912,-0.293974039969826,2.062443195978349,2.9683939332286373,0.8437380194664001,0.2897580564022064,0.451826274394989, 225, 154, 0, 184
1731320671146,9i,6.790167628071913,1.8s : 0.4s,0.707922848717601,0.00771815571273798,0.14233013145494547,0.05458770537894084,-0.13492006063461304,0.09518783539533615,-0.2815636098384857,-0.04928767681121826,0.003123939037322998,-0.023254752159118652,-0.2935704975047743,2.0619647101690903,2.968706340819144,0.8440569639205933,0.2893717885017395,0.4514775276184082, 225, 154, 0, 184
1731320671156,9i,6.790167628071913,1.8s : 0.4s,0.707922848717601,0.008280517040281756,0.12094330189116359,0.027791023834725363,-0.07619928568601608,-0.009144252166152,-0.10159720480442047,-0.004764676094055176,-0.005175501108169556,-0.026885926723480225,-0.2934256380497719,2.0624470741259806,2.969528690559979,0.8438761234283447,0.28923314809799194,0.45190444588661194, 225, 154, 0, 184
1731320671166,9i,6.790167628071913,1.8s : 0.4s,0.707922848717601,0.008738311483332676,0.0855197320139286,0.0416658741006678,-0.05981019139289856,-0.0029100587125867605,0.01720242016017437,0.017429590225219727,-0.008635193109512329,-0.036846816539764404,-0.2933736175578265,2.0630678852511215,2.970587728676118,0.8436087369918823,0.2891833484172821,0.4524354040622711, 225, 154, 0, 184
1731320671176,9i,6.790167628071913,1.8s : 0.4s,0.707922848717601,0.009078965872314767,0.07139779604482452,0.0510738617362849,-0.07891025394201279,0.017785899341106415,-0.015831496566534042,-0.00012677907943725586,-0.011012136936187744,-0.049872398376464844,-0.29314682904137884,2.063513096371214,2.971475022167575,0.8434647917747498,0.28896623849868774,0.4528418481349945, 225, 154, 0, 184
1731320671186,9i,6.790167628071913,1.8s : 0.4s,0.707922848717601,0.009018222061909891,0.06540486058527342,0.06275287151674912,-0.06900036334991455,0.025979114696383476,-0.0178549662232399,0.03878319263458252,-0.015325367450714111,-0.046892642974853516,-0.29296627641248024,2.063985355012323,2.972296999827579,0.8432968854904175,0.2887933850288391,0.45326489210128784, 225, 154, 0, 184
1731320671196,9i,6.790167628071913,1.8s : 0.4s,0.707922848717601,0.008769852622817655,0.07442330690568257,0.04574376031720723,-0.0829036608338356,0.07117251306772232,-0.09354027360677719,0.021247446537017822,-0.01758626103401184,-0.03649330139160156,-0.2928734385300954,2.064467375337515,2.9730730795222526,0.8431020975112915,0.2887044847011566,0.45368412137031555, 225, 154, 0, 184
1731320671206,9i,6.790167628071913,1.8s : 0.4s,0.707922848717601,0.008338019251707553,0.09714133434355673,0.050117845817101846,-0.11066844314336777,0.12503734230995178,-0.15273408591747284,0.0328865647315979,-0.02662798762321472,-0.02685558795928955,-0.29273882655081923,2.0649049972529783,2.9740302468942104,0.8429374098777771,0.2885756194591522,0.4540713131427765, 225, 154, 0, 184
1731320671216,9i,6.790167628071913,1.8s : 0.4s,0.707922848717601,0.007794693255516862,0.1139466695841906,0.04921751744103875,-0.10402458906173706,0.1414802372455597,-0.14939577877521515,0.03667038679122925,-0.019709676504135132,-0.026252150535583496,-0.2925253190845633,2.0652586981200094,2.975007483510937,0.842831015586853,0.28837117552757263,0.45439866185188293, 225, 154, 0, 184
1731320671226,9i,6.790167628071913,1.8s : 0.4s,0.707922848717601,0.00718867945078301,0.11271986100579401,0.04723441907882551,-0.09947031736373901,0.10249954462051392,-0.0671033039689064,0.02555537223815918,-0.005293935537338257,-0.03936988115310669,-0.2922903152682165,2.065576856641287,2.9760019599449894,0.8427461385726929,0.28814616799354553,0.4546990394592285, 225, 154, 0, 184
1731320671236,9i,6.790167628071913,1.8s : 0.4s,0.707922848717601,0.006544167701450614,0.09913522095272453,0.04510706235581148,-0.1133948564529419,-0.017981242388486862,0.08999979496002197,0.02099400758743286,-0.006506085395812988,-0.039389967918395996,-0.29202639102808664,2.065793247709156,2.9771122503162304,0.8427144885063171,0.2878934144973755,0.45491743087768555, 225, 154, 0, 184
1731320671246,9i,6.790167628071913,1.8s : 0.4s,0.707922848717601,0.005889209258107482,0.06270194562509923,0.033937591076283836,-0.0775068998336792,-0.18086309731006622,0.3068511486053467,0.01821005344390869,-0.013472884893417358,-0.025271236896514893,-0.29168500997199726,2.0659680538342213,2.9782077193091974,0.8427212834358215,0.28756648302078247,0.4551113545894623, 225, 154, 0, 184
1731320671256,9i,6.790167628071913,1.8s : 0.4s,0.707922848717601,0.005230260379105914,0.148523674933834,0.033121061238637374,-0.04808269813656807,-0.3690018653869629,0.5117616653442383,0.014506399631500244,-0.019133448600769043,-0.022814035415649414,-0.2914933938896162,2.0661174079117526,2.9791245943411715,0.8427018523216248,0.28738293051719666,0.4552634656429291, 225, 154, 0, 184
1731320671266,9i,6.790167628071913,1.8s : 0.4s,0.707922848717601,0.004586875288242991,0.27272235716784987,0.03617378893685303,-0.03236978128552437,-0.5382127165794373,0.6649086475372314,0.00397181510925293,-0.03245040774345398,-0.015483498573303223,-0.2913299556682438,2.066228377811351,2.979878643001436,0.8426926732063293,0.2872263789176941,0.45537930727005005, 225, 154, 0, 184
1731320671276,9i,6.790167628071913,1.8s : 0.4s,0.707922848717601,0.004006351985321271,0.38399949326611216,0.03733399502837395,-0.015968438237905502,-0.6468212008476257,0.7172108292579651,-0.006738126277923584,-0.036636173725128174,0.0024931132793426514,-0.29127129376640204,2.0666332714139446,2.980693505581949,0.8425229787826538,0.2871702015399933,0.4557284414768219, 225, 154, 0, 184
1731320671286,9i,6.790167628071913,1.8s : 0.4s,0.707922848717601,0.003520809834176816,0.45194196326131286,0.03554216001840576,0.009550770744681358,-0.6433473825454712,0.6499646902084351,-0.008023202419281006,-0.031533390283584595,0.014301002025604248,-0.2912009986103081,2.066932619909769,2.981257115629799,0.8424044251441956,0.2871028780937195,0.45599034428596497, 225, 154, 0, 184
1731320671296,9i,6.790167628071913,1.8s : 0.4s,0.707922848717601,0.0031381271907711104,0.4416712382092158,0.02259785350351968,0.048225462436676025,-0.4884340763092041,0.3978203535079956,-0.012502729892730713,-0.01692262291908264,0.008244365453720093,-0.2911606198868371,2.067069605331734,2.9813174668121594,0.8423519730567932,0.28706419467926025,0.4561111330986023, 225, 154, 0, 184
1731320671305,9i,6.790167628071913,1.8s : 0.4s,0.707922848717601,0.0028682823740848644,0.34774013994799013,0.03285625579432896,0.027933772653341293,-0.2117217630147934,0.05637458711862564,-0.018639445304870605,-0.026815742254257202,0.003608405590057373,-0.2911822734088545,2.0670517982569927,2.981036815380431,0.8423547744750977,0.2870849370956421,0.45609328150749207, 225, 154, 0, 184
1731320671315,9i,6.790167628071913,1.8s : 0.4s,0.707922848717601,0.0028508748517089904,0.19779693264006584,0.05134810889814475,0.009380195289850235,0.08471282571554184,-0.25837117433547974,-0.028971970081329346,-0.041451871395111084,0.008887946605682373,-0.2911534891155511,2.067029105443195,2.9807195032553335,0.8423723578453064,0.28705736994743347,0.45607805252075195, 225, 154, 0, 184
1731320671325,9i,6.790167628071913,1.8s : 0.4s,0.707922848717601,0.003002948352825392,0.050741417815689374,0.04356991458891055,-0.0014847025740891695,0.3451271057128906,-0.5021106004714966,-0.022125542163848877,-0.035334616899490356,0.01265949010848999,-0.291075362276145,2.0669951751034628,2.98034002718134,0.8424074053764343,0.2869825065135956,0.4560600817203522, 225, 154, 0, 184
1731320671335,9i,6.790167628071913,1.8s : 0.4s,0.707922848717601,0.003278788247998663,0.16809894288577065,0.03308488976489028,-0.01157788373529911,0.5301796793937683,-0.6657066345214844,-0.012621641159057617,-0.029666095972061157,0.007431477308273315,-0.290987897755543,2.0669378980556425,2.979876731147078,0.8424555659294128,0.28689873218536377,0.4560237526893616, 225, 154, 0, 184
1731320671345,9i,6.790167628071913,1.8s : 0.4s,0.707922848717601,0.0036526671069719734,0.3040363089442247,0.038343289955935105,-0.021671263501048088,0.6195068955421448,-0.7036086916923523,-0.006442248821258545,-0.03747078776359558,0.00496441125869751,-0.2909479408403834,2.0669256920217816,2.979573812398851,0.8424714207649231,0.28686046600341797,0.4560190439224243, 225, 154, 0, 184
1731320671355,9i,6.790167628071913,1.8s : 0.4s,0.707922848717601,0.004091105877402799,0.3863273980725152,0.03220320434550867,-0.010942187160253525,0.6024450063705444,-0.6231820583343506,-0.002672851085662842,-0.03182876110076904,0.0041027069091796875,-0.2909199300337672,2.066875353081127,2.979267663694796,0.8425013422966003,0.28683361411094666,0.45598042011260986, 225, 154, 0, 184
1731320671365,9i,6.790167628071913,1.8s : 0.4s,0.707922848717601,0.004547329659301958,0.4013518465030148,0.02293596196176002,-0.0022267259191721678,0.4822016656398773,-0.44271719455718994,0.007597863674163818,-0.02142670750617981,0.0030376017093658447,-0.29087673931288294,2.0667018508141104,2.97893578853082,0.8425912261009216,0.28679224848747253,0.4558400511741638, 225, 154, 0, 184
1731320671375,9i,6.790167628071913,1.8s : 0.4s,0.707922848717601,0.00498566426464612,0.35393662588609714,0.019137237792629158,0.011964194476604462,0.3118859529495239,-0.20352593064308167,0.014205396175384521,-0.007957428693771362,0.010055840015411377,-0.29073791640227226,2.0664448259741173,2.978573401695874,0.8427436351776123,0.28665924072265625,0.4556425213813782, 225, 154, 0, 184
1731320671385,9i,6.790167628071913,1.8s : 0.4s,0.707922848717601,0.0053878613900153385,0.2592627830746432,0.022421691093697925,0.012952759861946106,0.11672366410493851,0.0434657484292984,0.016781866550445557,-0.00040343403816223145,0.0148639976978302,-0.2905616851011829,2.066269593794199,2.9782678543863024,0.8428676724433899,0.28649041056632996,0.4555187523365021, 225, 154, 0, 184
1731320671395,9i,6.790167628071913,1.8s : 0.4s,0.707922848717601,0.005756891361787795,0.1400153269920102,0.013993602058542342,0.011560059152543545,-0.07851427048444748,0.2510620057582855,0.009526491165161133,0.00010794401168823242,0.01024964451789856,-0.29036238287335087,2.0662629012693468,2.9781268565276906,0.8429208397865295,0.286299467086792,0.4555402100086212, 225, 154, 0, 184
1731320671405,9i,6.790167628071913,1.8s : 0.4s,0.707922848717601,0.006087882860700686,0.05342061961422405,0.006506340461017409,0.01758120022714138,-0.2391795814037323,0.4099688231945038,0.0002619624137878418,0.005192220211029053,0.003912121057510376,-0.2902158488354057,2.0663719439443042,2.978123671413418,0.8429080843925476,0.28615906834602356,0.45565205812454224, 225, 154, 0, 184
1731320671415,9i,6.790167628071913,1.8s : 0.4s,0.707922848717601,0.006377114682790895,0.13150446652432854,0.011218130345706434,0.012357410043478012,-0.3504592478275299,0.4878506064414978,-0.0017748475074768066,0.004540592432022095,-0.010103434324264526,-0.29013149400414634,2.0666031501985835,2.9781825540830313,0.8428239226341248,0.28607821464538574,0.45585840940475464, 225, 154, 0, 184
1731320671425,9i,6.790167628071913,1.8s : 0.4s,0.707922848717601,0.006646361899361402,0.21301207028051986,0.020130230737369942,-0.01666864939033985,-0.3957063555717468,0.47468554973602295,-0.006113827228546143,-0.005196958780288696,-0.01846182346343994,-0.2900385642019321,2.0669100274567027,2.9784601202999457,0.8427074551582336,0.2859891653060913,0.4561297595500946, 225, 154, 0, 184
1731320671435,9i,6.790167628071913,1.8s : 0.4s,0.707922848717601,0.006921564278100389,0.25922886065646616,0.025535975036044697,-0.04390013590455055,-0.37468281388282776,0.4064258337020874,-0.010836362838745117,-0.014779627323150635,-0.017782628536224365,-0.2898954715528606,2.0672397976696493,2.978985144536743,0.8425931334495544,0.2858520746231079,0.4564271867275238, 225, 154, 0, 184
1731320671445,9i,6.790167628071913,1.8s : 0.4s,0.707922848717601,0.007183417884962402,0.2640147976611667,0.014354266166719016,-0.056797292083501816,-0.30456072092056274,0.28587228059768677,-0.0066983699798583984,-0.005351901054382324,-0.011512339115142822,-0.2896110961215362,2.067502944082865,2.979600700735454,0.8425441980361938,0.28557953238487244,0.4566875100135803, 225, 154, 0, 184
1731320671455,9i,6.790167628071913,1.8s : 0.4s,0.707922848717601,0.007410197655834353,0.2321232639292021,0.007099332819128645,-0.07648531347513199,-0.19699706137180328,0.13274060189723969,-0.0021266937255859375,0.005792170763015747,-0.003511190414428711,-0.28922357214969535,2.067669318401168,2.9802420397043727,0.8425653576850891,0.285208135843277,0.4568803608417511, 225, 154, 0, 184
1731320671465,9i,6.790167628071913,1.8s : 0.4s,0.707922848717601,0.00760884772875593,0.1712232333170464,0.006787806100528568,-0.055995482951402664,-0.06551972776651382,-0.014217155054211617,-0.004192650318145752,0.005278110504150391,0.0007984638214111328,-0.28877296291294985,2.06776975480339,2.980791351743242,0.8426325917243958,0.2847762107849121,0.45702633261680603, 225, 154, 0, 184
1731320671475,9i,6.790167628071913,1.8s : 0.4s,0.707922848717601,0.007785120500302794,0.09663512449430005,0.011191670878606804,-0.04116879776120186,0.05339840054512024,-0.136440247297287,-0.008978128433227539,0.004248887300491333,-0.005156904458999634,-0.2883980965383116,2.0677872268219626,2.98107062440863,0.8427183032035828,0.2844168543815613,0.4570918679237366, 225, 154, 0, 184
1731320671485,9i,6.790167628071913,1.8s : 0.4s,0.707922848717601,0.007937584721728707,0.03465623331430234,0.015484260172527785,-0.02258339710533619,0.14402204751968384,-0.2182096689939499,-0.010593116283416748,0.00596734881401062,-0.009588479995727539,-0.28808593129609034,2.0677628331700704,2.9811703214499596,0.8428076505661011,0.28411754965782166,0.45711374282836914, 225, 154, 0, 184
1731320671495,9i,6.790167628071913,1.8s : 0.4s,0.707922848717601,0.00809034261225103,0.06361427870212955,0.015216176180371506,-0.02141386829316616,0.20256835222244263,-0.2495185285806656,-0.010331928730010986,-0.0042913854122161865,-0.010313451290130615,-0.28786811176279226,2.0677189653180768,2.9811430998092208,0.8428820967674255,0.2839086949825287,0.45710626244544983, 225, 154, 0, 184
1731320671505,9i,6.790167628071913,1.8s : 0.4s,0.707922848717601,0.008250725809295499,0.10354148791927008,0.015696534243079978,-0.01251012273132801,0.21061216294765472,-0.2218189835548401,-0.00830608606338501,-0.008160978555679321,-0.010525614023208618,-0.28762294439407227,2.06767787273641,2.981083689168814,0.8429617881774902,0.28367361426353455,0.4571046531200409, 225, 154, 0, 184
1731320671515,9i,6.790167628071913,1.8s : 0.4s,0.707922848717601,0.008410449057104485,0.12174184138015486,0.01076630475036715,-0.0010416856966912746,0.1826973557472229,-0.17010009288787842,-0.006156444549560547,-0.004694938659667969,-0.007481247186660767,-0.2873978263576277,2.067596300801706,2.980944383590695,0.8430551886558533,0.28345775604248047,0.45706629753112793, 225, 154, 0, 184
1731320671525,9i,6.790167628071913,1.8s : 0.4s,0.707922848717601,0.008572956895840481,0.12036990584700273,0.011747246393317314,-0.010546240955591202,0.1300429254770279,-0.09996761381626129,-0.0058138370513916016,-0.0062978267669677734,-0.008033335208892822,-0.28720768793126267,2.0675148043633538,2.9808327846241984,0.8431400060653687,0.28327539563179016,0.45702338218688965, 225, 154, 0, 184
1731320671535,9i,6.790167628071913,1.8s : 0.4s,0.707922848717601,0.008745990748496798,0.09906063930779313,0.01304453183198053,-0.011742533184587955,0.0757891908288002,-0.02802511304616928,-0.007963299751281738,-0.008977025747299194,-0.005114555358886719,-0.2870101084023817,2.0674599579110455,2.980847833414047,0.843214213848114,0.2830859124660492,0.45700377225875854, 225, 154, 0, 184
1731320671545,9i,6.790167628071913,1.8s : 0.4s,0.707922848717601,0.00891259725467428,0.06878136060102363,0.009238210445052816,0.0016576942289248109,0.026161985471844673,0.03479805961251259,-0.006824195384979248,-0.0017369985580444336,-0.005979776382446289,-0.286811522473244,2.067422790772819,2.9808181885086853,0.8432804942131042,0.28289544582366943,0.45699915289878845, 225, 154, 0, 184
1731320671555,9i,6.790167628071913,1.8s : 0.4s,0.707922848717601,0.009059343215140531,0.053295384701746135,0.006442183690268943,0.005128658376634121,-0.016057197004556656,0.07610545307397842,-0.0032234787940979004,0.0037717819213867188,-0.004109084606170654,-0.2866361842693195,2.0673839899542537,2.980725903074671,0.8433420062065125,0.28272727131843567,0.45699015259742737, 225, 154, 0, 184
1731320671565,9i,6.790167628071913,1.8s : 0.4s,0.707922848717601,0.009180366944188497,0.04320914031556729,0.00830745647787865,0.011694682762026787,-0.034760311245918274,0.08168397843837738,-0.0027739405632019043,0.00740477442741394,-0.002547234296798706,-0.2864596623385374,2.0672950434747412,2.980548270102489,0.8434262275695801,0.2825579345226288,0.4569387435913086, 225, 154, 0, 184
1731320671575,9i,6.790167628071913,1.8s : 0.4s,0.707922848717601,0.009269430625338283,0.03438358071937328,0.011085172372594492,0.020152349025011063,-0.04105282947421074,0.06843927502632141,-0.0009174942970275879,0.010891646146774292,-0.0018469691276550293,-0.2862924631164679,2.0671074638377216,2.9802644737571553,0.8435537815093994,0.2823975384235382,0.45680317282676697, 225, 154, 0, 184
1731320671585,9i,6.790167628071913,1.8s : 0.4s,0.707922848717601,0.009337061588452654,0.0283850772859949,0.006668045212855825,0.0056327953934669495,-0.027199329808354378,0.035488247871398926,0.0014263391494750977,0.006301313638687134,-0.0016497969627380371,-0.2861307551035545,2.0668480499171262,2.97998633824292,0.843712329864502,0.28224241733551025,0.45660606026649475, 225, 154, 0, 184
1731320671595,9i,6.790167628071913,1.8s : 0.4s,0.707922848717601,0.009402092787608137,0.0242556962652946,0.010114065815525642,0.0035191106144338846,-0.01332514826208353,0.02103877067565918,-0.007583916187286377,0.0021468698978424072,-0.006337940692901611,-0.2859122961002568,2.0665825668158075,2.979807005708983,0.8438877463340759,0.2820328176021576,0.45641136169433594, 225, 154, 0, 184
1731320671605,9i,6.790167628071913,1.8s : 0.4s,0.707922848717601,0.00945902228494322,0.021250778904440572,0.011658632799905456,-0.010770612396299839,-0.006655528210103512,0.011622099205851555,-0.0078507661819458,0.005365818738937378,-0.00674515962600708,-0.2857221280322318,2.0664020978724205,2.9797314991759243,0.8440172672271729,0.2818503677845001,0.4562845528125763, 225, 154, 0, 184
1731320671615,9i,6.790167628071913,1.8s : 0.4s,0.707922848717601,0.009524545883678426,0.018768867583878617,0.012814368096769488,-0.026226399466395378,-0.008059190586209297,0.005662277806550264,-0.007906556129455566,-0.0019419193267822266,-0.009895622730255127,-0.28551413648576524,2.0663594405073136,2.979862410974563,0.8440883159637451,0.2816508114337921,0.45627644658088684, 225, 154, 0, 184
1731320671625,9i,6.790167628071913,1.8s : 0.4s,0.707922848717601,0.009612940102699828,0.017076366591652275,0.01572291659171866,-0.036028966307640076,-0.007618704345077276,-0.0016520945355296135,-0.010184943675994873,-0.008112579584121704,-0.008812665939331055,-0.2853773366989524,2.066356225177207,2.9801421054316544,0.8441236019134521,0.2815195322036743,0.4562920033931732, 225, 154, 0, 184
1731320671635,9i,6.790167628071913,1.8s : 0.4s,0.707922848717601,0.009721429586276949,0.015310340082219641,0.01326235675072825,-0.0271366685628891,-0.012476932257413864,0.0018656747415661812,-0.007341444492340088,-0.009248942136764526,-0.006037414073944092,-0.2853212969344778,2.0663315086050944,2.9804296257449097,0.8441488146781921,0.2814657688140869,0.4562786817550659, 225, 154, 0, 184
1731320671645,9i,6.790167628071913,1.8s : 0.4s,0.707922848717601,0.00984007275613528,0.013262294310278021,0.00869237547256255,-0.01672264374792576,-0.017951060086488724,0.005128046963363886,-0.005453765392303467,-0.006723493337631226,-0.0007800459861755371,-0.2852813932888986,2.06624307633479,2.9806382092217043,0.844199001789093,0.2814274728298187,0.45620933175086975, 225, 154, 0, 184
1731320671655,9i,6.790167628071913,1.8s : 0.4s,0.707922848717601,0.009961713670823791,0.01050881258768806,0.007847057229919423,0.006906918250024319,-0.018762346357107162,0.01219521090388298,-0.006579875946044922,-0.0035859644412994385,0.0023286044597625732,-0.28530326561604086,2.0660706735610157,2.9806371199030552,0.8442721366882324,0.28144848346710205,0.4560607969760895, 225, 154, 0, 184
1731320671665,9i,6.790167628071913,1.8s : 0.4s,0.707922848717601,0.01009158849458528,0.00808313434147158,0.009718705182145265,0.00544084794819355,-0.02006702870130539,0.011249256320297718,-0.008030176162719727,-0.005459785461425781,-0.00040030479431152344,-0.2853319817498012,2.065819362739322,2.9804910748817606,0.8443796634674072,0.2814760208129883,0.45584481954574585, 225, 154, 0, 184
1731320671675,9i,6.790167628071913,1.8s : 0.4s,0.707922848717601,0.010232910895320767,0.0062379262997688855,0.012969390184069637,0.0031468672677874565,-0.017385847866535187,0.008671882562339306,-0.011680126190185547,-0.005606263875961304,-0.0005912184715270996,-0.28530973912322793,2.0655901078491805,2.980391645647071,0.8444896936416626,0.2814546823501587,0.45565423369407654, 225, 154, 0, 184
1731320671685,9i,6.790167628071913,1.8s : 0.4s,0.707922848717601,0.010389745772683008,0.005253738214754507,0.014529166560859726,-0.0048436811193823814,-0.014543456956744194,0.0074545517563819885,-0.009853184223175049,-0.008356988430023193,-0.006646215915679932,-0.28534586866765377,2.065393911058716,2.9803490952276737,0.8445701003074646,0.2814893424510956,0.45548367500305176, 225, 154, 0, 184
1731320671695,9i,6.790167628071913,1.8s : 0.4s,0.707922848717601,0.010569625790830975,0.005002753484966926,0.020155650801894187,-0.012221169658005238,-0.01529579795897007,0.0006315328646451235,-0.012709856033325195,-0.010640114545822144,-0.01146724820137024,-0.28530803996175846,2.065206315534129,2.9803922977170703,0.8446647524833679,0.28145304322242737,0.4553302228450775, 225, 154, 0, 184
1731320671705,9i,6.790167628071913,1.8s : 0.4s,0.707922848717601,0.01077871156996852,0.005852089334668405,0.021886852440288047,-0.02194676734507084,-0.01841755583882332,-0.0031411009840667248,-0.01323997974395752,-0.01487383246421814,-0.009083300828933716,-0.2852199928426125,2.0650617770637076,2.9805546299578833,0.8447523713111877,0.28136855363845825,0.4552198648452759, 225, 154, 0, 184
1731320671715,9i,6.790167628071913,1.8s : 0.4s,0.707922848717601,0.01100961055113256,0.0066483269814186655,0.01864525974256028,-0.01888253539800644,-0.018145116046071053,0.004326136317104101,-0.009856224060058594,-0.015810787677764893,-0.0007207989692687988,-0.28505154562597573,2.064944018416902,2.98076778209936,0.8448477983474731,0.2812069058418274,0.45514294505119324, 225, 154, 0, 184
1731320671725,9i,6.790167628071913,1.8s : 0.4s,0.707922848717601,0.011229660410035308,0.006879972330172842,0.006824556924536618,-0.009216325357556343,-0.016666794195771217,0.004116012714803219,-0.005382895469665527,-0.003224402666091919,0.002683699131011963,-0.2848788641140433,2.064842395896928,2.980878869290914,0.8449368476867676,0.2810412049293518,0.4550801217556, 225, 154, 0, 184
1731320671735,9i,6.790167628071913,1.8s : 0.4s,0.707922848717601,0.011439816301788726,0.007152073901698285,0.006842395776887028,-0.010459288954734802,-0.012796333059668541,9.567150846123695e-05,-0.006463468074798584,-0.00220412015914917,0.00042873620986938477,-0.28480152699236966,2.0647901373164554,2.980968161249733,0.8449798226356506,0.28096696734428406,0.45504629611968994, 225, 154, 0, 184
1731320671745,9i,6.790167628071913,1.8s : 0.4s,0.707922848717601,0.011647278554223253,0.00798085130289449,0.010259971434049643,-0.02067677304148674,-0.010838378220796585,-0.006559834349900484,-0.009669721126556396,-0.0033666789531707764,-0.0006549656391143799,-0.28472495965848876,2.0647604636292107,2.981150526480897,0.8450120687484741,0.2808935046195984,0.45503130555152893, 225, 154, 0, 184
1731320671755,9i,6.790167628071913,1.8s : 0.4s,0.707922848717601,0.011845706759140413,0.008507878298565062,0.008372368319066273,-0.015111565589904785,-0.013915127143263817,-0.005800300743430853,-0.008336961269378662,-0.0006435811519622803,-0.00042122602462768555,-0.28465404294875535,2.064743477878389,2.9813457242890893,0.8450373411178589,0.2808254361152649,0.45502638816833496, 225, 154, 0, 184
1731320671765,9i,6.790167628071913,1.8s : 0.4s,0.707922848717601,0.012032765011443413,0.008918165689556376,0.007094081791116037,-0.015336869284510612,-0.011036517098546028,-0.0022116913460195065,-0.007081925868988037,0.0003387928009033203,-0.00023987889289855957,-0.2846002882211182,2.0646468567533365,2.981494240003437,0.8450945615768433,0.2807738482952118,0.4549519121646881, 225, 154, 0, 184
1731320671775,9i,6.790167628071913,1.8s : 0.4s,0.707922848717601,0.01220844911897165,0.0085737749716583,0.007677372173384809,-0.0037983236834406853,-0.00839705765247345,-0.008740097284317017,-0.0074312686920166016,0.0014539659023284912,-0.0012665987014770508,-0.2845354110626437,2.0645514955742996,2.981599157180151,0.8451540470123291,0.2807115614414215,0.4548799991607666, 225, 154, 0, 184
1731320671785,9i,6.790167628071913,1.8s : 0.4s,0.707922848717601,0.012383402154769158,0.007782256320757304,0.008078789495316945,0.0056021022610366344,-0.008960315957665443,-0.005168265663087368,-0.006966590881347656,-0.003986269235610962,-0.0009182095527648926,-0.2845120659448997,2.064478729708474,2.9816258906415585,0.8451930284500122,0.28068917989730835,0.4548216462135315, 225, 154, 0, 184
1731320671795,9i,6.790167628071913,1.8s : 0.4s,0.707922848717601,0.012556441718928314,0.006773944492861264,0.010193363742467754,0.015994222834706306,-0.013881305232644081,0.006646282039582729,-0.009712636470794678,-0.00212937593460083,0.002243906259536743,-0.2844055540243857,2.0644035389602533,2.9815341727767306,0.8452532291412354,0.28058692812919617,0.45477208495140076, 225, 154, 0, 184
1731320671805,9i,6.790167628071913,1.8s : 0.4s,0.707922848717601,0.012719021068845874,0.006533164995794165,0.010456280407584253,0.012148885056376457,-0.01719481125473976,0.013728692196309566,-0.008431494235992432,0.0010777711868286133,0.006089508533477783,-0.2843709747918579,2.064253284647024,2.981353635405614,0.8453304171562195,0.28055375814437866,0.45464983582496643, 225, 154, 0, 184
1731320671815,9i,6.790167628071913,1.8s : 0.4s,0.707922848717601,0.012880232946670723,0.006625414765002866,0.009648835201332641,0.02090955153107643,-0.01618591696023941,0.017785320058465004,-0.008240580558776855,-0.002955526113510132,0.004056811332702637,-0.2843125198253414,2.064067390186497,2.9811140451076454,0.8454293608665466,0.28049764037132263,0.4545004367828369, 225, 154, 0, 184
1731320671825,9i,6.790167628071913,1.8s : 0.4s,0.707922848717601,0.013050000694591864,0.0068302129328179995,0.012974223800557502,0.010808181948959827,-0.008783127181231976,0.017547233030200005,-0.011672914028167725,-0.005409538745880127,0.0016764402389526367,-0.2842302849905479,2.0639462168263827,2.980904119604876,0.8455047011375427,0.2804186940193176,0.4544088840484619, 225, 154, 0, 184
1731320671835,9i,6.790167628071913,1.8s : 0.4s,0.707922848717601,0.01323946885815047,0.006986788422310117,0.01844189751332919,0.011167176067829132,-0.005144717171788216,0.016930444166064262,-0.015298902988433838,-0.007669121026992798,-0.00687253475189209,-0.2841521970868015,2.06386664261984,2.9807260109710274,0.8455603122711182,0.2803437411785126,0.45435208082199097, 225, 154, 0, 184
1731320671845,9i,6.790167628071913,1.8s : 0.4s,0.707922848717601,0.013454400437815546,0.006873736412837627,0.023516333441513857,0.01534274686127901,-0.0017047119326889515,0.009498627856373787,-0.02016317844390869,-0.007841050624847412,-0.009218573570251465,-0.28412457645384076,2.0638216238748353,2.9805375454949683,0.8455873727798462,0.2803172469139099,0.454317569732666, 225, 154, 0, 184
1731320671854,9i,6.790167628071913,1.8s : 0.4s,0.707922848717601,0.013694560535212712,0.007148990123823285,0.024166462569726772,0.0173492394387722,0.0019471923587843776,0.017728228121995926,-0.021073639392852783,-0.008402347564697266,-0.00832587480545044,-0.28410531835294783,2.063809579473852,2.9803350447539767,0.8455976843833923,0.28029873967170715,0.45430997014045715, 225, 154, 0, 184
1731320671864,9i,6.790167628071913,1.8s : 0.4s,0.707922848717601,0.013942067381168119,0.007335675230013181,0.01712395081804175,0.019897617399692535,0.006329690106213093,0.013121225871145725,-0.016135334968566895,-0.004021316766738892,-0.0040877461433410645,-0.2840557688170803,2.0638242732194705,2.980073148937806,0.8456032872200012,0.2802511751651764,0.4543289840221405, 225, 154, 0, 184
1731320671874,9i,6.790167628071913,1.8s : 0.4s,0.707922848717601,0.014202354666444945,0.007445286561118542,0.016895772942639265,0.019178496673703194,0.013810420408844948,0.011401455849409103,-0.01359713077545166,-0.00988057255744934,-0.0017203092575073242,-0.2840396682488335,2.063945296439167,2.9798554619197635,0.8455519080162048,0.28023573756217957,0.45443326234817505, 225, 154, 0, 184
1731320671884,9i,6.790167628071913,1.8s : 0.4s,0.707922848717601,0.014476643030102558,0.009679979746105008,0.01958536896924239,0.031411197036504745,0.014194182120263577,0.0163823664188385,-0.01769733428955078,-0.007782489061355591,-0.003134310245513916,-0.28404772541220114,2.0640850334215965,2.979573804208828,0.8454867601394653,0.280243456363678,0.454550564289093, 225, 154, 0, 184
1731320671894,9i,6.790167628071913,1.8s : 0.4s,0.707922848717601,0.014756123938236899,0.018407481912066072,0.018736098826638927,0.05143064260482788,0.017013315111398697,0.025137608870863914,-0.017764925956726074,-0.002749800682067871,-0.005280852317810059,-0.2840505447549473,2.064169801464217,2.979115317944415,0.8454475998878479,0.28024616837501526,0.4546218812465668, 225, 154, 0, 184
1731320671904,9i,6.790167628071913,1.8s : 0.4s,0.707922848717601,0.01503928026116549,0.031032710449824637,0.018602007370706226,0.08292225748300552,0.01722077652812004,0.03249698504805565,-0.018083810806274414,-0.0019455552101135254,-0.003901958465576172,-0.2840869464413803,2.0641869340651633,2.978373268315178,0.8454306125640869,0.280281126499176,0.45463141798973083, 225, 154, 0, 184
1731320671914,9i,6.790167628071913,1.8s : 0.4s,0.707922848717601,0.015319018996360463,0.04449316086063068,0.02129591490049062,0.10226698964834213,0.02615550346672535,0.041115544736385345,-0.020106732845306396,0.004461944103240967,-0.005415380001068115,-0.2841835999113277,2.0641152572105863,2.977323177409441,0.8454394936561584,0.2803739011287689,0.4545580744743347, 225, 154, 0, 184
1731320671924,9i,6.790167628071913,1.8s : 0.4s,0.707922848717601,0.015585719423108362,0.060425102300743536,0.02084705900641118,0.13481801748275757,0.02562047354876995,0.048753224313259125,-0.018848955631256104,0.008866280317306519,-0.0008401274681091309,-0.284332378043106,2.064015117996898,2.97602192637767,0.8454481959342957,0.28051668405532837,0.45445361733436584, 225, 154, 0, 184
1731320671934,9i,6.790167628071913,1.8s : 0.4s,0.707922848717601,0.015829378612103803,0.07607560600300986,0.02064371569350087,0.15508900582790375,0.02185068093240261,0.06068088859319687,-0.01575160026550293,0.013328373432159424,0.0006360411643981934,-0.28451633392757564,2.063813974756074,2.9744379732835315,0.8454942107200623,0.28069326281547546,0.45425915718078613, 225, 154, 0, 184
1731320671944,9i,6.790167628071913,1.8s : 0.4s,0.707922848717601,0.016045053805839343,0.09314584353767934,0.023884683516117743,0.18589112162590027,0.01847405917942524,0.06712307780981064,-0.015063107013702393,0.01563391089439392,0.009957998991012573,-0.2847691309187611,2.063512230081051,2.972576069643817,0.8455684781074524,0.2809358835220337,0.4539703130722046, 225, 154, 0, 184
1731320671954,9i,6.790167628071913,1.8s : 0.4s,0.707922848717601,0.016230534579696483,0.1111573383034834,0.02738092199137987,0.21097144484519958,0.01948268711566925,0.0854545459151268,-0.015389680862426758,0.019700855016708374,0.011169105768203735,-0.2849673286428437,2.0631216751821198,2.970398164058304,0.8456965088844299,0.28112611174583435,0.45361366868019104, 225, 154, 0, 184
1731320671964,9i,6.790167628071913,1.8s : 0.4s,0.707922848717601,0.01637914030169876,0.1296151459523833,0.03726578781527733,0.2392430305480957,0.018664831295609474,0.09325840324163437,-0.021356165409088135,0.02829188108444214,0.011498808860778809,-0.2852214552637634,2.0626454575992077,2.9679211832834373,0.8458495736122131,0.2813699543476105,0.45317721366882324, 225, 154, 0, 184
1731320671974,9i,6.790167628071913,1.8s : 0.4s,0.707922848717601,0.01649121903356285,0.14800609104547158,0.042673257928634196,0.2666819095611572,0.027278203517198563,0.09546367079019547,-0.025282084941864014,0.030266940593719482,0.016301393508911133,-0.285564382395378,2.0621447648421825,2.96517948586334,0.845991313457489,0.2816990315914154,0.4527081251144409, 225, 154, 0, 184
1731320671984,9i,6.790167628071913,1.8s : 0.4s,0.707922848717601,0.016491038217085485,0.16938121220579275,0.05746735120494722,0.3118017017841339,0.04122810810804367,0.09094268828630447,-0.025735199451446533,0.04530167579650879,0.02424776554107666,-0.2861001058906611,2.0616920158176177,2.962113396847654,0.8460631370544434,0.2822130024433136,0.45225393772125244, 225, 154, 0, 184
1731320671994,9i,6.790167628071913,1.8s : 0.4s,0.707922848717601,0.01631124333917366,0.19070330011869435,0.07326331409898866,0.34749701619148254,0.06241542100906372,0.07282659411430359,-0.018837273120880127,0.06323131918907166,0.03185075521469116,-0.28699030028691763,2.0613042787955873,2.9586829955041396,0.8460163474082947,0.28306689858436584,0.4518072307109833, 225, 154, 0, 184
1731320672004,9i,6.790167628071913,1.8s : 0.4s,0.707922848717601,0.015952791650966247,0.20540024943274918,0.09254521900893412,0.34765467047691345,0.08927392959594727,0.04374035447835922,-0.014157354831695557,0.08029890060424805,0.04377526044845581,-0.2882069645132733,2.0611269718420218,2.955223098923408,0.8457919955253601,0.28423359990119934,0.4514947235584259, 225, 154, 0, 184
1731320672014,9i,6.790167628071913,1.8s : 0.4s,0.707922848717601,0.015457718112068758,0.215706352766146,0.1139971849647041,0.3464711308479309,0.12479215860366821,-0.010752448812127113,-0.012425005435943604,0.10343989729881287,0.046272724866867065,-0.28974197032325016,2.061304318693455,2.9518981391727417,0.8453260064125061,0.28570497035980225,0.4514386057853699, 225, 154, 0, 184
1731320672024,9i,6.790167628071913,1.8s : 0.4s,0.707922848717601,0.014965821209311387,0.21612641788286707,0.12792451844815605,0.304286926984787,0.15610958635807037,-0.04413836821913719,-0.010946989059448242,0.11018359661102295,0.06406575441360474,-0.291558388238173,2.06197243336985,2.949107622762237,0.8445652723312378,0.28744518756866455,0.4517578184604645, 225, 154, 0, 184
1731320672034,9i,6.790167628071913,1.8s : 0.4s,0.707922848717601,0.014549719441493508,0.23054380607264902,0.1775253502728953,0.3507592976093292,0.20273320376873016,-0.12081360816955566,-0.0023744702339172363,0.15047717094421387,0.09416067600250244,-0.29377865056709285,2.063012282649883,2.946517415540326,0.8435304760932922,0.28957104682922363,0.4523330330848694, 225, 154, 0, 184
1731320672044,9i,6.790167628071913,1.8s : 0.4s,0.707922848717601,0.01446641007505066,0.2586706546801224,0.22353516076985677,0.3563322126865387,0.29944244027137756,-0.26808106899261475,0.009284257888793945,0.19654223322868347,0.10607978701591492,-0.29719323650169366,2.06485411295778,2.9441881873036073,0.841820478439331,0.29283764958381653,0.45341435074806213, 225, 154, 0, 184
1731320672054,9i,6.790167628071913,1.8s : 0.4s,0.707922848717601,0.015439095971413274,0.3072699920406128,0.32272566092223676,0.3755159080028534,0.3992059528827667,-0.3886151611804962,0.0008106827735900879,0.2828696668148041,0.1553574800491333,-0.3017836547649055,2.067862982566065,2.942520036176315,0.8392619490623474,0.2972237169742584,0.45529940724372864, 225, 154, 0, 184
1731320672064,9i,6.790167628071913,1.8s : 0.4s,0.707922848717601,0.01841334483108369,0.38962676355825226,0.45434078348698154,0.47941914200782776,0.515864372253418,-0.5454577803611755,0.0170477032661438,0.40244612097740173,0.21017146110534668,-0.3078692251238702,2.0719074789723235,2.9409448943165883,0.8358117938041687,0.30302873253822327,0.45781266689300537, 225, 154, 0, 184
1731320672074,9i,6.790167628071913,1.8s : 0.4s,0.707922848717601,0.02385878183877284,0.5064800656381776,0.5135279202584563,0.6249692440032959,0.6725804805755615,-0.7270793914794922,0.022599339485168457,0.46302902698516846,0.2209169864654541,-0.31612035573127734,2.077269925181333,2.9391218376150445,0.8311299681663513,0.31088149547576904,0.46105942130088806, 225, 154, 0, 184
1731320672084,9i,6.790167628071913,1.8s : 0.4s,0.707922848717601,0.03152157078046876,0.6408574799952194,0.5472513414599578,0.7717280983924866,0.8160990476608276,-0.8772137761116028,-0.00018399953842163086,0.4998517632484436,0.22278288006782532,-0.3265218695669677,2.0839911767940476,2.9368112533311845,0.8251503705978394,0.3207506239414215,0.4650222957134247, 225, 154, 0, 184
1731320672094,9i,6.790167628071913,1.8s : 0.4s,0.707922848717601,0.040650535357916844,0.7929931925536938,0.545242144739191,0.9536356925964355,0.9733656048774719,-1.034803032875061,0.013735651969909668,0.4768771529197693,0.263985812664032,-0.33902855848266056,2.091942766478561,2.933953959479674,0.8178837299346924,0.3325710892677307,0.46953487396240234, 225, 154, 0, 184
1731320672104,9i,6.790167628071913,1.8s : 0.4s,0.707922848717601,0.050359319529591565,0.9826184741746848,0.49618240426326915,1.3178868293762207,1.1285812854766846,-1.228845477104187,0.04020965099334717,0.40753382444381714,0.2801719903945923,-0.35443345221236183,2.100971968695616,2.9296608110965034,0.8090946078300476,0.34705910086631775,0.47425320744514465, 225, 154, 0, 184
1731320672114,9i,6.790167628071913,1.8s : 0.4s,0.707922848717601,0.06047608616491936,1.2415819774029107,0.49764869074095114,1.9837830066680908,1.3018815517425537,-1.4320794343948364,0.013549566268920898,0.4151621162891388,0.27406394481658936,-0.3742605266731855,2.110278866746213,2.9219093308529183,0.7985842227935791,0.3655843436717987,0.47813349962234497, 225, 154, 0, 184
1731320672124,9i,6.790167628071913,1.8s : 0.4s,0.707922848717601,0.07147269513023649,1.493541734644464,0.5743434261446015,2.213531494140625,1.5023853778839111,-1.5827040672302246,-0.08078205585479736,0.4901708662509918,0.2882310748100281,-0.3981989872475971,2.1201504785105203,2.91080990505903,0.7861349582672119,0.38775888085365295,0.48128512501716614, 225, 154, 0, 184
1731320672134,9i,6.790167628071913,1.8s : 0.4s,0.707922848717601,0.08427051213512611,1.7374864929986245,0.7603431491622654,2.481386661529541,1.666243553161621,-1.7060778141021729,-0.16658610105514526,0.6660201549530029,0.3267842233181,-0.424561976566698,2.13116550023673,2.8986217736422053,0.771856427192688,0.4119216799736023,0.4843120872974396, 225, 154, 0, 184
1731320672144,9i,6.790167628071913,1.8s : 0.4s,0.707922848717601,0.09953347604651878,1.9840282075722648,0.9489045882702698,2.807162046432495,1.8208554983139038,-1.8386648893356323,-0.20591974258422852,0.8543017506599426,0.3580300211906433,-0.4538771597564597,2.142600746617099,2.8844055191610014,0.7557855844497681,0.43845343589782715,0.4863610863685608, 225, 154, 0, 184
1731320672154,9i,6.790167628071913,1.8s : 0.4s,0.707922848717601,0.11714270195364655,2.2262412382027335,1.0540342233322872,3.0770599842071533,1.921484112739563,-2.039912700653076,-0.24698251485824585,0.9744131565093994,0.3170280456542969,-0.48614614101387865,2.15418594741108,2.868601884855203,0.7379035353660583,0.4672220051288605,0.4870339632034302, 225, 154, 0, 184
1731320672164,9i,6.790167628071913,1.8s : 0.4s,0.707922848717601,0.13696376484995396,2.4675973635320685,1.137709719967973,3.328181028366089,2.0164694786071777,-2.2958102226257324,-0.283233642578125,1.050475835800171,0.33265992999076843,-0.5218908533009389,2.1657821399999655,2.851926279421302,0.7179107069969177,0.498520165681839,0.48588261008262634, 225, 154, 0, 184
1731320672174,9i,6.790167628071913,1.8s : 0.4s,0.707922848717601,0.15881182481894113,2.7097698107207626,1.1978164840606877,3.5523617267608643,2.1309621334075928,-2.584167957305908,-0.3387165069580078,1.0692267417907715,0.42046359181404114,-0.5614292948769013,2.1777243716522996,2.8349153359680033,0.6953142881393433,0.5323966145515442,0.48279571533203125, 225, 154, 0, 184
1731320672184,9i,6.790167628071913,1.8s : 0.4s,0.707922848717601,0.18250712135471783,2.95318640012441,1.262884815469372,3.810786724090576,2.2370879650115967,-2.834254264831543,-0.39833199977874756,1.103628158569336,0.46713441610336304,-0.6047261263545828,2.1900016939399105,2.8175825125818292,0.6699232459068298,0.5685368180274963,0.477461040019989, 225, 154, 0, 184
1731320672194,9i,6.790167628071913,1.8s : 0.4s,0.707922848717601,0.20782251750944086,3.189264865842973,1.312237585570477,4.033760070800781,2.297877788543701,-3.0907275676727295,-0.4284987449645996,1.1435701847076416,0.4802119731903076,-0.6516204443277582,2.2021456132835535,2.799691677694848,0.6418318748474121,0.6064755916595459,0.46929678320884705, 225, 154, 0, 184
1731320672204,9i,6.790167628071913,1.8s : 0.4s,0.707922848717601,0.23445231451226442,3.4221136367061313,1.339199881710607,4.204325199127197,2.375896692276001,-3.4157302379608154,-0.4543851613998413,1.1612592935562134,0.488331139087677,-0.7021617776648233,2.2143661608236087,2.7820661414685874,0.6107266545295715,0.6458696126937866,0.4581105709075928, 225, 154, 0, 184
1731320672214,9i,6.790167628071913,1.8s : 0.4s,0.707922848717601,0.26188129283632033,3.6599056013436404,1.3274272699148821,4.36947774887085,2.4775640964508057,-3.784855604171753,-0.4743483066558838,1.1702854633331299,0.40925392508506775,-0.7566373808190587,2.227597392814919,2.765569004674886,0.5758649110794067,0.6864802241325378,0.4439871609210968, 225, 154, 0, 184
1731320672224,9i,6.790167628071913,1.8s : 0.4s,0.707922848717601,0.2898818392588678,3.8981872404817928,1.3272006741766829,4.448691368103027,2.563795328140259,-4.231154918670654,-0.46102374792099,1.1843392848968506,0.3824384808540344,-0.8153766342433862,2.2426697042483688,2.751281868919453,0.5365853309631348,0.7279838919639587,0.4267505705356598, 225, 154, 0, 184
1731320672234,9i,6.790167628071913,1.8s : 0.4s,0.707922848717601,0.31861228699615374,4.133512318904402,1.3666630578091914,4.5971174240112305,2.571777820587158,-4.601930618286133,-0.38984113931655884,1.2415963411331177,0.4174090623855591,-0.8780051229352699,2.2602119653097934,2.7402926354064463,0.49282270669937134,0.7694662809371948,0.4062604606151581, 225, 154, 0, 184
1731320672244,9i,6.790167628071913,1.8s : 0.4s,0.707922848717601,0.34822977002902356,4.350624047981995,1.4282217596316051,4.70680570602417,2.522085666656494,-4.911289215087891,-0.2591589391231537,1.3402869701385498,0.41986292600631714,-0.9442772037806911,2.279209958141752,2.7320933164156367,0.4452551603317261,0.8100733757019043,0.3814830780029297, 225, 154, 0, 184
1731320672254,9i,6.790167628071913,1.8s : 0.4s,0.707922848717601,0.3786724788534606,4.536891136710083,1.471657560641875,4.756213188171387,2.411522388458252,-5.1690449714660645,-0.1267562210559845,1.3850481510162354,0.4809890389442444,-1.013264892552947,2.300387976425238,2.7278136863473965,0.39441055059432983,0.8485637903213501,0.3526749908924103, 225, 154, 0, 184
1731320672264,9i,6.790167628071913,1.8s : 0.4s,0.707922848717601,0.409805466302669,4.714594107349488,1.5000832160805004,4.82236385345459,2.376370906829834,-5.457437515258789,-0.04339057207107544,1.3965322971343994,0.5459527969360352,-1.0846782489413145,2.325307927926701,2.7288376518297586,0.34040284156799316,0.8841531276702881,0.3199988305568695, 225, 154, 0, 184
1731320672274,9i,6.790167628071913,1.8s : 0.4s,0.707922848717601,0.4412906741992184,4.885546554338622,1.4841673132165765,4.784562110900879,2.2760159969329834,-5.860627174377441,-0.0052419304847717285,1.3731451034545898,0.5632030367851257,-1.158586420406646,2.3589523368572314,2.740384195239209,0.28250929713249207,0.9162377119064331,0.28407183289527893, 225, 154, 0, 184
1731320672284,9i,6.790167628071913,1.8s : 0.4s,0.707922848717601,0.4732098773783312,5.071880778843594,1.5142561631355116,4.945829391479492,2.2702736854553223,-6.165759563446045,0.02289608120918274,1.403799057006836,0.5672703981399536,-1.235043352779143,2.4080529693581187,2.7688172679002334,0.22058841586112976,0.9441624879837036,0.24474136531352997, 225, 154, 0, 184
1731320672294,9i,6.790167628071913,1.8s : 0.4s,0.707922848717601,0.505664681614042,5.275280643827112,1.5612117347958432,5.135112285614014,2.2431492805480957,-6.500481128692627,0.09109614789485931,1.4462382793426514,0.5809289216995239,-1.3143207251282683,2.4836435596351265,2.824203891484553,0.15511959791183472,0.9672900438308716,0.20071792602539062, 225, 154, 0, 184
1731320672304,9i,6.790167628071913,1.8s : 0.4s,0.707922848717601,0.538936142834951,5.465782870406891,1.6561120289262123,5.207224369049072,2.2335522174835205,-6.757180213928223,0.20210975408554077,1.4763593673706055,0.722649097442627,-1.3941626547761419,2.626832201284305,2.947784572336779,0.08651020377874374,0.984440803527832,0.1529461145401001, 225, 154, 0, 184
1731320672314,9i,6.790167628071913,1.8s : 0.4s,0.707922848717601,0.5732751176662608,5.629058842812172,1.772727495772806,5.258245468139648,2.1754908561706543,-6.927069664001465,0.32935500144958496,1.5104682445526123,0.8675100803375244,-1.466951051322297,2.9865002327670878,-2.9947103039751153,0.01601237803697586,0.9946129322052002,0.10241497308015823, 225, 154, 0, 184
1731320672324,9i,6.790167628071913,1.8s : 0.4s,0.707922848717601,0.6086673858561439,5.76907403307264,1.851280011681906,5.266664505004883,2.103339195251465,-7.106838703155518,0.4384968876838684,1.5284053087234497,0.9481220245361328,-1.4963410913836874,-2.30185538383759,-2.017974407961829,-0.055379245430231094,0.9972295165061951,0.049665577709674835, 225, 154, 0, 184
1731320672334,9i,6.790167628071913,1.8s : 0.4s,0.707922848717601,0.6449805113500349,5.903433639320225,1.8907832737630559,5.405313968658447,2.0288896560668945,-7.253172874450684,0.5142130851745605,1.5360169410705566,0.9753451943397522,-1.4431241136070019,-1.5297739137181081,-1.2633403464551618,-0.1272197663784027,0.9918609857559204,-0.005221791099756956, 225, 154, 0, 184
1731320672344,9i,6.790167628071913,1.8s : 0.4s,0.707922848717601,0.6819108714328174,6.029241389637794,1.891920613888112,5.612040996551514,1.8481643199920654,-7.349437713623047,0.5861101150512695,1.5342925786972046,0.9390339851379395,-1.3612627473766254,-1.2654876960305774,-1.0150972419732847,-0.19838428497314453,0.9781280159950256,-0.06252328306436539, 225, 154, 0, 184
1731320672354,9i,6.790167628071913,1.8s : 0.4s,0.707922848717601,0.719434070870188,6.160248661555587,1.931381714576098,5.8032121658325195,1.6582896709442139,-7.525247097015381,0.6598537564277649,1.5226082801818848,0.9881762862205505,-1.271437673567882,-1.1451050016925712,-0.9088791380153459,-0.2685879170894623,0.955525815486908,-0.12178214639425278, 225, 154, 0, 184
1731320672364,9i,6.790167628071913,1.8s : 0.4s,0.707922848717601,0.7571717478758674,6.276838844864487,1.9231254023583157,5.887901782989502,1.459153175354004,-7.661450386047363,0.7338314056396484,1.4617111682891846,1.0115845203399658,-1.177536228330475,-1.0775832832901715,-0.8536222415906198,-0.3375301659107208,0.9236646890640259,-0.18143004179000854, 225, 154, 0, 184
1731320672374,9i,6.790167628071913,1.8s : 0.4s,0.707922848717601,0.7949101831971146,6.348637045986585,1.938263168556093,5.7554097175598145,1.166337013244629,-7.756693363189697,0.8459115028381348,1.414749264717102,1.0196971893310547,-1.0818812522782166,-1.0369718664447014,-0.8232120918344814,-0.40432220697402954,0.8828429579734802,-0.23898109793663025, 225, 154, 0, 184
1731320672384,9i,6.790167628071913,1.8s : 0.4s,0.707922848717601,0.8328510577014809,6.389747809638068,2.0068077472888777,5.5953545570373535,0.8541024327278137,-7.865981101989746,0.971984326839447,1.4153252840042114,1.0389312505722046,-0.9858539379986929,-1.0136314515255078,-0.8076518214126267,-0.4686426818370819,0.8337438702583313,-0.2919676899909973, 225, 154, 0, 184
1731320672394,9i,6.790167628071913,1.8s : 0.4s,0.707922848717601,0.8712656723873874,6.412140224578311,2.0663555118685695,5.505430698394775,0.6299505829811096,-7.9101176261901855,1.067462682723999,1.454080581665039,1.0079673528671265,-0.8896412428321004,-0.9999060705111446,-0.799625634709619,-0.5298346281051636,0.7768458724021912,-0.3402731716632843, 225, 154, 0, 184
1731320672404,9i,6.790167628071913,1.8s : 0.4s,0.707922848717601,0.9106692788542677,6.430150183204711,2.1461164634986063,5.54741907119751,0.39132362604141235,-7.907908916473389,1.1265186071395874,1.5480167865753174,0.9697503447532654,-0.7934411346420659,-0.9911166723960113,-0.7945438698946474,-0.5868152976036072,0.7127711176872253,-0.3841942548751831, 225, 154, 0, 184
1731320672413,9i,6.790167628071913,1.8s : 0.4s,0.707922848717601,0.951527790542,6.44828202265808,2.2346372047083305,5.640854358673096,0.1327660232782364,-7.88424015045166,1.1618993282318115,1.6396491527557373,0.9773147106170654,-0.6968420632715077,-0.9855342519127464,-0.789996894666337,-0.6392401456832886,0.6417991518974304,-0.42363423109054565, 225, 154, 0, 184
1731320672423,9i,6.790167628071913,1.8s : 0.4s,0.707922848717601,0.993567755650904,6.448284890024048,2.245770701543143,5.6685686111450195,-0.09731246531009674,-7.791311264038086,1.1856353282928467,1.635096549987793,0.9819440841674805,-0.6003865768873268,-0.9825196101652147,-0.7850806213682302,-0.6864136457443237,0.5649614930152893,-0.4578809142112732, 225, 154, 0, 184
1731320672433,9i,6.790167628071913,1.8s : 0.4s,0.707922848717601,1.0360876716743574,6.419089468350265,2.2075418855210778,5.561681270599365,-0.32767048478126526,-7.685235023498535,1.2270421981811523,1.5411303043365479,0.9962559938430786,-0.5050119495439217,-0.9823585112856752,-0.780434047475762,-0.7279730439186096,0.4838179051876068,-0.48577311635017395, 225, 154, 0, 184
1731320672443,9i,6.790167628071913,1.8s : 0.4s,0.707922848717601,1.078837956634208,6.3596286947798735,2.1526819805067006,5.403999328613281,-0.5540404915809631,-7.544261455535889,1.284769892692566,1.428254246711731,0.9713371396064758,-0.4114091094541983,-0.9850318950582608,-0.7763581927282859,-0.7637585401535034,0.39990124106407166,-0.5067068934440613, 225, 154, 0, 184
1731320672453,9i,6.790167628071913,1.8s : 0.4s,0.707922848717601,1.1211881894689266,6.270855362075094,2.116644464368486,5.199221134185791,-0.8260694146156311,-7.379930019378662,1.3618221282958984,1.3499515056610107,0.8962450623512268,-0.32001842400970487,-0.9906531396439949,-0.7727203606303842,-0.793920636177063,0.31458404660224915,-0.5203142166137695, 225, 154, 0, 184
1731320672463,9i,6.790167628071913,1.8s : 0.4s,0.707922848717601,1.163490893392967,6.142328053102188,2.122937119821259,4.957035541534424,-1.1466118097305298,-7.109694004058838,1.4598166942596436,1.2840548753738403,0.8526431322097778,-0.23168408678427943,-0.9996336717686084,-0.7692423246105181,-0.8187951445579529,0.2296169400215149,-0.5261660218238831, 225, 154, 0, 184
1731320672473,9i,6.790167628071913,1.8s : 0.4s,0.707922848717601,1.205641159385958,5.976929551706812,2.125649893924272,4.639710426330566,-1.475987195968628,-6.817611217498779,1.547046184539795,1.22476327419281,0.7905634045600891,-0.1473514020404376,-1.0121107114227517,-0.7656698873766367,-0.8387636542320251,0.14681875705718994,-0.5243279337882996, 225, 154, 0, 184
1731320672483,9i,6.790167628071913,1.8s : 0.4s,0.707922848717601,1.2461357914073812,5.788185909542765,2.0788490213205018,4.220207691192627,-1.7588578462600708,-6.59446382522583,1.5709412097930908,1.150198221206665,0.7285609245300293,-0.06715257803779295,-1.0280394654828529,-0.76274383927918,-0.8543580174446106,0.06710211932659149,-0.5153344869613647, 225, 154, 0, 184
1731320672493,9i,6.790167628071913,1.8s : 0.4s,0.707922848717601,1.2848249807109784,5.572073621858247,1.967040997304528,3.7791664600372314,-1.9411331415176392,-6.313290596008301,1.5283498764038086,1.0610477924346924,0.6384156346321106,0.008649216058258604,-1.0465027965333362,-0.7609283205031322,-0.8656454086303711,-0.008649108000099659,-0.5005828142166138, 225, 154, 0, 184
1731320672503,9i,6.790167628071913,1.8s : 0.4s,0.707922848717601,1.321725028745171,5.331818149827949,1.856398895925595,3.317481756210327,-2.058163642883301,-6.012807846069336,1.4616286754608154,1.0081124305725098,0.5418189764022827,0.079607647469343,-1.0665088626435475,-0.760104878852884,-0.8727462291717529,-0.07952359318733215,-0.48165348172187805, 225, 154, 0, 184
1731320672513,9i,6.790167628071913,1.8s : 0.4s,0.707922848717601,1.3571898505196809,5.079040252547041,1.784563325816741,2.9304094314575195,-2.1579103469848633,-5.682140350341797,1.3975558280944824,0.9838103652000427,0.5134404897689819,0.14574858587749492,-1.087515375577659,-0.7601994777522955,-0.8760868310928345,-0.1452331244945526,-0.45976001024246216, 225, 154, 0, 184
1731320672523,9i,6.790167628071913,1.8s : 0.4s,0.707922848717601,1.391387241142981,4.82362581280517,1.7241669855971544,2.5930862426757812,-2.2475008964538574,-5.3501787185668945,1.3582408428192139,0.9341890215873718,0.5051974654197693,0.2073388901647766,-1.1093832689263428,-0.7604470337413833,-0.8762462735176086,-0.20585651695728302,-0.4356783330440521, 225, 154, 0, 184
1731320672533,9i,6.790167628071913,1.8s : 0.4s,0.707922848717601,1.4243492038292287,4.555025300485674,1.6774985304451264,2.1602728366851807,-2.3309707641601562,-4.993307590484619,1.3501970767974854,0.8615668416023254,0.49866998195648193,0.2641172284461674,-1.1319415092383966,-0.7614022667592454,-0.8738481998443604,-0.26105719804763794,-0.4101688861846924, 225, 154, 0, 184
1731320672543,9i,6.790167628071913,1.8s : 0.4s,0.707922848717601,1.4559302623657173,4.282366611769987,1.6299396674813604,1.7072917222976685,-2.39569091796875,-4.660675048828125,1.3596665859222412,0.7650171518325806,0.47197335958480835,0.3159956920273957,-1.1549001401711598,-0.7637554103063515,-0.869462788105011,-0.31076303124427795,-0.3840063214302063, 225, 154, 0, 184
1731320672553,9i,6.790167628071913,1.8s : 0.4s,0.707922848717601,1.4855872570159985,4.031314023379132,1.5343987501060996,1.4142189025878906,-2.4232587814331055,-4.38648796081543,1.3428654670715332,0.6066372394561768,0.4278821349143982,0.36352291139210363,-1.1776892987143375,-0.7675349716221505,-0.8633580803871155,-0.35556912422180176,-0.35802730917930603, 225, 154, 0, 184
1731320672563,9i,6.790167628071913,1.8s : 0.4s,0.707922848717601,1.5127837887034257,3.7569845296808526,1.4132550247711815,1.0802448987960815,-2.2940382957458496,-3.967440605163574,1.2951366901397705,0.46157097816467285,0.326898992061615,0.4069117365756649,-1.199746658722997,-0.7715332142599086,-0.8558514714241028,-0.39577510952949524,-0.3329871892929077, 225, 154, 0, 184
1731320672573,9i,6.790167628071913,1.8s : 0.4s,0.707922848717601,1.5376168884398858,3.4798638185487403,1.355370821549117,0.8708374500274658,-2.208435297012329,-3.5555853843688965,1.277992606163025,0.3786294162273407,0.24577373266220093,0.44546279445675036,-1.2201861769664992,-0.7761370601397108,-0.8475116491317749,-0.4308755695819855,-0.309952050447464, 225, 154, 0, 184
1731320672583,9i,6.790167628071913,1.8s : 0.4s,0.707922848717601,1.5602403694736093,3.1979688295886985,1.3590388592582907,0.828904926776886,-2.1276204586029053,-3.067183494567871,1.317948341369629,0.2867177128791809,0.1667085587978363,0.4796245300101177,-1.2404132581783927,-0.7794980753689744,-0.8391885757446289,-0.4614461064338684,-0.28780218958854675, 225, 154, 0, 184
1731320672593,9i,6.790167628071913,1.8s : 0.4s,0.707922848717601,1.5805253149592529,2.920869906955515,1.3993950050629969,0.6440553665161133,-2.0604796409606934,-2.6684165000915527,1.390073537826538,0.15188440680503845,0.054157793521881104,0.5089637703874481,-1.2601360301182145,-0.7818218481230927,-0.8314492106437683,-0.48727262020111084,-0.26694151759147644, 225, 154, 0, 184
1731320672603,9i,6.790167628071913,1.8s : 0.4s,0.707922848717601,1.6003544176755864,2.6513788538232776,1.4396492918104373,0.5820279717445374,-1.9770981073379517,-2.2569797039031982,1.4389679431915283,0.04428553581237793,-0.0003649592399597168,0.5342260396710642,-1.2796840184983993,-0.7832456349934023,-0.8244507908821106,-0.5091750621795654,-0.24702569842338562, 225, 154, 0, 184
1731320672613,9i,6.790167628071913,1.8s : 0.4s,0.707922848717601,1.619518304907278,2.392046078022818,1.4252912641159803,0.40580469369888306,-1.8437378406524658,-1.9375327825546265,1.4210236072540283,-0.11000394821166992,-0.0067990124225616455,0.5557548250553578,-1.2980616703359291,-0.7847294842693477,-0.8181031346321106,-0.5275846719741821,-0.22882713377475739, 225, 154, 0, 184
1731320672623,9i,6.790167628071913,1.8s : 0.4s,0.707922848717601,1.6374470062405975,2.161953523800313,1.3862499237176296,0.30151453614234924,-1.7375959157943726,-1.7129288911819458,1.3692898750305176,-0.20593559741973877,0.06576183438301086,0.5741829800947977,-1.3152028156475437,-0.7861930279412185,-0.8123595714569092,-0.5431489944458008,-0.2122766375541687, 225, 154, 0, 184
1731320672633,9i,6.790167628071913,1.8s : 0.4s,0.707922848717601,1.6526843517810337,1.9661657237651526,1.3366062189140004,0.022193994373083115,-1.8876405954360962,-1.3962126970291138,1.3020259141921997,-0.27266716957092285,0.12998968362808228,0.5896843802330018,-1.3311591969491254,-0.7881995509064013,-0.8073665499687195,-0.5560987591743469,-0.1972655951976776, 225, 154, 0, 184
1731320672643,9i,6.790167628071913,1.8s : 0.4s,0.707922848717601,1.6660606696130236,1.7260090240065713,1.2751959389685978,0.20609430968761444,-1.2611953020095825,-1.1860003471374512,1.2286615371704102,-0.2872554659843445,0.1843903660774231,0.6030355138614643,-1.344509995205193,-0.7910691580922501,-0.8026208877563477,-0.5671451687812805,-0.18478700518608093, 225, 154, 0, 184
1731320672653,9i,6.790167628071913,1.8s : 0.4s,0.707922848717601,1.6773783154309447,1.4728518037715732,1.1821057100584853,0.15356120467185974,-0.9849606156349182,-0.8665915727615356,1.125838279724121,-0.3479192852973938,0.09388422966003418,0.6133422545173768,-1.35598055720703,-0.7912106740940995,-0.7989339828491211,-0.575603723526001,-0.17431318759918213, 225, 154, 0, 184
1731320672663,9i,6.790167628071913,1.8s : 0.4s,0.707922848717601,1.6874676775539008,1.2243153027956477,1.079530425242584,0.06806068867444992,-0.7865839004516602,-0.5724978446960449,1.0368094444274902,-0.28245091438293457,0.10311932861804962,0.6206108358169985,-1.3644776779842689,-0.7918149380385542,-0.796269953250885,-0.5815321803092957,-0.16665679216384888, 225, 154, 0, 184
1731320672673,9i,6.790167628071913,1.8s : 0.4s,0.707922848717601,1.6972905024004903,0.9695194097397251,1.017134455891226,0.009947847574949265,-0.5260494351387024,-0.26188743114471436,0.9689724445343018,-0.2116643786430359,0.22550630569458008,0.6247259099305362,-1.3707396585664566,-0.7922160825066215,-0.794946014881134,-0.5848749876022339,-0.1611904352903366, 225, 154, 0, 184
1731320672683,9i,6.790167628071913,1.8s : 0.4s,0.707922848717601,1.706331018581532,0.7175228593345476,0.9641650428520637,-0.14297246932983398,-0.2404738813638687,-0.0410224050283432,0.889014720916748,-0.2931366562843323,0.23095011711120605,0.6260176348267104,-1.373935376298972,-0.7932820907569117,-0.794715404510498,-0.5859222412109375,-0.1585012674331665, 225, 154, 0, 184
1731320672693,9i,6.790167628071913,1.8s : 0.4s,0.707922848717601,1.7144894841570848,0.467465150264344,0.8754396582728344,-0.28752678632736206,0.05638016387820244,0.19867219030857086,0.7662635445594788,-0.3191947340965271,0.2781177759170532,0.624836624376945,-1.3734496307757191,-0.7956075480602496,-0.7953162789344788,-0.5849647521972656,-0.15902283787727356, 225, 154, 0, 184
1731320672703,9i,6.790167628071913,1.8s : 0.4s,0.707922848717601,1.7218546159644017,0.26185122874537775,0.7921893835264093,-0.4651758670806885,0.3646565079689026,0.43437710404396057,0.6591137647628784,-0.31133002042770386,0.31017202138900757,0.6209931466403831,-1.369163998991037,-0.7992737854383438,-0.7968242764472961,-0.5818431973457336,-0.1628788411617279, 225, 154, 0, 184
1731320672713,9i,6.790167628071913,1.8s : 0.4s,0.707922848717601,1.7286214859131368,0.20718278374385624,0.7273237816552356,-0.6525036096572876,0.6647300720214844,0.6919823288917542,0.5883334875106812,-0.2844741940498352,0.3192773461341858,0.6143677059981189,-1.3609353949682488,-0.804507802180353,-0.7992100119590759,-0.5764419436454773,-0.17022939026355743, 225, 154, 0, 184
1731320672723,9i,6.790167628071913,1.8s : 0.4s,0.707922848717601,1.7349173771111113,0.42732736268024424,0.6866491545229059,-0.8521708846092224,0.9448360204696655,0.955812931060791,0.5445729494094849,-0.2702324390411377,0.3192206025123596,0.6047154288720707,-1.3489755679031972,-0.8112043533661554,-0.8025075793266296,-0.5685279965400696,-0.18099114298820496, 225, 154, 0, 184
1731320672733,9i,6.790167628071913,1.8s : 0.4s,0.707922848717601,1.7408112799231197,0.6974178545003165,0.676984073640128,-1.039925456047058,1.2079845666885376,1.2300158739089966,0.5323566198348999,-0.277604341506958,0.3127933740615845,0.5919523381608338,-1.3336026012387958,-0.8192966581483091,-0.8066181540489197,-0.5579822659492493,-0.19499541819095612, 225, 154, 0, 184
1731320672743,9i,6.790167628071913,1.8s : 0.4s,0.707922848717601,1.746369084295893,0.9694827257687402,0.6761226000520404,-1.177044153213501,1.4548665285110474,1.5095255374908447,0.5445857644081116,-0.2845943570137024,0.2820889353752136,0.5759834408774431,-1.315439021388048,-0.8281537855246729,-0.8114620447158813,-0.5446598529815674,-0.21183735132217407, 225, 154, 0, 184
1731320672753,9i,6.790167628071913,1.8s : 0.4s,0.707922848717601,1.751794828994496,1.2299419516587267,0.6943655789182979,-1.2006139755249023,1.6916345357894897,1.8087317943572998,0.5837211012840271,-0.2795920968055725,0.2514786124229431,0.5569023190432906,-1.2951267233748724,-0.8366429246028192,-0.8168448805809021,-0.528559148311615,-0.23106227815151215, 225, 154, 0, 184
1731320672763,9i,6.790167628071913,1.8s : 0.4s,0.707922848717601,1.7573587727486848,1.4737693230235425,0.7211844598572245,-1.1819387674331665,1.8918360471725464,2.0931620597839355,0.6384487748146057,-0.2557218074798584,0.21701738238334656,0.5348416643681697,-1.2736192700080955,-0.8435650491159873,-0.8226376175880432,-0.5097048282623291,-0.251929372549057, 225, 154, 0, 184
1731320672773,9i,6.790167628071913,1.8s : 0.4s,0.707922848717601,1.7633239637874043,1.6994259430358716,0.7610911777835243,-1.115781545639038,2.0467827320098877,2.385468006134033,0.6999272108078003,-0.22365501523017883,0.198343425989151,0.5100762207819189,-1.2515811070612195,-0.8482952874321155,-0.8286197781562805,-0.4882437586784363,-0.27387431263923645, 225, 154, 0, 184
1731320672783,9i,6.790167628071913,1.8s : 0.4s,0.707922848717601,1.7698983472420287,1.9250353345823639,0.8160245870770327,-1.1587239503860474,2.1925947666168213,2.700399875640869,0.759458601474762,-0.22256508469581604,0.19895613193511963,0.4824239958498944,-1.2290844720796348,-0.851102572643484,-0.834653913974762,-0.46392789483070374,-0.29685643315315247, 225, 154, 0, 184
1731320672793,9i,6.790167628071913,1.8s : 0.4s,0.707922848717601,1.7772278300393474,2.15419929061617,0.8894005485297368,-1.2546030282974243,2.3045384883880615,3.0409932136535645,0.8326476216316223,-0.2290908694267273,0.21271729469299316,0.45139683422172655,-1.2059110023696005,-0.8526020264591716,-0.8405975699424744,-0.4362228810787201,-0.3211003839969635, 225, 154, 0, 184
1731320672803,9i,6.790167628071913,1.8s : 0.4s,0.707922848717601,1.785529448958023,2.388190628542211,0.981507961082954,-1.4004254341125488,2.398984909057617,3.386479377746582,0.9251896739006042,-0.2323904037475586,0.23103386163711548,0.41671157249547763,-1.182181674596358,-0.853167374383982,-0.846240758895874,-0.4047556221485138,-0.3464817702770233, 225, 154, 0, 184
1731320672813,9i,6.790167628071913,1.8s : 0.4s,0.707922848717601,1.7950148321150117,2.6260330254381548,1.067750336117383,-1.5555020570755005,2.4876577854156494,3.7324321269989014,1.0115463733673096,-0.22577282786369324,0.2566930949687958,0.3782443041542383,-1.1579136923165587,-0.8528820237183793,-0.8512221574783325,-0.36928945779800415,-0.3728886842727661, 225, 154, 0, 184
1731320672823,9i,6.790167628071913,1.8s : 0.4s,0.707922848717601,1.8058983931068164,2.8640596238157983,1.1489783173031765,-1.534300684928894,2.601851463317871,4.115478992462158,1.094846487045288,-0.20485380291938782,0.2819525897502899,0.33615523083170973,-1.1332595403279913,-0.8508499128433559,-0.8551004528999329,-0.32985997200012207,-0.39999449253082275, 225, 154, 0, 184
1731320672833,9i,6.790167628071913,1.8s : 0.4s,0.707922848717601,1.8183437910565852,3.0887191104584217,1.2275717596094313,-1.3440457582473755,2.6898207664489746,4.487633228302002,1.1797683238983154,-0.17373588681221008,0.29136741161346436,0.29124035966936473,-1.1086675928947218,-0.8448349983531931,-0.8574111461639404,-0.2871405780315399,-0.4270789325237274, 225, 154, 0, 184
1731320672843,9i,6.790167628071913,1.8s : 0.4s,0.707922848717601,1.8325971590722199,3.299180848827789,1.3022621341286005,-1.2533941268920898,2.7642784118652344,4.7842512130737305,1.2625027894973755,-0.11206109821796417,0.2990245521068573,0.24416323851955155,-1.084077556645106,-0.8348275416204213,-0.8576565980911255,-0.24174447357654572,-0.45385536551475525, 225, 154, 0, 184
1731320672853,9i,6.790167628071913,1.8s : 0.4s,0.707922848717601,1.8489025655992124,3.5131355560852366,1.3696390747566276,-1.2598570585250854,2.8707563877105713,5.105897903442383,1.3327804803848267,-0.02817346155643463,0.3143463730812073,0.19490581716593103,-1.058788963649403,-0.821881704474131,-0.8552567958831787,-0.19367413222789764,-0.48065185546875, 225, 154, 0, 184
1731320672863,9i,6.790167628071913,1.8s : 0.4s,0.707922848717601,1.8671681371917428,3.73773046358007,1.43417422287984,-1.2982593774795532,3.021609306335449,5.441746711730957,1.3967759609222412,0.005250304937362671,0.32533836364746094,0.1429745057635757,-1.0320225210307017,-0.8063255444294335,-0.8495805263519287,-0.14248789846897125,-0.5078486800193787, 225, 154, 0, 184
1731320672873,9i,6.790167628071913,1.8s : 0.4s,0.707922848717601,1.8871917265039757,3.9656455652232627,1.5022029024925851,-1.4456018209457397,3.186861276626587,5.717984676361084,1.456694483757019,-0.01120959222316742,0.3667820692062378,0.08842343623750905,-1.003118789141886,-0.7886296148649096,-0.8398579955101013,-0.08830825239419937,-0.535574734210968, 225, 154, 0, 184
1731320672883,9i,6.790167628071913,1.8s : 0.4s,0.707922848717601,1.9089220556953501,4.192115369609239,1.5739459236707805,-1.5931826829910278,3.3459055423736572,5.979398250579834,1.5082499980926514,-0.02945421263575554,0.4490213394165039,0.031296146835242754,-0.9716882260630277,-0.7692385597551609,-0.8254345059394836,-0.031291037797927856,-0.5636300444602966, 225, 154, 0, 184
1731320672893,9i,6.790167628071913,1.8s : 0.4s,0.707922848717601,1.9323142435157605,4.418123684070322,1.6595771477102486,-1.7882118225097656,3.5270633697509766,6.219262599945068,1.5791971683502197,-0.05455639585852623,0.5073028802871704,-0.02810132852066743,-0.9374172356641436,-0.7479005283858742,-0.8057138919830322,0.02809762954711914,-0.5916381478309631, 225, 154, 0, 184
1731320672903,9i,6.790167628071913,1.8s : 0.4s,0.707922848717601,1.957451817845987,4.647999958699818,1.7505329086859356,-2.027836322784424,3.691506862640381,6.479182720184326,1.680772304534912,-0.03083822876214981,0.48828160762786865,-0.0900265373284759,-0.8999968587813102,-0.7247893109132043,-0.7801527976989746,0.08990497887134552,-0.6190951466560364, 225, 154, 0, 184
1731320672913,9i,6.790167628071913,1.8s : 0.4s,0.707922848717601,1.984750685151773,4.880463592988475,1.854496360329451,-2.181328296661377,3.819868326187134,6.7812418937683105,1.7903428077697754,0.060987651348114014,0.47969770431518555,-0.15440788161763752,-0.8592861205891649,-0.6988259504140615,-0.7483659386634827,0.1537950485944748,-0.6452096700668335, 225, 154, 0, 184
1731320672923,9i,6.790167628071913,1.8s : 0.4s,0.707922848717601,2.0145403981969667,5.130062399250308,1.9671546949582464,-2.3608109951019287,3.999417304992676,7.136236190795898,1.900660514831543,0.1537514477968216,0.48326772451400757,-0.22113917339230413,-0.8147002343769424,-0.6688954238337393,-0.7098035216331482,0.2193412035703659,-0.6693790555000305, 225, 154, 0, 184
1731320672933,9i,6.790167628071913,1.8s : 0.4s,0.707922848717601,2.0472253254698454,5.4099976476357075,2.0845539449007737,-2.5013225078582764,4.195559501647949,7.602095127105713,1.9982212781906128,0.27584704756736755,0.5257235765457153,-0.29039689199331653,-0.764660721376676,-0.6335238924398782,-0.6633061766624451,0.28633251786231995,-0.6914033889770508, 225, 154, 0, 184
1731320672943,9i,6.790167628071913,1.8s : 0.4s,0.707922848717601,2.083107545976971,5.696974516023776,2.202209547010684,-2.4815471172332764,4.3043718338012695,8.083694458007812,2.0800068378448486,0.39844995737075806,0.6037682294845581,-0.3616233951177303,-0.7082724312159125,-0.5901990196613387,-0.6084492802619934,0.35379308462142944,-0.7103660702705383, 225, 154, 0, 184
1731320672953,9i,6.790167628071913,1.8s : 0.4s,0.707922848717601,2.1220832226127877,5.933217796313852,2.312612351339478,-2.5128016471862793,4.393177032470703,8.231968879699707,2.150956630706787,0.4082176983356476,0.7449293732643127,-0.43194815995647107,-0.6446380038187464,-0.538216503805094,-0.5457167625427246,0.4186408221721649,-0.7259016036987305, 225, 154, 0, 184
1731320672963,9i,6.790167628071913,1.8s : 0.4s,0.707922848717601,2.1638288321487864,6.178958337388105,2.4085181461577503,-2.9586689472198486,4.644537448883057,8.425444602966309,2.236586570739746,0.4028717875480652,0.7977057695388794,-0.5017528110414553,-0.5731394457399291,-0.47978724755712704,-0.47543248534202576,0.4809630513191223,-0.7366400957107544, 225, 154, 0, 184
1731320672972,9i,6.790167628071913,1.8s : 0.4s,0.707922848717601,2.208992908671943,6.474697969036948,2.5789532861303264,-3.4638333320617676,4.90841817855835,8.838286399841309,2.3728506565093994,0.5837685465812683,0.8244962692260742,-0.5730990282798495,-0.490826652333232,-0.4127232267588772,-0.39604419469833374,0.5422385334968567,-0.7410306930541992, 225, 154, 0, 184
1731320672982,9i,6.790167628071913,1.8s : 0.4s,0.707922848717601,2.2587641824558156,6.838637165013277,2.8571116001438064,-3.9621129035949707,5.047792911529541,9.506375312805176,2.5783727169036865,0.8458898067474365,0.8941763043403625,-0.6460817143872377,-0.39465461582316136,-0.33205179778634747,-0.306995153427124,0.602062463760376,-0.7370717525482178, 225, 154, 0, 184
1731320672992,9i,6.790167628071913,1.8s : 0.4s,0.707922848717601,2.3143566292743474,7.24499135757153,3.2159314386584605,-4.158737659454346,5.189876079559326,10.247454643249512,2.8544704914093018,1.1139068603515625,0.9764347076416016,-0.7168091008049691,-0.2786187664086844,-0.22959726367643266,-0.20734521746635437,0.6569823622703552,-0.7248325347900391, 225, 154, 0, 184
1731320673002,9i,6.790167628071913,1.8s : 0.4s,0.707922848717601,2.376270580372762,7.671455190137573,3.5485729834559674,-4.920687198638916,5.184554100036621,10.784406661987305,3.13399076461792,1.2684377431869507,1.0777466297149658,-0.782719808022062,-0.13955143880334583,-0.10216669517886423,-0.09862088412046432,0.7052103877067566,-0.7021056413650513, 225, 154, 0, 184
1731320673012,9i,6.790167628071913,1.8s : 0.4s,0.707922848717601,2.4444420593167298,8.120700738024748,3.7954666461813824,-6.393355369567871,5.004390716552734,11.105299949645996,3.2845075130462646,1.367719292640686,1.321711540222168,-0.8450486127466608,0.023717488312358623,0.05175048737420634,0.015739701688289642,0.748003363609314,-0.6635082960128784, 225, 154, 0, 184
1731320673022,9i,6.790167628071913,1.8s : 0.4s,0.707922848717601,2.518059782104835,8.617517963335981,3.950445277258504,-8.285560607910156,4.739392280578613,11.28266429901123,3.3785500526428223,1.353234052658081,1.5362861156463623,-0.904414714984429,0.21627528601556448,0.2385289832448893,0.13264988362789154,0.7860634922981262,-0.6037452220916748, 225, 154, 0, 184
1731320673032,9i,6.790167628071913,1.8s : 0.4s,0.707922848717601,2.5964762501303222,9.165078246850177,4.15736469461098,-10.706588745117188,4.181766986846924,11.082117080688477,3.6683509349823,1.2333347797393799,1.5184755325317383,-0.9575467969470729,0.4447951610297773,0.46687751006542855,0.24763408303260803,0.8177821636199951,-0.519528329372406, 225, 154, 0, 184
1731320673042,9i,6.790167628071913,1.8s : 0.4s,0.707922848717601,2.680714267497967,9.90715626819995,4.584762375343606,-13.681586265563965,3.221135377883911,11.160833358764648,4.142453193664551,1.2199182510375977,1.540106177330017,-0.9987527346946694,0.7194945517433525,0.7524853602006127,0.35675308108329773,0.8407964110374451,-0.40717148780822754, 225, 154, 0, 184
1731320673052,9i,6.790167628071913,1.8s : 0.4s,0.707922848717601,2.7730012824923063,10.77726063777649,5.176616309871167,-16.010478973388672,1.7421427965164185,11.366878509521484,4.673009872436523,1.438568353652954,1.700251817703247,-1.0065385018002642,1.0383206961043265,1.099456292752371,0.4607488512992859,0.8449857234954834,-0.2714950442314148, 225, 154, 0, 184
1731320673062,9i,6.790167628071913,1.8s : 0.4s,0.707922848717601,2.8745998944267552,11.843464531725411,5.735043098541043,-19.066041946411133,0.067021444439888,11.146445274353027,5.219708442687988,1.7186646461486816,1.6405959129333496,-0.9639235007056841,1.355846552529152,1.467751550844589,0.5571772456169128,0.8214354515075684,-0.12164437770843506, 225, 154, 0, 184
1731320673072,9i,6.790167628071913,1.8s : 0.4s,0.707922848717601,2.9865355580518105,13.229554538751993,6.211625431691391,-23.0374698638916,-1.7235958576202393,10.495771408081055,5.486128330230713,2.1417908668518066,1.9746944904327393,-0.8701547443823326,1.6333063275615392,1.826632884319859,0.6434491872787476,0.7644287347793579,0.0402744822204113, 225, 154, 0, 184
1731320673082,9i,6.790167628071913,1.8s : 0.4s,0.707922848717601,3.1088023548973918,14.805777138323856,6.652874374569107,-27.480422973632812,-4.24449348449707,7.535978317260742,5.350656032562256,2.1610822677612305,3.3107311725616455,-0.7355497914409602,1.8459630901155384,2.1629173864417996,0.7135683298110962,0.6709948778152466,0.2014607936143875, 225, 154, 0, 184
1731320673092,9i,6.790167628071913,1.8s : 0.4s,0.707922848717601,3.23923446084551,16.44394423560913,7.483138394334568,-31.273784637451172,-6.308157920837402,2.2980165481567383,4.859222888946533,1.320876121520996,5.53539514541626,-0.585679521017597,1.9957567670804817,2.4928095436071023,0.7592155933380127,0.5527657866477966,0.3435720205307007, 225, 154, 0, 184
1731320673102,9i,6.790167628071913,1.8s : 0.4s,0.707922848717601,3.3805824705516465,17.305142558250516,9.391688310437107,-29.079545974731445,-9.635292053222656,-1.9469515085220337,4.328869819641113,1.280166506767273,8.23564624786377,-0.4466831603939572,2.0725279673083152,2.8073243703631934,0.7907286882400513,0.4319764971733093,0.43375664949417114, 225, 154, 0, 184
1731320673112,9i,6.790167628071913,1.8s : 0.4s,0.707922848717601,3.541894347245842,16.409991509311602,11.867425320766777,-20.081653594970703,-10.30715560913086,-1.8809714317321777,3.7055182456970215,3.511305809020996,10.713339805603027,-0.3458758114645445,2.0638537266722734,3.053307566825232,0.8287227749824524,0.3390207588672638,0.44529080390930176, 225, 154, 0, 184
1731320673122,9i,6.790167628071913,1.8s : 0.4s,0.707922848717601,3.719080401406655,14.51190590082698,11.717849512034041,-13.614418029785156,-7.5013837814331055,-0.9091019034385681,2.727405548095703,6.4545488357543945,9.391914367675781,-0.2823577139070105,2.0252016254813925,-3.0690684057102966,0.8629418015480042,0.27862077951431274,0.421546995639801, 225, 154, 0, 184
1731320673132,9i,6.790167628071913,1.8s : 0.4s,0.707922848717601,3.886218848811477,13.179871752224447,7.7405809392678755,-13.322419166564941,-7.801606178283691,-3.5476906299591064,1.5528326034545898,5.772681713104248,4.917463779449463,-0.2446751583579961,1.984243931137294,-2.9356496364476934,0.8884667158126831,0.24224117398262024,0.3898025453090668, 225, 154, 0, 184
1731320673142,9i,6.790167628071913,1.8s : 0.4s,0.707922848717601,4.02542702311285,12.268213116007464,3.9027394571321192,-12.860116958618164,-7.576972961425781,-6.729912757873535,1.0266125202178955,1.3479464054107666,3.5157477855682373,-0.24284286985188872,1.942153852302189,-2.7887666963100024,0.9044939875602722,0.2404630482196808,0.35223323106765747, 225, 154, 0, 184
1731320673152,9i,6.790167628071913,1.8s : 0.4s,0.707922848717601,4.142797668023905,11.491553236533576,4.311922896804098,-10.884847640991211,-7.869207382202148,-8.387961387634277,0.7098576426506042,0.32768571376800537,4.240448474884033,-0.2733148802576853,1.9016129589191506,-2.645816640803899,0.9106716513633728,0.26992475986480713,0.3127588629722595, 225, 154, 0, 184
1731320673162,9i,6.790167628071913,1.8s : 0.4s,0.707922848717601,4.248199636604099,10.972860329133635,4.59940245485547,-9.3089599609375,-8.266071319580078,-10.10107135772705,0.18018579483032227,2.7521772384643555,3.6807005405426025,-0.3304326472770785,1.8587474631267158,-2.5160105620775317,0.90695720911026,0.32445231080055237,0.2686251699924469, 225, 154, 0, 184
1731320673172,9i,6.790167628071913,1.8s : 0.4s,0.707922848717601,4.341984943910326,10.611862838917483,3.7121123526696214,-7.547978401184082,-8.087508201599121,-11.583954811096191,0.3674030900001526,2.6698226928710938,2.5528101921081543,-0.41240097116294205,1.8198600964175125,-2.398353490070554,0.8878917694091797,0.4008101522922516,0.22583073377609253, 225, 154, 0, 184
1731320673182,9i,6.790167628071913,1.8s : 0.4s,0.707922848717601,4.423024776157708,10.427565823503784,2.624336012890144,-5.673712730407715,-7.850953578948975,-13.212360382080078,0.5368239879608154,1.8353967666625977,1.797297477722168,-0.5144333198131736,1.7836087863044034,-2.2959149949211346,0.8509324193000793,0.49204158782958984,0.1838732659816742, 225, 154, 0, 184
1731320673192,9i,6.790167628071913,1.8s : 0.4s,0.707922848717601,4.496365928963211,10.214299739030842,2.851742267586632,-3.8388051986694336,-7.1730804443359375,-13.198007583618164,0.6647937893867493,2.230940341949463,1.6472365856170654,-0.6294886162348792,1.7486416694142106,-2.2119906101582574,0.7955793738365173,0.5887314677238464,0.14300093054771423, 225, 154, 0, 184
1731320673202,9i,6.790167628071913,1.8s : 0.4s,0.707922848717601,4.567496797595889,9.727263224211914,2.952285922811369,-1.8887180089950562,-6.652990341186523,-12.003925323486328,1.7226223945617676,1.339972972869873,1.9882245063781738,-0.7451862307980507,1.7150417242804692,-2.1498954451235046,0.727328896522522,0.6781086921691895,0.10564758628606796, 225, 154, 0, 184
1731320673212,9i,6.790167628071913,1.8s : 0.4s,0.707922848717601,4.635061447403322,9.259994274087026,3.1246386385936655,0.16979096829891205,-5.985687732696533,-11.87645435333252,2.2891714572906494,-0.19905441999435425,2.11741304397583,-0.8624418498280361,1.675810193275735,-2.1158852308463456,0.6470010876655579,0.7594334483146667,0.06819495558738708, 225, 154, 0, 184
1731320673222,9i,6.790167628071913,1.8s : 0.4s,0.707922848717601,4.693706091117248,8.779143710962211,2.6067156828805844,2.3064913749694824,-5.158763885498047,-11.327661514282227,1.7311846017837524,-0.9307486414909363,1.7122130393981934,-0.9790163860278268,1.6154630789259177,-2.1217689659373065,0.5572828650474548,0.8299490809440613,0.024908583611249924, 225, 154, 0, 184
1731320673232,9i,6.790167628071913,1.8s : 0.4s,0.707922848717601,4.744943096336735,8.315980685361138,2.4907563734926166,4.218321323394775,-4.525681018829346,-10.387395858764648,1.6822668313980103,-1.0244269371032715,1.5245966911315918,-1.0871657223157865,1.5106771496163083,-2.1872897992178735,0.4641565680503845,0.885312557220459,-0.027938377112150192, 225, 154, 0, 184
1731320673242,9i,6.790167628071913,1.8s : 0.4s,0.707922848717601,4.791602433231457,7.923820419251689,2.667700218356335,5.773174285888672,-4.027884483337402,-9.366251945495605,1.7237234115600586,-1.131415605545044,1.6927199363708496,-1.1773042545667018,1.3307472236795865,-2.3386191842852035,0.37242233753204346,0.923575758934021,-0.09115734696388245, 225, 154, 0, 184
1731320673252,9i,6.790167628071913,1.8s : 0.4s,0.707922848717601,4.834203357609611,7.628245910045256,2.670848587855384,6.9830322265625,-3.676765203475952,-8.343008041381836,1.4739139080047607,-1.2649893760681152,1.833251714706421,-1.236096896859149,1.0498151466527204,-2.5977086536932883,0.28490573167800903,0.9445090889930725,-0.16349755227565765, 225, 154, 0, 184
1731320673262,9i,6.790167628071913,1.8s : 0.4s,0.707922848717601,4.872590008652987,7.416320417884887,2.43913712386781,7.9588422775268555,-3.6660802364349365,-7.15778923034668,1.193124532699585,-1.2296390533447266,1.7360390424728394,-1.2481647154604294,0.6970558774125306,-2.9315835120573612,0.2035430520772934,0.9484043121337891,-0.24310381710529327, 225, 154, 0, 184
1731320673272,9i,6.790167628071913,1.8s : 0.4s,0.707922848717601,4.907070751784218,7.34680284288326,2.109477479753772,8.840156555175781,-3.8250715732574463,-6.322966575622559,0.945351779460907,-1.0223922729492188,1.5845880508422852,-1.2105609992717767,0.37193771456841007,3.0443314954193696,0.128104105591774,0.9358139038085938,-0.3283928632736206, 225, 154, 0, 184
1731320673282,9i,6.790167628071913,1.8s : 0.4s,0.707922848717601,4.938357925449583,7.383208358495314,1.920143413064898,9.24135971069336,-3.9171156883239746,-5.912184238433838,0.6834337711334229,-0.8214095234870911,1.5953543186187744,-1.136748467245783,0.13635667208209282,2.8295595557379354,0.05716685578227043,0.9072708487510681,-0.4166434407234192, 225, 154, 0, 184
1731320673292,9i,6.790167628071913,1.8s : 0.4s,0.707922848717601,4.968346950619506,7.38466481162089,2.0723190672518963,9.101923942565918,-4.006575107574463,-5.38742208480835,0.5362683534622192,-0.6834695339202881,1.8814334869384766,-1.0469236380322267,-0.020556820548231654,2.697532680716936,-0.010282563976943493,0.8658884167671204,-0.5001316070556641, 225, 154, 0, 184
1731320673302,9i,6.790167628071913,1.8s : 0.4s,0.707922848717601,4.997969981057926,7.272687879380934,2.2016930179672154,8.616307258605957,-4.049745559692383,-4.7294230461120605,0.35743215680122375,-0.5453361868858337,2.1029272079467773,-0.9548208891457063,-0.12894090582421255,2.617030513216834,-0.07428999990224838,0.8162102699279785,-0.5729588866233826, 225, 154, 0, 184
1731320673312,9i,6.790167628071913,1.8s : 0.4s,0.707922848717601,5.0268735609682444,7.0995470602545385,2.0901072305701036,8.20160961151123,-4.0465826988220215,-4.265017509460449,0.20486266911029816,-0.40720057487487793,2.0397958755493164,-0.8645569136213785,-0.20795201556923842,2.568533713719755,-0.13398554921150208,0.7608078122138977,-0.6349955201148987, 225, 154, 0, 184
1731320673322,9i,6.790167628071913,1.8s : 0.4s,0.707922848717601,5.0542585100406665,6.906756546615486,1.7498068842526857,7.783974647521973,-4.100707530975342,-4.043054103851318,0.1584259271621704,-0.26119285821914673,1.722934603691101,-0.7772652786503049,-0.271486030564082,2.537955549745336,-0.19115598499774933,0.7013326287269592,-0.6867254972457886, 225, 154, 0, 184
1731320673332,9i,6.790167628071913,1.8s : 0.4s,0.707922848717601,5.080112900128321,6.736120375041529,1.5176735567333464,7.60028076171875,-4.154684066772461,-3.8630330562591553,0.13292628526687622,-0.08792686462402344,1.509282112121582,-0.6924017508767206,-0.3263647977644736,2.517937492734964,-0.24677205085754395,0.6383876800537109,-0.729084849357605, 225, 154, 0, 184
1731320673342,9i,6.790167628071913,1.8s : 0.4s,0.707922848717601,5.105133971802412,6.57287303295047,1.4321391200452795,7.2899489402771,-4.2196044921875,-3.8169591426849365,0.20249095559120178,0.016260266304016113,1.4176584482192993,-0.6093658097071807,-0.3760174172944418,2.50557194935408,-0.3011237382888794,0.5723475217819214,-0.7627207040786743, 225, 154, 0, 184
1731320673352,9i,6.790167628071913,1.8s : 0.4s,0.707922848717601,5.129650023839745,6.396108232439414,1.3308898420674764,6.907032489776611,-4.064534664154053,-3.919206142425537,0.24210387468338013,0.15302687883377075,1.299706220626831,-0.5295684826351493,-0.4227688231935696,2.4979046058998273,-0.35408806800842285,0.5051609873771667,-0.7870413661003113, 225, 154, 0, 184
1731320673362,9i,6.790167628071913,1.8s : 0.4s,0.707922848717601,5.153976300577992,6.195726504114362,1.2670575950128007,6.543490886688232,-4.174421310424805,-3.585024118423462,0.28091752529144287,0.3063623905181885,1.1969387531280518,-0.4537371303417805,-0.4668806889898825,2.4933909124197497,-0.404559463262558,0.4383275806903839,-0.802621066570282, 225, 154, 0, 184
1731320673372,9i,6.790167628071913,1.8s : 0.4s,0.707922848717601,5.178273782165944,5.955954340547456,1.2320779641405284,6.015523433685303,-4.342994689941406,-3.1874935626983643,0.3216647505760193,0.39278632402420044,1.1226160526275635,-0.3829052564208839,-0.5091384612090187,2.4923356243199946,-0.4521273672580719,0.37361690402030945,-0.8099328875541687, 225, 154, 0, 184
1731320673382,9i,6.790167628071913,1.8s : 0.4s,0.707922848717601,5.202875758222839,5.682176351800309,1.2479449858065288,5.408298015594482,-4.190255165100098,-3.1733474731445312,0.39748477935791016,0.40854448080062866,1.110163927078247,-0.31759289027874427,-0.5504676733910235,2.49368956034081,-0.49692627787590027,0.3122807443141937,-0.8096573352813721, 225, 154, 0, 184
1731320673392,9i,6.790167628071913,1.8s : 0.4s,0.707922848717601,5.227820218802971,5.384577557771528,1.2652864815378626,4.875515937805176,-4.062522888183594,-2.99294376373291,0.43938136100769043,0.35053253173828125,1.1335875988006592,-0.257844899498062,-0.5909494592649278,2.496174299346855,-0.5387313365936279,0.25499728322029114,-0.8029600977897644, 225, 154, 0, 184
1731320673402,9i,6.790167628071913,1.8s : 0.4s,0.707922848717601,5.252773175330788,5.088395679477249,1.2476455485343956,4.444742202758789,-3.9163992404937744,-2.8581383228302,0.43991655111312866,0.25292688608169556,1.1397898197174072,-0.20307105149745333,-0.6301454957201468,2.499556743237663,-0.5771540403366089,0.20167823135852814,-0.7913400530815125, 225, 154, 0, 184
1731320673412,9i,6.790167628071913,1.8s : 0.4s,0.707922848717601,5.277396480581066,4.821745844244586,1.176143615196713,4.268776893615723,-3.7154266834259033,-2.696991443634033,0.4973621368408203,0.17045380175113678,1.0520884990692139,-0.15178361975782037,-0.6675422085320677,2.5043074632683786,-0.611940324306488,0.15120148658752441,-0.7763164043426514, 225, 154, 0, 184
1731320673422,9i,6.790167628071913,1.8s : 0.4s,0.707922848717601,5.30166000126683,4.576752125393858,1.1224594453433434,4.107434272766113,-3.4954214096069336,-2.563997983932495,0.5619040131568909,0.1646084487438202,0.9576445817947388,-0.10279971333363383,-0.7027785219655241,2.5110432202128754,-0.6429281830787659,0.1026187464594841,-0.759020984172821, 225, 154, 0, 184
1731320673432,9i,6.790167628071913,1.8s : 0.4s,0.707922848717601,5.326083154417526,4.336736910520009,1.1593286644203853,3.8631744384765625,-3.300450563430786,-2.4246442317962646,0.6233453750610352,0.22871655225753784,0.950353741645813,-0.056423851326467885,-0.7360903319906361,2.5191014567817787,-0.6703271269798279,0.05639391764998436,-0.7399197816848755, 225, 154, 0, 184
1731320673442,9i,6.790167628071913,1.8s : 0.4s,0.707922848717601,5.35064985024314,4.085519450966237,1.199429300355428,3.516237497329712,-3.096799373626709,-2.2949717044830322,0.6496728658676147,0.24319766461849213,0.9784736633300781,-0.013409789300104391,-0.7677947196830956,2.5275686147469854,-0.6944879293441772,0.013409387320280075,-0.7193794250488281, 225, 154, 0, 184
1731320673452,9i,6.790167628071913,1.8s : 0.4s,0.707922848717601,5.375280511221928,3.8092697281563024,1.2001214735946875,3.0981409549713135,-2.8552310466766357,-2.1290600299835205,0.6521267294883728,0.13467034697532654,0.9984418749809265,0.025618567796747118,-0.7975395531588375,2.5356779202318247,-0.7154048681259155,-0.025615764781832695,-0.6982403993606567, 225, 154, 0, 184
1731320673462,9i,6.790167628071913,1.8s : 0.4s,0.707922848717601,5.399834477851802,3.5095908975360532,1.187038540444522,2.6397738456726074,-2.6323482990264893,-1.9274464845657349,0.664790153503418,-0.015617981553077698,0.9832957983016968,0.05997950620060427,-0.8252011424219815,2.5430127579993007,-0.733363151550293,-0.0599435493350029,-0.677189290523529, 225, 154, 0, 184
1731320673472,9i,6.790167628071913,1.8s : 0.4s,0.707922848717601,5.424076235624937,3.1998362525989514,1.1638876494003068,2.205906867980957,-2.394336223602295,-1.7689645290374756,0.6699663400650024,-0.134700745344162,0.942143976688385,0.08984635441838844,-0.8507104503654525,2.5491174016714733,-0.7487168908119202,-0.08972552418708801,-0.6567893624305725, 225, 154, 0, 184
1731320673482,9i,6.790167628071913,1.8s : 0.4s,0.707922848717601,5.447854760709251,2.8943157282547975,1.1538955521697474,1.8885297775268555,-2.1163506507873535,-1.6118398904800415,0.6296569108963013,-0.21781039237976074,0.942107081413269,0.1158377545027289,-0.8736966275367503,2.554032622669233,-0.7615691423416138,-0.11557886749505997,-0.637694239616394, 225, 154, 0, 184
1731320673492,9i,6.790167628071913,1.8s : 0.4s,0.707922848717601,5.471321901609827,2.59694081913047,1.1621965286060227,1.6108660697937012,-1.8423850536346436,-1.4512470960617065,0.5982933640480042,-0.24800316989421844,0.9650079011917114,0.13879456766119022,-0.8939336468976905,2.558227392795891,-0.7720451951026917,-0.13834936916828156,-0.6203271746635437, 225, 154, 0, 184
1731320673502,9i,6.790167628071913,1.8s : 0.4s,0.707922848717601,5.494550674580711,2.2954673219964237,1.1739120006970636,1.3051708936691284,-1.568246603012085,-1.2261601686477661,0.5923562049865723,-0.23222847282886505,0.9865360856056213,0.15829383530480043,-0.9114267266962095,2.561758598358571,-0.7804970741271973,-0.15763360261917114,-0.6049596071243286, 225, 154, 0, 184
1731320673512,9i,6.790167628071913,1.8s : 0.4s,0.707922848717601,5.517594393610358,1.994203716971804,1.1801515582653561,1.0181382894515991,-1.3150172233581543,-0.9825039505958557,0.5765285491943359,-0.21140317618846893,1.007810115814209,0.1741033593156985,-0.9262160631233969,2.5646598500378315,-0.7872676849365234,-0.17322511970996857,-0.591779351234436, 225, 154, 0, 184
1731320673521,9i,6.790167628071913,1.8s : 0.4s,0.707922848717601,5.540108339159967,1.6973636659594102,1.1905727341664276,0.6982872486114502,-1.0884714126586914,-0.7837697863578796,0.5576496124267578,-0.28396180272102356,1.012845516204834,0.18622898221128445,-0.9385030656562634,2.566755951382029,-0.7927265167236328,-0.18515440821647644,-0.5807775855064392, 225, 154, 0, 184
1731320673531,9i,6.790167628071913,1.8s : 0.4s,0.707922848717601,5.561748976583795,1.4009700130239828,1.2100260404001124,0.3561578094959259,-0.8392617702484131,-0.6006249785423279,0.5176271200180054,-0.35494762659072876,1.0345227718353271,0.19489843501195192,-0.9481433826552652,2.56731720432281,-0.7969545722007751,-0.19366689026355743,-0.5721509456634521, 225, 154, 0, 184
1731320673541,9i,6.790167628071913,1.8s : 0.4s,0.707922848717601,5.582680319345241,1.1091034630236538,1.2090637715697221,0.04172821342945099,-0.58038729429245,-0.4184708297252655,0.45360326766967773,-0.3459022045135498,1.0660351514816284,0.20010835756916137,-0.9549448849977336,2.5663579732330457,-0.7999930381774902,-0.1987755298614502,-0.5661267042160034, 225, 154, 0, 184
1731320673551,9i,6.790167628071913,1.8s : 0.4s,0.707922848717601,5.603495489401754,0.829891890083539,1.191016162416705,-0.24889828264713287,-0.3356291651725769,-0.2443804144859314,0.41309356689453125,-0.2863503694534302,1.0797576904296875,0.2021606687524077,-0.9589493312611571,2.563913366424354,-0.8019180297851562,-0.20078647136688232,-0.56268310546875, 225, 154, 0, 184
1731320673571,9i,6.790167628071913,1.8s : 0.4s,0.707922848717601,5.645035544046105,0.5011825563055643,1.1688068404669492,-0.8381330370903015,0.12055746465921402,0.14921164512634277,0.34758061170578003,-0.17637552320957184,1.1019023656845093,0.19637467149345697,-0.9590603702886047,2.5549608924298353,-0.8029181361198425,-0.19511497020721436,-0.5632518529891968, 225, 154, 0, 184
1731320673581,9i,6.790167628071913,1.8s : 0.4s,0.707922848717601,5.665747391167213,0.32908948917171904,1.1688115288680934,-1.1948908567428589,0.30845919251441956,0.32182204723358154,0.3252815008163452,-0.17636990547180176,1.10869562625885,0.18854526082151546,-0.9555866595334437,2.5481759705152403,-0.8021796941757202,-0.18743012845516205,-0.5669018626213074, 225, 154, 0, 184
1731320673591,9i,6.790167628071913,1.8s : 0.4s,0.707922848717601,5.6863113617629235,0.45002393670621454,1.1605906937780903,-1.5222336053848267,0.5080433487892151,0.5055783987045288,0.29208678007125854,-0.2078104466199875,1.1038436889648438,0.17727181484111307,-0.9499098731085345,2.5395133479526026,-0.8006163835525513,-0.17634479701519012,-0.5726393461227417, 225, 154, 0, 184
1731320673601,9i,6.790167628071913,1.8s : 0.4s,0.707922848717601,5.706468861441646,0.6904686817453078,1.1416509857735115,-1.761559009552002,0.691703200340271,0.697216272354126,0.263616681098938,-0.22700437903404236,1.087355613708496,0.1627357810030458,-0.9422714083370848,2.5297504971180365,-0.7982082962989807,-0.16201844811439514,-0.5801839828491211, 225, 154, 0, 184
1731320673611,9i,6.790167628071913,1.8s : 0.4s,0.707922848717601,5.725954495262524,0.9335252104838364,1.0937614833856943,-1.9444996118545532,0.8960523009300232,0.8186520934104919,0.26637524366378784,-0.18926848471164703,1.0438083410263062,0.14562678922619596,-0.9327466357816127,2.519379845480231,-0.7947565913200378,-0.14511261880397797,-0.5893253684043884, 225, 154, 0, 184
1731320673621,9i,6.790167628071913,1.8s : 0.4s,0.707922848717601,5.744928167978662,1.1598174858352948,1.0310477028657221,-2.099203586578369,1.0924724340438843,0.9353880286216736,0.2682909369468689,-0.11543413996696472,0.9888145923614502,0.1264799508770344,-0.9213126765524544,2.508651935679723,-0.7900347113609314,-0.12614299356937408,-0.5999444127082825, 225, 154, 0, 184
1731320673631,9i,6.790167628071913,1.8s : 0.4s,0.707922848717601,5.763515359303617,1.3763637907375672,0.9864280176669331,-2.274327278137207,1.290579915046692,1.061619520187378,0.2709484100341797,-0.057997092604637146,0.9467119574546814,0.1052832210935709,-0.9081136031090877,2.4976056994446694,-0.7839793562889099,-0.10508882254362106,-0.6118273138999939, 225, 154, 0, 184
1731320673641,9i,6.790167628071913,1.8s : 0.4s,0.707922848717601,5.78184892777133,1.5904755374240986,0.9650053017626358,-2.487309694290161,1.463151216506958,1.1983767747879028,0.2797870635986328,-0.026452817022800446,0.9231764078140259,0.08167017105978998,-0.8932341425645844,2.4863846938511784,-0.7765064239501953,-0.08157940953969955,-0.6248060464859009, 225, 154, 0, 184
1731320673651,9i,6.790167628071913,1.8s : 0.4s,0.707922848717601,5.800014307014526,1.7947350693150106,0.9425997762893701,-2.6905019283294678,1.60028874874115,1.2991043329238892,0.28994500637054443,0.006077226251363754,0.8968775272369385,0.055651234054607285,-0.877100139276198,2.4747303035030623,-0.7676976919174194,-0.055622514337301254,-0.6383936405181885, 225, 154, 0, 184
1731320673661,9i,6.790167628071913,1.8s : 0.4s,0.707922848717601,5.818086545541306,1.991467837747388,0.9240985830915599,-2.8896145820617676,1.7418909072875977,1.403037667274475,0.28913813829421997,0.0544322244822979,0.876010537147522,0.027320743535723235,-0.8599185913524362,2.462590231305847,-0.7575066685676575,-0.027317345142364502,-0.652255654335022, 225, 154, 0, 184
1731320673671,9i,6.790167628071913,1.8s : 0.4s,0.707922848717601,5.836076525056858,2.1563546197625674,0.9045004606743544,-2.9059011936187744,1.9162381887435913,1.5055046081542969,0.2712748050689697,0.11798947304487228,0.8547570109367371,-0.002753329038130629,-0.8415219506076789,2.4503689437066627,-0.7456552386283875,0.002753325505182147,-0.6663262248039246, 225, 154, 0, 184
1731320673681,9i,6.790167628071913,1.8s : 0.4s,0.707922848717601,5.853888894112485,2.298621581212263,0.8641058728541913,-2.9607114791870117,2.061870813369751,1.5470914840698242,0.2640821933746338,0.17562128603458405,0.803801417350769,-0.033674642304051684,-0.8218521364831555,2.4390915873474124,-0.7319929599761963,0.03366827964782715,-0.680479884147644, 225, 154, 0, 184
1731320673691,9i,6.790167628071913,1.8s : 0.4s,0.707922848717601,5.8715597877736165,2.4487071276239396,0.8412528661162111,-3.1820881366729736,2.175497531890869,1.5971931219100952,0.2686559557914734,0.24631355702877045,0.7581952214241028,-0.06612782548243241,-0.8012461751155613,2.4276725342083703,-0.7166540026664734,0.06607963889837265,-0.6942914724349976, 225, 154, 0, 184
1731320673701,9i,6.790167628071913,1.8s : 0.4s,0.707922848717601,5.889154427422377,2.6120728465990117,0.8305232791735823,-3.4560728073120117,2.3124144077301025,1.6167194843292236,0.2828155755996704,0.30304190516471863,0.7196873426437378,-0.10079999467971862,-0.7798583899988109,2.415422517758937,-0.6996093988418579,0.10062938183546066,-0.7074040174484253, 225, 154, 0, 184
1731320673711,9i,6.790167628071913,1.8s : 0.4s,0.707922848717601,5.906559511094376,2.790050836820858,0.7949702947944937,-3.773839235305786,2.366407632827759,1.7267073392868042,0.3089200258255005,0.28466933965682983,0.6749144792556763,-0.13831768370197814,-0.7581191502248833,2.4021720542515217,-0.6809903383255005,0.13787706196308136,-0.7191954851150513, 225, 154, 0, 184
1731320673721,9i,6.790167628071913,1.8s : 0.4s,0.707922848717601,5.923745423148354,2.9719603421397314,0.7684836967010563,-4.037986755371094,2.4272754192352295,1.8528789281845093,0.33640432357788086,0.2958487272262573,0.6243979930877686,-0.1791218574453417,-0.7362994816740165,2.388600132166296,-0.6608061194419861,0.17816555500030518,-0.7291037440299988, 225, 154, 0, 184
1731320673741,9i,6.790167628071913,1.8s : 0.4s,0.707922848717601,5.957253920249433,3.112037505934403,0.7327934904076047,-3.9475901126861572,2.615825891494751,1.9607645273208618,0.3179769515991211,0.39811328053474426,0.5266714096069336,-0.26545478266507433,-0.69141575234134,2.3641329634350106,-0.6152943968772888,0.26234814524650574,-0.7433614134788513, 225, 154, 0, 184
1731320673751,9i,6.790167628071913,1.8s : 0.4s,0.707922848717601,5.973173854105169,3.1935035279915334,0.6669271535303049,-3.8334429264068604,2.7005465030670166,1.8609116077423096,0.28247421979904175,0.42487913370132446,0.42950886487960815,-0.30762635432195085,-0.6676696635257642,2.354242550782201,-0.5900914072990417,0.3027972877025604,-0.7484022974967957, 225, 154, 0, 184
1731320673761,9i,6.790167628071913,1.8s : 0.4s,0.707922848717601,5.988046519898683,3.256601788095747,0.6223964984904501,-3.841386556625366,2.791910171508789,1.7927963733673096,0.26400184631347656,0.457978755235672,0.3285359740257263,-0.34903785115035363,-0.6432987479457608,2.3448298966306416,-0.5636691451072693,0.3419938385486603,-0.7518758177757263, 225, 154, 0, 184
1731320673771,9i,6.790167628071913,1.8s : 0.4s,0.707922848717601,6.0020756212698965,3.310903262149248,0.6210959649751864,-3.866684675216675,2.847783088684082,1.7906365394592285,0.2614889144897461,0.4801250994205475,0.2947263717651367,-0.3906186780617833,-0.6183898991219311,2.33598390719737,-0.5360555052757263,0.3807605504989624,-0.7534360885620117, 225, 154, 0, 184
1731320673781,9i,6.790167628071913,1.8s : 0.4s,0.707922848717601,6.015842840550873,3.363817397450374,0.6391553485740175,-3.9176297187805176,2.935967206954956,1.7513542175292969,0.2500656247138977,0.5090529918670654,0.2947062849998474,-0.4326817988924855,-0.5928094370230409,2.327745879321355,-0.5072066187858582,0.4193069636821747,-0.7529429197311401, 225, 154, 0, 184
1731320673791,9i,6.790167628071913,1.8s : 0.4s,0.707922848717601,6.029376161557276,3.406027495436904,0.6682845145207915,-3.919515371322632,3.0331430435180664,1.6616356372833252,0.2184903919696808,0.5864719152450562,0.23434340953826904,-0.4747570937146591,-0.5665178045853704,2.3197203420886554,-0.4773404598236084,0.45712241530418396,-0.7504566311836243, 225, 154, 0, 184
1731320673801,9i,6.790167628071913,1.8s : 0.4s,0.707922848717601,6.041818772197538,3.4193565423942434,0.7099882295729231,-3.8110694885253906,3.0835132598876953,1.572065830230713,0.19651085138320923,0.6733422875404358,0.10989511013031006,-0.5160887490362097,-0.539542163714625,2.3122671579641643,-0.44683125615119934,0.4934820830821991,-0.7462018728256226, 225, 154, 0, 184
1731320673811,9i,6.790167628071913,1.8s : 0.4s,0.707922848717601,6.053025767560074,3.4208988843882655,0.736535930547327,-3.8078596591949463,3.103360176086426,1.4428423643112183,0.19318938255310059,0.7106490731239319,-0.011871576309204102,-0.5564396240047048,-0.5122278241053588,2.3053361534392858,-0.4161812961101532,0.5281662940979004,-0.7401577830314636, 225, 154, 0, 184
1731320673821,9i,6.790167628071913,1.8s : 0.4s,0.707922848717601,6.063103743466697,3.450810903482543,0.7392235143379727,-4.018861770629883,3.1451985836029053,1.2736272811889648,0.17262709140777588,0.7165840268135071,-0.05620163679122925,-0.5971840427979048,-0.4854583092477034,2.2972716592133633,-0.3858533501625061,0.5623161196708679,-0.7313807010650635, 225, 154, 0, 184
1731320673831,9i,6.790167628071913,1.8s : 0.4s,0.707922848717601,6.0723919922174,3.485739292182016,0.7479475367874874,-4.091350078582764,3.213963508605957,1.154722809791565,0.1376226246356964,0.7343332171440125,-0.03521728515625,-0.638914963318017,-0.4592311569933311,2.287753184802534,-0.35582324862480164,0.5963248014450073,-0.719573974609375, 225, 154, 0, 184
1731320673841,9i,6.790167628071913,1.8s : 0.4s,0.707922848717601,6.080980255830152,3.48410703376887,0.7681612545454809,-3.9002113342285156,3.2477076053619385,1.0592535734176636,0.13415110111236572,0.7524284720420837,-0.07698434591293335,-0.6797894789389359,-0.4325871308455582,2.278512419163005,-0.32603034377098083,0.6286293268203735,-0.7060661911964417, 225, 154, 0, 184
1731320673851,9i,6.790167628071913,1.8s : 0.4s,0.707922848717601,6.088688857437799,3.4173561151925917,0.8209043449755069,-3.4951863288879395,3.2506916522979736,1.0112727880477905,0.15948361158370972,0.7790971994400024,-0.20360863208770752,-0.7178030769397983,-0.4049143894585003,2.271100092045518,-0.29673635959625244,0.6577314138412476,-0.6923416256904602, 225, 154, 0, 184
1731320673861,9i,6.790167628071913,1.8s : 0.4s,0.707922848717601,6.095271333964883,3.3093178814937745,0.9016911484040085,-3.0855185985565186,3.2558414936065674,0.9419214129447937,0.1691601276397705,0.8144250512123108,-0.3480569124221802,-0.7518360212081834,-0.3754863274757914,2.2665343170867995,-0.2678692042827606,0.682981014251709,-0.6795461773872375, 225, 154, 0, 184
1731320673891,9i,6.790167628071913,1.8s : 0.4s,0.707922848717601,6.107495282769545,3.136001644984292,0.8774076046260474,-2.55011248588562,3.189746856689453,0.6020603775978088,0.10267889499664307,0.6449071168899536,-0.5859999656677246,-0.8368607092571559,-0.28380187819306507,2.2591240615850636,-0.1875482201576233,0.7425441145896912,-0.6430038809776306, 225, 154, 0, 184
1731320673901,9i,6.790167628071913,1.8s : 0.4s,0.707922848717601,6.109692618920749,2.9785667558167215,0.8690695221545734,-2.2919881343841553,3.1524126529693604,0.5762231945991516,0.11839188635349274,0.6044041514396667,-0.6131564378738403,-0.8618684171669897,-0.25308234498934595,2.2578764874856683,-0.16300852596759796,0.759060263633728,-0.6302822232246399, 225, 154, 0, 184
1731320673911,9i,6.790167628071913,1.8s : 0.4s,0.707922848717601,6.1101221614377295,2.7982764860012574,0.9491051153013039,-1.798580288887024,3.082746744155884,0.5576066374778748,0.12879841029644012,0.6039552092552185,-0.7207285165786743,-0.8831685485699347,-0.2211192762928041,2.2589463071207505,-0.13920484483242035,0.7727538347244263,-0.6192525029182434, 225, 154, 0, 184
1731320673921,9i,6.790167628071913,1.8s : 0.4s,0.707922848717601,6.10871910999677,2.598148678230955,1.0472428072949598,-1.3007838726043701,2.977142095565796,0.42327043414115906,0.1063121110200882,0.6128865480422974,-0.8424875736236572,-0.8992825313872904,-0.18871674868294674,2.261705543917524,-0.11671856045722961,0.7828807234764099,-0.6111257076263428, 225, 154, 0, 184
1731320673931,9i,6.790167628071913,1.8s : 0.4s,0.707922848717601,6.105594347542497,2.402716748557355,1.093132864295162,-0.9421831965446472,2.854919672012329,0.2313881814479828,0.04804282635450363,0.6227837204933167,-0.8970907330513,-0.9107792987924048,-0.15805393809335064,2.263728175957804,-0.09650468826293945,0.7899817824363708,-0.6054878830909729, 225, 154, 0, 184
1731320673941,9i,6.790167628071913,1.8s : 0.4s,0.707922848717601,6.101093703113651,2.2334438422720386,1.0377762590869464,-0.7092519402503967,2.752392530441284,0.11051902174949646,0.006374269723892212,0.5670241713523865,-0.8691504597663879,-0.9191178878244988,-0.12946496856142214,2.264479628582145,-0.07830413430929184,0.7950668931007385,-0.601445734500885, 225, 154, 0, 184
1731320673951,9i,6.790167628071913,1.8s : 0.4s,0.707922848717601,6.096331789689611,2.0860915415697265,0.9634365400927478,-0.5211871266365051,2.635197639465332,0.014299575239419937,0.01527828723192215,0.4899247884750366,-0.8294276595115662,-0.9253519621292401,-0.10271538846093817,2.264307865058317,-0.061680205166339874,0.7988325357437134,-0.5983828902244568, 225, 154, 0, 184
1731320673961,9i,6.790167628071913,1.8s : 0.4s,0.707922848717601,6.091052509326019,1.9473809739661063,0.9319401243829107,-0.2154349535703659,2.517451286315918,-0.09100687503814697,0.030185289680957794,0.44729524850845337,-0.8170239925384521,-0.9290840916283732,-0.07798866374555245,2.263060761975946,-0.04663420468568802,0.8010720610618591,-0.5967484712600708, 225, 154, 0, 184
1731320673971,9i,6.790167628071913,1.8s : 0.4s,0.707922848717601,6.0853132179374905,1.8173771767333302,0.9228733764959852,0.1351194828748703,2.38631534576416,-0.17810001969337463,0.031094595789909363,0.4261268377304077,-0.8180124163627625,-0.9294996965256325,-0.05542334635958383,2.2607071212609626,-0.033139217644929886,0.8013207316398621,-0.5973165035247803, 225, 154, 0, 184
1731320673981,9i,6.790167628071913,1.8s : 0.4s,0.707922848717601,6.079377215462041,1.6990119452092973,0.9237370351905142,0.5323110222816467,2.233429431915283,-0.2471882849931717,0.019570818170905113,0.419488787651062,-0.8227613568305969,-0.9261665448212028,-0.03509006065543735,2.2573466774828836,-0.021081380546092987,0.7993223071098328,-0.6005326509475708, 225, 154, 0, 184
1731320673991,9i,6.790167628071913,1.8s : 0.4s,0.707922848717601,6.072711489761204,1.6054716918904073,0.9007566981202773,0.8844918012619019,2.084479808807373,-0.3152729272842407,-0.00885287206619978,0.3874930143356323,-0.8131011128425598,-0.9194892444287386,-0.01746429434800823,2.2526313555634103,-0.010586779564619064,0.7952920794487,-0.6061340570449829, 225, 154, 0, 184
1731320674001,9i,6.790167628071913,1.8s : 0.4s,0.707922848717601,6.065312319023761,1.5419506371743574,0.8629645841963347,1.1616607904434204,1.9357075691223145,-0.40162697434425354,-0.05568686127662659,0.33931732177734375,-0.7914989590644836,-0.909343507245344,-0.0019997423863667776,2.2468457052039406,-0.00122836884111166,0.7891006469726562,-0.6142627000808716, 225, 154, 0, 184
1731320674011,9i,6.790167628071913,1.8s : 0.4s,0.707922848717601,6.0571362593453895,1.5114777160717987,0.8363958433249038,1.3933402299880981,1.8050379753112793,-0.5069929361343384,-0.09707993268966675,0.2855514883995056,-0.7801242470741272,-0.8968149263347177,0.010739130260762788,2.239420517645756,0.006702181417495012,0.7813430428504944,-0.6240657567977905, 225, 154, 0, 184
1731320674021,9i,6.790167628071913,1.8s : 0.4s,0.707922848717601,6.048172057032986,1.5066176731519652,0.80206861098575,1.6174830198287964,1.663240671157837,-0.6618991494178772,-0.11454382538795471,0.20100563764572144,-0.7679781913757324,-0.8816962100491756,0.020585451641680567,2.2297902233865754,0.01308819092810154,0.7718185186386108,-0.6357082724571228, 225, 154, 0, 184
1731320674031,9i,6.790167628071913,1.8s : 0.4s,0.707922848717601,6.038663706590023,1.5203237329584354,0.7404214586842063,1.7407622337341309,1.5528874397277832,-0.7325270175933838,-0.119542695581913,0.13154363632202148,-0.7187696099281311,-0.8653063233175442,0.02768635837233328,2.2181523846086253,0.01794973388314247,0.7612939476966858,-0.6481584906578064, 225, 154, 0, 184
1731320674041,9i,6.790167628071913,1.8s : 0.4s,0.707922848717601,6.0290080210344845,1.570250374430807,0.7212502225982735,2.104912281036377,1.4368122816085815,-0.7151703834533691,-0.10051943361759186,0.15203404426574707,-0.6978419423103333,-0.8465016831274501,0.03352746442043955,2.2061559843762972,0.022211382165551186,0.7489669919013977,-0.6622349619865417, 225, 154, 0, 184
1731320674051,9i,6.790167628071913,1.8s : 0.4s,0.707922848717601,6.019320167922654,1.6568660886300073,0.7577487285953225,2.482842445373535,1.2906204462051392,-0.7734227776527405,-0.06153183430433273,0.15790694952011108,-0.7385542392730713,-0.8237435809666968,0.038063084519812086,2.193860729596601,0.025856835767626762,0.7336946725845337,-0.6789872050285339, 225, 154, 0, 184
